loggingTime,loggingSample,identifierForVendor,deviceID,locationTimestamp_since1970,locationLatitude,locationLongitude,locationAltitude,locationSpeed,locationCourse,locationVerticalAccuracy,locationHorizontalAccuracy,locationFloor,locationHeadingTimestamp_since1970,locationHeadingX,locationHeadingY,locationHeadingZ,locationTrueHeading,locationMagneticHeading,locationHeadingAccuracy,accelerometerTimestamp_sinceReboot,accelerometerAccelerationX,accelerometerAccelerationY,accelerometerAccelerationZ,gyroTimestamp_sinceReboot,gyroRotationX,gyroRotationY,gyroRotationZ,magnetometerTimestamp_sinceReboot,magnetometerX,magnetometerY,magnetometerZ,motionTimestamp_sinceReboot,motionYaw,motionRoll,motionPitch,motionRotationRateX,motionRotationRateY,motionRotationRateZ,motionUserAccelerationX,motionUserAccelerationY,motionUserAccelerationZ,motionAttitudeReferenceFrame,motionQuaternionX,motionQuaternionY,motionQuaternionZ,motionQuaternionW,motionGravityX,motionGravityY,motionGravityZ,motionMagneticFieldX,motionMagneticFieldY,motionMagneticFieldZ,motionMagneticFieldCalibrationAccuracy,activityTimestamp_sinceReboot,activity,activityActivityConfidence,activityActivityStartDate,pedometerStartDate,pedometerNumberofSteps,pedometerAverageActivePace,pedometerCurrentPace,pedometerCurrentCadence,pedometerDistance,pedometerFloorAscended,pedometerFloorDescended,pedometerEndDate,altimeterTimestamp_sinceReboot,altimeterReset,altimeterRelativeAltitude,altimeterPressure,IP_en0,IP_pdp_ip0,deviceOrientation,batteryState,batteryLevel,avAudioRecorderPeakPower,avAudioRecorderAveragePower,label
1561238340.015129,1,0,0,1561238337.873726,4.603142856152619,-74.0647099355964,2642.936,0.2577726,-1,32.07389068603516,245.2453037305048,-9999,1561238339.995452,9.756435394287109,17.85462188720703,5.2637939453125,104.7752380371094,112.3189239501953,15,60879.818525125,-0.454010009765625,0.881591796875,0.0408477783203125,60879.808393125,-0.004860801621612626,0.06101621636702344,0.00594923555912801,60879.806440125,47.32530212402344,18.01968383789062,-529.4224853515625,60879.81345912501,-1.546448699730061,-1.613539242124309,-1.096035812705633,-0.005297138355672359,0.05583101883530617,0.007119673304259777,0.004864722490310669,3.260374069213867e-05,0.02285599708557129,1,-0.6884203553199768,-0.1893247961997986,-0.1432236135005951,0.6853616237640381,-0.4567080140113831,0.8894022107124329,0.01953292824327946,0,0,0,-1,60879.160794875,3,2,1561238339.328981,1561238131.651496,34,2.131246,0,0,28.10168,0,0,1561238339.329133,60876.950377,0,-0.657959,74.40259,2650659446,177292352,1,1,0.45,-160,-160,1
1561238340.017552,2,0,0,1561238337.873726,4.603142856152619,-74.0647099355964,2642.936,0.2577726,-1,32.07389068603516,245.2453037305048,-9999,1561238339.995452,9.756435394287109,17.85462188720703,5.2637939453125,104.7752380371094,112.3189239501953,15,60879.838788125,-0.4498748779296875,0.8784637451171875,0.050506591796875,60879.82865612501,0.02249865120509841,0.06398643993078881,-0.001127848721648557,60879.82655112501,47.10342407226562,18.27095031738281,-529.576171875,60879.833722125,-1.546184943395203,-1.612178095297463,-1.096050051843423,0.02300320938229561,0.05404030904173851,-0.00854051299393177,0.005931258201599121,-0.01161634922027588,0.02901709079742432,1,-0.6882989406585693,-0.1889442801475525,-0.143596813082695,0.685510516166687,-0.4567216634750366,0.8894087076187134,0.01891074515879154,0,0,0,-1,60879.160794875,3,2,1561238339.328981,1561238131.651496,34,2.131246,0,0,28.10168,0,0,1561238339.329133,60876.950377,0,-0.657959,74.40259,2650659446,177292352,1,1,0.45,-160,-160,1
1561238340.020173,3,0,0,1561238337.873726,4.603142856152619,-74.0647099355964,2642.936,0.2577726,-1,32.07389068603516,245.2453037305048,-9999,1561238340.017678,9.667427062988281,17.70623016357422,5.46588134765625,104.8280792236328,112.3717651367188,15,60879.859052125,-0.4506378173828125,0.883514404296875,0.0503082275390625,60879.848920125,0.01491556631720679,0.05455858335579931,-0.009929329808251432,60879.846692125,47.09683227539062,18.2353515625,-529.422607421875,60879.853986125,-1.545593344182203,-1.610709168333184,-1.09582101519311,0.002060643164440989,0.04565348103642464,-0.01623465120792389,0.005826473236083984,-0.009634852409362793,0.03308260440826416,1,-0.6881190538406372,-0.1887224167585373,-0.1439788341522217,0.6856721043586731,-0.4569525420665741,0.8893040418624878,0.01824796572327614,0,0,0,-1,60879.160794875,3,2,1561238339.328981,1561238131.651496,34,2.131246,0,0,28.10168,0,0,1561238339.329133,60876.950377,0,-0.657959,74.40259,2650659446,177292352,1,1,0.45,-160,-160,1
1561238340.040397,4,0,0,1561238337.873726,4.603142856152619,-74.0647099355964,2642.936,0.2577726,-1,32.07389068603516,245.2453037305048,-9999,1561238340.017678,9.667427062988281,17.70623016357422,5.46588134765625,104.8280792236328,112.3717651367188,15,60879.87931612501,-0.4488677978515625,0.88726806640625,0.044830322265625,60879.869184125,-0.01101936164242086,0.04522233952230852,-0.01134213676653847,60879.866834125,47.02978515625,18.28721618652344,-529.3052978515625,60879.874250125,-1.54609932476658,-1.610360318006052,-1.095540579981423,-0.01520036906003952,0.02967851236462593,-0.01471025869250298,0.006462991237640381,-0.003174185752868652,0.02915811538696289,1,-0.6881190538406372,-0.1885241866111755,-0.1443692892789841,0.6856443881988525,-0.4572076201438904,0.8891757130622864,0.01809840276837349,0,0,0,-1,60879.160794875,3,2,1561238339.328981,1561238131.651496,34,2.131246,0,0,28.10168,0,0,1561238339.329133,60876.950377,0,-0.657959,74.40259,2650659446,177292352,1,1,0.45,-160,-160,1
1561238340.060675,5,0,0,1561238337.873726,4.603142856152619,-74.0647099355964,2642.936,0.2577726,-1,32.07389068603516,245.2453037305048,-9999,1561238340.040606,9.453433990478516,17.7011833190918,5.5296630859375,104.884033203125,112.4277191162109,15,60879.89957912501,-0.44952392578125,0.8916778564453125,0.04168701171875,60879.889447125,-0.01589880539166404,0.02410080891689008,-0.01362153634353729,60879.88694512501,47.11306762695312,18.34255981445312,-529.5130615234375,60879.894513125,-1.547029771579294,-1.610789425827982,-1.095205371839342,-0.01785074733197689,0.01591556146740913,-0.01390624977648258,0.009698271751403809,0.001740038394927979,0.02493691444396973,1,-0.6882107257843018,-0.1884655356407166,-0.144656777381897,0.6855080127716064,-0.4574979543685913,0.8890222907066345,0.01830652169883251,0,0,0,-1,60879.160794875,3,2,1561238339.328981,1561238131.651496,34,2.131246,0,0,28.10168,0,0,1561238339.329133,60876.950377,0,-0.657959,74.40259,2650659446,177292352,1,1,0.45,-160,-160,1
1561238340.08352,6,0,0,1561238337.873726,4.603142856152619,-74.0647099355964,2642.936,0.2577726,-1,32.07389068603516,245.2453037305048,-9999,1561238340.065783,9.603134155273438,17.66901779174805,5.21905517578125,104.9180679321289,112.4617538452148,15,60879.919843125,-0.446136474609375,0.891357421875,0.0420379638671875,60879.909711125,-0.0007502124790753214,0.02279106629278911,-0.002531867248338332,60879.907087125,47.07536315917969,18.05430603027344,-529.6527099609375,60879.914746125,-1.547597868813961,-1.611025269920181,-1.095041933227371,-0.001991888973861933,0.01716884225606918,-0.001384333008900285,0.009655952453613281,0.001677572727203369,0.02340412139892578,1,-0.6882681846618652,-0.1884065717458725,-0.1448268890380859,0.6854305863380432,-0.4576387405395508,0.8889474272727966,0.01842026039958,0,0,0,-1,60879.160794875,3,2,1561238339.328981,1561238131.651496,34,2.131246,0,0,28.10168,0,0,1561238339.329133,60876.950377,0,-0.657959,74.40259,2650659446,177292352,1,1,0.45,-160,-160,1
1561238340.101309,7,0,0,1561238337.873726,4.603142856152619,-74.0647099355964,2642.936,0.2577726,-1,32.07389068603516,245.2453037305048,-9999,1561238340.091281,9.294940948486328,17.78202819824219,5.15362548828125,104.942024230957,112.485710144043,15,60879.940107125,-0.4436492919921875,0.8918914794921875,0.0406036376953125,60879.929975125,0.01290061863645284,0.03120692165354851,0.0189657017029993,60879.927228125,47.10684204101562,18.28877258300781,-529.651123046875,60879.935010125,-1.547498845555731,-1.610511624853326,-1.095219906816417,0.007945696823298931,0.03079171106219292,0.02062669396400452,0.01246702671051025,0.002206385135650635,0.02353858947753906,1,-0.6882359981536865,-0.1882037669420242,-0.1449079364538193,0.6855013370513916,-0.4574895799160004,0.8890289664268494,0.01817889325320721,0,0,0,-1,60879.160794875,3,2,1561238339.328981,1561238131.651496,34,2.131246,0,0,28.10168,0,0,1561238339.329133,60876.950377,0,-0.657959,74.40259,2650659446,177292352,1,1,0.45,-160,-160,1
1561238340.121479,8,0,0,1561238337.873726,4.603142856152619,-74.0647099355964,2642.936,0.2577726,-1,32.07389068603516,245.2453037305048,-9999,1561238340.115613,9.326324462890625,17.9128532409668,5.4029541015625,104.9868392944336,112.5305252075195,15,60879.960370125,-0.4451751708984375,0.8901824951171875,0.0389251708984375,60879.95023812501,0.003023753101675967,0.04684020988453166,0.03637318785219323,60879.94733912501,46.8970947265625,17.86016845703125,-529.423095703125,60879.955274125,-1.54759790968636,-1.609848447509684,-1.095828316856897,-0.00347020966000855,0.04299325123429298,0.0384158119559288,0.01416674256324768,0.002462089061737061,0.02207791805267334,1,-0.6882461309432983,-0.1877350807189941,-0.1449596583843231,0.6856089234352112,-0.4569615423679352,0.8893073797225952,0.01785439439117908,0,0,0,-1,60879.160794875,3,2,1561238339.328981,1561238131.651496,34,2.131246,0,0,28.10168,0,0,1561238339.329133,60876.950377,0,-0.657959,74.40259,2650659446,177292352,1,1,0.45,-160,-160,1
1561238340.142685,9,0,0,1561238337.873726,4.603142856152619,-74.0647099355964,2642.936,0.2577726,-1,32.07389068603516,245.2453037305048,-9999,1561238340.115613,9.326324462890625,17.9128532409668,5.4029541015625,104.9868392944336,112.5305252075195,15,60879.980603125,-0.450653076171875,0.8878631591796875,0.0407867431640625,60879.970472125,0.007397728876022108,0.04632169242029323,0.05184855063053467,60879.967481125,46.91337585449219,17.99111938476562,-529.5721435546875,60879.97553712501,-1.547723986746562,-1.609129823758086,-1.096777794775625,0.01065519638359547,0.03698142990469933,0.0481102466583252,0.008895128965377808,-0.0007641315460205078,0.022621750831604,1,-0.6882821917533875,-0.1871214658021927,-0.1449214518070221,0.6857485175132751,-0.4561302363872528,0.8897411823272705,0.01749363727867603,0,0,0,-1,60879.160794875,3,2,1561238339.328981,1561238131.651496,34,2.131246,0,0,28.10168,0,0,1561238339.329133,60876.950377,0,-0.657959,74.40259,2650659446,177292352,1,1,0.45,-160,-160,1
1561238340.168242,10,0,0,1561238337.873726,4.603142856152619,-74.0647099355964,2642.936,0.2577726,-1,32.07389068603516,245.2453037305048,-9999,1561238340.141889,9.402976989746094,17.65506744384766,5.25830078125,105.0367965698242,112.5804824829102,15,60880.000867125,-0.453643798828125,0.885162353515625,0.044921875,60879.990735125,0.03018160463386801,0.02529656824633566,0.04127979584455522,60879.987622125,47.1483154296875,17.86247253417969,-529.735107421875,60879.99580112501,-1.546962876705687,-1.607973158778018,-1.097679627988268,0.0295037217438221,0.01339088287204504,0.03849916905164719,0.003290891647338867,-0.004715442657470703,0.02691757678985596,1,-0.6881998777389526,-0.1866789311170578,-0.1447461098432541,0.6859886050224304,-0.4553477466106415,0.8901524543762207,0.01693619042634964,0,0,0,-1,60879.160794875,3,2,1561238339.328981,1561238131.651496,34,2.131246,0,0,28.10168,0,0,1561238339.329133,60876.950377,0,-0.657959,74.40259,2650659446,177292352,1,1,0.45,-160,-160,1
1561238340.182166,11,0,0,1561238337.873726,4.603142856152619,-74.0647099355964,2642.936,0.2577726,-1,32.07389068603516,245.2453037305048,-9999,1561238340.141889,9.402976989746094,17.65506744384766,5.25830078125,105.0367965698242,112.5804824829102,15,60880.021131125,-0.4584197998046875,0.8854217529296875,0.0458526611328125,60880.01099912501,0.03011662350327007,0.008621185080804511,0.02557273805137688,60880.00773312501,47.20292663574219,18.19644165039062,-529.4639892578125,60880.016065125,-1.545969260152546,-1.60702755942553,-1.098289284732849,0.02127881348133087,0.001426897943019867,0.01758003607392311,-0.001568973064422607,-0.006091713905334473,0.02817654609680176,1,-0.6880879402160645,-0.1864885091781616,-0.1445196121931076,0.6862004995346069,-0.4548214077949524,0.8904300928115845,0.01648595556616783,0,0,0,-1,60879.160794875,3,2,1561238339.328981,1561238131.651496,34,2.131246,0,0,28.10168,0,0,1561238339.329133,60876.950377,0,-0.657959,74.40259,2650659446,177292352,1,1,0.45,-160,-160,1
1561238340.202483,12,0,0,1561238337.873726,4.603142856152619,-74.0647099355964,2642.936,0.2577726,-1,32.07389068603516,245.2453037305048,-9999,1561238340.184275,9.475570678710938,17.66780853271484,5.2587890625,105.0407409667969,112.5844268798828,15,60880.041394125,-0.4602508544921875,0.8847808837890625,0.044189453125,60880.03126312501,0.02052285199236863,0.009757555917941321,0.01337625920714099,60880.027875125,47.06198120117188,17.98081970214844,-529.59130859375,60880.036328125,-1.545299801402332,-1.606434383539747,-1.098593748495712,0.0152185233309865,0.0007991911843419075,0.008849396370351315,-0.006392538547515869,-0.00572669506072998,0.02802872657775879,1,-0.6880072951316833,-0.1864114105701447,-0.1443885564804077,0.6863299012184143,-0.4545602202415466,0.8905686140060425,0.01620650477707386,0,0,0,-1,60879.160794875,3,2,1561238339.328981,1561238131.651496,34,2.131246,0,0,28.10168,0,0,1561238339.329133,60876.950377,0,-0.657959,74.40259,2650659446,177292352,1,1,0.45,-160,-160,1
1561238340.222875,13,0,0,1561238337.873726,4.603142856152619,-74.0647099355964,2642.936,0.2577726,-1,32.07389068603516,245.2453037305048,-9999,1561238340.216949,9.561412811279297,17.78287124633789,5.18890380859375,105.0200424194336,112.5637283325195,15,60880.06165812501,-0.4578704833984375,0.8878326416015625,0.0483551025390625,60880.051526125,0.02836825824763305,0.01519067085781197,0.004201136619599998,60880.048017125,47.16976928710938,18.12899780273438,-529.8533935546875,60880.056592125,-1.544464981387497,-1.605624895808986,-1.098705203476724,0.02598275430500507,0.009866456501185894,-0.0001851115375757217,-0.005105555057525635,-0.003885269165039062,0.02948355674743652,1,-0.6878800988197327,-0.1863826960325241,-0.1443418711423874,0.6864749789237976,-0.4544739127159119,0.8906192779541016,0.01583508029580116,0,0,0,-1,60879.160794875,3,2,1561238339.328981,1561238131.651496,34,2.131246,0,0,28.10168,0,0,1561238339.329133,60876.950377,0,-0.657959,74.40259,2650659446,177292352,1,1,0.45,-160,-160,1
1561238340.243949,14,0,0,1561238337.873726,4.603142856152619,-74.0647099355964,2642.936,0.2577726,-1,32.07389068603516,245.2453037305048,-9999,1561238340.216949,9.561412811279297,17.78287124633789,5.18890380859375,105.0200424194336,112.5637283325195,15,60880.08192212501,-0.455078125,0.88751220703125,0.04986572265625,60880.071790125,0.02616928613555463,0.0148990547184483,0.009490440860606374,60880.06812812501,47.19076538085938,18.03172302246094,-529.6052856445312,60880.076856125,-1.543561406449665,-1.604661853835168,-1.098821356520457,0.01965321972966194,0.005684494040906429,0.01243108138442039,-0.001653850078582764,-0.004029631614685059,0.03351044654846191,1,-0.6877358555793762,-0.1863232105970383,-0.1443226635456085,0.686639666557312,-0.4543855488300323,0.8906720876693726,0.01539389137178659,0,0,0,-1,60879.160794875,3,2,1561238339.328981,1561238131.651496,34,2.131246,0,0,28.10168,0,0,1561238339.329133,60876.950377,0,-0.657959,74.40259,2650659446,177292352,1,1,0.45,-160,-160,1
1561238340.26342,15,0,0,1561238337.873726,4.603142856152619,-74.0647099355964,2642.936,0.2577726,-1,32.07389068603516,245.2453037305048,-9999,1561238340.243264,9.647739410400391,17.75294876098633,5.11669921875,105.016357421875,112.5600433349609,15,60880.102185125,-0.4559173583984375,0.886077880859375,0.0526123046875,60880.092054125,0.01766767698769467,0.00597107348006666,0.02996189384393647,60880.088269125,47.18388366699219,18.20223999023438,-529.7481689453125,60880.09711912501,-1.543055312919523,-1.604202380284105,-1.099260777221895,0.009846394881606102,-0.004262679256498814,0.03247616440057755,0.0009377002716064453,-0.003023922443389893,0.03736400604248047,1,-0.6876913905143738,-0.1861896216869354,-0.144154816865921,0.6867557764053345,-0.4540016353130341,0.8908718228340149,0.01517204754054546,0,0,0,-1,60879.160794875,3,2,1561238339.328981,1561238131.651496,34,2.131246,0,0,28.10168,0,0,1561238339.329133,60876.950377,0,-0.657959,74.40259,2650659446,177292352,1,1,0.45,-160,-160,1
1561238340.283621,16,0,0,1561238337.873726,4.603142856152619,-74.0647099355964,2642.936,0.2577726,-1,32.07389068603516,245.2453037305048,-9999,1561238340.267745,9.564258575439453,17.90193939208984,5.19061279296875,105.0066452026367,112.5503311157227,15,60880.122449125,-0.4619293212890625,0.87945556640625,0.0565338134765625,60880.112317125,0.01944693491197661,0.01358931209434733,0.0419682229863407,60880.10838012501,47.31201171875,17.92562866210938,-529.7073364257812,60880.11738312501,-1.542649264440002,-1.603837425135245,-1.099992459311651,0.01606887206435204,0.01284413691610098,0.03620485216379166,-0.004927158355712891,-0.009093344211578369,0.0404961109161377,1,-0.6876870393753052,-0.1859541386365891,-0.1438874006271362,0.6868799328804016,-0.4533553421497345,0.8912039399147034,0.01498481165617704,0,0,0,-1,60879.160794875,3,2,1561238339.328981,1561238131.651496,34,2.131246,0,0,28.10168,0,0,1561238339.329133,60876.950377,0,-0.657959,74.40259,2650659446,177292352,1,1,0.45,-160,-160,1
1561238340.322765,17,0,0,1561238337.873726,4.603142856152619,-74.0647099355964,2642.936,0.2577726,-1,32.07389068603516,245.2453037305048,-9999,1561238340.318251,9.478191375732422,17.78079223632812,5.2412109375,105.1043472290039,112.6480331420898,15,60880.142713125,-0.4707183837890625,0.876861572265625,0.0624542236328125,60880.13258112501,0.01702452358444054,0.04804582291001053,0.02576022459211846,60880.12852212501,47.05711364746094,18.14906311035156,-529.5104370117188,60880.137647125,-1.542224867514669,-1.602855248080299,-1.100530942274766,0.004198362119495869,0.04407475888729095,0.01761598885059357,-0.01257938146591187,-0.01447963714599609,0.04539716243743896,1,-0.6876209378242493,-0.1855788677930832,-0.1438927948474884,0.6870464086532593,-0.4528899788856506,0.8914480805397034,0.01452414039522409,0,0,0,-1,60879.160794875,3,2,1561238339.328981,1561238131.651496,34,2.131246,0,0,28.10168,0,0,1561238339.329133,60876.950377,0,-0.657959,74.40259,2650659446,177292352,1,1,0.45,-160,-160,1
1561238340.325443,18,0,0,1561238337.873726,4.603142856152619,-74.0647099355964,2642.936,0.2577726,-1,32.07389068603516,245.2453037305048,-9999,1561238340.318251,9.478191375732422,17.78079223632812,5.2412109375,105.1043472290039,112.6480331420898,15,60880.162976125,-0.4744110107421875,0.875762939453125,0.0643768310546875,60880.15284512501,-0.0169763203687101,0.08520996960595729,0.00851865337883646,60880.148664125,47.26698303222656,17.76939392089844,-529.5548095703125,60880.157911125,-1.542959650831808,-1.602251714362491,-1.100704943973337,-0.02759205736219883,0.08645230531692505,0.001394142862409353,-0.02204865217208862,-0.01643538475036621,0.04953575134277344,1,-0.687659740447998,-0.1850595772266388,-0.1442925333976746,0.6870638728141785,-0.4527438282966614,0.8915268778800964,0.01424593105912209,0,0,0,-1,60879.160794875,3,2,1561238339.328981,1561238131.651496,34,2.131246,0,0,28.10168,0,0,1561238339.329133,60876.950377,0,-0.657959,74.40259,2650659446,177292352,1,1,0.45,-160,-160,1
1561238340.344326,19,0,0,1561238337.873726,4.603142856152619,-74.0647099355964,2642.936,0.2577726,-1,32.07389068603516,245.2453037305048,-9999,1561238340.318251,9.478191375732422,17.78079223632812,5.2412109375,105.1043472290039,112.6480331420898,15,60880.18324012501,-0.476287841796875,0.8816375732421875,0.0662994384765625,60880.173108125,-0.04148139713907421,0.08792666023394712,0.003037601539344379,60880.16877512501,47.31842041015625,17.90824890136719,-529.5974731445312,60880.178174125,-1.544957442438026,-1.602369455374346,-1.100677387393429,-0.05091735348105431,0.07566756755113602,-0.002487680641934276,-0.02202564477920532,-0.01222670078277588,0.05032098293304443,1,-0.6878505349159241,-0.1844224780797958,-0.1449478566646576,0.6869062781333923,-0.4527668356895447,0.8915144205093384,0.01430001761764288,0,0,0,-1,60879.160794875,3,2,1561238339.328981,1561238131.651496,34,2.131246,0,0,28.10168,0,0,1561238339.329133,60876.950377,0,-0.657959,74.40259,2650659446,177292352,1,1,0.45,-160,-160,1
1561238340.364666,20,0,0,1561238337.873726,4.603142856152619,-74.0647099355964,2642.936,0.2577726,-1,32.07389068603516,245.2453037305048,-9999,1561238340.34529,9.641063690185547,17.62453079223633,5.2642822265625,105.2382354736328,112.7819213867188,15,60880.20350412501,-0.4792327880859375,0.8839874267578125,0.0596923828125,60880.193372125,-0.04804182816837541,0.05280782125518121,-0.005141498800506977,60880.188916125,47.15097045898438,17.96699523925781,-529.3875732421875,60880.198438125,-1.547488770319208,-1.603535532390313,-1.100495288971028,-0.04838741198182106,0.03456776589155197,-0.012345383875072,-0.0255579948425293,-0.007719159126281738,0.04847538471221924,1,-0.6881536245346069,-0.1840142011642456,-0.1454788744449615,0.6865997910499573,-0.4529118537902832,0.8914319276809692,0.01483327429741621,0,0,0,-1,60879.160794875,3,2,1561238339.328981,1561238131.651496,34,2.131246,0,0,28.10168,0,0,1561238339.329133,60876.950377,0,-0.657959,74.40259,2650659446,177292352,1,1,0.45,-160,-160,1
1561238340.405531,21,0,0,1561238337.873726,4.603142856152619,-74.0647099355964,2642.936,0.2577726,-1,32.07389068603516,245.2453037305048,-9999,1561238340.396054,9.651695251464844,17.58262634277344,5.24090576171875,105.3325576782227,112.8762435913086,15,60880.223767125,-0.476959228515625,0.8846282958984375,0.055755615234375,60880.213636125,-0.03095924767217114,0.00588904811849222,-0.0299259411692204,60880.209058125,47.14204406738281,17.83834838867188,-529.5936279296875,60880.218671125,-1.549416515813388,-1.605093091132924,-1.099898964546774,-0.0341365709900856,-0.007339737378060818,-0.03835541382431984,-0.02265468239784241,-0.007418215274810791,0.043235182762146,1,-0.6883964538574219,-0.1840890645980835,-0.1458109319210052,0.6862658262252808,-0.4534195363521576,0.8911615014076233,0.01555692311376333,0,0,0,-1,60879.160794875,3,2,1561238339.328981,1561238131.651496,34,2.131246,0,0,28.10168,0,0,1561238339.329133,60876.950377,0,-0.657959,74.40259,2650659446,177292352,1,1,0.45,-160,-160,1
1561238340.407868,22,0,0,1561238337.873726,4.603142856152619,-74.0647099355964,2642.936,0.2577726,-1,32.07389068603516,245.2453037305048,-9999,1561238340.396054,9.651695251464844,17.58262634277344,5.24090576171875,105.3325576782227,112.8762435913086,15,60880.244031125,-0.478851318359375,0.8868408203125,0.05029296875,60880.23389912501,-0.02995550225732028,-0.009729326410386482,-0.05232472383344084,60880.22916912501,47.37992858886719,17.92863464355469,-529.42626953125,60880.238935125,-1.551088925802582,-1.606934189561087,-1.098813468348493,-0.03114238008856773,-0.01591937616467476,-0.05723695829510689,-0.02634122967720032,-0.005597710609436035,0.0352243185043335,1,-0.688598096370697,-0.184515506029129,-0.1461264342069626,0.6858817338943481,-0.4543564021587372,0.890668511390686,0.01642662100493908,0,0,0,-1,60879.160794875,3,2,1561238339.328981,1561238131.651496,34,2.131246,0,0,28.10168,0,0,1561238339.329133,60876.950377,0,-0.657959,74.40259,2650659446,177292352,1,1,0.45,-160,-160,1
1561238340.425564,23,0,0,1561238337.873726,4.603142856152619,-74.0647099355964,2642.936,0.2577726,-1,32.07389068603516,245.2453037305048,-9999,1561238340.420103,9.548091888427734,17.55116271972656,5.3289794921875,105.346549987793,112.8902359008789,15,60880.264295125,-0.4645233154296875,0.886505126953125,0.0485687255859375,60880.25416312501,-0.02647634860924076,0.01066036752747818,-0.0624969339331075,60880.249311125,47.19679260253906,18.28170776367188,-529.5103759765625,60880.259198125,-1.552560235425523,-1.60833934456504,-1.097438427589221,-0.03173919394612312,0.006594986189156771,-0.06279950588941574,-0.01558911800384521,-0.003201723098754883,0.03321242332458496,1,-0.6887272596359253,-0.1849601715803146,-0.1466229110956192,0.6855263113975525,-0.4555565118789673,0.8900425434112549,0.01711100712418556,0,0,0,-1,60879.160794875,3,2,1561238339.328981,1561238131.651496,34,2.131246,0,0,28.10168,0,0,1561238339.329133,60876.950377,0,-0.657959,74.40259,2650659446,177292352,1,1,0.45,-160,-160,1
1561238340.445923,24,0,0,1561238337.873726,4.603142856152619,-74.0647099355964,2642.936,0.2577726,-1,32.07389068603516,245.2453037305048,-9999,1561238340.420103,9.548091888427734,17.55116271972656,5.3289794921875,105.346549987793,112.8902359008789,15,60880.284528125,-0.4546661376953125,0.882965087890625,0.0482177734375,60880.274396125,-0.03991412683756258,0.01877848147836672,-0.04825488105558175,60880.26942212501,47.10804748535156,18.25094604492188,-529.3903198242188,60880.27946212501,-1.55442135752393,-1.609820993246076,-1.096227932382804,-0.04210687801241875,0.008653610944747925,-0.04550014063715935,-0.0005771517753601074,-0.004815936088562012,0.03092384338378906,1,-0.6889122724533081,-0.1852400302886963,-0.1471690833568573,0.6851476430892944,-0.4566067159175873,0.889490008354187,0.01782797649502754,0,0,0,-1,60879.160794875,3,2,1561238339.328981,1561238131.651496,34,2.131246,0,0,28.10168,0,0,1561238339.329133,60876.950377,0,-0.657959,74.40259,2650659446,177292352,1,1,0.45,-160,-160,1
1561238340.489685,25,0,0,1561238337.873726,4.603142856152619,-74.0647099355964,2642.936,0.2577726,-1,32.07389068603516,245.2453037305048,-9999,1561238340.470149,9.446422576904297,17.78813171386719,5.1898193359375,105.4135513305664,112.9572372436523,15,60880.304792125,-0.456756591796875,0.883575439453125,0.0497589111328125,60880.294660125,-0.03726854261067786,0.008929579135035686,-0.03612764439968792,60880.28956312501,47.0780029296875,18.27772521972656,-529.5479736328125,60880.29972612501,-1.556422826836626,-1.611545488702031,-1.095308500601847,-0.03839709609746933,-0.001315400935709476,-0.03825527802109718,0.002314209938049316,-0.007416725158691406,0.03182733058929443,1,-0.6891522407531738,-0.1854549199342728,-0.1475784778594971,0.6847600340843201,-0.4573923051357269,0.8890694975852966,0.01864867657423019,0,0,0,-1,60879.160794875,3,2,1561238339.328981,1561238131.651496,34,2.131246,0,0,28.10168,0,0,1561238339.329133,60876.950377,0,-0.657959,74.40259,2650659446,177292352,1,1,0.45,-160,-160,1
1561238340.492056,26,0,0,1561238337.873726,4.603142856152619,-74.0647099355964,2642.936,0.2577726,-1,32.07389068603516,245.2453037305048,-9999,1561238340.470149,9.446422576904297,17.78813171386719,5.1898193359375,105.4135513305664,112.9572372436523,15,60880.325055125,-0.455413818359375,0.884674072265625,0.047607421875,60880.31492312501,-0.0249956310431567,-0.004650944527714381,-0.04695499212751407,60880.309705125,47.18003845214844,18.53317260742188,-529.664794921875,60880.319989125,-1.557873529064564,-1.613036293759121,-1.094297893124962,-0.0262253861874342,-0.01598728820681572,-0.0540960282087326,0.0008793175220489502,-0.003947615623474121,0.02797961235046387,1,-0.6893176436424255,-0.1858101785182953,-0.1479108333587646,0.6844254732131958,-0.4582615196704865,0.8886064291000366,0.01936847344040871,0,0,0,-1,60879.160794875,3,2,1561238339.328981,1561238131.651496,34,2.131246,0,0,28.10168,0,0,1561238339.329133,60877.898208,0,-1.033203,74.40611,2650659446,177292352,1,1,0.45,-160,-160,1
1561238340.506632,27,0,0,1561238337.873726,4.603142856152619,-74.0647099355964,2642.936,0.2577726,-1,32.07389068603516,245.2453037305048,-9999,1561238340.497149,9.5615234375,17.85932159423828,5.25244140625,105.4091415405273,112.9528274536133,15,60880.345319125,-0.4500732421875,0.8926239013671875,0.0440216064453125,60880.33518712501,-0.02917146763240095,-0.02109969268447979,-0.04917100847056901,60880.32981612501,47.35627746582031,18.08113098144531,-529.5423583984375,60880.340253125,-1.559221110835484,-1.614757953869541,-1.093128257637094,-0.03867060318589211,-0.03582996875047684,-0.04616593196988106,0.008413970470428467,-0.0004655718803405762,0.0276942253112793,1,-0.6894789934158325,-0.1863337159156799,-0.1481828540563583,0.6840616464614868,-0.4592654407024384,0.8880693316459656,0.02020307257771492,0,0,0,-1,60879.160794875,3,2,1561238339.328981,1561238131.651496,34,2.131246,0,0,28.10168,0,0,1561238339.329133,60877.898208,0,-1.033203,74.40611,2650659446,177292352,1,1,0.45,-160,-160,1
1561238340.527072,28,0,0,1561238337.873726,4.603142856152619,-74.0647099355964,2642.936,0.2577726,-1,32.07389068603516,245.2453037305048,-9999,1561238340.521112,9.411483764648438,17.86050415039062,5.38623046875,105.3746490478516,112.9183349609375,15,60880.36558312501,-0.445343017578125,0.889312744140625,0.037078857421875,60880.355451125,-0.04430567947510325,-0.05407308908907786,-0.02223632983772561,60880.34995812501,47.19427490234375,18.16493225097656,-529.2496948242188,60880.360517125,-1.561303598116893,-1.617728780571514,-1.092424833050301,-0.04886944219470024,-0.06486508250236511,-0.02192504145205021,0.01196667551994324,0.00461876392364502,0.01761841773986816,1,-0.689838707447052,-0.186871349811554,-0.1481137275695801,0.6835671663284302,-0.4598273932933807,0.88774573802948,0.02159668691456318,0,0,0,-1,60879.160794875,3,2,1561238339.328981,1561238131.651496,34,2.131246,0,0,28.10168,0,0,1561238339.329133,60877.898208,0,-1.033203,74.40611,2650659446,177292352,1,1,0.45,-160,-160,1
1561238340.574515,29,0,0,1561238337.873726,4.603142856152619,-74.0647099355964,2642.936,0.2577726,-1,32.07389068603516,245.2453037305048,-9999,1561238340.547181,9.372898101806641,17.91042327880859,5.332275390625,105.3088912963867,112.8525772094727,15,60880.38584612501,-0.45355224609375,0.8816375732421875,0.0274505615234375,60880.375714125,-0.03397634287112191,-0.06513479499283098,-0.01253097187714984,60880.370099125,46.71330261230469,18.25038146972656,-529.5978393554688,60880.380780125,-1.563236202449592,-1.620915300595479,-1.092037119160461,-0.02980440855026245,-0.07454407215118408,-0.01438403408974409,0.01162886619567871,-0.001138389110565186,0.008949160575866699,1,-0.6902254819869995,-0.1874254941940308,-0.1478086858987808,0.68309086561203,-0.4600999355316162,0.8875672221183777,0.02307906374335289,0,0,0,-1,60879.160794875,3,2,1561238339.328981,1561238131.651496,34,2.131246,0,0,28.10168,0,0,1561238339.329133,60877.898208,0,-1.033203,74.40611,2650659446,177292352,1,1,0.45,-160,-160,1
1561238340.577013,30,0,0,1561238337.873726,4.603142856152619,-74.0647099355964,2642.936,0.2577726,-1,32.07389068603516,245.2453037305048,-9999,1561238340.572,9.209396362304688,17.94550323486328,5.408203125,105.2479934692383,112.7916793823242,15,60880.406110125,-0.4582672119140625,0.8791656494140625,0.0293426513671875,60880.395978125,0.004889563761385481,-0.0450803930362073,-0.01899739331997124,60880.39021012501,47.03709411621094,18.57560729980469,-529.535400390625,60880.40104412501,-1.563834333211929,-1.622680807257066,-1.091649893189667,0.006408989895135164,-0.0398649238049984,-0.02484785951673985,0.004575848579406738,-0.008513033390045166,0.004319548606872559,1,-0.6903824210166931,-0.1879539638757706,-0.1475374847650528,0.6828456521034241,-0.4604016542434692,0.8873887658119202,0.02390915900468826,0,0,0,-1,60879.160794875,3,2,1561238339.328981,1561238131.651496,34,2.131246,0,0,28.10168,0,0,1561238339.329133,60877.898208,0,-1.033203,74.40611,2650659446,177292352,1,1,0.45,-160,-160,1
1561238340.587547,31,0,0,1561238337.873726,4.603142856152619,-74.0647099355964,2642.936,0.2577726,-1,32.07389068603516,245.2453037305048,-9999,1561238340.572,9.209396362304688,17.94550323486328,5.408203125,105.2479934692383,112.7916793823242,15,60880.426374125,-0.4622039794921875,0.8758087158203125,0.0307769775390625,60880.416242125,0.01404364737631485,-0.01385429662281021,-0.03283411307958693,60880.41035212501,47.05746459960938,18.15605163574219,-529.330078125,60880.42130812501,-1.563484012826823,-1.622951141988555,-1.091018972346082,0.0013164933770895,-0.00663293432444334,-0.04488841444253922,4.720687866210938e-05,-0.01015985012054443,0.004730463027954102,1,-0.6903213262557983,-0.1883822381496429,-0.1475427597761154,0.6827882528305054,-0.4609541893005371,0.8870977163314819,0.02406280301511288,0,0,0,-1,60879.160794875,3,2,1561238339.328981,1561238131.651496,34,2.131246,0,0,28.10168,0,0,1561238339.329133,60877.898208,0,-1.033203,74.40611,2650659446,177292352,1,1,0.45,-160,-160,1
1561238340.607739,32,0,0,1561238337.873726,4.603142856152619,-74.0647099355964,2642.936,0.2577726,-1,32.07389068603516,245.2453037305048,-9999,1561238340.597935,9.386516571044922,17.8438835144043,5.46466064453125,105.2553863525391,112.799072265625,15,60880.446637125,-0.471038818359375,0.870697021484375,0.04083251953125,60880.43650512501,-0.04930443284118197,0.0479169259132507,-0.08068259575282258,60880.43046312501,47.00910949707031,18.15081787109375,-529.4200439453125,60880.441571125,-1.564938093436162,-1.623771424093895,-1.089594114561075,-0.08027690649032593,0.07561879605054855,-0.1025162935256958,-0.003136277198791504,-0.01298028230667114,0.008329153060913086,1,-0.6904104948043823,-0.1886458247900009,-0.1482485383749008,0.682472288608551,-0.4621957838535309,0.8864391446113586,0.02450779639184475,0,0,0,-1,60879.160794875,3,2,1561238339.328981,1561238131.651496,34,2.131246,0,0,28.10168,0,0,1561238339.329133,60877.898208,0,-1.033203,74.40611,2650659446,177292352,1,1,0.45,-160,-160,1
1561238340.653962,33,0,0,1561238337.873726,4.603142856152619,-74.0647099355964,2642.936,0.2577726,-1,32.07389068603516,245.2453037305048,-9999,1561238340.621966,9.241733551025391,17.81477737426758,5.48468017578125,105.5004577636719,113.0441436767578,15,60880.466901125,-0.4786376953125,0.860321044921875,0.047882080078125,60880.456769125,-0.1609071277981515,0.1877509926378232,-0.1487085184250436,60880.45060512501,46.96366882324219,18.16384887695312,-529.3539428710938,60880.461835125,-1.57054097442701,-1.625819637648522,-1.086742944243368,-0.1891911327838898,0.2127553522586823,-0.1649298667907715,-0.008599936962127686,-0.0186760425567627,0.02161741256713867,1,-0.6908756494522095,-0.1883812695741653,-0.1504374295473099,0.6815952062606812,-0.4646666646003723,0.8851158618927002,0.02559333108365536,0,0,0,-1,60879.160794875,3,2,1561238339.328981,1561238131.651496,34,2.131246,0,0,28.10168,0,0,1561238339.329133,60877.898208,0,-1.033203,74.40611,2650659446,177292352,1,1,0.45,-160,-160,1
1561238340.656623,34,0,0,1561238337.873726,4.603142856152619,-74.0647099355964,2642.936,0.2577726,-1,32.07389068603516,245.2453037305048,-9999,1561238340.648508,9.116298675537109,17.84775161743164,5.59234619140625,106.0096588134766,113.5533447265625,15,60880.48716512501,-0.478973388671875,0.8708953857421875,0.0536956787109375,60880.477033125,-0.2222035087118513,0.3097008673780777,-0.1867041040133131,60880.47074612501,46.64483642578125,18.06761169433594,-529.1658935546875,60880.482099125,-1.579464188486413,-1.628192522679972,-1.082843026901193,-0.2344709932804108,0.314355194568634,-0.1852875947952271,-0.01768624782562256,-0.01839554309844971,0.02660369873046875,1,-0.691603422164917,-0.1874340623617172,-0.1540016531944275,0.6803209185600281,-0.4680467545986176,0.8832942247390747,0.02689364179968834,0,0,0,-1,60879.160794875,3,2,1561238339.328981,1561238131.651496,34,2.131246,0,0,28.10168,0,0,1561238339.329133,60877.898208,0,-1.033203,74.40611,2650659446,177292352,1,1,0.45,-160,-160,1
1561238340.668523,35,0,0,1561238337.873726,4.603142856152619,-74.0647099355964,2642.936,0.2577726,-1,32.07389068603516,245.2453037305048,-9999,1561238340.648508,9.116298675537109,17.84775161743164,5.59234619140625,106.0096588134766,113.5533447265625,15,60880.50742812501,-0.474609375,0.887542724609375,0.0480194091796875,60880.497296125,-0.2092584152851941,0.2995403751872073,-0.1603100470817558,60880.49085712501,46.90615844726562,18.37333679199219,-529.1696166992188,60880.502362125,-1.588560190331546,-1.630106356215275,-1.079155068101477,-0.1899501383304596,0.2706383466720581,-0.1487447619438171,-0.007409632205963135,-0.001172900199890137,0.01979303359985352,1,-0.6923313736915588,-0.1861945390701294,-0.157702162861824,0.6790720820426941,-0.4712433218955994,0.8815592527389526,0.02798227407038212,0,0,0,-1,60879.160794875,3,2,1561238339.328981,1561238131.651496,34,2.131246,0,0,28.10168,0,0,1561238339.329133,60877.898208,0,-1.033203,74.40611,2650659446,177292352,1,1,0.45,-160,-160,1
1561238340.688818,36,0,0,1561238337.873726,4.603142856152619,-74.0647099355964,2642.936,0.2577726,-1,32.07389068603516,245.2453037305048,-9999,1561238340.672994,9.21038818359375,17.97826385498047,5.60321044921875,106.4984817504883,114.0421676635742,15,60880.527692125,-0.4593963623046875,0.8820648193359375,0.04339599609375,60880.517560125,-0.1067179248855462,0.1835586444498205,-0.1190693997052247,60880.51099912501,46.5579833984375,18.42010498046875,-528.9732055664062,60880.522596125,-1.594076460196558,-1.630675378242522,-1.076372977885493,-0.08836652338504791,0.1347590833902359,-0.1148398071527481,0.006037473678588867,-0.001153171062469482,0.0202479362487793,1,-0.6926873326301575,-0.1854259818792343,-0.1603348106145859,0.6783024072647095,-0.473673552274704,0.8802424669265747,0.02839707024395466,0,0,0,-1,60879.160794875,3,2,1561238339.328981,1561238131.651496,34,2.131246,0,0,28.10168,0,0,1561238339.329133,60877.898208,0,-1.033203,74.40611,2650659446,177292352,1,1,0.45,-160,-160,1
1561238340.730968,37,0,0,1561238337.873726,4.603142856152619,-74.0647099355964,2642.936,0.2577726,-1,32.07389068603516,245.2453037305048,-9999,1561238340.699232,9.025119781494141,18.16180038452148,5.85491943359375,106.7080612182617,114.2517471313477,15,60880.547956125,-0.4684600830078125,0.8843536376953125,0.046142578125,60880.53782412501,-0.01836249571609635,0.0529787961971643,-0.08861881580125872,60880.531110125,46.65937805175781,18.40812683105469,-529.1351928710938,60880.542859125,-1.595768564637671,-1.630683997324166,-1.074298104801112,-0.00144014460965991,0.02820733748376369,-0.08319000154733658,0.01236081123352051,0.006684541702270508,0.014900803565979,1,-0.6926949620246887,-0.185550257563591,-0.1616193950176239,0.6779557466506958,-0.4754956066608429,0.879256010055542,0.02851041778922081,0,0,0,-1,60879.160794875,3,2,1561238339.328981,1561238131.651496,34,2.131246,0,0,28.10168,0,0,1561238339.329133,60877.898208,0,-1.033203,74.40611,2650659446,177292352,1,1,0.45,-160,-160,1
1561238340.734258,38,0,0,1561238337.873726,4.603142856152619,-74.0647099355964,2642.936,0.2577726,-1,32.07389068603516,245.2453037305048,-9999,1561238340.699232,9.025119781494141,18.16180038452148,5.85491943359375,106.7080612182617,114.2517471313477,15,60880.568219125,-0.475555419921875,0.8834991455078125,0.04583740234375,60880.55808812501,0.04994492308334603,0.004450941129849431,-0.05381130035392307,60880.55125212501,46.77204895019531,18.44427490234375,-529.2528076171875,60880.563123125,-1.594412412373425,-1.629384616542878,-1.072995073826279,0.06011989340186119,-0.003869638545438647,-0.05045202374458313,0.005621492862701416,0.00637519359588623,0.01658082008361816,1,-0.6923691630363464,-0.1860235035419464,-0.1620576977729797,0.6780542135238647,-0.4766755402088165,0.8786345720291138,0.02795960381627083,0,0,0,-1,60879.160794875,3,2,1561238339.328981,1561238131.651496,34,2.131246,0,0,28.10168,0,0,1561238339.329133,60877.898208,0,-1.033203,74.40611,2650659446,177292352,1,1,0.45,-160,-160,1
1561238340.749467,39,0,0,1561238337.873726,4.603142856152619,-74.0647099355964,2642.936,0.2577726,-1,32.07389068603516,245.2453037305048,-9999,1561238340.743034,9.127117156982422,18.0532341003418,5.64990234375,106.7090148925781,114.2527008056641,15,60880.588452125,-0.4748687744140625,0.8790435791015625,0.052642822265625,60880.578321125,0.08768457889085891,0.01468040919295279,-0.03343865064703491,60880.571363125,46.66453552246094,18.29960632324219,-529.1422119140625,60880.58338712501,-1.591171193450323,-1.626532690761425,-1.072245084364124,0.08495493233203888,0.01337273046374321,-0.03541901335120201,0.0008791089057922363,0.002277970314025879,0.02240502834320068,1,-0.6917809844017029,-0.1864334791898727,-0.16220323741436,0.6785069704055786,-0.4774110615253448,0.8782762289047241,0.02663674578070641,0,0,0,-1,60879.160794875,3,2,1561238339.328981,1561238131.651496,34,2.131246,0,0,28.10168,0,0,1561238339.329133,60877.898208,0,-1.033203,74.40611,2650659446,177292352,1,1,0.45,-160,-160,1
1561238340.769812,40,0,0,1561238337.873726,4.603142856152619,-74.0647099355964,2642.936,0.2577726,-1,32.07389068603516,245.2453037305048,-9999,1561238340.743034,9.127117156982422,18.0532341003418,5.64990234375,106.7090148925781,114.2527008056641,15,60880.608716125,-0.47222900390625,0.8700714111328125,0.0602569580078125,60880.598584125,0.06462586490851684,0.04781918790124479,-0.04309314223079017,60880.591504125,46.54605102539062,18.39273071289062,-529.0242309570312,60880.60365012501,-1.588252463982568,-1.623369594904689,-1.071499732057708,0.04487835243344307,0.04926228895783424,-0.05094364285469055,0.002820402383804321,-0.003728270530700684,0.03036582469940186,1,-0.6911962032318115,-0.1866233497858047,-0.1625628173351288,0.6789646744728088,-0.4781469404697418,0.8779195547103882,0.02516093291342258,0,0,0,-1,60879.160794875,3,2,1561238339.328981,1561238131.651496,34,2.131246,0,0,28.10168,0,0,1561238339.329133,60877.898208,0,-1.033203,74.40611,2650659446,177292352,1,1,0.45,-160,-160,1
1561238340.800791,41,0,0,1561238337.873726,4.603142856152619,-74.0647099355964,2642.936,0.2577726,-1,32.07389068603516,245.2453037305048,-9999,1561238340.77418,9.005886077880859,18.03487396240234,5.906494140625,106.6809005737305,114.2245864868164,15,60880.628991875,-0.469940185546875,0.8707733154296875,0.061981201171875,60880.61884812501,0.006497846743684334,0.07039427182962847,-0.05826437201264457,60880.61164612501,46.60452270507812,18.66357421875,-529.03076171875,60880.62392587501,-1.587485122401736,-1.621516264539417,-1.070395740369164,-0.004508638754487038,0.06843225657939911,-0.06132624298334122,0.007007718086242676,-0.007029116153717041,0.03527700901031494,1,-0.6908900737762451,-0.1866355538368225,-0.1633222997188568,0.6790906190872192,-0.4791604280471802,0.877390444278717,0.02432384714484215,0,0,0,-1,60879.160794875,3,2,1561238339.328981,1561238131.651496,34,2.131246,0,0,28.10168,0,0,1561238339.329133,60877.898208,0,-1.033203,74.40611,2650659446,177292352,1,1,0.45,-160,-160,1
1561238340.810389,42,0,0,1561238337.873726,4.603142856152619,-74.0647099355964,2642.936,0.2577726,-1,32.07389068603516,245.2453037305048,-9999,1561238340.80064,8.832206726074219,18.1160888671875,5.916015625,106.7621307373047,114.3058166503906,15,60880.649255875,-0.465179443359375,0.87432861328125,0.061004638671875,60880.639123875,0.0003398193550941108,0.0565447688967804,-0.05440864738642785,60880.63176887501,46.42890930175781,18.4638671875,-528.984130859375,60880.64418987501,-1.587695946021421,-1.620552644500894,-1.069232616125533,-0.001665980787947774,0.04308561980724335,-0.05458098649978638,0.01346644759178162,-0.00448685884475708,0.03750383853912354,1,-0.6907423138618469,-0.1866319179534912,-0.1641265004873276,0.6790479421615601,-0.4802022874355316,0.8768318295478821,0.0239128340035677,0,0,0,-1,60879.160794875,3,2,1561238339.328981,1561238131.651496,34,2.131246,0,0,28.10168,0,0,1561238339.329133,60877.898208,0,-1.033203,74.40611,2650659446,177292352,1,1,0.45,-160,-160,1
1561238340.830659,43,0,0,1561238337.873726,4.603142856152619,-74.0647099355964,2642.936,0.2577726,-1,32.07389068603516,245.2453037305048,-9999,1561238340.825228,8.940441131591797,18.08583831787109,5.85595703125,106.7975616455078,114.3412475585938,15,60880.669518875,-0.462249755859375,0.87408447265625,0.054718017578125,60880.65938687501,0.01381381657424101,0.02417244795021321,-0.03492336295475409,60880.65191087501,46.48313903808594,18.49168395996094,-529.048583984375,60880.664452875,-1.587456816808555,-1.619840207992074,-1.068391305022964,0.01412203721702099,0.007754792924970388,-0.03641956299543381,0.01676812767982483,-0.000450432300567627,0.03491055965423584,1,-0.6905971169471741,-0.186759352684021,-0.1645804941654205,0.6790506839752197,-0.4809557497501373,0.8764269948005676,0.02360686659812927,0,0,0,-1,60879.160794875,3,2,1561238339.328981,1561238131.651496,34,2.131246,0,0,28.10168,0,0,1561238339.329133,60877.898208,0,-1.033203,74.40611,2650659446,177292352,1,1,0.45,-160,-160,1
1561238340.851056,44,0,0,1561238337.873726,4.603142856152619,-74.0647099355964,2642.936,0.2577726,-1,32.07389068603516,245.2453037305048,-9999,1561238340.825228,8.940441131591797,18.08583831787109,5.85595703125,106.7975616455078,114.3412475585938,15,60880.689782875,-0.4644012451171875,0.8743896484375,0.0520172119140625,60880.679650875,0.03784671488333407,-0.0105969842935343,-0.02847185521403714,60880.67202187501,46.73806762695312,18.71337890625,-528.9423217773438,60880.684716875,-1.586404284144205,-1.619167124386888,-1.067772819477441,0.03773548826575279,-0.02060387656092644,-0.0298045352101326,0.01817962527275085,-0.004180729389190674,0.02863156795501709,1,-0.6903958320617676,-0.1871049553155899,-0.1646680235862732,0.6791389584541321,-0.4815127551555634,0.8761290311813354,0.02330933883786201,0,0,0,-1,60879.160794875,3,2,1561238339.328981,1561238131.651496,34,2.131246,0,0,28.10168,0,0,1561238339.329133,60877.898208,0,-1.033203,74.40611,2650659446,177292352,1,1,0.45,-160,-160,1
1561238340.882138,45,0,0,1561238337.873726,4.603142856152619,-74.0647099355964,2642.936,0.2577726,-1,32.07389068603516,245.2453037305048,-9999,1561238340.87779,8.755279541015625,18.24623870849609,5.76312255859375,106.7245101928711,114.268196105957,15,60880.71004687501,-0.46697998046875,0.8730621337890625,0.052825927734375,60880.699914875,0.04072186359618361,-0.007289338219655883,-0.03111131417041467,60880.69216287501,46.494873046875,18.63441467285156,-529.269775390625,60880.704980875,-1.58492216831382,-1.618279746497329,-1.067166385444076,0.03204431384801865,-0.008265452459454536,-0.03602088615298271,0.01532810926437378,-0.000607609748840332,0.02854537963867188,1,-0.6901370882987976,-0.1875218152999878,-0.1646794080734253,0.6792842149734497,-0.4820639491081238,0.8758364915847778,0.02290726453065872,0,0,0,-1,60879.160794875,3,2,1561238339.328981,1561238131.651496,34,2.131246,0,0,28.10168,0,0,1561238339.329133,60877.898208,0,-1.033203,74.40611,2650659446,177292352,1,1,0.45,-160,-160,1
1561238340.891408,46,0,0,1561238337.873726,4.603142856152619,-74.0647099355964,2642.936,0.2577726,-1,32.07389068603516,245.2453037305048,-9999,1561238340.87779,8.755279541015625,18.24623870849609,5.76312255859375,106.7245101928711,114.268196105957,15,60880.73030987501,-0.462188720703125,0.873931884765625,0.0552215576171875,60880.720177875,0.02232501310202525,0.02435567343321067,-0.03597664316588043,60880.712273875,46.47109985351562,18.66349792480469,-528.8965454101562,60880.725243875,-1.584033304331482,-1.61737155309899,-1.066462441724529,0.01141573302447796,0.02311430871486664,-0.0357029065489769,0.01892471313476562,-0.001335799694061279,0.03348636627197266,1,-0.6899241209030151,-0.1877599060535431,-0.1649328023195267,0.6793733239173889,-0.482700377702713,0.8754965662956238,0.02249814942479134,0,0,0,-1,60879.160794875,3,2,1561238339.328981,1561238131.651496,34,2.131246,0,0,28.10168,0,0,1561238339.329133,60877.898208,0,-1.033203,74.40611,2650659446,177292352,1,1,0.45,-160,-160,1
1561238340.911724,47,0,0,1561238337.873726,4.603142856152619,-74.0647099355964,2642.936,0.2577726,-1,32.07389068603516,245.2453037305048,-9999,1561238340.901896,8.896938323974609,18.42462921142578,5.77386474609375,106.744987487793,114.2886734008789,15,60880.750573875,-0.4590301513671875,0.878326416015625,0.058624267578125,60880.740441875,0.006196376908287364,0.03519953275979531,-0.01929113998820698,60880.73241587501,46.56689453125,18.61195373535156,-529.223388671875,60880.74550787501,-1.583939680479277,-1.616799488371708,-1.065951300804218,-0.00058899843133986,0.02762730233371258,-0.01736411266028881,0.02240556478500366,-0.0003104805946350098,0.03574085235595703,1,-0.6898282170295715,-0.1877719908952713,-0.1652739346027374,0.6793844103813171,-0.4831599593162537,0.875249445438385,0.02224257960915565,0,0,0,-1,60879.160794875,3,2,1561238339.328981,1561238131.651496,34,2.131246,0,0,28.10168,0,0,1561238339.329133,60877.898208,0,-1.033203,74.40611,2650659446,177292352,1,1,0.45,-160,-160,1
1561238340.931946,48,0,0,1561238337.873726,4.603142856152619,-74.0647099355964,2642.936,0.2577726,-1,32.07389068603516,245.2453037305048,-9999,1561238340.92606,8.915111541748047,18.30548095703125,5.8275146484375,106.7747421264648,114.3184280395508,15,60880.770837875,-0.461700439453125,0.87615966796875,0.0541229248046875,60880.76070587501,1.384843766841204e-05,0.0239266381815989,0.007298392967362152,60880.752526875,46.46939086914062,18.592041015625,-529.0860595703125,60880.76577187501,-1.584196336593017,-1.616639785653814,-1.065939765563034,-0.002485701814293861,0.0139226745814085,0.007459213025867939,0.02260267734527588,0.002136468887329102,0.03238427639007568,1,-0.689838171005249,-0.1876332759857178,-0.1654202938079834,0.6793771386146545,-0.4831739962100983,0.8752438426017761,0.02216589637100697,0,0,0,-1,60879.160794875,3,2,1561238339.328981,1561238131.651496,34,2.131246,0,0,28.10168,0,0,1561238339.329133,60877.898208,0,-1.033203,74.40611,2650659446,177292352,1,1,0.45,-160,-160,1
1561238340.967095,49,0,0,1561238337.873726,4.603142856152619,-74.0647099355964,2642.936,0.2577726,-1,32.07389068603516,245.2453037305048,-9999,1561238340.952436,8.837543487548828,18.24612045288086,5.89398193359375,106.7969131469727,114.3405990600586,15,60880.791100875,-0.4677276611328125,0.874755859375,0.0464630126953125,60880.78096887501,-0.002046639297725895,0.02168691970484226,0.02285072110120689,60880.772668875,46.38450622558594,18.31524658203125,-529.0657348632812,60880.786034875,-1.584547178585921,-1.616697064945881,-1.066272070749819,-0.01148478873074055,0.01460151374340057,0.02030337229371071,0.01886218786239624,0.001060307025909424,0.03061521053314209,1,-0.6899017691612244,-0.1874184012413025,-0.1654054522514343,0.6793754100799561,-0.4828819334506989,0.8754045367240906,0.02218021638691425,0,0,0,-1,60879.160794875,3,2,1561238339.328981,1561238131.651496,34,2.131246,0,0,28.10168,0,0,1561238339.329133,60877.898208,0,-1.033203,74.40611,2650659446,177292352,1,1,0.45,-160,-160,1
1561238340.972748,50,0,0,1561238337.873726,4.603142856152619,-74.0647099355964,2642.936,0.2577726,-1,32.07389068603516,245.2453037305048,-9999,1561238340.952436,8.837543487548828,18.24612045288086,5.89398193359375,106.7969131469727,114.3405990600586,15,60880.811364875,-0.470306396484375,0.871490478515625,0.0459747314453125,60880.801232875,-0.00228073115754386,0.03072435686402615,0.019258383106799,60880.79280987501,46.6702880859375,18.56204223632812,-529.157958984375,60880.806298875,-1.585070550992592,-1.616782875251571,-1.066671226145661,-0.001650001620873809,0.0299405213445425,0.01135914586484432,0.0117974579334259,-0.00401538610458374,0.02137351036071777,1,-0.6899889707565308,-0.1871310174465179,-0.1654165238142014,0.6793634295463562,-0.4825311005115509,0.8755974173545837,0.02220559492707253,0,0,0,-1,60879.160794875,3,2,1561238339.328981,1561238131.651496,34,2.131246,0,0,28.10168,0,0,1561238339.329133,60877.898208,0,-1.033203,74.40611,2650659446,177292352,1,1,0.45,-160,-160,1
1561238340.992928,51,0,0,1561238337.873726,4.603142856152619,-74.0647099355964,2642.936,0.2577726,-1,32.07389068603516,245.2453037305048,-9999,1561238340.976737,8.770637512207031,18.27008056640625,5.70855712890625,106.834716796875,114.3784027099609,15,60880.83162887501,-0.467620849609375,0.873199462890625,0.04876708984375,60880.821496875,0.008152735045059572,0.05297293724276612,0.01163401922201115,60880.812920875,46.63801574707031,18.45947265625,-529.1347045898438,60880.82653187501,-1.585112483318641,-1.616038919113532,-1.066890027138958,0.0025175791233778,0.04522706940770149,0.01313574053347111,0.01424676179885864,-0.003663301467895508,0.02506756782531738,1,-0.6899483799934387,-0.1867891848087311,-0.1656121760606766,0.6794509887695312,-0.4823558926582336,0.8757030963897705,0.02183793298900127,0,0,0,-1,60879.160794875,3,2,1561238339.328981,1561238131.651496,34,2.131246,0,0,28.10168,0,0,1561238339.329133,60877.898208,0,-1.033203,74.40611,2650659446,177292352,1,1,0.45,-160,-160,1
1561238341.013035,52,0,0,1561238337.873726,4.603142856152619,-74.0647099355964,2642.936,0.2577726,-1,32.07389068603516,245.2453037305048,-9999,1561238341.004009,9.009952545166016,18.08079147338867,5.76165771484375,106.8895950317383,114.4332809448242,15,60880.85189187501,-0.466522216796875,0.8759307861328125,0.051910400390625,60880.841759875,0.001737978927385711,0.04643700729549366,0.02746171821257008,60880.833062875,46.53378295898438,18.44242858886719,-529.1461181640625,60880.846795875,-1.585411345005183,-1.615500449952683,-1.067378790514735,-0.007968617603182793,0.03564528003334999,0.02807207964360714,0.01474654674530029,-0.001442551612854004,0.02803194522857666,1,-0.6899697184562683,-0.1863365918397903,-0.1657316088676453,0.6795245409011841,-0.4819401502609253,0.8759390115737915,0.02155907638370991,0,0,0,-1,60879.160794875,3,2,1561238339.328981,1561238131.651496,34,2.131246,0,0,28.10168,0,0,1561238339.329133,60877.898208,0,-1.033203,74.40611,2650659446,177292352,1,1,0.45,-160,-160,1
1561238341.048567,53,0,0,1561238337.873726,4.603142856152619,-74.0647099355964,2642.936,0.2577726,-1,32.07389068603516,245.2453037305048,-9999,1561238341.027341,8.974094390869141,18.19513320922852,5.72406005859375,106.929557800293,114.4732437133789,15,60880.872155875,-0.4719390869140625,0.873809814453125,0.0479583740234375,60880.862023875,-0.009588178872612282,0.02111300848993019,0.03864353268148578,60880.853173875,46.5777587890625,18.50053405761719,-529.1190795898438,60880.867058875,-1.586092491531812,-1.615668018929858,-1.068078992944454,-0.01401026546955109,0.01406701654195786,0.03679819405078888,0.01237526535987854,-0.0006510019302368164,0.02868068218231201,1,-0.6901014447212219,-0.1859197467565536,-0.1656646132469177,0.6795212626457214,-0.481323629617691,0.8762765526771545,0.02161231264472008,0,0,0,-1,60879.160794875,3,2,1561238339.328981,1561238131.651496,34,2.131246,0,0,28.10168,0,0,1561238339.329133,60877.898208,0,-1.033203,74.40611,2650659446,177292352,1,1,0.45,-160,-160,1
1561238341.054005,54,0,0,1561238337.873726,4.603142856152619,-74.0647099355964,2642.936,0.2577726,-1,32.07389068603516,245.2453037305048,-9999,1561238341.027341,8.974094390869141,18.19513320922852,5.72406005859375,106.929557800293,114.4732437133789,15,60880.89238887501,-0.477508544921875,0.8718719482421875,0.04425048828125,60880.882256875,-0.01025689862233118,0.01282977855145673,0.03498727882091599,60880.873315875,46.67494201660156,18.67776489257812,-528.9775390625,60880.887322875,-1.58684787146056,-1.616204568645177,-1.06878264716242,-0.0144566111266613,0.001049486454576254,0.03130755573511124,0.006223618984222412,-0.003507494926452637,0.0254291296005249,1,-0.6902705430984497,-0.1856013387441635,-0.1654942482709885,0.6794779896736145,-0.4806956648826599,0.8766153454780579,0.02184255979955196,0,0,0,-1,60879.160794875,3,2,1561238339.328981,1561238131.651496,34,2.131246,0,0,28.10168,0,0,1561238339.329133,60877.898208,0,-1.033203,74.40611,2650659446,177292352,1,1,0.45,-160,-160,1
1561238341.07386,55,0,0,1561238337.873726,4.603142856152619,-74.0647099355964,2642.936,0.2577726,-1,32.07389068603516,245.2453037305048,-9999,1561238341.056842,8.933383941650391,17.98381042480469,5.80352783203125,106.9471817016602,114.4908676147461,15,60880.91265287501,-0.4816436767578125,0.8687591552734375,0.041107177734375,60880.902520875,-0.006758303898294083,0.01519093717392098,0.02347896080235658,60880.893426875,46.66670227050781,18.39627075195312,-529.0283813476562,60880.907586875,-1.587504262729903,-1.616708556062937,-1.0692861102783,-0.007131053600460291,0.01065311022102833,0.01901866309344769,0.0007669925689697266,-0.007533788681030273,0.02093470096588135,1,-0.6904119253158569,-0.18537437915802,-0.165370374917984,0.6794265508651733,-0.4802439212799072,0.8768575191497803,0.02206457406282425,0,0,0,-1,60879.160794875,3,2,1561238339.328981,1561238131.651496,34,2.131246,0,0,28.10168,0,0,1561238339.329133,60877.898208,0,-1.033203,74.40611,2650659446,177292352,1,1,0.45,-160,-160,1
1561238341.094147,56,0,0,1561238337.873726,4.603142856152619,-74.0647099355964,2642.936,0.2577726,-1,32.07389068603516,245.2453037305048,-9999,1561238341.078009,8.801433563232422,18.08317947387695,5.9107666015625,106.9671173095703,114.5108032226562,15,60880.932915875,-0.478759765625,0.86767578125,0.043304443359375,60880.922784875,0.009645170519939976,0.03682006628310852,0.01830150932713353,60880.913567875,46.25447082519531,18.39630126953125,-529.1294555664062,60880.92784987501,-1.587607233386325,-1.616329969223512,-1.069643787523755,0.008438052609562874,0.03694596886634827,0.01443403214216232,-0.001384526491165161,-0.00811767578125,0.02010846138000488,1,-0.6904177069664001,-0.1850881576538086,-0.1654130816459656,0.6794882416725159,-0.4799386858940125,0.8770294189453125,0.02186847291886806,0,0,0,-1,60879.160794875,3,2,1561238339.328981,1561238131.651496,34,2.131246,0,0,28.10168,0,0,1561238339.329133,60877.898208,0,-1.033203,74.40611,2650659446,177292352,1,1,0.45,-160,-160,1
1561238341.132772,57,0,0,1561238337.873726,4.603142856152619,-74.0647099355964,2642.936,0.2577726,-1,32.07389068603516,245.2453037305048,-9999,1561238341.11431,8.889244079589844,18.10309219360352,5.8260498046875,107.0138549804688,114.5575408935547,15,60880.953179875,-0.47607421875,0.87103271484375,0.0468902587890625,60880.94304787501,0.00234091859817965,0.05403846799490683,0.02741964026734683,60880.933709875,46.67645263671875,18.592041015625,-529.0175170898438,60880.94811387501,-1.587699348988754,-1.615510682666861,-1.070078269913149,-0.00984641257673502,0.05075233057141304,0.02932509779930115,0.004630506038665771,-0.007471859455108643,0.02431821823120117,1,-0.6903918981552124,-0.1846297234296799,-0.1655778586864471,0.6795989871025085,-0.4795755743980408,0.8772380948066711,0.0214582160115242,0,0,0,-1,60879.160794875,3,2,1561238339.328981,1561238131.651496,34,2.131246,0,0,28.10168,0,0,1561238339.329133,60877.898208,0,-1.033203,74.40611,2650659446,177292352,1,1,0.45,-160,-160,1
1561238341.136101,58,0,0,1561238337.873726,4.603142856152619,-74.0647099355964,2642.936,0.2577726,-1,32.07389068603516,245.2453037305048,-9999,1561238341.11431,8.889244079589844,18.10309219360352,5.8260498046875,107.0138549804688,114.5575408935547,15,60880.973443875,-0.4778900146484375,0.8727569580078125,0.0516357421875,60880.96331187501,-0.01111603438999074,0.06089850464684194,0.05862815981754939,60880.953820875,46.63899230957031,18.60371398925781,-529.08154296875,60880.968377875,-1.58845439993358,-1.615130889185815,-1.07101100917748,-0.01593253389000893,0.04903219267725945,0.05555696785449982,0.002081692218780518,-0.006301820278167725,0.0275731086730957,1,-0.6905017495155334,-0.1839218288660049,-0.1656451523303986,0.6796630024909973,-0.4787662625312805,0.8776854872703552,0.02123980969190598,0,0,0,-1,60879.160794875,3,2,1561238339.328981,1561238131.651496,34,2.131246,0,0,28.10168,0,0,1561238339.329133,60877.898208,0,-1.033203,74.40611,2650659446,177292352,1,1,0.45,-160,-160,1
1561238341.155068,59,0,0,1561238337.873726,4.603142856152619,-74.0647099355964,2642.936,0.2577726,-1,32.07389068603516,245.2453037305048,-9999,1561238341.11431,8.889244079589844,18.10309219360352,5.8260498046875,107.0138549804688,114.5575408935547,15,60880.993706875,-0.4835968017578125,0.8680572509765625,0.04693603515625,60880.98357587501,-0.02206269173465244,0.02534956515202824,0.05386163409852557,60880.973962875,46.67381286621094,18.30621337890625,-529.18310546875,60880.988640875,-1.589611573152068,-1.615568692975424,-1.072044068122158,-0.02506850846111774,0.01363079063594341,0.04613230749964714,-0.004067540168762207,-0.006582796573638916,0.0276024341583252,1,-0.6907233595848083,-0.1833184361457825,-0.1655322462320328,0.679628312587738,-0.4778507649898529,0.8781800866127014,0.02140881679952145,0,0,0,-1,60879.160794875,3,2,1561238339.328981,1561238131.651496,34,2.131246,0,0,28.10168,0,0,1561238339.329133,60877.898208,0,-1.033203,74.40611,2650659446,177292352,1,1,0.45,-160,-160,1
1561238341.175297,60,0,0,1561238337.873726,4.603142856152619,-74.0647099355964,2642.936,0.2577726,-1,32.07389068603516,245.2453037305048,-9999,1561238341.155101,8.849819183349609,18.03340530395508,5.85162353515625,107.1378173828125,114.6815032958984,15,60881.01397087501,-0.49188232421875,0.8658905029296875,0.041412353515625,60881.003838875,-0.01758591794222924,0.001607750350080836,0.03871117697317379,60880.994103875,46.63215637207031,18.47799682617188,-529.0325927734375,60881.008904875,-1.590754246391796,-1.616546832316444,-1.07280283860796,-0.01870168931782246,-0.01168681494891644,0.03339121118187904,-0.009255915880203247,-0.01173669099807739,0.02299988269805908,1,-0.6909666657447815,-0.182997077703476,-0.1653219163417816,0.6795187592506409,-0.4771637618541718,0.8785427808761597,0.02184572815895081,0,0,0,-1,60879.160794875,3,2,1561238339.328981,1561238131.651496,34,2.131246,0,0,28.10168,0,0,1561238339.329133,60877.898208,0,-1.033203,74.40611,2650659446,177292352,1,1,0.45,-160,-160,1
1561238341.214655,61,0,0,1561238337.873726,4.603142856152619,-74.0647099355964,2642.936,0.2577726,-1,32.07389068603516,245.2453037305048,-9999,1561238341.179428,8.957450866699219,17.9942512512207,6.010986328125,107.1437301635742,114.6874160766602,15,60881.03423487501,-0.4925537109375,0.86334228515625,0.040771484375,60881.024102875,0.005792641687031351,0.002768355953137368,0.02124563391221613,60881.014214875,46.61553955078125,18.57600402832031,-529.1024780273438,60881.029168875,-1.591134322135971,-1.617064217158976,-1.073262925140747,0.00689528277143836,0.006268749479204416,0.0112193301320076,-0.01678168773651123,-0.01607632637023926,0.01712596416473389,1,-0.6910790205001831,-0.1828844994306564,-0.1651142090559006,0.6794853210449219,-0.4767485857009888,0.878762423992157,0.0220739059150219,0,0,0,-1,60879.160794875,3,2,1561238339.328981,1561238131.651496,34,2.131246,0,0,28.10168,0,0,1561238339.329133,60877.898208,0,-1.033203,74.40611,2650659446,177292352,1,1,0.45,-160,-160,1
1561238341.217242,62,0,0,1561238337.873726,4.603142856152619,-74.0647099355964,2642.936,0.2577726,-1,32.07389068603516,245.2453037305048,-9999,1561238341.179428,8.957450866699219,17.9942512512207,6.010986328125,107.1437301635742,114.6874160766602,15,60881.054497875,-0.4912567138671875,0.8712310791015625,0.0433502197265625,60881.044366875,0.01419171913292325,0.03899826573868433,0.0008700547281288871,60881.034356875,46.65913391113281,18.65614318847656,-528.9872436523438,60881.04943287501,-1.590833651231357,-1.616380051324672,-1.073312047275494,0.009633811190724373,0.04003763198852539,-0.00528001831844449,-0.01590925455093384,-0.01347523927688599,0.01856791973114014,1,-0.6909987330436707,-0.1827392578125,-0.1652316600084305,0.6795775890350342,-0.4767207503318787,0.8787859082221985,0.02174577116966248,0,0,0,-1,60879.160794875,3,2,1561238339.328981,1561238131.651496,34,2.131246,0,0,28.10168,0,0,1561238339.329133,60877.898208,0,-1.033203,74.40611,2650659446,177292352,1,1,0.45,-160,-160,1
1561238341.235804,63,0,0,1561238337.873726,4.603142856152619,-74.0647099355964,2642.936,0.2577726,-1,32.07389068603516,245.2453037305048,-9999,1561238341.226091,9.021480560302734,18.08275604248047,5.8531494140625,107.151123046875,114.6948089599609,15,60881.074761875,-0.480926513671875,0.8802642822265625,0.0495147705078125,60881.06462987501,-0.004262123008562812,0.0586891462065122,0.003363039824552062,60881.054467875,46.70587158203125,18.31224060058594,-528.8634033203125,60881.069695875,-1.591062395749945,-1.61563542238416,-1.073253428266632,-0.01547926478087902,0.05071717500686646,0.007934320718050003,-0.01086774468421936,0.0006060600280761719,0.0261533260345459,1,-0.6909536123275757,-0.1824270933866501,-0.1655866652727127,0.6796208024024963,-0.4767878949642181,0.8787578940391541,0.02139307744801044,0,0,0,-1,60879.160794875,3,2,1561238339.328981,1561238131.651496,34,2.131246,0,0,28.10168,0,0,1561238339.329133,60877.898208,0,-1.033203,74.40611,2650659446,177292352,1,1,0.45,-160,-160,1
1561238341.256468,64,0,0,1561238337.873726,4.603142856152619,-74.0647099355964,2642.936,0.2577726,-1,32.07389068603516,245.2453037305048,-9999,1561238341.226091,9.021480560302734,18.08275604248047,5.8531494140625,107.151123046875,114.6948089599609,15,60881.095025875,-0.4801788330078125,0.8781890869140625,0.0476226806640625,60881.08489387501,-0.03199468470399395,0.03145006826107274,0.02917066868407393,60881.074609875,46.72467041015625,18.44146728515625,-528.9769287109375,60881.089959875,-1.592416493114818,-1.616167932612806,-1.073591518407545,-0.0365949347615242,0.01306247338652611,0.03190969303250313,-0.001745820045471191,0.0002922415733337402,0.02760660648345947,1,-0.6911466717720032,-0.1820248067378998,-0.1657467037439346,0.6794934272766113,-0.4764798879623413,0.878919243812561,0.02163350395858288,0,0,0,-1,60879.160794875,3,2,1561238339.328981,1561238131.651496,34,2.131246,0,0,28.10168,0,0,1561238339.329133,60877.898208,0,-1.033203,74.40611,2650659446,177292352,1,1,0.45,-160,-160,1
1561238341.282083,65,0,0,1561238337.873726,4.603142856152619,-74.0647099355964,2642.936,0.2577726,-1,32.07389068603516,245.2453037305048,-9999,1561238341.28066,8.991569519042969,17.9803352355957,5.877197265625,107.2480926513672,114.7917785644531,15,60881.115288875,-0.48553466796875,0.8672027587890625,0.0411834716796875,60881.105157875,-0.02211808548532609,-0.01730042707337275,0.040869402720574,60881.094720875,46.63375854492188,18.3258056640625,-528.7237548828125,60881.110223875,-1.593852020670241,-1.617671922273845,-1.074255830286248,-0.01563213020563126,-0.03246373310685158,0.03692682459950447,-0.00661921501159668,-0.00563967227935791,0.02136313915252686,1,-0.6914517283439636,-0.1818127632141113,-0.1654863655567169,0.6793033480644226,-0.4758636951446533,0.8792358636856079,0.02232274785637856,0,0,0,-1,60879.160794875,3,2,1561238339.328981,1561238131.651496,34,2.131246,0,0,28.10168,0,0,1561238339.329133,60877.898208,0,-1.033203,74.40611,2650659446,177292352,1,1,0.45,-160,-160,1
1561238341.296635,66,0,0,1561238337.873726,4.603142856152619,-74.0647099355964,2642.936,0.2577726,-1,32.07389068603516,245.2453037305048,-9999,1561238341.28066,8.991569519042969,17.9803352355957,5.877197265625,107.2480926513672,114.7917785644531,15,60881.13555287501,-0.4926910400390625,0.8623046875,0.0384368896484375,60881.125420875,0.02577380671367786,-0.02290904432907962,0.02212953707801343,60881.114861875,46.61952209472656,18.36579895019531,-528.9435424804688,60881.13045687501,-1.593561048203289,-1.618074137808174,-1.074738568616064,0.02934759296476841,-0.01775482855737209,0.01022384036332369,-0.01573455333709717,-0.01711529493331909,0.01633954048156738,1,-0.6914946436882019,-0.1818851232528687,-0.1650826036930084,0.6793385148048401,-0.4754306077957153,0.8794657588005066,0.02249408140778542,0,0,0,-1,60879.160794875,3,2,1561238339.328981,1561238131.651496,34,2.131246,0,0,28.10168,0,0,1561238339.329133,60877.898208,0,-1.033203,74.40611,2650659446,177292352,1,1,0.45,-160,-160,1
1561238341.316837,67,0,0,1561238337.873726,4.603142856152619,-74.0647099355964,2642.936,0.2577726,-1,32.07389068603516,245.2453037305048,-9999,1561238341.307498,8.896995544433594,17.84296417236328,5.90350341796875,107.2155303955078,114.7592163085938,15,60881.15581687501,-0.499053955078125,0.8616790771484375,0.0420379638671875,60881.145684875,0.0339523744213112,0.02539510520666859,-0.005359878009893475,60881.135003875,46.571044921875,18.18318176269531,-529.1104736328125,60881.150719875,-1.592351291766168,-1.616902561280153,-1.074674941326211,0.02590279653668404,0.03008619882166386,-0.01332489494234324,-0.02200073003768921,-0.01925176382064819,0.01674139499664307,1,-0.6912831664085388,-0.181926891207695,-0.1650983393192291,0.6795385479927063,-0.4755120873451233,0.8794354796409607,0.02193962037563324,0,0,0,-1,60879.160794875,3,2,1561238339.328981,1561238131.651496,34,2.131246,0,0,28.10168,0,0,1561238339.329133,60877.898208,0,-1.033203,74.40611,2650659446,177292352,1,1,0.45,-160,-160,1
1561238341.337439,68,0,0,1561238337.873726,4.603142856152619,-74.0647099355964,2642.936,0.2577726,-1,32.07389068603516,245.2453037305048,-9999,1561238341.331285,9.042568206787109,17.83131408691406,5.751708984375,107.2567672729492,114.8004531860352,15,60881.176079875,-0.48876953125,0.867462158203125,0.0459136962890625,60881.165948875,0.005699164732769569,0.05733732563718798,-0.01504153383676754,60881.155114875,46.36335754394531,18.21034240722656,-529.1282348632812,60881.170983875,-1.591993323288273,-1.615732402221732,-1.074324456466876,-0.002809808356687427,0.05085113272070885,-0.01674572564661503,-0.01913440227508545,-0.01182162761688232,0.02360117435455322,1,-0.6911274790763855,-0.1817727237939835,-0.1655015796422958,0.6796401143074036,-0.4758454561233521,0.8792685866355896,0.02139702998101711,0,0,0,-1,60879.160794875,3,2,1561238339.328981,1561238131.651496,34,2.131246,0,0,28.10168,0,0,1561238339.329133,60877.898208,0,-1.033203,74.40611,2650659446,177292352,1,1,0.45,-160,-160,1
1561238341.360889,69,0,0,1561238337.873726,4.603142856152619,-74.0647099355964,2642.936,0.2577726,-1,32.07389068603516,245.2453037305048,-9999,1561238341.357509,8.834617614746094,17.90863418579102,5.97943115234375,107.3130111694336,114.8566970825195,15,60881.19631387501,-0.4816436767578125,0.8724517822265625,0.0479736328125,60881.186181875,-0.008475776485286184,0.04574858015370818,-0.01630946483175426,60881.175255875,46.48493957519531,18.2847900390625,-529.1177978515625,60881.191247875,-1.592454913450092,-1.615318397095737,-1.073937702175334,-0.01267552841454744,0.03111983090639114,-0.01886158809065819,-0.008867919445037842,-0.01058453321456909,0.02536988258361816,1,-0.6911059021949768,-0.1816045343875885,-0.1659342795610428,0.6796014308929443,-0.4761937260627747,0.8790842890739441,0.02121515013277531,0,0,0,-1,60879.160794875,3,2,1561238339.328981,1561238131.651496,34,2.131246,0,0,28.10168,0,0,1561238339.329133,60877.898208,0,-1.033203,74.40611,2650659446,177292352,1,1,0.45,-160,-160,1
1561238341.377776,70,0,0,1561238337.873726,4.603142856152619,-74.0647099355964,2642.936,0.2577726,-1,32.07389068603516,245.2453037305048,-9999,1561238341.357509,8.834617614746094,17.90863418579102,5.97943115234375,107.3130111694336,114.8566970825195,15,60881.21657687501,-0.483856201171875,0.869781494140625,0.0465087890625,60881.206444875,-0.001182976156213198,0.006853911381427927,-0.01152030224346477,60881.19536787501,46.61695861816406,18.2061767578125,-528.958740234375,60881.211510875,-1.592846381772111,-1.615461850135002,-1.073566388837198,0.002241369802504778,-0.006196646485477686,-0.01548363361507654,-0.006347298622131348,-0.008744239807128906,0.02453935146331787,1,-0.6911252737045288,-0.181644931435585,-0.166145384311676,0.6795194745063782,-0.4765170812606812,0.8789072036743164,0.02129805088043213,0,0,0,-1,60879.160794875,3,2,1561238339.328981,1561238131.651496,34,2.131246,0,0,28.10168,0,0,1561238339.329133,60877.898208,0,-1.033203,74.40611,2650659446,177292352,1,1,0.45,-160,-160,1
1561238341.397908,71,0,0,1561238337.873726,4.603142856152619,-74.0647099355964,2642.936,0.2577726,-1,32.07389068603516,245.2453037305048,-9999,1561238341.381991,8.925868988037109,17.91053009033203,5.92889404296875,107.3151016235352,114.8587875366211,15,60881.236840875,-0.481201171875,0.8724822998046875,0.044281005859375,60881.226708875,0.01234961060691544,0.001891909638392291,-0.01975000264402763,60881.215508875,46.29763793945312,18.28646850585938,-528.934814453125,60881.23177487501,-1.592556278123073,-1.615330587332017,-1.07308296311496,0.002789714373648167,-0.003202721010893583,-0.02234366908669472,-0.004638195037841797,-0.005843281745910645,0.02607834339141846,1,-0.6910514235496521,-0.1818657219409943,-0.1662582755088806,0.6795079708099365,-0.4769444465637207,0.8786765336990356,0.02125442214310169,0,0,0,-1,60879.160794875,3,2,1561238339.328981,1561238131.651496,34,2.131246,0,0,28.10168,0,0,1561238339.329133,60877.898208,0,-1.033203,74.40611,2650659446,177292352,1,1,0.45,-160,-160,1
1561238341.418299,72,0,0,1561238337.873726,4.603142856152619,-74.0647099355964,2642.936,0.2577726,-1,32.07389068603516,245.2453037305048,-9999,1561238341.408299,9.098285675048828,18.0032844543457,5.91534423828125,107.3076248168945,114.8513107299805,15,60881.257104875,-0.480255126953125,0.8723297119140625,0.04345703125,60881.246972875,0.000345944625601293,-0.0002950782487807796,-0.01786954459832268,60881.235650875,46.79098510742188,18.30062866210938,-528.9798583984375,60881.25203887501,-1.592698176057168,-1.615574890005905,-1.072586554567894,-0.003774711396545172,-0.0002577975392341614,-0.02349894866347313,-0.005886346101760864,-0.008108615875244141,0.02040338516235352,1,-0.6910470724105835,-0.1820691376924515,-0.1663925051689148,0.6794250011444092,-0.4773747622966766,0.8784394264221191,0.02139045484364033,0,0,0,-1,60879.160794875,3,2,1561238339.328981,1561238131.651496,34,2.131246,0,0,28.10168,0,0,1561238339.329133,60877.898208,0,-1.033203,74.40611,2650659446,177292352,1,1,0.45,-160,-160,1
1561238341.447949,73,0,0,1561238337.873726,4.603142856152619,-74.0647099355964,2642.936,0.2577726,-1,32.07389068603516,245.2453037305048,-9999,1561238341.435862,8.991424560546875,17.83422470092773,6.0208740234375,107.311653137207,114.855339050293,15,60881.277367875,-0.478057861328125,0.870452880859375,0.0422210693359375,60881.26723587501,0.005501824495994698,0.01500611379426948,-0.00688693457894491,60881.25576187501,46.54388427734375,18.18443298339844,-528.8995971679688,60881.272301875,-1.592781713368529,-1.615589523831271,-1.072238662923992,0.004850468598306179,0.002372606657445431,-0.005809701047837734,-0.001110672950744629,-0.005226254463195801,0.02247309684753418,1,-0.6910295486450195,-0.1821639984846115,-0.166535273194313,0.6793823838233948,-0.4776796102523804,0.8782731294631958,0.0214111190289259,0,0,0,-1,60879.160794875,3,2,1561238339.328981,1561238131.651496,34,2.131246,0,0,28.10168,0,0,1561238339.329133,60878.845943,0,-1.033203,74.40611,2650659446,177292352,1,1,0.45,-160,-160,1
1561238341.458826,74,0,0,1561238337.873726,4.603142856152619,-74.0647099355964,2642.936,0.2577726,-1,32.07389068603516,245.2453037305048,-9999,1561238341.435862,8.991424560546875,17.83422470092773,6.0208740234375,107.311653137207,114.855339050293,15,60881.297631875,-0.4755096435546875,0.87335205078125,0.0476837158203125,60881.287499875,0.02599804487746253,0.003665841240494071,-0.00662274899880905,60881.275902875,46.73374938964844,18.365966796875,-529.198486328125,60881.292565875,-1.592214995371477,-1.615162090522614,-1.072084111212077,0.01990585029125214,-0.005015002097934484,-0.01087609864771366,0.002451896667480469,-0.007700562477111816,0.02354109287261963,1,-0.6909306049346924,-0.1822673231363297,-0.1665434688329697,0.6794532537460327,-0.4778242111206055,0.8781992197036743,0.02121295593678951,0,0,0,-1,60879.160794875,3,2,1561238339.328981,1561238131.651496,34,2.131246,0,0,28.10168,0,0,1561238339.329133,60878.845943,0,-1.033203,74.40611,2650659446,177292352,1,1,0.45,-160,-160,1
1561238341.479005,75,0,0,1561238337.873726,4.603142856152619,-74.0647099355964,2642.936,0.2577726,-1,32.07389068603516,245.2453037305048,-9999,1561238341.459462,9.039951324462891,17.96918106079102,5.85455322265625,107.2966995239258,114.8403854370117,15,60881.31789587501,-0.475738525390625,0.8751678466796875,0.0466461181640625,60881.307763875,0.01090670992831051,0.006329534962791325,-0.005711148957674926,60881.29601487501,46.55392456054688,18.3258056640625,-528.720458984375,60881.312829875,-1.591804187019339,-1.614929002843854,-1.071884369435263,0.001312458887696266,-0.001665810588747263,-0.005525009706616402,0.001884520053863525,-0.004095494747161865,0.02468228340148926,1,-0.6908585429191589,-0.1823982894420624,-0.1665530651807785,0.6794890761375427,-0.478004515171051,0.8781036734580994,0.02110932394862175,0,0,0,-1,60879.160794875,3,2,1561238339.328981,1561238131.651496,34,2.131246,0,0,28.10168,0,0,1561238339.329133,60878.845943,0,-1.033203,74.40611,2650659446,177292352,1,1,0.45,-160,-160,1
1561238341.499225,76,0,0,1561238337.873726,4.603142856152619,-74.0647099355964,2642.936,0.2577726,-1,32.07389068603516,245.2453037305048,-9999,1561238341.483861,8.864128112792969,17.88900756835938,6.03106689453125,107.289924621582,114.833610534668,15,60881.33815887501,-0.47662353515625,0.8741302490234375,0.043609619140625,60881.328026875,-0.007174822292782475,0.006664294311814286,0.001766208434940551,60881.31615587501,46.62554931640625,18.35333251953125,-528.8720703125,60881.333092875,-1.592207275706021,-1.61532973194428,-1.071806491726928,-0.01147337723523378,-0.001996309030801058,0.001286557875573635,0.001608908176422119,-0.002257704734802246,0.02317547798156738,1,-0.690922737121582,-0.182421863079071,-0.1665784120559692,0.6794113516807556,-0.4780645966529846,0.8780664205551147,0.0213039293885231,0,0,0,-1,60879.160794875,3,2,1561238339.328981,1561238131.651496,34,2.131246,0,0,28.10168,0,0,1561238339.329133,60878.845943,0,-1.033203,74.40611,2650659446,177292352,1,1,0.45,-160,-160,1
1561238341.530555,77,0,0,1561238337.873726,4.603142856152619,-74.0647099355964,2642.936,0.2577726,-1,32.07389068603516,245.2453037305048,-9999,1561238341.509653,8.837284088134766,17.81511688232422,5.91107177734375,107.2909317016602,114.8346176147461,15,60881.358422875,-0.477569580078125,0.87200927734375,0.0410614013671875,60881.348290875,-7.110640110511565e-05,-0.007732754541154076,-0.001725462070262338,60881.336297875,46.44923400878906,18.17791748046875,-529.0638427734375,60881.35335687501,-1.592600343232214,-1.615882256975604,-1.071740770384656,0.0003262902610003948,-0.01691613718867302,-0.00641903281211853,0.0004796981811523438,-0.00559842586517334,0.01930761337280273,1,-0.6909996271133423,-0.1824961602687836,-0.1665435880422592,0.6793217062950134,-0.4781103134155273,0.8780349493026733,0.02157066576182842,0,0,0,-1,60879.160794875,3,2,1561238339.328981,1561238131.651496,34,2.131246,0,0,28.10168,0,0,1561238339.329133,60878.845943,0,-1.033203,74.40611,2650659446,177292352,1,1,0.45,-160,-160,1
1561238341.539846,78,0,0,1561238337.873726,4.603142856152619,-74.0647099355964,2642.936,0.2577726,-1,32.07389068603516,245.2453037305048,-9999,1561238341.534611,8.797317504882812,17.8492317199707,5.88458251953125,107.2716064453125,114.8152923583984,15,60881.378686875,-0.4788360595703125,0.872100830078125,0.03692626953125,60881.36855487501,0.01492808317433016,-0.00158031979085302,-0.01004677521232393,60881.35640887501,46.375,18.16004943847656,-528.989501953125,60881.37362087501,-1.592353984006478,-1.61591733896895,-1.071496561043507,0.008705127984285355,-0.008139155805110931,-0.01331528834998608,-0.0006955862045288086,-0.004764378070831299,0.02007472515106201,1,-0.6909615397453308,-0.1826764941215515,-0.1665315926074982,0.6793148517608643,-0.4783235490322113,0.8779180645942688,0.02159710228443146,0,0,0,-1,60879.160794875,3,2,1561238339.328981,1561238131.651496,34,2.131246,0,0,28.10168,0,0,1561238339.329133,60878.845943,0,-1.033203,74.40611,2650659446,177292352,1,1,0.45,-160,-160,1
1561238341.560299,79,0,0,1561238337.873726,4.603142856152619,-74.0647099355964,2642.936,0.2577726,-1,32.07389068603516,245.2453037305048,-9999,1561238341.534611,8.797317504882812,17.8492317199707,5.88458251953125,107.2716064453125,114.8152923583984,15,60881.398949875,-0.47540283203125,0.873504638671875,0.04058837890625,60881.38881787501,0.02428802914152265,0.01759976637989765,-0.01445457313251407,60881.37654987501,46.41278076171875,18.14241027832031,-528.97265625,60881.393883875,-1.591728676520797,-1.615321831896034,-1.071198641523869,0.02216847240924835,0.0195100475102663,-0.01543356664478779,0.0009824037551879883,-0.006818950176239014,0.01500725746154785,1,-0.6908321380615234,-0.1827919781208038,-0.1666272729635239,0.6793919801712036,-0.4785977602005005,0.8777753710746765,0.02132390066981316,0,0,0,-1,60879.160794875,3,2,1561238339.328981,1561238131.651496,34,2.131246,0,0,28.10168,0,0,1561238339.329133,60878.845943,0,-1.033203,74.40611,2650659446,177292352,1,1,0.45,-160,-160,1
1561238341.580394,80,0,0,1561238337.873726,4.603142856152619,-74.0647099355964,2642.936,0.2577726,-1,32.07389068603516,245.2453037305048,-9999,1561238341.560323,8.92999267578125,17.90812301635742,5.8524169921875,107.2691879272461,114.812873840332,15,60881.419213875,-0.470367431640625,0.8739471435546875,0.0431976318359375,60881.409081875,0.01905837970893405,0.03737799853148013,0.0004239752455406147,60881.396691875,46.51190185546875,18.18968200683594,-529.094482421875,60881.414147875,-1.591049096729896,-1.61418672719647,-1.071056799052478,0.009237493388354778,0.02745505794882774,0.001077499706298113,0.006639063358306885,-0.002249658107757568,0.02163338661193848,1,-0.6906645894050598,-0.1826894581317902,-0.1668371260166168,0.679538369178772,-0.4787459969520569,0.8777074217796326,0.02078602649271488,0,0,0,-1,60879.160794875,3,2,1561238339.328981,1561238131.651496,34,2.131246,0,0,28.10168,0,0,1561238339.329133,60878.845943,0,-1.033203,74.40611,2650659446,177292352,1,1,0.45,-160,-160,1
1561238341.608737,81,0,0,1561238337.873726,4.603142856152619,-74.0647099355964,2642.936,0.2577726,-1,32.07389068603516,245.2453037305048,-9999,1561238341.58449,8.718082427978516,17.86076736450195,5.8494873046875,107.2937774658203,114.8374633789062,15,60881.43947787501,-0.4701690673828125,0.8728485107421875,0.049285888671875,60881.429345875,0.01284602383410621,0.02164430912740099,0.01216904828500807,60881.41680287501,46.16407775878906,18.19235229492188,-528.85400390625,60881.43438087501,-1.590804156452246,-1.613619303350616,-1.071203530624128,0.005795357748866081,0.008015312254428864,0.01238075364381075,0.01003164052963257,-0.005509018898010254,0.02705276012420654,1,-0.6906061172485352,-0.1825311481952667,-0.1668994575738907,0.6796250343322754,-0.4786290526390076,0.8777776956558228,0.02050885930657387,0,0,0,-1,60879.160794875,3,2,1561238339.328981,1561238131.651496,34,2.131246,0,0,28.10168,0,0,1561238339.329133,60878.845943,0,-1.033203,74.40611,2650659446,177292352,1,1,0.45,-160,-160,1
1561238341.620947,82,0,0,1561238337.873726,4.603142856152619,-74.0647099355964,2642.936,0.2577726,-1,32.07389068603516,245.2453037305048,-9999,1561238341.610989,8.824924468994141,17.93719863891602,5.81341552734375,107.2960052490234,114.8396911621094,15,60881.45974087501,-0.4780426025390625,0.872467041015625,0.042694091796875,60881.449609875,0.003005643606263428,-0.008954879165391439,0.01371048592394593,60881.436944875,46.44081115722656,18.24562072753906,-529.1336669921875,60881.454644875,-1.590839994580992,-1.613816273084913,-1.071423298068162,-0.001377333654090762,-0.02709819935262203,0.01036234386265278,0.005379229784011841,-0.004332542419433594,0.02469325065612793,1,-0.6906426548957825,-0.1825106590986252,-0.1667681336402893,0.6796256303787231,-0.4784322082996368,0.8778829574584961,0.02059483528137207,0,0,0,-1,60879.160794875,3,2,1561238339.328981,1561238131.651496,34,2.131246,0,0,28.10168,0,0,1561238339.329133,60878.845943,0,-1.033203,74.40611,2650659446,177292352,1,1,0.45,-160,-160,1
1561238341.641559,83,0,0,1561238337.873726,4.603142856152619,-74.0647099355964,2642.936,0.2577726,-1,32.07389068603516,245.2453037305048,-9999,1561238341.635208,9.031135559082031,17.91622161865234,5.82415771484375,107.2534103393555,114.7970962524414,15,60881.479974875,-0.4821624755859375,0.872467041015625,0.0366363525390625,60881.469872875,0.01284735541465125,-0.03026629315653253,-0.0006314354944577874,60881.457085875,46.73123168945312,18.20298767089844,-529.096923828125,60881.474908875,-1.590691049369329,-1.614387480476243,-1.071455680041149,0.0154442572966218,-0.03375104069709778,-0.00822172686457634,-0.002961874008178711,-0.005416154861450195,0.01897382736206055,1,-0.690679132938385,-0.182745099067688,-0.1665091067552567,0.6795890331268311,-0.4783918559551239,0.8778984546661377,0.0208668727427721,0,0,0,-1,60879.160794875,3,2,1561238339.328981,1561238131.651496,34,2.131246,0,0,28.10168,0,0,1561238339.329133,60878.845943,0,-1.033203,74.40611,2650659446,177292352,1,1,0.45,-160,-160,1
1561238341.663608,84,0,0,1561238337.873726,4.603142856152619,-74.0647099355964,2642.936,0.2577726,-1,32.07389068603516,245.2453037305048,-9999,1561238341.661554,8.900295257568359,18.01228332519531,5.7718505859375,107.2195739746094,114.7632598876953,15,60881.50023787501,-0.47711181640625,0.8726959228515625,0.03515625,60881.490105875,0.02923964455630698,-0.003576092711758401,-0.02037611181630526,60881.47719687501,46.47900390625,18.38912963867188,-528.981201171875,60881.495171875,-1.589831598782967,-1.614034179098872,-1.071117398880251,0.02294105663895607,-0.003634685650467873,-0.0218627043068409,0.0002109408378601074,-0.005284667015075684,0.01558995246887207,1,-0.6905452013015747,-0.1830373555421829,-0.1664552986621857,0.6796597242355347,-0.4786960482597351,0.8777364492416382,0.02071069739758968,0,0,0,-1,60879.160794875,3,2,1561238339.328981,1561238131.651496,34,2.131246,0,0,28.10168,0,0,1561238339.329133,60878.845943,0,-1.033203,74.40611,2650659446,177292352,1,1,0.45,-160,-160,1
1561238341.693207,85,0,0,1561238337.873726,4.603142856152619,-74.0647099355964,2642.936,0.2577726,-1,32.07389068603516,245.2453037305048,-9999,1561238341.661554,8.900295257568359,18.01228332519531,5.7718505859375,107.2195739746094,114.7632598876953,15,60881.52050187501,-0.47113037109375,0.87677001953125,0.0423431396484375,60881.510369875,0.01719416694587858,0.02645610858495616,-0.01072747918694818,60881.497338875,46.717529296875,18.41900634765625,-528.8944091796875,60881.515435875,-1.589203536692162,-1.613265998158319,-1.070800006260797,0.01035682018846273,0.02778182551264763,-0.007765526883304119,0.005403012037277222,-0.003972887992858887,0.0184178352355957,1,-0.6903993487358093,-0.1831014305353165,-0.1666160374879837,0.6797512173652649,-0.4789900481700897,0.8775843381881714,0.02035478875041008,0,0,0,-1,60879.160794875,3,2,1561238339.328981,1561238131.651496,34,2.131246,0,0,28.10168,0,0,1561238339.329133,60878.845943,0,-1.033203,74.40611,2650659446,177292352,1,1,0.45,-160,-160,1
1561238341.701939,86,0,0,1561238337.873726,4.603142856152619,-74.0647099355964,2642.936,0.2577726,-1,32.07389068603516,245.2453037305048,-9999,1561238341.661554,8.900295257568359,18.01228332519531,5.7718505859375,107.2195739746094,114.7632598876953,15,60881.540765875,-0.4716949462890625,0.87652587890625,0.043914794921875,60881.530633875,0.005042429207956029,0.0395047989780174,0.01632890590771184,60881.51744987501,46.85324096679688,18.37179565429688,-528.915283203125,60881.53569987501,-1.589184890979553,-1.612642810284258,-1.070935411888661,0.002915681805461645,0.02856479585170746,0.01976596564054489,0.007646739482879639,0.0004330873489379883,0.02282595634460449,1,-0.6903561353683472,-0.1828498393297195,-0.1667783260345459,0.6798230409622192,-0.4788839519023895,0.8776492476463318,0.02005131542682648,0,0,0,-1,60879.160794875,3,2,1561238339.328981,1561238131.651496,34,2.131246,0,0,28.10168,0,0,1561238339.329133,60878.845943,0,-1.033203,74.40611,2650659446,177292352,1,1,0.45,-160,-160,1
1561238341.722243,87,0,0,1561238337.873726,4.603142856152619,-74.0647099355964,2642.936,0.2577726,-1,32.07389068603516,245.2453037305048,-9999,1561238341.70737,9.017238616943359,17.94755554199219,5.78057861328125,107.2397232055664,114.7834091186523,15,60881.561028875,-0.476043701171875,0.8719329833984375,0.0453948974609375,60881.55089687501,0.01296852924424986,0.02149463947413854,0.02845268045418857,60881.53759187501,46.66192626953125,18.5711669921875,-528.8662109375,60881.55596287501,-1.589027456214294,-1.612149517716704,-1.07142403805142,0.01105483435094357,0.001179510727524757,0.02397242933511734,0.004557788372039795,-0.002883315086364746,0.02617740631103516,1,-0.6903383135795593,-0.182569682598114,-0.1667272746562958,0.6799289584159851,-0.4784652888774872,0.8778833150863647,0.01979735307395458,0,0,0,-1,60879.160794875,3,2,1561238339.328981,1561238131.651496,34,2.131246,0,0,28.10168,0,0,1561238339.329133,60878.845943,0,-1.033203,74.40611,2650659446,177292352,1,1,0.45,-160,-160,1
1561238341.742583,88,0,0,1561238337.873726,4.603142856152619,-74.0647099355964,2642.936,0.2577726,-1,32.07389068603516,245.2453037305048,-9999,1561238341.736482,8.979972839355469,18.02873992919922,5.71856689453125,107.2494354248047,114.7931213378906,15,60881.581292875,-0.4794464111328125,0.8692474365234375,0.04644775390625,60881.57116087501,0.02197933479253296,-0.009684585304073149,0.01886929527153842,60881.557732875,46.40176391601562,18.25018310546875,-529.1512451171875,60881.576226875,-1.588461450334157,-1.611920284562249,-1.071807260935169,0.01960011944174767,-0.01962350681424141,0.01269953418523073,0.0003962516784667969,-0.009292364120483398,0.02468347549438477,1,-0.6902971267700195,-0.1825562864542007,-0.1664823591709137,0.6800343990325928,-0.4781337082386017,0.8780667781829834,0.01967384107410908,0,0,0,-1,60879.160794875,3,2,1561238339.328981,1561238131.651496,34,2.131246,0,0,28.10168,0,0,1561238339.329133,60878.845943,0,-1.033203,74.40611,2650659446,177292352,1,1,0.45,-160,-160,1
1561238341.762817,89,0,0,1561238337.873726,4.603142856152619,-74.0647099355964,2642.936,0.2577726,-1,32.07389068603516,245.2453037305048,-9999,1561238341.736482,8.979972839355469,18.02873992919922,5.71856689453125,107.2494354248047,114.7931213378906,15,60881.601556875,-0.4857025146484375,0.8684234619140625,0.0405426025390625,60881.59142487501,0.009195895244043609,-0.01600879394468432,0.0147781472049587,60881.57784387501,46.47799682617188,18.32882690429688,-529.1214599609375,60881.596490875,-1.588071888111119,-1.612019097214239,-1.072051530222351,0.004637149162590504,-0.01989435032010078,0.008400393649935722,-0.004046916961669922,-0.008493661880493164,0.02403473854064941,1,-0.6902886629104614,-0.1826408505439758,-0.1662317961454391,0.6800814867019653,-0.4779171645641327,0.8781836628913879,0.01971223764121532,0,0,0,-1,60879.160794875,3,2,1561238339.328981,1561238131.651496,34,2.131246,0,0,28.10168,0,0,1561238339.329133,60878.845943,0,-1.033203,74.40611,2650659446,177292352,1,1,0.45,-160,-160,1
1561238341.783101,90,0,0,1561238337.873726,4.603142856152619,-74.0647099355964,2642.936,0.2577726,-1,32.07389068603516,245.2453037305048,-9999,1561238341.765775,8.875465393066406,17.95252227783203,5.94085693359375,107.216911315918,114.7605972290039,15,60881.62181987501,-0.4854278564453125,0.8704986572265625,0.03936767578125,60881.611687875,0.004773716253967035,0.01129233565415399,0.002220277400799061,60881.59798587501,46.75798034667969,18.09780883789062,-529.2089233398438,60881.616753875,-1.588069842518098,-1.612150869438491,-1.072113736740052,0.0001531848683953285,0.005560410209000111,-0.001663159462623298,-0.007811874151229858,-0.009210109710693359,0.02098321914672852,1,-0.6903042197227478,-0.1826651692390442,-0.166164293885231,0.6800757050514221,-0.4778601229190826,0.8782134056091309,0.01977295987308025,0,0,0,-1,60879.160794875,3,2,1561238339.328981,1561238131.651496,34,2.131246,0,0,28.10168,0,0,1561238339.329133,60878.845943,0,-1.033203,74.40611,2650659446,177292352,1,1,0.45,-160,-160,1
1561238341.803331,91,0,0,1561238337.873726,4.603142856152619,-74.0647099355964,2642.936,0.2577726,-1,32.07389068603516,245.2453037305048,-9999,1561238341.787582,9.073841094970703,17.82357406616211,5.735595703125,107.2171020507812,114.7607879638672,15,60881.64207575,-0.48297119140625,0.8725128173828125,0.039825439453125,60881.63194375001,0.008329568941440834,0.01844558634210682,-0.0007835019927013119,60881.61808875,46.64608764648438,18.31802368164062,-529.05224609375,60881.63700975,-1.587974621359436,-1.611928408694874,-1.072097688235737,0.008517907932400703,0.01077860780060291,-0.001944655668921769,-0.007640659809112549,-0.006394803524017334,0.01834237575531006,1,-0.6902757883071899,-0.1826279163360596,-0.166214257478714,0.6801024079322815,-0.4778787195682526,0.8782057166099548,0.0196672398597002,0,0,0,-1,60879.160794875,3,2,1561238339.328981,1561238131.651496,34,2.131246,0,0,28.10168,0,0,1561238339.329133,60878.845943,0,-1.033203,74.40611,2650659446,177292352,1,1,0.45,-160,-160,1
1561238341.842396,92,0,0,1561238337.873726,4.603142856152619,-74.0647099355964,2642.936,0.2577726,-1,32.07389068603516,245.2453037305048,-9999,1561238341.837836,9.272743225097656,17.98334121704102,5.70416259765625,107.2193145751953,114.7630004882812,15,60881.66233975,-0.4819488525390625,0.8727569580078125,0.0454559326171875,60881.65220775,0.02133298559597073,0.01413712433057663,0.002885002408882839,60881.63823075,46.50888061523438,18.43351745605469,-528.771240234375,60881.65727375,-1.587461609747849,-1.611328502536372,-1.072080849089905,0.02241268381476402,0.008811596781015396,1.436565071344376e-05,-0.006759941577911377,-0.005242347717285156,0.02050530910491943,1,-0.6901777982711792,-0.1826066225767136,-0.166252538561821,0.6801981329917908,-0.4779049754142761,0.8781976699829102,0.01938114315271378,0,0,0,-1,60879.160794875,3,2,1561238339.328981,1561238131.651496,34,2.131246,0,0,28.10168,0,0,1561238339.329133,60878.845943,0,-1.033203,74.40611,2650659446,177292352,1,1,0.45,-160,-160,1
1561238341.844934,93,0,0,1561238337.873726,4.603142856152619,-74.0647099355964,2642.936,0.2577726,-1,32.07389068603516,245.2453037305048,-9999,1561238341.837836,9.272743225097656,17.98334121704102,5.70416259765625,107.2193145751953,114.7630004882812,15,60881.68260275001,-0.482452392578125,0.8718109130859375,0.0484619140625,60881.67247075,0.01621305840029339,0.01239648224210084,0.01033466292616149,60881.65837175,46.41229248046875,18.35110473632812,-529.108642578125,60881.67753675,-1.586880626283217,-1.610711279920024,-1.072190658637992,0.006929864175617695,0.006068275310099125,0.01112267654389143,-0.003639847040176392,-0.004470884799957275,0.02974581718444824,1,-0.6900819540023804,-0.1825597435235977,-0.1662302613258362,0.6803134679794312,-0.4778207242488861,0.8782501816749573,0.01908232644200325,0,0,0,-1,60879.160794875,3,2,1561238339.328981,1561238131.651496,34,2.131246,0,0,28.10168,0,0,1561238339.329133,60878.845943,0,-1.033203,74.40611,2650659446,177292352,1,1,0.45,-160,-160,1
1561238341.864234,94,0,0,1561238337.873726,4.603142856152619,-74.0647099355964,2642.936,0.2577726,-1,32.07389068603516,245.2453037305048,-9999,1561238341.837836,9.272743225097656,17.98334121704102,5.70416259765625,107.2193145751953,114.7630004882812,15,60881.70286675001,-0.483673095703125,0.8723907470703125,0.053314208984375,60881.69273475,0.003077815271804576,0.007730624012282012,0.009890447656336275,60881.67848275,46.77334594726562,18.17674255371094,-528.8841552734375,60881.69780075,-1.586935148481279,-1.61074294392078,-1.072342114928802,-0.004900962114334106,-0.004407002590596676,0.00676095113158226,-0.002949535846710205,-0.008998870849609375,0.03344392776489258,1,-0.6901013255119324,-0.1824999451637268,-0.1661858111619949,0.680320680141449,-0.4776870608329773,0.8783226013183594,0.0190921388566494,0,0,0,-1,60879.160794875,3,2,1561238339.328981,1561238131.651496,34,2.131246,0,0,28.10168,0,0,1561238339.329133,60878.845943,0,-1.033203,74.40611,2650659446,177292352,1,1,0.45,-160,-160,1
1561238341.884291,95,0,0,1561238337.873726,4.603142856152619,-74.0647099355964,2642.936,0.2577726,-1,32.07389068603516,245.2453037305048,-9999,1561238341.864248,9.022563934326172,17.8551025390625,5.9293212890625,107.2201843261719,114.7638702392578,15,60881.72313075,-0.485382080078125,0.87115478515625,0.046417236328125,60881.71299875,-0.0138873198203272,-0.004597947622021805,0.008701878861833911,60881.69862475,46.62158203125,18.13172912597656,-528.93408203125,60881.71806475001,-1.587560593408327,-1.611494989855688,-1.072430802338233,-0.01814539358019829,-0.01514806319028139,0.00286607863381505,-0.008428215980529785,-0.005470693111419678,0.02921199798583984,1,-0.690227746963501,-0.1825096160173416,-0.1661085486412048,0.680208683013916,-0.4775947034358978,0.8783649802207947,0.01944820582866669,0,0,0,-1,60879.160794875,3,2,1561238339.328981,1561238131.651496,34,2.131246,0,0,28.10168,0,0,1561238339.329133,60878.845943,0,-1.033203,74.40611,2650659446,177292352,1,1,0.45,-160,-160,1
1561238341.926354,96,0,0,1561238337.873726,4.603142856152619,-74.0647099355964,2642.936,0.2577726,-1,32.07389068603516,245.2453037305048,-9999,1561238341.919841,8.800537109375,17.8946418762207,5.8553466796875,107.1772003173828,114.7208862304688,15,60881.74339375,-0.4873199462890625,0.8706207275390625,0.0445404052734375,60881.73326175001,-0.001686313602238174,-0.01592197489314773,-0.003394198809305989,60881.71873575,46.62660217285156,18.1807861328125,-529.0053100585938,60881.73829775,-1.588081051893231,-1.612421500338905,-1.072346847536009,-0.002057771198451519,-0.02721644379198551,-0.009958107024431229,-0.008616924285888672,-0.00758206844329834,0.02637088298797607,1,-0.6903457045555115,-0.1826737225055695,-0.1659945994615555,0.6800727248191833,-0.4776501357555389,0.8783248662948608,0.01989376172423363,0,0,0,-1,60879.160794875,3,2,1561238339.328981,1561238131.651496,34,2.131246,0,0,28.10168,0,0,1561238341.922048,60878.845943,0,-1.033203,74.40611,2650659446,177292352,1,1,0.45,-160,-160,1
1561238341.928983,97,0,0,1561238337.873726,4.603142856152619,-74.0647099355964,2642.936,0.2577726,-1,32.07389068603516,245.2453037305048,-9999,1561238341.919841,8.800537109375,17.8946418762207,5.8553466796875,107.1772003173828,114.7208862304688,15,60881.76365775,-0.483245849609375,0.8695526123046875,0.0419921875,60881.75352575001,0.01564420719145247,-0.02119929490924875,-0.009082444581606234,60881.73887775,46.39698791503906,18.20872497558594,-529.107421875,60881.75856075,-1.587882653781692,-1.612876688733714,-1.07209930449943,0.0172104649245739,-0.02982687391340733,-0.01202951371669769,-0.007554292678833008,-0.008440256118774414,0.02145981788635254,1,-0.6903462409973145,-0.1829815059900284,-0.1658550798892975,0.6800234913825989,-0.477858304977417,0.8782064914703369,0.02012032829225063,0,0,0,-1,60879.160794875,3,2,1561238339.328981,1561238131.651496,34,2.131246,0,0,28.10168,0,0,1561238341.922048,60878.845943,0,-1.033203,74.40611,2650659446,177292352,1,1,0.45,-160,-160,1
1561238341.945193,98,0,0,1561238337.873726,4.603142856152619,-74.0647099355964,2642.936,0.2577726,-1,32.07389068603516,245.2453037305048,-9999,1561238341.919841,8.800537109375,17.8946418762207,5.8553466796875,107.1772003173828,114.7208862304688,15,60881.78389075,-0.4821014404296875,0.8746185302734375,0.0424652099609375,60881.77378975,0.02659912033549341,-0.009092564593748536,-0.008136756078519096,60881.75901875,46.5679931640625,17.95878601074219,-529.1006469726562,60881.77882475001,-1.587085651117599,-1.612614439901005,-1.071865328616188,0.01834896579384804,-0.01283617317676544,-0.01162418071180582,-0.003452837467193604,-0.00640571117401123,0.0238349437713623,1,-0.6902334690093994,-0.1832472532987595,-0.1657549440860748,0.6800907850265503,-0.4780687689781189,0.8780945539474487,0.02000359445810318,0,0,0,-1,60879.160794875,3,2,1561238339.328981,1561238131.651496,34,2.131246,0,0,28.10168,0,0,1561238341.922048,60878.845943,0,-1.033203,74.40611,2650659446,177292352,1,1,0.45,-160,-160,1
1561238341.965365,99,0,0,1561238337.873726,4.603142856152619,-74.0647099355964,2642.936,0.2577726,-1,32.07389068603516,245.2453037305048,-9999,1561238341.919841,8.800537109375,17.8946418762207,5.8553466796875,107.1772003173828,114.7208862304688,15,60881.80415475,-0.4768218994140625,0.87445068359375,0.0461883544921875,60881.79402275,0.005392368575192441,0.008078166534537353,-0.008727445208298672,60881.77912975,46.67294311523438,18.27772521972656,-529.1363525390625,60881.79908875001,-1.586889759446969,-1.612563346674852,-1.071606304875351,-0.002968838671222329,0.004436289891600609,-0.009424942545592785,-0.001683056354522705,-0.003550410270690918,0.02240025997161865,1,-0.6901912093162537,-0.1833860278129578,-0.1657950878143311,0.680086612701416,-0.4782973825931549,0.8779705762863159,0.01998868212103844,0,0,0,-1,60879.160794875,3,2,1561238339.328981,1561238131.651496,34,2.131246,0,0,28.10168,0,0,1561238341.922048,60878.845943,0,-1.033203,74.40611,2650659446,177292352,1,1,0.45,-160,-160,1
1561238342.01426,100,0,0,1561238337.873726,4.603142856152619,-74.0647099355964,2642.936,0.2577726,-1,32.07389068603516,245.2453037305048,-9999,1561238341.990413,8.954486846923828,17.89213562011719,5.8150634765625,107.1282653808594,114.6719512939453,15,60881.82441775,-0.475860595703125,0.871551513671875,0.0442962646484375,60881.81428675001,-0.0084326332756269,0.005519135043080214,0.01317439159651298,60881.79927175,46.40277099609375,18.33311462402344,-528.929443359375,60881.81935175,-1.587386304657868,-1.613010289504465,-1.07163109462783,-0.007055992260575294,-0.006240854971110821,0.01425082515925169,0.0003305673599243164,-0.002265274524688721,0.02327084541320801,1,-0.6902757287025452,-0.1833580583333969,-0.1658010482788086,0.6800068020820618,-0.4782663285732269,0.8779824376106262,0.02020151913166046,0,0,0,-1,60879.160794875,3,2,1561238339.328981,1561238131.651496,34,2.131246,0,0,28.10168,0,0,1561238341.922048,60878.845943,0,-1.033203,74.40611,2650659446,177292352,1,1,0.45,-160,-160,1
1561238342.017935,101,0,0,1561238337.873726,4.603142856152619,-74.0647099355964,2642.936,0.2577726,-1,32.07389068603516,245.2453037305048,-9999,1561238342.01643,9.080986022949219,18.07501602172852,5.77081298828125,107.0927352905273,114.6364212036133,15,60881.84468175,-0.4763641357421875,0.8606719970703125,0.041961669921875,60881.83454975,0.004597947622021805,-0.01922083253542889,0.009387376526420306,60881.81938275001,46.66767883300781,18.39634704589844,-529.1492309570312,60881.83961575,-1.587545247352324,-1.613549805050281,-1.071786092989604,0.004929563961923122,-0.02844389528036118,8.600461296737194e-05,0.004807144403457642,-0.01242554187774658,0.02341532707214355,1,-0.6903469562530518,-0.1834337711334229,-0.1656156629323959,0.6799592971801758,-0.4781195223331451,0.8780566453933716,0.02045373618602753,0,0,0,-1,60879.160794875,3,2,1561238339.328981,1561238131.651496,34,2.131246,0,0,28.10168,0,0,1561238341.922048,60878.845943,0,-1.033203,74.40611,2650659446,177292352,1,1,0.45,-160,-160,1
1561238342.026116,102,0,0,1561238337.873726,4.603142856152619,-74.0647099355964,2642.936,0.2577726,-1,32.07389068603516,245.2453037305048,-9999,1561238342.01643,9.080986022949219,18.07501602172852,5.77081298828125,107.0927352905273,114.6364212036133,15,60881.86494575001,-0.4784393310546875,0.8636627197265625,0.040557861328125,60881.85481375,0.01296773029592284,-0.01142496107643993,-0.02478923605867556,60881.83952475,46.75178527832031,18.2186279296875,-529.080322265625,60881.85987975,-1.587302475445365,-1.613825567233508,-1.07141259778091,0.007575947791337967,-0.01233603246510029,-0.03825712203979492,-0.001203417778015137,-0.01677858829498291,0.02206385135650635,1,-0.6903187036514282,-0.1837387531995773,-0.1655662357807159,0.6799176335334778,-0.4784413874149323,0.8778778314590454,0.02059968374669552,0,0,0,-1,60879.160794875,3,2,1561238339.328981,1561238131.651496,34,2.131246,0,0,28.10168,0,0,1561238341.922048,60878.845943,0,-1.033203,74.40611,2650659446,177292352,1,1,0.45,-160,-160,1
1561238342.046396,103,0,0,1561238337.873726,4.603142856152619,-74.0647099355964,2642.936,0.2577726,-1,32.07389068603516,245.2453037305048,-9999,1561238342.040459,9.078769683837891,18.00806427001953,5.9541015625,107.0979537963867,114.6416397094727,15,60881.88520875001,-0.4627532958984375,0.8751373291015625,0.036346435546875,60881.87507775,-0.004025634303763776,0.02634425581917283,-0.05402808166665552,60881.85963575001,46.51106262207031,18.28559875488281,-528.9552612304688,60881.88014375,-1.587388620493799,-1.613744050825574,-1.070363362903943,-0.01597385294735432,0.02860900387167931,-0.05719006806612015,0.007499992847442627,-0.009210824966430664,0.01847755908966064,1,-0.6902388334274292,-0.1840392798185349,-0.1659840494394302,0.6798154711723328,-0.4793627858161926,0.8773748874664307,0.02060020714998245,0,0,0,-1,60879.160794875,3,2,1561238339.328981,1561238131.651496,34,2.131246,0,0,28.10168,0,0,1561238341.922048,60878.845943,0,-1.033203,74.40611,2650659446,177292352,1,1,0.45,-160,-160,1
1561238342.091839,104,0,0,1561238337.873726,4.603142856152619,-74.0647099355964,2642.936,0.2577726,-1,32.07389068603516,245.2453037305048,-9999,1561238342.067247,9.074447631835938,17.86690521240234,5.93438720703125,107.1560668945312,114.6997528076172,15,60881.90547275,-0.444244384765625,0.89300537109375,0.0388336181640625,60881.89534075,-0.01458853013534506,0.04511022044041618,-0.02898211687889632,60881.87977675001,46.67210388183594,18.16166687011719,-529.1871337890625,60881.90040675001,-1.588208932830281,-1.613759338096304,-1.06950595474186,-0.0122179975733161,0.03787760436534882,-0.01364658493548632,0.02825549244880676,0.006337583065032959,0.01614916324615479,1,-0.6902492642402649,-0.1840540021657944,-0.1665521562099457,0.6796619892120361,-0.4801140129566193,0.876963198184967,0.02063984423875809,0,0,0,-1,60879.160794875,3,2,1561238339.328981,1561238131.651496,34,2.131246,0,0,28.10168,0,0,1561238341.922048,60878.845943,0,-1.033203,74.40611,2650659446,177292352,1,1,0.45,-160,-160,1
1561238342.094711,105,0,0,1561238337.873726,4.603142856152619,-74.0647099355964,2642.936,0.2577726,-1,32.07389068603516,245.2453037305048,-9999,1561238342.067247,9.074447631835938,17.86690521240234,5.93438720703125,107.1560668945312,114.6997528076172,15,60881.92573675,-0.4362030029296875,0.897735595703125,0.0442047119140625,60881.91560475,0.01411688430629203,0.0212008928059028,0.04830628006462028,60881.89991875,46.77104187011719,18.25042724609375,-528.9409790039062,60881.92067075001,-1.588242122457259,-1.61331710971817,-1.070030569050326,0.01841900870203972,-0.0007736515253782272,0.06826026737689972,0.0423160195350647,0.02181744575500488,0.02195048332214355,1,-0.6902560591697693,-0.1837132424116135,-0.166535884141922,0.6797512769699097,-0.4796634316444397,0.8772152066230774,0.02040796540677547,0,0,0,-1,60879.160794875,3,2,1561238339.328981,1561238131.651496,34,2.131246,0,0,28.10168,0,0,1561238341.922048,60878.845943,0,-1.033203,74.40611,2650659446,177292352,1,1,0.45,-160,-160,1
1561238342.107074,106,0,0,1561238337.873726,4.603142856152619,-74.0647099355964,2642.936,0.2577726,-1,32.07389068603516,245.2453037305048,-9999,1561238342.091022,8.902584075927734,17.96115493774414,5.74468994140625,107.1559143066406,114.6996002197266,15,60881.94599975,-0.461944580078125,0.8935699462890625,0.0441131591796875,60881.93586875001,0.02759966995703619,-0.0216309933219506,0.1385903704955055,60881.92002975001,46.57157897949219,18.14625549316406,-529.0130004882812,60881.94093475,-1.587580549077799,-1.613186436904728,-1.072325239206947,0.02105074375867844,-0.03619103133678436,0.1520318537950516,0.03174611926078796,0.01853609085083008,0.02592837810516357,1,-0.6903616786003113,-0.1831139475107193,-0.1655677855014801,0.6800421476364136,-0.4776537120342255,0.8783145546913147,0.0202599298208952,0,0,0,-1,60879.160794875,3,2,1561238339.328981,1561238131.651496,34,2.131246,0,0,28.10168,0,0,1561238341.922048,60878.845943,0,-1.033203,74.40611,2650659446,177292352,1,1,0.45,-160,-160,1
1561238342.12737,107,0,0,1561238337.873726,4.603142856152619,-74.0647099355964,2642.936,0.2577726,-1,32.07389068603516,245.2453037305048,-9999,1561238342.117585,8.997337341308594,17.85171508789062,5.73358154296875,107.0985794067383,114.6422653198242,15,60881.96626375,-0.4977569580078125,0.86767578125,0.0424346923828125,60881.95613175,0.004447745336541336,-0.03627172141466121,0.162567342421707,60881.94017175,46.52987670898438,18.29606628417969,-529.1286010742188,60881.96119775,-1.587682552858132,-1.614143671888264,-1.075537748873707,-0.004776326008141041,-0.03731754794716835,0.1453401297330856,-0.00501522421836853,0.0001743435859680176,0.02135157585144043,1,-0.6906962990760803,-0.1823074519634247,-0.1641678959131241,0.6802583932876587,-0.4748126566410065,0.8798458576202393,0.02059477008879185,0,0,0,-1,60879.160794875,3,2,1561238339.328981,1561238131.651496,34,2.131246,0,0,28.10168,0,0,1561238341.922048,60878.845943,0,-1.033203,74.40611,2650659446,177292352,1,1,0.45,-160,-160,1
1561238342.170159,108,0,0,1561238337.873726,4.603142856152619,-74.0647099355964,2642.936,0.2577726,-1,32.07389068603516,245.2453037305048,-9999,1561238342.117585,8.997337341308594,17.85171508789062,5.73358154296875,107.0985794067383,114.6422653198242,15,60881.98652775001,-0.5152130126953125,0.8524322509765625,0.0425567626953125,60881.97639575,-0.01217517355551525,-0.01159780023118607,0.08192735724632562,60881.96031275,46.64286804199219,18.51615905761719,-529.0363159179688,60881.98146175,-1.588440514182268,-1.61531845999822,-1.077629462550579,-0.01546705327928066,-0.007006780244410038,0.05322485789656639,-0.03686255216598511,-0.02187502384185791,0.02139461040496826,1,-0.6910203695297241,-0.1817310005426407,-0.1633008569478989,0.6802923083305359,-0.4729488492012024,0.8808380365371704,0.02107061445713043,0,0,0,-1,60879.160794875,3,2,1561238339.328981,1561238131.651496,34,2.131246,0,0,28.10168,0,0,1561238341.922048,60878.845943,0,-1.033203,74.40611,2650659446,177292352,1,1,0.45,-160,-160,1
1561238342.174226,109,0,0,1561238337.873726,4.603142856152619,-74.0647099355964,2642.936,0.2577726,-1,32.07389068603516,245.2453037305048,-9999,1561238342.117585,8.997337341308594,17.85171508789062,5.73358154296875,107.0985794067383,114.6422653198242,15,60882.00679075001,-0.5126800537109375,0.8590087890625,0.0455780029296875,60881.99665975,-0.01174480672335845,0.01098154475494174,-0.0095215998453603,60881.98042375001,46.7098388671875,18.13641357421875,-529.0140380859375,60882.00172575,-1.589216208671065,-1.61598721632292,-1.077879202066268,-0.01467103511095047,0.004954807460308075,-0.02600924670696259,-0.04317003488540649,-0.02681499719619751,0.02337706089019775,1,-0.6911643147468567,-0.1816049516201019,-0.1632475554943085,0.6801923513412476,-0.472714364528656,0.88095623254776,0.02137693762779236,0,0,0,-1,60879.160794875,3,2,1561238339.328981,1561238131.651496,34,2.131246,0,0,28.10168,0,0,1561238341.922048,60878.845943,0,-1.033203,74.40611,2650659446,177292352,1,1,0.45,-160,-160,1
1561238342.188187,110,0,0,1561238337.873726,4.603142856152619,-74.0647099355964,2642.936,0.2577726,-1,32.07389068603516,245.2453037305048,-9999,1561238342.180876,8.962566375732422,17.93984222412109,5.9442138671875,107.0702743530273,114.6139602661133,15,60882.02705475,-0.497344970703125,0.869171142578125,0.0415802001953125,60882.01692275,-0.01961737722174169,0.009176187851977022,-0.03720089831898985,60882.00056575,46.87699890136719,18.291748046875,-529.0198974609375,60882.02195875,-1.590087709911094,-1.616700025928972,-1.077218705128156,-0.02539105713367462,-0.001049289014190435,-0.04284095391631126,-0.03337252140045166,-0.01560747623443604,0.02321183681488037,1,-0.6912519931793213,-0.1817717701196671,-0.1635247021913528,0.679992139339447,-0.4732803106307983,0.8806434869766235,0.02174058929085732,0,0,0,-1,60879.160794875,3,2,1561238339.328981,1561238131.651496,34,2.131246,0,0,28.10168,0,0,1561238341.922048,60878.845943,0,-1.033203,74.40611,2650659446,177292352,1,1,0.45,-160,-160,1
1561238342.208397,111,0,0,1561238337.873726,4.603142856152619,-74.0647099355964,2642.936,0.2577726,-1,32.07389068603516,245.2453037305048,-9999,1561238342.180876,8.962566375732422,17.93984222412109,5.9442138671875,107.0702743530273,114.6139602661133,15,60882.04731875,-0.484283447265625,0.87347412109375,0.0369720458984375,60882.03718675001,-0.01514246764208154,-0.0111115070161376,-0.03935939038249908,60882.02070675,46.51602172851562,17.82644653320312,-528.9996337890625,60882.04222175,-1.591070991745995,-1.617825611186886,-1.076338579921508,-0.009504236280918121,-0.02668567560613155,-0.04015595465898514,-0.0163266658782959,-0.007362425327301025,0.01631021499633789,1,-0.6913674473762512,-0.1821151226758957,-0.1637725234031677,0.6797232627868652,-0.4740297496318817,0.880226194858551,0.02230972982943058,0,0,0,-1,60879.160794875,3,2,1561238339.328981,1561238131.651496,34,2.131246,0,0,28.10168,0,0,1561238341.922048,60878.845943,0,-1.033203,74.40611,2650659446,177292352,1,1,0.45,-160,-160,1
1561238342.241325,112,0,0,1561238337.873726,4.603142856152619,-74.0647099355964,2642.936,0.2577726,-1,32.07389068603516,245.2453037305048,-9999,1561238342.218741,9.010707855224609,17.67012786865234,5.90447998046875,107.0694427490234,114.6131286621094,15,60882.06758175,-0.4777984619140625,0.87139892578125,0.0315704345703125,60882.05745075001,0.0165158598162354,-0.03305355755340945,-0.03524906755607078,60882.04084875,46.65870666503906,18.25698852539062,-529.055419921875,60882.06248575,-1.590841635711449,-1.618353639188037,-1.07546119580623,0.01638435199856758,-0.03914740681648254,-0.03673991933465004,-0.006076216697692871,-0.006426870822906494,0.01201021671295166,1,-0.6913239359855652,-0.1826734393835068,-0.1638137102127075,0.6796078085899353,-0.4747892618179321,0.8798094391822815,0.02259673923254013,0,0,0,-1,60879.160794875,3,2,1561238339.328981,1561238131.651496,34,2.131246,0,0,28.10168,0,0,1561238341.922048,60878.845943,0,-1.033203,74.40611,2650659446,177292352,1,1,0.45,-160,-160,1
1561238342.248899,113,0,0,1561238337.873726,4.603142856152619,-74.0647099355964,2642.936,0.2577726,-1,32.07389068603516,245.2453037305048,-9999,1561238342.24408,9.068756103515625,17.69667816162109,5.75604248046875,107.0144729614258,114.5581588745117,15,60882.08781575,-0.4767608642578125,0.8671417236328125,0.0321044921875,60882.07771375,0.02308214979993477,-0.02045387612013557,-0.02923485086634484,60882.06095975,46.45365905761719,18.20977783203125,-529.0667724609375,60882.08274975001,-1.590028811289426,-1.61830173668076,-1.074671652878732,0.01879371330142021,-0.01610254123806953,-0.03057629987597466,-0.0008800625801086426,-0.01061367988586426,0.008858561515808105,1,-0.6911859512329102,-0.1832062155008316,-0.1638268381357193,0.6796015501022339,-0.4754840731620789,0.8794338703155518,0.02260507270693779,0,0,0,-1,60879.160794875,3,2,1561238339.328981,1561238131.651496,34,2.131246,0,0,28.10168,0,0,1561238341.922048,60878.845943,0,-1.033203,74.40611,2650659446,177292352,1,1,0.45,-160,-160,1
1561238342.269346,114,0,0,1561238337.873726,4.603142856152619,-74.0647099355964,2642.936,0.2577726,-1,32.07389068603516,245.2453037305048,-9999,1561238342.24408,9.068756103515625,17.69667816162109,5.75604248046875,107.0144729614258,114.5581588745117,15,60882.10807875,-0.476806640625,0.8689422607421875,0.0382537841796875,60882.09794675,0.01658004199850631,0.0061673484524055,-0.03338458847690631,60882.08110175,46.64349365234375,18.11239624023438,-528.870361328125,60882.10301275001,-1.589424117305903,-1.617904762974004,-1.073910881682937,0.01139705069363117,0.006525273434817791,-0.03790292143821716,-0.001820296049118042,-0.01304364204406738,0.01235747337341309,1,-0.6910405158996582,-0.1835399568080902,-0.1640200912952423,0.6796128153800964,-0.4761612713336945,0.8790714740753174,0.02244782075285912,0,0,0,-1,60879.160794875,3,2,1561238339.328981,1561238131.651496,34,2.131246,0,0,28.10168,0,0,1561238341.922048,60878.845943,0,-1.033203,74.40611,2650659446,177292352,1,1,0.45,-160,-160,1
1561238342.289955,115,0,0,1561238337.873726,4.603142856152619,-74.0647099355964,2642.936,0.2577726,-1,32.07389068603516,245.2453037305048,-9999,1561238342.269365,8.998779296875,17.84659194946289,5.89825439453125,107.0017166137695,114.5454025268555,15,60882.12834275,-0.475372314453125,0.871734619140625,0.0380706787109375,60882.11821075001,0.0007145261204682597,0.00997327196623774,-0.03273637506758102,60882.10124275,46.64675903320312,18.248046875,-528.9031372070312,60882.12327675,-1.589349103332133,-1.617747527622738,-1.073105886636691,-0.00184818054549396,-0.003540676087141037,-0.03491565585136414,0.001941502094268799,-0.007593691349029541,0.01540517807006836,1,-0.6909597516059875,-0.1837870925664902,-0.1643255650997162,0.679554283618927,-0.4768713116645813,0.8786875009536743,0.02240614779293537,0,0,0,-1,60879.160794875,3,2,1561238339.328981,1561238131.651496,34,2.131246,0,0,28.10168,0,0,1561238341.922048,60878.845943,0,-1.033203,74.40611,2650659446,177292352,1,1,0.45,-160,-160,1
1561238342.325557,116,0,0,1561238337.873726,4.603142856152619,-74.0647099355964,2642.936,0.2577726,-1,32.07389068603516,245.2453037305048,-9999,1561238342.319868,8.819240570068359,17.96834945678711,5.9166259765625,106.976318359375,114.5200042724609,15,60882.14860675,-0.467041015625,0.87371826171875,0.0367431640625,60882.13847475001,0.0002383529175620918,-0.01076423080999127,-0.03690475480577304,60882.12135375,46.61279296875,18.33352661132812,-529.2745971679688,60882.14354075,-1.589432522021562,-1.618076987801874,-1.072313519991061,-0.003829039866104722,-0.02176708355545998,-0.04019803553819656,0.007588863372802734,-0.005521416664123535,0.01724457740783691,1,-0.6909343600273132,-0.1841406971216202,-0.1645125448703766,0.6794392466545105,-0.4775595664978027,0.8783089518547058,0.02259617298841476,0,0,0,-1,60879.160794875,3,2,1561238339.328981,1561238131.651496,34,2.131246,0,0,28.10168,0,0,1561238341.922048,60878.845943,0,-1.033203,74.40611,2650659446,177292352,1,1,0.45,-160,-160,1
1561238342.330058,117,0,0,1561238337.873726,4.603142856152619,-74.0647099355964,2642.936,0.2577726,-1,32.07389068603516,245.2453037305048,-9999,1561238342.319868,8.819240570068359,17.96834945678711,5.9166259765625,106.976318359375,114.5200042724609,15,60882.16886975001,-0.46124267578125,0.8744354248046875,0.029998779296875,60882.15873775,0.005163603037554635,-0.01779151397838336,-0.02758795204823984,60882.14149575,46.48220825195312,18.26890563964844,-528.85595703125,60882.16380375,-1.589427383781939,-1.618586562768012,-1.071619693254841,0.006563680246472359,-0.02326111681759357,-0.02814376726746559,0.01348036527633667,-0.00518953800201416,0.009312152862548828,1,-0.6909231543540955,-0.1845521628856659,-0.1645731031894684,0.679324209690094,-0.4781562387943268,0.8779770135879517,0.02286861278116703,0,0,0,-1,60879.160794875,3,2,1561238339.328981,1561238131.651496,34,2.131246,0,0,28.10168,0,0,1561238341.922048,60878.845943,0,-1.033203,74.40611,2650659446,177292352,1,1,0.45,-160,-160,1
1561238342.350218,118,0,0,1561238337.873726,4.603142856152619,-74.0647099355964,2642.936,0.2577726,-1,32.07389068603516,245.2453037305048,-9999,1561238342.344437,8.965961456298828,17.94214248657227,5.965576171875,106.9402618408203,114.4839477539062,15,60882.18913375001,-0.4609375,0.8759765625,0.0263824462890625,60882.17900175,0.04038071266054447,-0.001161404551383556,-0.01101882901020285,60882.16160675001,46.52859497070312,18.33993530273438,-528.8701171875,60882.18406775,-1.588326999819734,-1.617927198759024,-1.07126136954253,0.04741976782679558,-1.864554360508919e-05,-0.007987634278833866,0.01719725131988525,-0.002317130565643311,0.003432750701904297,1,-0.6907399892807007,-0.1848305910825729,-0.1645503044128418,0.6794403791427612,-0.4784856736660004,0.8778054118156433,0.02256816066801548,0,0,0,-1,60879.160794875,3,2,1561238339.328981,1561238131.651496,34,2.131246,0,0,28.10168,0,0,1561238341.922048,60878.845943,0,-1.033203,74.40611,2650659446,177292352,1,1,0.45,-160,-160,1
