loggingTime,loggingSample,identifierForVendor,deviceID,locationTimestamp_since1970,locationLatitude,locationLongitude,locationAltitude,locationSpeed,locationCourse,locationVerticalAccuracy,locationHorizontalAccuracy,locationFloor,locationHeadingTimestamp_since1970,locationHeadingX,locationHeadingY,locationHeadingZ,locationTrueHeading,locationMagneticHeading,locationHeadingAccuracy,accelerometerTimestamp_sinceReboot,accelerometerAccelerationX,accelerometerAccelerationY,accelerometerAccelerationZ,gyroTimestamp_sinceReboot,gyroRotationX,gyroRotationY,gyroRotationZ,magnetometerTimestamp_sinceReboot,magnetometerX,magnetometerY,magnetometerZ,motionTimestamp_sinceReboot,motionYaw,motionRoll,motionPitch,motionRotationRateX,motionRotationRateY,motionRotationRateZ,motionUserAccelerationX,motionUserAccelerationY,motionUserAccelerationZ,motionAttitudeReferenceFrame,motionQuaternionX,motionQuaternionY,motionQuaternionZ,motionQuaternionW,motionGravityX,motionGravityY,motionGravityZ,motionMagneticFieldX,motionMagneticFieldY,motionMagneticFieldZ,motionMagneticFieldCalibrationAccuracy,activityTimestamp_sinceReboot,activity,activityActivityConfidence,activityActivityStartDate,pedometerStartDate,pedometerNumberofSteps,pedometerAverageActivePace,pedometerCurrentPace,pedometerCurrentCadence,pedometerDistance,pedometerFloorAscended,pedometerFloorDescended,pedometerEndDate,altimeterTimestamp_sinceReboot,altimeterReset,altimeterRelativeAltitude,altimeterPressure,IP_en0,IP_pdp_ip0,deviceOrientation,batteryState,batteryLevel,avAudioRecorderPeakPower,avAudioRecorderAveragePower,label
1561238356.97413,1,0,0,1561238356.875243,4.603071181250334,-74.06477042886725,2648.637,0.1277543,-1,16.46946716308594,200,-9999,1561238356.958795,12.9310302734375,14.66057109832764,4.25799560546875,99.60996246337891,107.1536483764648,15,60896.797845,-0.274658203125,0.950042724609375,0.09210205078125,60896.78771300001,-0.0004282363032847415,-0.0460284783842755,0.03277339300673312,60896.77544500001,50.38932800292969,14.89144897460938,-530.69189453125,60896.792779,-1.70837755130837,-1.871353224372628,-1.26823760500716,-0.005422220565378666,-0.05056142807006836,0.02954584360122681,0.0120999813079834,-0.004519224166870117,0.0008069276809692383,1,-0.7198697924613953,-0.1609158515930176,-0.04711684212088585,0.6735529899597168,-0.2846066951751709,0.9545772075653076,0.08821285516023636,0,0,0,-1,60896.00613404167,2,0,1561238356.17432,1561238131.651496,34,2.131246,0,0,28.10168,0,0,1561238341.922048,60894.011507,0,-0.9221191,74.40506,2650659446,177292352,1,1,0.45,-160,-160,2
1561238356.978907,2,0,0,1561238356.875243,4.603071181250334,-74.06477042886725,2648.637,0.1277543,-1,16.46946716308594,200,-9999,1561238356.958795,12.9310302734375,14.66057109832764,4.25799560546875,99.60996246337891,107.1536483764648,15,60896.81810900001,-0.2777557373046875,0.951263427734375,0.093658447265625,60896.807977,-0.004532433859205856,-0.03258590646599154,0.04178766066443333,60896.795556,50.25999450683594,15.2049560546875,-530.3480224609375,60896.813043,-1.709635357910684,-1.87344044863674,-1.268867519408966,-0.008203092962503433,-0.03262796625494957,0.04186270013451576,0.006488621234893799,-0.005378067493438721,0.004893779754638672,1,-0.7200052738189697,-0.1609537154436111,-0.04657137393951416,0.6734369993209839,-0.2838476300239563,0.954764723777771,0.08862738311290741,0,0,0,-1,60896.00613404167,2,0,1561238356.17432,1561238131.651496,34,2.131246,0,0,28.10168,0,0,1561238341.922048,60894.011507,0,-0.9221191,74.40506,2650659446,177292352,1,1,0.45,-160,-160,2
1561238356.999105,3,0,0,1561238356.875243,4.603071181250334,-74.06477042886725,2648.637,0.1277543,-1,16.46946716308594,200,-9999,1561238356.983021,12.69249725341797,14.75239276885986,4.22412109375,99.56446838378906,107.108154296875,15,60896.83837200001,-0.2785797119140625,0.9503936767578125,0.092071533203125,60896.828241,-0.009891779236881315,-0.01283510487363689,0.04751878333028384,60896.81569800001,50.31295776367188,15.21380615234375,-530.50634765625,60896.833306,-1.711347677681451,-1.87555750117659,-1.269651904373429,-0.009033466689288616,-0.02289411425590515,0.04414689168334007,0.006120473146438599,-0.003413796424865723,0.004395484924316406,1,-0.7201732993125916,-0.1607861369848251,-0.0461149625480175,0.6733288764953613,-0.2829454243183136,0.9549976587295532,0.08900352567434311,0,0,0,-1,60896.00613404167,2,0,1561238356.17432,1561238131.651496,34,2.131246,0,0,28.10168,0,0,1561238341.922048,60894.011507,0,-0.9221191,74.40506,2650659446,177292352,1,1,0.45,-160,-160,2
1561238357.019383,4,0,0,1561238356.875243,4.603071181250334,-74.06477042886725,2648.637,0.1277543,-1,16.46946716308594,200,-9999,1561238357.009612,12.69227981567383,14.7672815322876,4.203125,99.53450012207031,107.0781860351562,15,60896.858636,-0.2730255126953125,0.94989013671875,0.0959014892578125,60896.848504,0.01350808568109991,-0.01988928596903878,0.04597255200138384,60896.835809,50.47773742675781,15.05839538574219,-530.8555908203125,60896.85357000001,-1.712125812476712,-1.876802535382253,-1.270519583175234,0.01255944184958935,-0.02508056908845901,0.04202621802687645,0.005966365337371826,-0.005395054817199707,0.003988027572631836,1,-0.7202430367469788,-0.1606328785419464,-0.04562885314226151,0.6733238697052002,-0.2820436358451843,0.9552546739578247,0.08910590410232544,0,0,0,-1,60896.00613404167,2,0,1561238356.17432,1561238131.651496,34,2.131246,0,0,28.10168,0,0,1561238341.922048,60894.011507,0,-0.9221191,74.40506,2650659446,177292352,1,1,0.45,-160,-160,2
1561238357.039828,5,0,0,1561238356.875243,4.603071181250334,-74.06477042886725,2648.637,0.1277543,-1,16.46946716308594,200,-9999,1561238357.033751,12.68601226806641,14.73207950592041,4.1927490234375,99.49887084960938,107.0425567626953,15,60896.8789,-0.273468017578125,0.9490203857421875,0.0994873046875,60896.868768,0.002896187685461171,-0.01503088119240722,0.04319008129446905,60896.85595,50.63177490234375,15.25927734375,-530.8335571289062,60896.87383400001,-1.712580641288432,-1.877699263077153,-1.271353240469873,-0.005707977805286646,-0.02077636681497097,0.04149837791919708,0.009872376918792725,-0.005565047264099121,0.009209632873535156,1,-0.7202790379524231,-0.1604903787374496,-0.04517119377851486,0.6733501553535461,-0.2812041640281677,0.9555009007453918,0.0891181081533432,0,0,0,-1,60896.00613404167,2,0,1561238356.17432,1561238131.651496,34,2.131246,0,0,28.10168,0,0,1561238341.922048,60894.011507,0,-0.9221191,74.40506,2650659446,177292352,1,1,0.45,-160,-160,2
1561238357.059933,6,0,0,1561238356.875243,4.603071181250334,-74.06477042886725,2648.637,0.1277543,-1,16.46946716308594,200,-9999,1561238357.033751,12.68601226806641,14.73207950592041,4.1927490234375,99.49887084960938,107.0425567626953,15,60896.899163,-0.2787628173828125,0.9492950439453125,0.10028076171875,60896.88903200001,-0.01680214963341892,-0.005662945741944492,0.04503298876880388,60896.87609200001,50.47189331054688,15.13786315917969,-530.5357666015625,60896.894097,-1.71453218243612,-1.879868204993891,-1.272067528953719,-0.01835772581398487,-0.01132534071803093,0.04340866208076477,0.003474146127700806,-0.00653839111328125,0.01149296760559082,1,-0.7204660177230835,-0.1602773815393448,-0.04480049014091492,0.6732256412506104,-0.2803601622581482,0.9557113647460938,0.08952024579048157,0,0,0,-1,60896.00613404167,2,0,1561238356.17432,1561238131.651496,34,2.131246,0,0,28.10168,0,0,1561238341.922048,60894.011507,0,-0.9221191,74.40506,2650659446,177292352,1,1,0.45,-160,-160,2
1561238357.080165,7,0,0,1561238356.875243,4.603071181250334,-74.06477042886725,2648.637,0.1277543,-1,16.46946716308594,200,-9999,1561238357.06546,12.64591217041016,14.67155170440674,4.2183837890625,99.48554992675781,107.0292358398438,15,60896.919427,-0.2791748046875,0.95263671875,0.0949249267578125,60896.909295,-0.004864796363247745,-0.002719886421297926,0.04496534447711587,60896.896203,50.440185546875,15.25114440917969,-530.5054321289062,60896.914361,-1.716296402184146,-1.881789382497087,-1.272810941334143,-0.0026205750182271,-0.01030721515417099,0.03851323947310448,0.00103875994682312,-0.003888249397277832,0.007479190826416016,1,-0.7206305265426636,-0.1600386053323746,-0.04444586485624313,0.6731299757957458,-0.2795116603374481,0.9559299349784851,0.08984142541885376,0,0,0,-1,60896.00613404167,2,0,1561238356.17432,1561238131.651496,34,2.131246,0,0,28.10168,0,0,1561238341.922048,60894.011507,0,-0.9221191,74.40506,2650659446,177292352,1,1,0.45,-160,-160,2
1561238357.100366,8,0,0,1561238356.875243,4.603071181250334,-74.06477042886725,2648.637,0.1277543,-1,16.46946716308594,200,-9999,1561238357.06546,12.64591217041016,14.67155170440674,4.2183837890625,99.48554992675781,107.0292358398438,15,60896.93969100001,-0.27447509765625,0.9537200927734375,0.1004486083984375,60896.929559,0.0177156138873161,0.006933007265803281,0.03497689249266468,60896.91634500001,50.46945190429688,14.936279296875,-530.5404663085938,60896.934625,-1.716444579856067,-1.881996400105754,-1.273543242631928,0.01341192051768303,0.0009507662616670132,0.03242179378867149,0.003466129302978516,-0.004484474658966064,0.007132291793823242,1,-0.7206272482872009,-0.1598085463047028,-0.04416846483945847,0.6732063293457031,-0.2788262367248535,0.9561446309089661,0.08968480676412582,0,0,0,-1,60896.00613404167,2,0,1561238356.17432,1561238131.651496,34,2.131246,0,0,28.10168,0,0,1561238341.922048,60894.011507,0,-0.9221191,74.40506,2650659446,177292352,1,1,0.45,-160,-160,2
1561238357.120658,9,0,0,1561238356.875243,4.603071181250334,-74.06477042886725,2648.637,0.1277543,-1,16.46946716308594,200,-9999,1561238357.110865,12.71927261352539,14.75702381134033,4.04046630859375,99.46768951416016,107.0113754272461,15,60896.95995400001,-0.274871826171875,0.9528350830078125,0.10638427734375,60896.949823,0.01603063186562297,0.002844788676422642,0.04079669842281484,60896.93648600001,50.39082336425781,15.27630615234375,-530.6856689453125,60896.954888,-1.716495372435575,-1.882112170774147,-1.274317543079994,0.008198782801628113,-0.009028364904224873,0.04037585482001305,0.003422439098358154,-0.001125216484069824,0.01343023777008057,1,-0.7206128835678101,-0.1595689058303833,-0.04387683793902397,0.673297643661499,-0.2781111598014832,0.9563711285591125,0.08949032425880432,0,0,0,-1,60896.00613404167,2,0,1561238356.17432,1561238131.651496,34,2.131246,0,0,28.10168,0,0,1561238341.922048,60894.011507,0,-0.9221191,74.40506,2650659446,177292352,1,1,0.45,-160,-160,2
1561238357.140949,10,0,0,1561238356.875243,4.603071181250334,-74.06477042886725,2648.637,0.1277543,-1,16.46946716308594,200,-9999,1561238357.135519,12.61038970947266,14.68199062347412,3.974609375,99.45435333251953,106.9980392456055,15,60896.980218,-0.2750091552734375,0.954742431640625,0.1042633056640625,60896.970086,0.001385909031277236,-0.003485012602477691,0.04023663564557118,60896.956597,49.99629211425781,15.0086669921875,-530.7586059570312,60896.97515200001,-1.717281979412216,-1.883053607811683,-1.2750840961331,-0.002279690466821194,-0.009657403454184532,0.03690122812986374,0.004135400056838989,-0.00269162654876709,0.01711690425872803,1,-0.7206751704216003,-0.1593445539474487,-0.04353796690702438,0.6733060479164124,-0.277328759431839,0.9565948247909546,0.08952677994966507,0,0,0,-1,60896.978814,3,2,1561238357.147,1561238131.651496,34,2.131246,0,0,28.10168,0,0,1561238341.922048,60894.011507,0,-0.9221191,74.40506,2650659446,177292352,1,1,0.45,-160,-160,2
1561238357.161223,11,0,0,1561238356.875243,4.603071181250334,-74.06477042886725,2648.637,0.1277543,-1,16.46946716308594,200,-9999,1561238357.135519,12.61038970947266,14.68199062347412,3.974609375,99.45435333251953,106.9980392456055,15,60897.000482,-0.2791900634765625,0.9535064697265625,0.104583740234375,60896.99035000001,0.01404710948573195,-0.01707618890958807,0.03381335741240906,60896.97673900001,50.64503479003906,15.18415832519531,-530.5870971679688,60896.995385,-1.717731741343286,-1.883872248572231,-1.275747296411421,0.01288727857172489,-0.02740178070962429,0.03030005097389221,-0.0002641677856445312,-0.00218278169631958,0.01436913013458252,1,-0.7207103371620178,-0.1592353284358978,-0.0431658923625946,0.6733183264732361,-0.2766523361206055,0.9567878842353821,0.08955855667591095,0,0,0,-1,60896.978814,3,2,1561238357.147,1561238131.651496,34,2.131246,0,0,28.10168,0,0,1561238341.922048,60894.011507,0,-0.9221191,74.40506,2650659446,177292352,1,1,0.45,-160,-160,2
1561238357.182367,12,0,0,1561238356.875243,4.603071181250334,-74.06477042886725,2648.637,0.1277543,-1,16.46946716308594,200,-9999,1561238357.161521,12.73919296264648,14.73062705993652,4.15679931640625,99.42319488525391,106.9668807983398,15,60897.020745,-0.2745361328125,0.951995849609375,0.1052093505859375,60897.01061400001,0.007367102523486197,-0.001941444434667765,0.01836968625103956,60896.99688100001,50.48545837402344,15.02690124511719,-530.3739624023438,60897.015649,-1.717666691242496,-1.884147352386458,-1.276188489153067,-0.003006999846547842,-0.0004031849093735218,0.01231093145906925,-0.001789391040802002,-0.003516435623168945,0.01535403728485107,1,-0.7206987142562866,-0.1592029333114624,-0.04289260879158974,0.6733558177947998,-0.276225745677948,0.9569160938262939,0.0895044207572937,0,0,0,-1,60896.978814,3,2,1561238357.147,1561238131.651496,34,2.131246,0,0,28.10168,0,0,1561238341.922048,60894.011507,0,-0.9221191,74.40506,2650659446,177292352,1,1,0.45,-160,-160,2
1561238357.201749,13,0,0,1561238356.875243,4.603071181250334,-74.06477042886725,2648.637,0.1277543,-1,16.46946716308594,200,-9999,1561238357.185816,12.83351135253906,14.59254741668701,4.06378173828125,99.41580963134766,106.9594955444336,15,60897.041009,-0.277069091796875,0.953094482421875,0.1070098876953125,60897.030877,-0.00407783226112933,0.02830540764590718,0.01800909423944283,60897.016992,50.2618408203125,14.97732543945312,-530.7384643554688,60897.03591300001,-1.71846810680578,-1.884639503914919,-1.276407562213502,-0.006354326847940683,0.02160810679197311,0.02139284461736679,0.0002403855323791504,-0.005548417568206787,0.01690030097961426,1,-0.7207668423652649,-0.1590060740709305,-0.04290943965315819,0.6733282804489136,-0.2759819626808167,0.9569796919822693,0.08957554399967194,0,0,0,-1,60896.978814,3,2,1561238357.147,1561238131.651496,34,2.131246,0,0,28.10168,0,0,1561238341.922048,60894.011507,0,-0.9221191,74.40506,2650659446,177292352,1,1,0.45,-160,-160,2
1561238357.223015,14,0,0,1561238356.875243,4.603071181250334,-74.06477042886725,2648.637,0.1277543,-1,16.46946716308594,200,-9999,1561238357.212198,12.82777404785156,14.66054439544678,4.18121337890625,99.44113922119141,106.9848251342773,15,60897.061242,-0.2735443115234375,0.9523468017578125,0.104034423828125,60897.05111,0.01379117970497534,0.0151477939642617,0.02847292047847317,60897.03713300001,50.3162841796875,14.88519287109375,-530.364013671875,60897.05617600001,-1.718847574386269,-1.884745940503084,-1.276928210141613,0.0208586510270834,0.003270911518484354,0.02284932695329189,-0.0006243288516998291,-0.005470454692840576,0.01440012454986572,1,-0.7207844853401184,-0.1587302088737488,-0.04281941428780556,0.6733802556991577,-0.2754987180233002,0.9571306109428406,0.08945110440254211,0,0,0,-1,60896.978814,3,2,1561238357.147,1561238131.651496,34,2.131246,0,0,28.10168,0,0,1561238341.922048,60894.011507,0,-0.9221191,74.40506,2650659446,177292352,1,1,0.45,-160,-160,2
1561238357.242374,15,0,0,1561238356.875243,4.603071181250334,-74.06477042886725,2648.637,0.1277543,-1,16.46946716308594,200,-9999,1561238357.237119,12.77767562866211,14.50866985321045,4.0594482421875,99.417236328125,106.9609222412109,15,60897.081506,-0.2749176025390625,0.9553985595703125,0.104705810546875,60897.07137400001,0.04489184123102968,-0.01148701272983878,0.004657868746548588,60897.057244,50.48426818847656,14.98406982421875,-530.9193115234375,60897.07644,-1.716823775984544,-1.883056140407876,-1.277292774159328,0.04013674333691597,-0.02504461631178856,-0.004061915911734104,0.001239299774169922,-0.004050076007843018,0.01678872108459473,1,-0.7205774784088135,-0.1587679535150528,-0.0426211953163147,0.6736055016517639,-0.2753176689147949,0.9572361707687378,0.088878333568573,0,0,0,-1,60896.978814,3,2,1561238357.147,1561238131.651496,34,2.131246,0,0,28.10168,0,0,1561238341.922048,60894.011507,0,-0.9221191,74.40506,2650659446,177292352,1,1,0.45,-160,-160,2
1561238357.262772,16,0,0,1561238356.875243,4.603071181250334,-74.06477042886725,2648.637,0.1277543,-1,16.46946716308594,200,-9999,1561238357.237119,12.77767562866211,14.50866985321045,4.0594482421875,99.417236328125,106.9609222412109,15,60897.10177,-0.27093505859375,0.9553985595703125,0.10797119140625,60897.09163800001,0.02590350265876472,-0.01362286792408233,-0.007777761963576415,60897.077386,50.242919921875,14.85673522949219,-530.539794921875,60897.096704,-1.714808402349433,-1.881614778125048,-1.277273636043792,0.01048404164612293,-0.02525687031447887,-0.01020343136042356,0.002787947654724121,-0.0007333755493164062,0.01815688610076904,1,-0.7203872203826904,-0.1590147465467453,-0.04246803373098373,0.6737603545188904,-0.2754625082015991,0.9572306275367737,0.08848687261343002,0,0,0,-1,60896.978814,3,2,1561238357.147,1561238131.651496,34,2.131246,0,0,28.10168,0,0,1561238341.922048,60894.011507,0,-0.9221191,74.40506,2650659446,177292352,1,1,0.45,-160,-160,2
1561238357.282853,17,0,0,1561238356.875243,4.603071181250334,-74.06477042886725,2648.637,0.1277543,-1,16.46946716308594,200,-9999,1561238357.262686,12.67332458496094,14.50695514678955,4.16851806640625,99.37389373779297,106.9175796508789,15,60897.12203300001,-0.266510009765625,0.955352783203125,0.1098175048828125,60897.111901,0.0008127967646921835,-0.01166411294232905,-0.005364139067637602,60897.09752800001,50.55767822265625,15.16349792480469,-530.7913208007812,60897.116967,-1.714700441849329,-1.881968930052597,-1.27705341208077,-0.003282370744273067,-0.009347943589091301,-0.00657620606943965,0.004468083381652832,-0.001447856426239014,0.01753687858581543,1,-0.7203921675682068,-0.1592470854520798,-0.04238014668226242,0.6737057566642761,-0.2756319940090179,0.957166850566864,0.08864901959896088,0,0,0,-1,60896.978814,3,2,1561238357.147,1561238131.651496,34,2.131246,0,0,28.10168,0,0,1561238341.922048,60894.011507,0,-0.9221191,74.40506,2650659446,177292352,1,1,0.45,-160,-160,2
1561238357.303049,18,0,0,1561238356.875243,4.603071181250334,-74.06477042886725,2648.637,0.1277543,-1,16.46946716308594,200,-9999,1561238357.287605,12.80429077148438,14.71302795410156,4.07208251953125,99.35726165771484,106.9009475708008,15,60897.14229700001,-0.26611328125,0.94940185546875,0.106292724609375,60897.132165,-0.004183559756405475,0.01666259999229877,0.01652384929950564,60897.117639,50.28482055664062,15.02218627929688,-530.575927734375,60897.137231,-1.715379372557817,-1.882532033070431,-1.277124536062499,-0.008235317654907703,0.0156271792948246,0.02208713069558144,0.008884847164154053,-0.005786716938018799,0.0188676118850708,1,-0.7204561829566956,-0.159168154001236,-0.04238134995102882,0.6736558079719543,-0.2755169272422791,0.9571874737739563,0.08878322690725327,0,0,0,-1,60896.978814,3,2,1561238357.147,1561238131.651496,34,2.131246,0,0,28.10168,0,0,1561238341.922048,60894.011507,0,-0.9221191,74.40506,2650659446,177292352,1,1,0.45,-160,-160,2
1561238357.323613,19,0,0,1561238356.875243,4.603071181250334,-74.06477042886725,2648.637,0.1277543,-1,16.46946716308594,200,-9999,1561238357.313492,12.79320526123047,14.80888748168945,3.9644775390625,99.38188171386719,106.9255676269531,15,60897.162561,-0.2714691162109375,0.949554443359375,0.1007232666015625,60897.152429,-0.013141368398996,0.02216788659771057,0.04061800031367053,60897.13778,50.65715026855469,15.20394897460938,-530.9490966796875,60897.15749500001,-1.717131235115952,-1.88390592072615,-1.277649791502928,-0.01959476433694363,0.004987852182239294,0.0418778769671917,0.008788019418716431,-0.00749504566192627,0.01733160018920898,1,-0.7206099033355713,-0.1588231921195984,-0.04229532927274704,0.6735782623291016,-0.2749165594577789,0.957339346408844,0.08900687843561172,0,0,0,-1,60896.978814,3,2,1561238357.147,1561238131.651496,34,2.131246,0,0,28.10168,0,0,1561238341.922048,60894.011507,0,-0.9221191,74.40506,2650659446,177292352,1,1,0.45,-160,-160,2
1561238357.359689,20,0,0,1561238356.875243,4.603071181250334,-74.06477042886725,2648.637,0.1277543,-1,16.46946716308594,200,-9999,1561238357.337718,12.85636520385742,14.75427055358887,4.08367919921875,99.36036682128906,106.904052734375,15,60897.182824,-0.2815399169921875,0.9475250244140625,0.0881805419921875,60897.172692,0.001714543109793013,-0.03524826860774376,0.03146604722761322,60897.15792200001,50.44094848632812,14.99690246582031,-530.6502685546875,60897.17775800001,-1.71849652222711,-1.885736943757118,-1.278231554235179,0.01174877677112818,-0.05879059433937073,0.02121414616703987,-0.003318309783935547,-0.008517444133758545,0.006243348121643066,1,-0.7207402586936951,-0.1587523519992828,-0.04189480841159821,0.6734805703163147,-0.274223804473877,0.957507312297821,0.08933766186237335,0,0,0,-1,60896.978814,3,2,1561238357.147,1561238131.651496,34,2.131246,0,0,28.10168,0,0,1561238341.922048,60894.011507,0,-0.9221191,74.40506,2650659446,177292352,1,1,0.45,-160,-160,2
1561238357.364163,21,0,0,1561238356.875243,4.603071181250334,-74.06477042886725,2648.637,0.1277543,-1,16.46946716308594,200,-9999,1561238357.337718,12.85636520385742,14.75427055358887,4.08367919921875,99.36036682128906,106.904052734375,15,60897.203088,-0.2906036376953125,0.947357177734375,0.0863800048828125,60897.19295600001,0.04885276072030454,-0.08394443545595164,-0.01131816831672776,60897.178033,50.3392333984375,15.02790832519531,-530.8116455078125,60897.198022,-1.716294599453926,-1.885281756720597,-1.278396492043201,0.05783797428011894,-0.08555004000663757,-0.02825433760881424,-0.01366707682609558,-0.009450018405914307,-0.006049156188964844,1,-0.7205509543418884,-0.1593368053436279,-0.04126022383570671,0.6735841631889343,-0.2741136848926544,0.9575548768043518,0.08916378766298294,0,0,0,-1,60896.978814,3,2,1561238357.147,1561238131.651496,34,2.131246,0,0,28.10168,0,0,1561238341.922048,60894.011507,0,-0.9221191,74.40506,2650659446,177292352,1,1,0.45,-160,-160,2
1561238357.384175,22,0,0,1561238356.875243,4.603071181250334,-74.06477042886725,2648.637,0.1277543,-1,16.46946716308594,200,-9999,1561238357.364162,12.66775131225586,14.677170753479,4.0535888671875,99.23165893554688,106.7753448486328,15,60897.223352,-0.2909393310546875,0.9410858154296875,0.1011505126953125,60897.21322000001,0.0872369015116166,-0.03409192406243135,-0.04072372780894667,60897.198175,50.60029602050781,14.71147155761719,-530.7379150390625,60897.218286,-1.710542361116191,-1.880890879094145,-1.27808519003422,0.08623259514570236,-0.01970497705042362,-0.03917969018220901,-0.01761826872825623,-0.01274770498275757,0.004814743995666504,1,-0.7200099229812622,-0.1600336730480194,-0.04101090505719185,0.6740124821662903,-0.2747859060764313,0.9574651122093201,0.08805013447999954,0,0,0,-1,60896.978814,3,2,1561238357.147,1561238131.651496,34,2.131246,0,0,28.10168,0,0,1561238341.922048,60894.011507,0,-0.9221191,74.40506,2650659446,177292352,1,1,0.45,-160,-160,2
1561238357.40738,23,0,0,1561238356.875243,4.603071181250334,-74.06477042886725,2648.637,0.1277543,-1,16.46946716308594,200,-9999,1561238357.389822,12.81175231933594,14.52660274505615,3.9371337890625,99.16127014160156,106.7049560546875,15,60897.24361500001,-0.277740478515625,0.939178466796875,0.1142578125,60897.233483,0.04542473976515454,0.04391632532373366,-0.01938541589079578,60897.21831600001,50.45135498046875,15.01492309570312,-530.7734985351562,60897.238549,-1.706167185494448,-1.876328928565217,-1.277903773608394,0.01432352140545845,0.05566407740116119,-0.01400908827781677,-0.009331971406936646,-0.0179595947265625,0.02336597442626953,1,-0.7195706367492676,-0.1601317971944809,-0.04124077409505844,0.674444317817688,-0.2753512561321259,0.9574127197265625,0.086848184466362,0,0,0,-1,60896.978814,3,2,1561238357.147,1561238131.651496,34,2.131246,0,0,28.10168,0,0,1561238341.922048,60894.011507,0,-0.9221191,74.40506,2650659446,177292352,1,1,0.45,-160,-160,2
1561238357.425962,24,0,0,1561238356.875243,4.603071181250334,-74.06477042886725,2648.637,0.1277543,-1,16.46946716308594,200,-9999,1561238357.414919,12.92133712768555,14.58898544311523,4.0655517578125,99.2279052734375,106.7715911865234,15,60897.26387900001,-0.279632568359375,0.93878173828125,0.102996826171875,60897.253747,-0.04776192993780808,0.05126318782293526,0.004927380648864606,60897.238427,50.43611145019531,14.73721313476562,-530.894287109375,60897.258813,-1.708302129631671,-1.87736451995028,-1.277633882114176,-0.05824722722172737,0.02575030922889709,0.002351945033296943,-0.0007370710372924805,-0.01797324419021606,0.02208733558654785,1,-0.7197697162628174,-0.1598038673400879,-0.04168145358562469,0.6742826700210571,-0.2755080461502075,0.9573347568511963,0.08721143752336502,0,0,0,-1,60896.978814,3,2,1561238357.147,1561238131.651496,34,2.131246,0,0,28.10168,0,0,1561238341.922048,60894.011507,0,-0.9221191,74.40506,2650659446,177292352,1,1,0.45,-160,-160,2
1561238357.445055,25,0,0,1561238356.875243,4.603071181250334,-74.06477042886725,2648.637,0.1277543,-1,16.46946716308594,200,-9999,1561238357.439942,12.76366806030273,14.47129154205322,4.05755615234375,99.22443389892578,106.7681198120117,15,60897.284143,-0.3002471923828125,0.93963623046875,0.0849609375,60897.274011,-0.02512239751104448,-0.05041683522850807,-0.009814547565269017,60897.25856900001,50.26292419433594,14.75384521484375,-530.9711303710938,60897.279046,-1.710918381860698,-1.880431226024278,-1.277234044203966,-0.01089276000857353,-0.08811101317405701,-0.02252863720059395,-0.01185727119445801,-0.01704883575439453,0.006889939308166504,1,-0.7200531363487244,-0.1600301116704941,-0.04159724712371826,0.673931360244751,-0.2756030857563019,0.9572191834449768,0.0881723091006279,0,0,0,-1,60896.978814,3,2,1561238357.147,1561238131.651496,34,2.131246,0,0,28.10168,0,0,1561238341.922048,60894.011507,0,-0.9221191,74.40506,2650659446,177292352,1,1,0.45,-160,-160,2
1561238357.46526,26,0,0,1561238356.875243,4.603071181250334,-74.06477042886725,2648.637,0.1277543,-1,16.46946716308594,200,-9999,1561238357.439942,12.76366806030273,14.47129154205322,4.05755615234375,99.22443389892578,106.7681198120117,15,60897.304406,-0.3276824951171875,0.936553955078125,0.0808563232421875,60897.29427400001,0.0610282005919288,-0.1484432675804717,-0.05370237706533883,60897.27871000001,50.48220825195312,14.71554565429688,-530.7622680664062,60897.29931,-1.707578240878106,-1.879912872590582,-1.276532412286715,0.07397845387458801,-0.1606443375349045,-0.06726600974798203,-0.03817993402481079,-0.01991260051727295,-0.008231997489929199,1,-0.7197924256324768,-0.1612939238548279,-0.04090066626667976,0.6739512085914612,-0.2762884497642517,0.9570158720016479,0.08823373168706894,0,0,0,-1,60896.978814,3,2,1561238357.147,1561238131.651496,34,2.131246,0,0,28.10168,0,0,1561238341.922048,60894.011507,0,-0.9221191,74.40506,2650659446,177292352,1,1,0.45,-160,-160,2
1561238357.485383,27,0,0,1561238356.875243,4.603071181250334,-74.06477042886725,2648.637,0.1277543,-1,16.46946716308594,200,-9999,1561238357.465258,12.86388778686523,14.43337249755859,4.0931396484375,99.01351165771484,106.5571975708008,15,60897.32467,-0.33831787109375,0.9303436279296875,0.0933380126953125,60897.31453800001,0.1129041817816913,-0.1273526296436982,-0.08810855413639954,60897.298822,50.76957702636719,14.68446350097656,-530.85302734375,60897.319574,-1.699340441593507,-1.87498643624856,-1.275460080370257,0.1098283305764198,-0.1142182499170303,-0.09193753451108932,-0.05712398886680603,-0.02112692594528198,-0.001180529594421387,1,-0.7190509438514709,-0.162958025932312,-0.04026707634329796,0.6743806004524231,-0.2776996195316315,0.956704318523407,0.08717915415763855,0,0,0,-1,60897.312524,2,0,1561238357.48071,1561238131.651496,34,2.131246,0,0,28.10168,0,0,1561238341.922048,60894.011507,0,-0.9221191,74.40506,2650659446,177292352,1,1,0.45,-160,-160,2
1561238357.51931,28,0,0,1561238356.875243,4.603071181250334,-74.06477042886725,2648.637,0.1277543,-1,16.46946716308594,200,-9999,1561238357.489946,13.09098052978516,14.87340450286865,3.90478515625,98.80257415771484,106.3462600708008,15,60897.344903,-0.345672607421875,0.93426513671875,0.1069793701171875,60897.334771,0.07778374490627134,-0.03172037911171579,-0.08054677453722854,60897.31896300001,50.71995544433594,15.29600524902344,-530.9131469726562,60897.33983700001,-1.691859953312671,-1.869172168977323,-1.274279915568728,0.04994342476129532,-0.01679688692092896,-0.08224442601203918,-0.06279200315475464,-0.02503997087478638,0.01548480987548828,1,-0.7183482646942139,-0.164082407951355,-0.0402415543794632,0.6748579144477844,-0.2792795300483704,0.9563601613044739,0.08589453250169754,0,0,0,-1,60897.312524,2,0,1561238357.48071,1561238131.651496,34,2.131246,0,0,28.10168,0,0,1561238341.922048,60894.011507,0,-0.9221191,74.40506,2650659446,177292352,1,1,0.45,-160,-160,2
1561238357.526021,29,0,0,1561238356.875243,4.603071181250334,-74.06477042886725,2648.637,0.1277543,-1,16.46946716308594,200,-9999,1561238357.516184,13.04000473022461,14.87564945220947,3.887939453125,98.76631164550781,106.3099975585938,15,60897.365167,-0.353607177734375,0.9393463134765625,0.1007232666015625,60897.355035,-0.01152616119786294,0.01806928168007862,-0.1011015844626781,60897.33910500001,50.81219482421875,15.02009582519531,-530.94775390625,60897.36010100001,-1.689551586853526,-1.866896606365446,-1.272436458554677,-0.02993516065180302,0.005979799199849367,-0.1195758208632469,-0.06802159547805786,-0.01894545555114746,0.01949715614318848,1,-0.7181496024131775,-0.1647657752037048,-0.04091915860772133,0.6748622059822083,-0.2811605334281921,0.9558199048042297,0.08577322214841843,0,0,0,-1,60897.312524,2,0,1561238357.48071,1561238131.651496,34,2.131246,0,0,28.10168,0,0,1561238341.922048,60894.011507,0,-0.9221191,74.40506,2650659446,177292352,1,1,0.45,-160,-160,2
1561238357.546336,30,0,0,1561238356.875243,4.603071181250334,-74.06477042886725,2648.637,0.1277543,-1,16.46946716308594,200,-9999,1561238357.540525,12.91696166992188,14.89146137237549,3.707275390625,98.75638580322266,106.3000717163086,15,60897.38543,-0.3741455078125,0.9453277587890625,0.0844268798828125,60897.37529900001,-0.03714097719446307,-0.03324237567469607,-0.1934538857961189,60897.359216,50.77210998535156,15.09048461914062,-530.9371337890625,60897.380365,-1.688601717433711,-1.866473119230867,-1.268871938938641,-0.03357383608818054,-0.06358116865158081,-0.2260623127222061,-0.08154311776161194,-0.009072065353393555,0.007500410079956055,1,-0.7181307673454285,-0.1661667227745056,-0.04198695346713066,0.6744730472564697,-0.2844541966915131,0.9547660350799561,0.08664635568857193,0,0,0,-1,60897.312524,2,0,1561238357.48071,1561238131.651496,34,2.131246,0,0,28.10168,0,0,1561238341.922048,60894.959285,0,-0.9221191,74.40506,2650659446,177292352,1,1,0.45,-160,-160,2
1561238357.566638,31,0,0,1561238356.875243,4.603071181250334,-74.06477042886725,2648.637,0.1277543,-1,16.46946716308594,200,-9999,1561238357.540525,12.91696166992188,14.89146137237549,3.707275390625,98.75638580322266,106.3000717163086,15,60897.405694,-0.38568115234375,0.95855712890625,0.0709991455078125,60897.39556200001,-0.004852812138342388,-0.1189357090185027,-0.3064318371400054,60897.37935700001,50.6412353515625,15.27311706542969,-530.9576416015625,60897.400628,-1.684014614762409,-1.864203712965598,-1.26319271211283,-9.577232412993908e-05,-0.1355222016572952,-0.3312899470329285,-0.08824649453163147,-0.006238758563995361,-0.01148700714111328,1,-0.7177985906600952,-0.1689640432596207,-0.04322539642453194,0.6740532517433167,-0.2898357808589935,0.9530618786811829,0.08756732940673828,0,0,0,-1,60897.312524,2,0,1561238357.48071,1561238131.651496,34,2.131246,0,0,28.10168,0,0,1561238341.922048,60894.959285,0,-0.9221191,74.40506,2650659446,177292352,1,1,0.45,-160,-160,2
1561238357.591766,32,0,0,1561238356.875243,4.603071181250334,-74.06477042886725,2648.637,0.1277543,-1,16.46946716308594,200,-9999,1561238357.56932,12.90299987792969,15.00994205474854,3.837646484375,98.60695648193359,106.1506423950195,15,60897.42595800001,-0.4128265380859375,0.9731903076171875,0.063201904296875,60897.415826,0.0336530351147863,-0.1424255887813287,-0.3806032703436932,60897.399469,50.55613708496094,15.34468078613281,-531.126220703125,60897.420892,-1.675709875934041,-1.859223206688196,-1.256056322386867,0.04337660223245621,-0.148854523897171,-0.4053031802177429,-0.09988534450531006,0.01553851366043091,-0.02103877067565918,1,-0.7170856595039368,-0.1726726442575455,-0.04469237476587296,0.6737766861915588,-0.2967821359634399,0.9508768916130066,0.08805537223815918,0,0,0,-1,60897.312524,2,0,1561238357.48071,1561238131.651496,34,2.131246,0,0,28.10168,0,0,1561238341.922048,60894.959285,0,-0.9221191,74.40506,2650659446,177292352,1,1,0.45,-160,-160,2
1561238357.606978,33,0,0,1561238356.875243,4.603071181250334,-74.06477042886725,2648.637,0.1277543,-1,16.46946716308594,200,-9999,1561238357.591422,12.99414825439453,15.11205768585205,3.94842529296875,98.38639831542969,105.9300842285156,15,60897.44622100001,-0.436065673828125,0.968475341796875,0.0576629638671875,60897.43609,0.09319945287619501,-0.136220423441444,-0.4764381874346307,60897.41961,50.49151611328125,15.39205932617188,-531.12158203125,60897.441156,-1.662913541144801,-1.850005172826173,-1.247533966172762,0.1014076843857765,-0.137743279337883,-0.5105375051498413,-0.1213369369506836,0.02596276998519897,-0.02591574192047119,1,-0.7158451676368713,-0.1770274490118027,-0.04664833843708038,0.6738330125808716,-0.3053598403930664,0.9482041597366333,0.08754604309797287,0,0,0,-1,60897.312524,2,0,1561238357.48071,1561238131.651496,34,2.131246,0,0,28.10168,0,0,1561238341.922048,60894.959285,0,-0.9221191,74.40506,2650659446,177292352,1,1,0.45,-160,-160,2
1561238357.627226,34,0,0,1561238356.875243,4.603071181250334,-74.06477042886725,2648.637,0.1277543,-1,16.46946716308594,200,-9999,1561238357.617885,12.82859420776367,15.19927978515625,3.743896484375,98.14756774902344,105.6912536621094,15,60897.466485,-0.45257568359375,0.974365234375,0.0543212890625,60897.456353,0.1350313220147236,-0.1239227444757851,-0.6029455297483377,60897.43975200001,50.50892639160156,15.78271484375,-531.017822265625,60897.46141900001,-1.645785659122679,-1.836499877997147,-1.236927633927827,0.1356982737779617,-0.1263353675603867,-0.6353044509887695,-0.1282876431941986,0.0241667628288269,-0.03150010108947754,1,-0.7140272259712219,-0.1821819692850113,-0.04940274357795715,0.6741915345191956,-0.3162008821964264,0.9447816610336304,0.08605030179023743,0,0,0,-1,60897.312524,2,0,1561238357.48071,1561238131.651496,34,2.131246,0,0,28.10168,0,0,1561238341.922048,60894.959285,0,-0.9221191,74.40506,2650659446,177292352,1,1,0.45,-160,-160,2
1561238357.647463,35,0,0,1561238356.875243,4.603071181250334,-74.06477042886725,2648.637,0.1277543,-1,16.46946716308594,200,-9999,1561238357.641549,12.58977890014648,15.57558059692383,3.65606689453125,97.90005493164062,105.4437408447266,15,60897.486749,-0.464202880859375,0.98150634765625,0.044830322265625,60897.476617,0.1528356191663394,-0.1303979543502038,-0.7247284242882441,60897.459863,50.22579956054688,15.89906311035156,-531.3273315429688,60897.48168300001,-1.626423476759883,-1.82091274730915,-1.223947052362572,0.1593580693006516,-0.1473556905984879,-0.7643221020698547,-0.129015177488327,0.03608357906341553,-0.03508293628692627,1,-0.7117894887924194,-0.1882171779870987,-0.0529688186943531,0.6746290326118469,-0.329358845949173,0.9404484033584595,0.08413996547460556,0,0,0,-1,60897.312524,2,0,1561238357.48071,1561238131.651496,34,2.131246,0,0,28.10168,0,0,1561238341.922048,60894.959285,0,-0.9221191,74.40506,2650659446,177292352,1,1,0.45,-160,-160,2
1561238357.670142,36,0,0,1561238356.875243,4.603071181250334,-74.06477042886725,2648.637,0.1277543,-1,16.46946716308594,200,-9999,1561238357.667991,12.45218276977539,15.98712825775146,3.73162841796875,97.55830383300781,105.1019897460938,15,60897.507012,-0.477386474609375,0.98583984375,0.0313262939453125,60897.49688100001,0.1972662008965674,-0.18340844216434,-0.8766575034195205,60897.480004,50.25228881835938,15.98580932617188,-531.3590698242188,60897.501947,-1.604357274266794,-1.803769387866238,-1.2082433475501,0.2077884525060654,-0.2020104080438614,-0.9194126129150391,-0.1242792010307312,0.04840397834777832,-0.04294097423553467,1,-0.709004819393158,-0.1955834180116653,-0.05711790919303894,0.6751273274421692,-0.3450811803340912,0.9349943995475769,0.08188141137361526,0,0,0,-1,60897.312524,2,0,1561238357.48071,1561238131.651496,34,2.131246,0,0,28.10168,0,0,1561238341.922048,60894.959285,0,-0.9221191,74.40506,2650659446,177292352,1,1,0.45,-160,-160,2
1561238357.688013,37,0,0,1561238356.875243,4.603071181250334,-74.06477042886725,2648.637,0.1277543,-1,16.46946716308594,200,-9999,1561238357.667991,12.45218276977539,15.98712825775146,3.73162841796875,97.55830383300781,105.1019897460938,15,60897.527276,-0.4879608154296875,1.000656127929688,0.0129241943359375,60897.517144,0.266356589056493,-0.201252953048416,-1.020824000605434,60897.500116,49.65676879882812,16.52325439453125,-531.0100708007812,60897.52221,-1.578867724221894,-1.78422384340907,-1.189745171461259,0.2832014560699463,-0.1976159363985062,-1.048717379570007,-0.1209011077880859,0.06640046834945679,-0.05679905414581299,1,-0.7054547667503357,-0.2042534202337265,-0.06192268431186676,0.6758548617362976,-0.3634586334228516,0.9282742142677307,0.07877177745103836,0,0,0,-1,60897.312524,2,0,1561238357.48071,1561238131.651496,34,2.131246,0,0,28.10168,0,0,1561238341.922048,60894.959285,0,-0.9221191,74.40506,2650659446,177292352,1,1,0.45,-160,-160,2
1561238357.708288,38,0,0,1561238356.875243,4.603071181250334,-74.06477042886725,2648.637,0.1277543,-1,16.46946716308594,200,-9999,1561238357.692754,12.17041778564453,16.72937393188477,3.42041015625,97.14508056640625,104.6887664794922,15,60897.54754000001,-0.4862823486328125,1.002914428710938,0.0110321044921875,60897.537408,0.3743400480920449,-0.124187995320357,-1.079305952879138,60897.520257,49.74992370605469,17.06230163574219,-531.4561767578125,60897.542474,-1.549700218751086,-1.760410528272389,-1.169839012188991,0.4103434085845947,-0.0972515195608139,-1.082232117652893,-0.105480432510376,0.08233344554901123,-0.06538498401641846,1,-0.7009528875350952,-0.2131827771663666,-0.06744221597909927,0.6772515177726746,-0.3833043575286865,0.9206877946853638,0.07356369495391846,0,0,0,-1,60897.312524,2,0,1561238357.48071,1561238131.651496,34,2.131246,0,0,28.10168,0,0,1561238341.922048,60894.959285,0,-0.9221191,74.40506,2650659446,177292352,1,1,0.45,-160,-160,2
1561238357.728493,39,0,0,1561238356.875243,4.603071181250334,-74.06477042886725,2648.637,0.1277543,-1,16.46946716308594,200,-9999,1561238357.718707,11.72998809814453,16.84775161743164,3.28326416015625,96.79003143310547,104.3337173461914,15,60897.56780400001,-0.484771728515625,0.9964599609375,0.0192413330078125,60897.557672,0.5414978812847214,-0.0001917475984857051,-1.05669172048273,60897.540399,49.32289123535156,17.30204772949219,-531.63134765625,60897.562707,-1.515616459067393,-1.729918184972032,-1.150281695322113,0.5764399766921997,0.01575732976198196,-1.05774462223053,-0.08157661557197571,0.08953189849853516,-0.04745733737945557,1,-0.6952347755432129,-0.2213388830423355,-0.0734253004193306,0.6799017786979675,-0.4030730426311493,0.9128789901733398,0.06468459218740463,0,0,0,-1,60897.312524,2,0,1561238357.48071,1561238131.651496,34,2.131246,0,0,28.10168,0,0,1561238341.922048,60894.959285,0,-0.9221191,74.40506,2650659446,177292352,1,1,0.45,-160,-160,2
1561238357.74962,40,0,0,1561238356.875243,4.603071181250334,-74.06477042886725,2648.637,0.1277543,-1,16.46946716308594,200,-9999,1561238357.742829,11.51178359985352,17.20967102050781,3.10009765625,96.48876190185547,104.0324478149414,15,60897.588067,-0.4681243896484375,0.96685791015625,0.036651611328125,60897.577935,0.6601454362732776,0.0928665577399351,-1.071333247523768,60897.56051,49.09529113769531,17.61105346679688,-531.6759643554688,60897.582971,-1.47795408929353,-1.694429819526645,-1.13067045560045,0.6658800840377808,0.1042576283216476,-1.073869585990906,-0.05760651826858521,0.07848674058914185,-0.02650880813598633,1,-0.6883921027183533,-0.2288809567689896,-0.07979252189397812,0.6836394667625427,-0.4228011965751648,0.9046980142593384,0.05254035815596581,0,0,0,-1,60897.312524,2,0,1561238357.48071,1561238131.651496,34,2.131246,0,0,28.10168,0,0,1561238341.922048,60894.959285,0,-0.9221191,74.40506,2650659446,177292352,1,1,0.45,-160,-160,2
1561238357.769032,41,0,0,1561238356.875243,4.603071181250334,-74.06477042886725,2648.637,0.1277543,-1,16.46946716308594,200,-9999,1561238357.742829,11.51178359985352,17.20967102050781,3.10009765625,96.48876190185547,104.0324478149414,15,60897.60830000001,-0.445037841796875,0.946014404296875,0.067291259765625,60897.59819900001,0.6352651201053213,0.1705981046888409,-1.046772510686621,60897.580651,48.78623962402344,17.73121643066406,-531.9695434570312,60897.603234,-1.442847647843166,-1.659933377169403,-1.110713605404052,0.6002725958824158,0.1847372949123383,-1.036359786987305,-0.01240679621696472,0.05924546718597412,0.01426076889038086,1,-0.681299090385437,-0.2357854247093201,-0.08661966770887375,0.6875563859939575,-0.4422593414783478,0.8960157632827759,0.03952643275260925,0,0,0,-1,60897.312524,2,0,1561238357.48071,1561238131.651496,34,2.131246,0,0,28.10168,0,0,1561238341.922048,60894.959285,0,-0.9221191,74.40506,2650659446,177292352,1,1,0.45,-160,-160,2
1561238357.78912,42,0,0,1561238356.875243,4.603071181250334,-74.06477042886725,2648.637,0.1277543,-1,16.46946716308594,200,-9999,1561238357.76979,11.08803939819336,17.60908508300781,2.8551025390625,96.28764343261719,103.8313293457031,15,60897.62856400001,-0.44854736328125,0.9325714111328125,0.0633544921875,60897.618432,0.504612301238797,0.2041986755301526,-1.012134904916832,60897.60079300001,48.58697509765625,18.26254272460938,-532.1375732421875,60897.623498,-1.415571663681432,-1.631665331546251,-1.090891133907578,0.472627580165863,0.1820070296525955,-1.024790644645691,0.01656490564346313,0.0513920783996582,0.03948032855987549,1,-0.6749171614646912,-0.2419289201498032,-0.09379411488771439,0.6907675266265869,-0.4608398079872131,0.8870387077331543,0.02808555401861668,0,0,0,-1,60897.62761800001,3,2,1561238357.795804,1561238131.651496,34,2.131246,0,0,28.10168,0,0,1561238341.922048,60894.959285,0,-0.9221191,74.40506,2650659446,177292352,1,1,0.45,-160,-160,2
1561238357.809577,43,0,0,1561238356.875243,4.603071181250334,-74.06477042886725,2648.637,0.1277543,-1,16.46946716308594,200,-9999,1561238357.793486,10.48442077636719,18.30044937133789,2.5675048828125,96.19514465332031,103.7388305664062,15,60897.64883366667,-0.457489013671875,0.9234466552734375,0.0535125732421875,60897.63870166667,0.4388553918153235,0.1102077311779861,-1.089205987915399,60897.620904,48.36445617675781,18.60317993164062,-532.2437133789062,60897.64376766667,-1.394131329985776,-1.610072406303609,-1.069700178143107,0.432741641998291,0.06659440696239471,-1.110646963119507,0.02760869264602661,0.0466342568397522,0.04145514965057373,1,-0.6690057516098022,-0.2487222105264664,-0.1010836511850357,0.6930732727050781,-0.4800165295600891,0.8770565390586853,0.01886286772787571,0,0,0,-1,60897.62761800001,3,2,1561238357.795804,1561238131.651496,34,2.131246,0,0,28.10168,0,0,1561238341.922048,60894.959285,0,-0.9221191,74.40506,2650659446,177292352,1,1,0.45,-160,-160,2
1561238357.830295,44,0,0,1561238356.875243,4.603071181250334,-74.06477042886725,2648.637,0.1277543,-1,16.46946716308594,200,-9999,1561238357.819996,9.994621276855469,18.90950012207031,2.5118408203125,95.94441223144531,103.4880981445312,15,60897.66909666667,-0.475128173828125,0.9433746337890625,0.0373687744140625,60897.65896566667,0.4454187523218238,-0.05479054468674521,-1.117514857670723,60897.64105166667,47.72479248046875,19.18397521972656,-532.3487548828125,60897.66403066667,-1.374581194133624,-1.593396359492706,-1.047287586058203,0.4472314119338989,-0.1027384251356125,-1.115964531898499,0.0338517427444458,0.06709611415863037,0.03508949279785156,1,-0.6630728840827942,-0.2568715512752533,-0.1077141985297203,0.6948013305664062,-0.4997941255569458,0.8660703897476196,0.01129728648811579,0,0,0,-1,60897.62761800001,3,2,1561238357.795804,1561238131.651496,34,2.131246,0,0,28.10168,0,0,1561238341.922048,60894.959285,0,-0.9221191,74.40506,2650659446,177292352,1,1,0.45,-160,-160,2
1561238357.850116,45,0,0,1561238356.875243,4.603071181250334,-74.06477042886725,2648.637,0.1277543,-1,16.46946716308594,200,-9999,1561238357.844157,9.467430114746094,19.39784240722656,2.33416748046875,95.39517974853516,102.9388656616211,15,60897.68936066667,-0.51776123046875,0.9857025146484375,0.0171661376953125,60897.67922866667,0.446671236982488,-0.2483054168718269,-1.104009701466822,60897.66116266667,47.29188537597656,19.33177185058594,-532.5917358398438,60897.68429466667,-1.356151261208722,-1.58162013377098,-1.024965646679727,0.4447733163833618,-0.2983143329620361,-1.111827611923218,0.02921450138092041,0.1034945845603943,0.02170968055725098,1,-0.6572238206863403,-0.2662071883678436,-0.1130022704601288,0.6960036754608154,-0.5190979242324829,0.8546963334083557,0.005618835333734751,0,0,0,-1,60897.62761800001,3,2,1561238357.795804,1561238131.651496,34,2.131246,0,0,28.10168,0,0,1561238341.922048,60894.959285,0,-0.9221191,74.40506,2650659446,177292352,1,1,0.45,-160,-160,2
1561238357.870249,46,0,0,1561238356.875243,4.603071181250334,-74.06477042886725,2648.637,0.1277543,-1,16.46946716308594,200,-9999,1561238357.844157,9.467430114746094,19.39784240722656,2.33416748046875,95.39517974853516,102.9388656616211,15,60897.70962466667,-0.5733184814453125,1.0137939453125,-0.0030670166015625,60897.69949266667,0.4797974988336566,-0.396626977990482,-1.171774900668324,60897.68130366667,46.82424926757812,19.95695495605469,-532.8692626953125,60897.70455866667,-1.338072560841873,-1.573775314135614,-1.001699928925188,0.4967957139015198,-0.4279138743877411,-1.205864310264587,-0.007456839084625244,0.1655005216598511,0.00663447380065918,1,-0.6512131690979004,-0.276991069316864,-0.1173960044980049,0.6967177391052246,-0.5388688445091248,0.8423882722854614,0.001605288125574589,0,0,0,-1,60897.62761800001,3,2,1561238357.795804,1561238131.651496,34,2.131246,0,0,28.10168,0,0,1561238341.922048,60894.959285,0,-0.9221191,74.40506,2650659446,177292352,1,1,0.45,-160,-160,2
1561238357.890691,47,0,0,1561238357.871073,4.603071496128067,-74.06476976503635,2648.518,0.1244365,-1,16.42833518981934,200,-9999,1561238357.872413,9.076084136962891,19.54906845092773,2.0126953125,94.55994415283203,102.103630065918,15,60897.72988766667,-0.62188720703125,0.99798583984375,-0.02166748046875,60897.71975666667,0.5574009477341296,-0.4200841008719,-1.326167670124033,60897.70141466667,46.44129943847656,20.16926574707031,-533.0011596679688,60897.72482166667,-1.318432692570013,-1.566141323427257,-0.9756260711480731,0.5649707913398743,-0.4111932218074799,-1.384854555130005,-0.03985077142715454,0.1823381781578064,-0.01034486293792725,1,-0.6442782282829285,-0.2891377806663513,-0.1221077218651772,0.6974199414253235,-0.5606436133384705,0.8280530571937561,-0.002609816612675786,0,0,0,-1,60897.62761800001,3,2,1561238357.795804,1561238131.651496,34,2.131246,0,0,28.10168,0,0,1561238341.922048,60894.959285,0,-0.9221191,74.40506,2650659446,177292352,1,1,0.45,-160,-160,2
1561238357.913447,48,0,0,1561238357.871073,4.603071496128067,-74.06476976503635,2648.518,0.1244365,-1,16.42833518981934,200,-9999,1561238357.894872,8.315155029296875,19.97954940795898,1.423583984375,93.60916900634766,101.1528549194336,15,60897.75015166667,-0.6609649658203125,0.989288330078125,-0.031890869140625,60897.74001966667,0.5974042904682099,-0.3453648554319828,-1.566493457421656,60897.72155666667,46.10952758789062,20.29615783691406,-533.4232177734375,60897.74508566667,-1.298273343989969,-1.557165464688275,-0.9449718912354319,0.6085206866264343,-0.3352241516113281,-1.629302978515625,-0.05560028553009033,0.1770073175430298,-0.0217399001121521,1,-0.6361044645309448,-0.3022895753383636,-0.128600612282753,0.6981791257858276,-0.5857114195823669,0.8104804754257202,-0.007984246127307415,0,0,0,-1,60897.62761800001,3,2,1561238357.795804,1561238131.651496,34,2.131246,0,0,28.10168,0,0,1561238341.922048,60894.959285,0,-0.9221191,74.40506,2650659446,177292352,1,1,0.45,-160,-160,2
1561238357.931206,49,0,0,1561238357.871073,4.603071496128067,-74.06476976503635,2648.518,0.1244365,-1,16.42833518981934,200,-9999,1561238357.921913,7.594696044921875,20.57992553710938,1.3345947265625,92.68886566162109,100.232551574707,15,60897.77041566667,-0.677459716796875,0.9968414306640625,-0.0318603515625,60897.76028366667,0.6672595384932063,-0.2987515468723259,-1.781851843183676,60897.74169866667,45.44195556640625,20.67691040039062,-533.6240844726562,60897.76534966667,-1.277572224800987,-1.546986674653111,-0.9096078952557951,0.6882109642028809,-0.2952386438846588,-1.823853254318237,-0.06229674816131592,0.2085397243499756,-0.01728707551956177,1,-0.6265254020690918,-0.3164749443531036,-0.1368305236101151,0.6989899277687073,-0.6138811707496643,0.7892630100250244,-0.01461905986070633,0,0,0,-1,60897.62761800001,3,2,1561238357.795804,1561238131.651496,34,2.131246,0,0,28.10168,0,0,1561238341.922048,60894.959285,0,-0.9221191,74.40506,2650659446,177292352,1,1,0.45,-160,-160,2
1561238357.952083,50,0,0,1561238357.871073,4.603071496128067,-74.06476976503635,2648.518,0.1244365,-1,16.42833518981934,200,-9999,1561238357.945552,6.588775634765625,20.81118392944336,0.943115234375,91.70439910888672,99.24808502197266,15,60897.79067866667,-0.6487579345703125,0.9660186767578125,-0.0179290771484375,60897.78054766667,0.8125259212093224,-0.236813610452026,-1.848453773621032,60897.76180966667,44.36563110351562,20.97956848144531,-533.8924560546875,60897.78561266667,-1.25466676370251,-1.534472589274927,-0.8717469070177855,0.8484853506088257,-0.2324114590883255,-1.832753777503967,-0.0212562084197998,0.2113524675369263,-0.00313568115234375,1,-0.6154083013534546,-0.3310410976409912,-0.1457573473453522,0.7003135681152344,-0.6430656909942627,0.7654542326927185,-0.02336882799863815,0,0,0,-1,60897.62761800001,3,2,1561238357.795804,1561238131.651496,34,2.131246,0,0,28.10168,0,0,1561238341.922048,60894.959285,0,-0.9221191,74.40506,2650659446,177292352,1,1,0.45,-160,-160,2
1561238357.971985,51,0,0,1561238357.871073,4.603071496128067,-74.06476976503635,2648.518,0.1244365,-1,16.42833518981934,200,-9999,1561238357.945552,6.588775634765625,20.81118392944336,0.943115234375,91.70439910888672,99.24808502197266,15,60897.81094266667,-0.6490325927734375,0.9704437255859375,-0.01019287109375,60897.80081066667,0.9089949369558077,-0.2250365794794776,-1.74886193518032,60897.78195066667,43.59837341308594,21.30381774902344,-534.2382202148438,60897.80587666667,-1.229691723116986,-1.520336457683763,-0.8349220912899156,0.9034140706062317,-0.243822306394577,-1.736911416053772,0.02807778120040894,0.2306796312332153,0.0189940333366394,1,-0.6033486723899841,-0.3450251221656799,-0.1539374738931656,0.7023043632507324,-0.6703812479972839,0.7412441968917847,-0.03385609015822411,0,0,0,-1,60897.62761800001,3,2,1561238357.795804,1561238131.651496,34,2.131246,0,0,28.10168,0,0,1561238341.922048,60894.959285,0,-0.9221191,74.40506,2650659446,177292352,1,1,0.45,-160,-160,2
1561238357.999816,52,0,0,1561238357.871073,4.603071496128067,-74.06476976503635,2648.518,0.1244365,-1,16.42833518981934,200,-9999,1561238357.997219,4.186481475830078,21.54245376586914,-0.32794189453125,89.42214202880859,96.96582794189453,15,60897.83120666667,-0.7145233154296875,0.912689208984375,-0.0098114013671875,60897.82107466667,0.8576963290903744,-0.3040025015936351,-1.832869753870215,60897.80206166667,43.21559143066406,21.63148498535156,-534.7587890625,60897.82614066667,-1.206930784703037,-1.509563853318037,-0.7976032828706138,0.8261882662773132,-0.3340731263160706,-1.916677236557007,0.01985394954681396,0.2340075373649597,0.03381311893463135,1,-0.5911959409713745,-0.3593293726444244,-0.161884218454361,0.7036784887313843,-0.6971153020858765,0.7156842350959778,-0.04273952171206474,0,0,0,-1,60897.62761800001,3,2,1561238357.795804,1561238131.651496,34,2.131246,0,0,28.10168,0,0,1561238341.922048,60894.959285,0,-0.9221191,74.40506,2650659446,177292352,1,1,0.45,-160,-160,2
1561238358.012844,53,0,0,1561238357.871073,4.603071496128067,-74.06476976503635,2648.518,0.1244365,-1,16.42833518981934,200,-9999,1561238357.997219,4.186481475830078,21.54245376586914,-0.32794189453125,89.42214202880859,96.96582794189453,15,60897.85146966667,-0.7726898193359375,0.8864593505859375,0.0057373046875,60897.84133866667,0.7130832197896547,-0.3430234042015851,-2.224597314403278,60897.82220366667,42.14561462402344,21.81712341308594,-535.075927734375,60897.84637366667,-1.189530174787801,-1.504368350498692,-0.7538174869751283,0.6527038216590881,-0.3348009586334229,-2.322263240814209,-0.02240461111068726,0.2041991353034973,0.04279583692550659,1,-0.5785532593727112,-0.3756038248538971,-0.1721394807100296,0.7032537460327148,-0.7274733185768127,0.68442702293396,-0.048395786434412,0,0,0,-1,60897.62761800001,3,2,1561238357.795804,1561238131.651496,34,2.131246,0,0,28.10168,0,0,1561238341.922048,60894.959285,0,-0.9221191,74.40506,2650659446,177292352,1,1,0.45,-160,-160,2
1561238358.032396,54,0,0,1561238357.871073,4.603071496128067,-74.06476976503635,2648.518,0.1244365,-1,16.42833518981934,200,-9999,1561238358.026025,2.898029327392578,22.03421401977539,-0.70361328125,88.45376586914062,95.99745178222656,15,60897.87173366667,-0.7763671875,0.92828369140625,0.0413818359375,60897.86160166667,0.4410953766081891,-0.2494535056177601,-2.504552802934043,60897.86245666667,39.6646728515625,22.32728576660156,-535.8458862304688,60897.86663766667,-1.180110719368123,-1.503843762966339,-0.703590434629927,0.3495432138442993,-0.2099695354700089,-2.548213243484497,-0.02496600151062012,0.2525612711906433,0.07883161306381226,1,-0.5658945441246033,-0.3927543163299561,-0.1859305799007416,0.7006691694259644,-0.7608158588409424,0.646959662437439,-0.05101482570171356,0,0,0,-1,60897.62761800001,3,2,1561238357.795804,1561238131.651496,34,2.131246,0,0,28.10168,0,0,1561238341.922048,60894.959285,0,-0.9221191,74.40506,2650659446,177292352,1,1,0.45,-160,-160,2
1561238358.052734,55,0,0,1561238357.871073,4.603071496128067,-74.06476976503635,2648.518,0.1244365,-1,16.42833518981934,200,-9999,1561238358.04707,1.704654693603516,21.89165115356445,-0.713623046875,88.077880859375,95.62156677246094,15,60897.89196666667,-0.74041748046875,0.936553955078125,0.027984619140625,60897.88186566667,0.1219077967950312,-0.0289546863196685,-2.660885685243874,60897.88259766667,38.43940734863281,22.25001525878906,-535.7332763671875,60897.88690066667,-1.17959567962946,-1.505479850681857,-0.6502623969374136,0.07294115424156189,0.01488860510289669,-2.713013410568237,0.0373154878616333,0.3362550735473633,0.08815920352935791,1,-0.554057240486145,-0.4087120592594147,-0.2031699568033218,0.6962018013000488,-0.7942277193069458,0.6053952574729919,-0.05195005238056183,0,0,0,-1,60897.62761800001,3,2,1561238357.795804,1561238131.651496,34,2.131246,0,0,28.10168,0,0,1561238341.922048,60894.959285,0,-0.9221191,74.40506,2650659446,177292352,1,1,0.45,-160,-160,2
1561238358.083771,56,0,0,1561238357.871073,4.603071496128067,-74.06476976503635,2648.518,0.1244365,-1,16.42833518981934,200,-9999,1561238358.073557,-0.7425537109375,22.08300018310547,-0.8895263671875,88.09369659423828,95.63738250732422,15,60897.91223066667,-0.7603302001953125,0.9091949462890625,-0.0005645751953125,60897.90209866667,0.03696840435582593,0.1010043790828902,-2.936742835173116,60897.90270866667,36.94184875488281,22.47186279296875,-535.88330078125,60897.90716466667,-1.183182649006324,-1.506126064633741,-0.5923901845886423,0.0522041842341423,0.1279472559690475,-3.028419971466064,0.08097171783447266,0.3728373050689697,0.06734651327133179,1,-0.5415443778038025,-0.4241731762886047,-0.223476842045784,0.6905540227890015,-0.8278742432594299,0.5583455562591553,-0.05361360684037209,0,0,0,-1,60897.62761800001,3,2,1561238357.795804,1561238131.651496,34,2.131246,0,0,28.10168,0,0,1561238341.922048,60894.959285,0,-0.9221191,74.40506,2650659446,177292352,1,1,0.45,-160,-160,2
1561238358.093166,57,0,0,1561238357.871073,4.603071496128067,-74.06476976503635,2648.518,0.1244365,-1,16.42833518981934,200,-9999,1561238358.073557,-0.7425537109375,22.08300018310547,-0.8895263671875,88.09369659423828,95.63738250732422,15,60897.93249466667,-0.7574462890625,0.8459625244140625,-0.007781982421875,60897.92236266667,0.1977804573030617,0.3173518628737663,-3.175260336090575,60897.92285066667,35.45266723632812,22.61062622070312,-535.6199340820312,60897.92742866667,-1.184727020381174,-1.501988360681615,-0.5288538154058685,0.2531772255897522,0.41570845246315,-3.141135931015015,0.09335291385650635,0.3679839968681335,0.05029726028442383,1,-0.5262418389320374,-0.4397602081298828,-0.2459990680217743,0.6849562525749207,-0.8613430261611938,0.5045440793037415,-0.05936097353696823,0,0,0,-1,60897.62761800001,3,2,1561238357.795804,1561238131.651496,34,2.131246,0,0,28.10168,0,0,1561238341.922048,60894.959285,0,-0.9221191,74.40506,2650659446,177292352,1,1,0.45,-160,-160,2
1561238358.113664,58,0,0,1561238357.871073,4.603071496128067,-74.06476976503635,2648.518,0.1244365,-1,16.42833518981934,200,-9999,1561238358.097532,-2.453781127929688,22.11803817749023,-0.9110107421875,356.0240783691406,3.567771911621094,15,60897.95275766667,-0.66656494140625,0.79217529296875,-0.0075225830078125,60897.94262566667,0.4127140688712146,0.7135751056429923,-2.715006444916465,60897.94296166667,34.11421203613281,22.43038940429688,-535.8125610351562,60897.94769166667,-1.181462659438432,-1.487971919683486,-0.4701991547971995,0.4394267201423645,0.7763705253601074,-2.551812171936035,0.1750585436820984,0.3722078204154968,0.06871634721755981,1,-0.5091636776924133,-0.4515268206596375,-0.267511248588562,0.6821390390396118,-0.8884221911430359,0.4530638456344604,-0.07375176250934601,0,0,0,-1,60897.62761800001,3,2,1561238357.795804,1561238131.651496,34,2.131246,0,0,28.10168,0,0,1561238341.922048,60894.959285,0,-0.9221191,74.40506,2650659446,177292352,1,1,0.45,-160,-160,2
1561238358.133836,59,0,0,1561238357.871073,4.603071496128067,-74.06476976503635,2648.518,0.1244365,-1,16.42833518981934,200,-9999,1561238358.124025,-3.951370239257812,21.91674041748047,-1.1044921875,355.6637573242188,3.207450866699219,15,60897.97302166667,-0.6226348876953125,0.6242523193359375,0.0178375244140625,60897.96288966667,0.4653746173181145,0.9821660868540618,-2.231173458083011,60897.96310366667,33.15896606445312,22.08952331542969,-535.8650512695312,60897.96795566667,-1.176038168392273,-1.46721535401346,-0.4223552071438956,0.4513270854949951,1.045769453048706,-2.155718326568604,0.2725023031234741,0.3103965222835541,0.09762120246887207,1,-0.4927017092704773,-0.4583557546138763,-0.286094456911087,0.6821327209472656,-0.9072373509407043,0.4099098443984985,-0.09431005269289017,0,0,0,-1,60897.62761800001,3,2,1561238357.795804,1561238131.651496,34,2.131246,0,0,28.10168,0,0,1561238341.922048,60894.959285,0,-0.9221191,74.40506,2650659446,177292352,1,1,0.45,-160,-160,2
1561238358.164336,60,0,0,1561238357.871073,4.603071496128067,-74.06476976503635,2648.518,0.1244365,-1,16.42833518981934,200,-9999,1561238358.148334,-4.960971832275391,21.68578338623047,-1.37786865234375,355.3736572265625,2.917332410812378,15,60897.99328566667,-0.6194000244140625,0.5169677734375,0.019561767578125,60897.98315366667,0.369166325042348,1.126166402787954,-1.832485459724917,60897.98324466667,31.95358276367188,22.02778625488281,-536.1615600585938,60897.98821966667,-1.172262180052092,-1.443443699400131,-0.3822132680366333,0.3275628089904785,1.076759099960327,-1.705524444580078,0.3063137531280518,0.1749224364757538,0.1433718204498291,1,-0.4775824844837189,-0.4615116715431213,-0.3031209111213684,0.6834030151367188,-0.9203274250030518,0.3729749321937561,-0.117843896150589,0,0,0,-1,60897.62761800001,3,2,1561238357.795804,1561238131.651496,34,2.131246,0,0,28.10168,0,0,1561238341.922048,60894.959285,0,-0.9221191,74.40506,2650659446,177292352,1,1,0.45,-160,-160,2
1561238358.174476,61,0,0,1561238357.871073,4.603071496128067,-74.06476976503635,2648.518,0.1244365,-1,16.42833518981934,200,-9999,1561238358.148334,-4.960971832275391,21.68578338623047,-1.37786865234375,355.3736572265625,2.917332410812378,15,60898.01354866667,-0.699432373046875,0.465118408203125,-0.0366058349609375,60898.00341666667,0.2659243580115732,0.8083660635866187,-1.3952415466852,60898.00335566667,30.87747192382812,21.85696411132812,-536.281494140625,60898.00848266667,-1.170627952572876,-1.424645477377338,-0.351380658640383,0.278668999671936,0.7265638113021851,-1.364497423171997,0.2789863348007202,0.1523113250732422,0.136946439743042,1,-0.4657932221889496,-0.4633252322673798,-0.3164676129817963,0.6842620968818665,-0.928888738155365,0.3441944420337677,-0.1367328017950058,0,0,0,-1,60897.62761800001,3,2,1561238357.795804,1561238131.651496,34,2.131246,0,0,28.10168,0,0,1561238341.922048,60894.959285,0,-0.9221191,74.40506,2650659446,177292352,1,1,0.45,-160,-160,2
1561238358.194671,62,0,0,1561238357.871073,4.603071496128067,-74.06476976503635,2648.518,0.1244365,-1,16.42833518981934,200,-9999,1561238358.175326,-6.759540557861328,21.37772369384766,-1.47381591796875,355.2527160644531,2.796413421630859,15,60898.03381266667,-0.7708587646484375,0.36602783203125,-0.08587646484375,60898.02368066667,0.3903853273436633,0.5991358778089794,-1.430963591650869,60898.02349766667,30.35075378417969,21.36825561523438,-536.7012939453125,60898.02874666667,-1.167851210253864,-1.410857982670154,-0.3221901014523687,0.4183070659637451,0.581023633480072,-1.458322167396545,0.1927094459533691,0.09795185923576355,0.08509886264801025,1,-0.454698234796524,-0.4666028320789337,-0.3275263905525208,0.6842936277389526,-0.9364380240440369,0.3166447281837463,-0.1510626226663589,0,0,0,-1,60897.62761800001,3,2,1561238357.795804,1561238131.651496,34,2.131246,0,0,28.10168,0,0,1561238341.922048,60894.959285,0,-0.9221191,74.40506,2650659446,177292352,1,1,0.45,-160,-160,2
1561238358.214972,63,0,0,1561238357.871073,4.603071496128067,-74.06476976503635,2648.518,0.1244365,-1,16.42833518981934,200,-9999,1561238358.198982,-7.581907272338867,21.16193389892578,-1.93853759765625,355.0031433105469,2.546818256378174,15,60898.05407666667,-0.7913818359375,0.3306732177734375,-0.1070709228515625,60898.04394466667,0.4329138794233567,0.6574817425509804,-1.303015479187429,60898.04360866667,29.60934448242188,21.36076354980469,-537.1103515625,60898.04901066667,-1.163672736691401,-1.396963970350316,-0.2933981863759234,0.3955000042915344,0.688399612903595,-1.16123378276825,0.1560660600662231,0.05916658043861389,0.06318062543869019,1,-0.4431242644786835,-0.4699546098709106,-0.3378115296363831,0.6845924258232117,-0.9428396821022034,0.289206862449646,-0.1655671000480652,0,0,0,-1,60897.62761800001,3,2,1561238357.795804,1561238131.651496,34,2.131246,0,0,28.10168,0,0,1561238341.922048,60894.959285,0,-0.9221191,74.40506,2650659446,177292352,1,1,0.45,-160,-160,2
1561238358.249659,64,0,0,1561238357.871073,4.603071496128067,-74.06476976503635,2648.518,0.1244365,-1,16.42833518981934,200,-9999,1561238358.225349,-8.330398559570312,20.83836364746094,-2.16815185546875,354.7385559082031,2.28223729133606,15,60898.07433966667,-0.7802886962890625,0.3064727783203125,-0.1118927001953125,60898.06420766667,0.2502804171362297,0.6890732246659363,-0.6782229737527354,60898.06375066667,28.94644165039062,21.14234924316406,-536.7861328125,60898.06927366667,-1.160670784412139,-1.382119166389383,-0.2755061623307067,0.1850860714912415,0.6492570042610168,-0.6095327734947205,0.1628462076187134,0.05026206374168396,0.07126396894454956,1,-0.434642881155014,-0.4699386954307556,-0.3453139960765839,0.6862954497337341,-0.9452100992202759,0.2720340490341187,-0.1804863810539246,0,0,0,-1,60897.62761800001,3,2,1561238357.795804,1561238131.651496,34,2.131246,0,0,28.10168,0,0,1561238341.922048,60894.959285,0,-0.9221191,74.40506,2650659446,177292352,1,1,0.45,-160,-160,2
1561238358.255596,65,0,0,1561238357.871073,4.603071496128067,-74.06476976503635,2648.518,0.1244365,-1,16.42833518981934,200,-9999,1561238358.249639,-8.58720588684082,20.78160095214844,-2.149658203125,354.7899475097656,2.333648681640625,15,60898.09460366667,-0.82037353515625,0.2108001708984375,-0.114501953125,60898.08447166667,0.01385110082950212,0.5080182179568993,-0.7447958757342092,60898.08389166667,28.71934509277344,20.90315246582031,-537.1708374023438,60898.08953766667,-1.162049722646034,-1.371248166445785,-0.2616344251366502,-0.0400698184967041,0.4431067705154419,-0.868826150894165,0.1472548246383667,-0.0004810094833374023,0.07636821269989014,1,-0.4289563894271851,-0.4693145453929901,-0.352178543806076,0.6868119239807129,-0.9468001127243042,0.258659690618515,-0.1914805471897125,0,0,0,-1,60897.62761800001,3,2,1561238357.795804,1561238131.651496,34,2.131246,0,0,28.10168,0,0,1561238341.922048,60894.959285,0,-0.9221191,74.40506,2650659446,177292352,1,1,0.45,-160,-160,2
1561238358.275685,66,0,0,1561238357.871073,4.603071496128067,-74.06476976503635,2648.518,0.1244365,-1,16.42833518981934,200,-9999,1561238358.249639,-8.58720588684082,20.78160095214844,-2.149658203125,354.7899475097656,2.333648681640625,15,60898.11486766667,-0.8651275634765625,0.2098236083984375,-0.1252899169921875,60898.10473566667,-0.1483489916778829,0.2970247532215185,-1.179180619027617,60898.10400266667,28.20474243164062,20.66802978515625,-537.096435546875,60898.10977066667,-1.168970917935098,-1.366120475866423,-0.2407122510610945,-0.1766873151063919,0.2945702970027924,-1.237380743026733,0.1065825223922729,-0.02927270531654358,0.08499354124069214,1,-0.4234100580215454,-0.4711995720863342,-0.3616800010204315,0.6840193271636963,-0.9508971571922302,0.2383944094181061,-0.1973897665739059,0,0,0,-1,60897.62761800001,3,2,1561238357.795804,1561238131.651496,34,2.131246,0,0,28.10168,0,0,1561238341.922048,60894.959285,0,-0.9221191,74.40506,2650659446,177292352,1,1,0.45,-160,-160,2
1561238358.296523,67,0,0,1561238357.871073,4.603071496128067,-74.06476976503635,2648.518,0.1244365,-1,16.42833518981934,200,-9999,1561238358.27814,-9.702823638916016,20.20042037963867,-2.243896484375,355.3195495605469,2.863230466842651,15,60898.13513066667,-0.8903350830078125,0.2011871337890625,-0.1751708984375,60898.12499866667,-0.2456742137148286,0.4913905053748805,-1.31687243897133,60898.12414466667,27.45941162109375,20.73492431640625,-536.9933471679688,60898.13003466667,-1.179097662360954,-1.360082112327198,-0.2159940311069632,-0.2623159289360046,0.5984023809432983,-1.369294285774231,0.07913732528686523,-0.02117270231246948,0.05425870418548584,1,-0.4172428250312805,-0.4730319678783417,-0.3734490871429443,0.6802096366882324,-0.9551597237586975,0.2143184691667557,-0.2042983621358871,0,0,0,-1,60897.62761800001,3,2,1561238357.795804,1561238131.651496,34,2.131246,0,0,28.10168,0,0,1561238341.922048,60894.959285,0,-0.9221191,74.40506,2650659446,177292352,1,1,0.45,-160,-160,2
1561238358.330012,68,0,0,1561238357.871073,4.603071496128067,-74.06476976503635,2648.518,0.1244365,-1,16.42833518981934,200,-9999,1561238358.328249,-11.19064903259277,19.63193511962891,-2.38336181640625,357.0615234375,4.605212688446045,15,60898.15539466667,-0.8273468017578125,0.1595611572265625,-0.1943511962890625,60898.14526266667,-0.2869015452859093,0.9340507554396003,-1.574214760370122,60898.14428666667,26.68011474609375,20.4715576171875,-537.2999877929688,60898.15029866667,-1.191539734349881,-1.346015631001344,-0.1874764354612126,-0.2923358678817749,1.011349439620972,-1.625314116477966,0.08047270774841309,0.0001890957355499268,0.02478837966918945,1,-0.4088313281536102,-0.4726134240627289,-0.388568639755249,0.6771321296691895,-0.9577615261077881,0.18638014793396,-0.218986988067627,0,0,0,-1,60897.62761800001,3,2,1561238357.795804,1561238131.651496,34,2.131246,0,0,28.10168,0,0,1561238341.922048,60894.959285,0,-0.9221191,74.40506,2650659446,177292352,1,1,0.45,-160,-160,2
1561238358.33654,69,0,0,1561238357.871073,4.603071496128067,-74.06476976503635,2648.518,0.1244365,-1,16.42833518981934,200,-9999,1561238358.328249,-11.19064903259277,19.63193511962891,-2.38336181640625,357.0615234375,4.605212688446045,15,60898.17562766667,-0.6613616943359375,0.14703369140625,-0.1917266845703125,60898.16549566667,-0.2897782918954129,1.088582541904211,-1.583195205881978,60898.16439766667,26.03094482421875,19.81361389160156,-537.6666870117188,60898.17056166667,-1.205086673258452,-1.326727297663306,-0.1571193813514639,-0.3052799105644226,1.050932288169861,-1.540074229240417,0.2091269493103027,-0.009592622518539429,0.04199063777923584,1,-0.3988514840602875,-0.470722109079361,-0.4053565859794617,0.6745547652244568,-0.95840984582901,0.1564737260341644,-0.2386763840913773,0,0,0,-1,60897.62761800001,3,2,1561238357.795804,1561238131.651496,34,2.131246,0,0,28.10168,0,0,1561238341.922048,60894.959285,0,-0.9221191,74.40506,2650659446,177292352,1,1,0.45,-160,-160,2
1561238358.356812,70,0,0,1561238357.871073,4.603071496128067,-74.06476976503635,2648.518,0.1244365,-1,16.42833518981934,200,-9999,1561238358.350772,-11.92845916748047,19.35603332519531,-2.49053955078125,358.0546875,5.59837007522583,15,60898.19589166667,-0.5530548095703125,0.128021240234375,-0.2079925537109375,60898.18575966667,-0.3186589423367772,0.8571889969027143,-1.46480331435807,60898.18453866667,25.11810302734375,19.42939758300781,-537.5228271484375,60898.19082566667,-1.219002261127305,-1.310052328370648,-0.1295298350378713,-0.2824755311012268,0.7512510418891907,-1.437951683998108,0.3692676424980164,0.01794204115867615,0.06119704246520996,1,-0.390082061290741,-0.4690587222576141,-0.4206994771957397,0.671440064907074,-0.9581042528152466,0.1291679292917252,-0.2556397914886475,0,0,0,-1,60897.62761800001,3,2,1561238357.795804,1561238131.651496,34,2.131246,0,0,28.10168,0,0,1561238341.922048,60894.959285,0,-0.9221191,74.40506,2650659446,177292352,1,1,0.45,-160,-160,2
1561238358.377284,71,0,0,1561238357.871073,4.603071496128067,-74.06476976503635,2648.518,0.1244365,-1,16.42833518981934,200,-9999,1561238358.350772,-11.92845916748047,19.35603332519531,-2.49053955078125,358.0546875,5.59837007522583,15,60898.21615466667,-0.51727294921875,0.0527496337890625,-0.2596435546875,60898.20602366667,-0.04525696061647955,0.3057242352383713,-1.199650207798184,60898.20464966667,24.51084899902344,19.12611389160156,-537.403564453125,60898.21108966667,-1.228524275513988,-1.301907118089374,-0.1050353922146286,0.06400997936725616,0.1171052530407906,-1.061795830726624,0.4317302703857422,-0.01238939166069031,0.03139328956604004,1,-0.3828838169574738,-0.4704270958900452,-0.431868851184845,0.6675236225128174,-0.9587535858154297,0.1048423647880554,-0.2641966640949249,0,0,0,-1,60897.62761800001,3,2,1561238357.795804,1561238131.651496,34,2.131246,0,0,28.10168,0,0,1561238341.922048,60894.959285,0,-0.9221191,74.40506,2650659446,177292352,1,1,0.45,-160,-160,2
1561238358.410228,72,0,0,1561238357.871073,4.603071496128067,-74.06476976503635,2648.518,0.1244365,-1,16.42833518981934,200,-9999,1561238358.402039,-13.75398254394531,18.36647415161133,-2.62713623046875,358.3457946777344,5.889478206634521,15,60898.23641866667,-0.5552978515625,-0.023681640625,-0.285003662109375,60898.22628666667,0.3544670074056556,-0.2985411571462096,-0.6055932445040945,60898.22479166667,24.14982604980469,18.58685302734375,-537.6698608398438,60898.23135266667,-1.22755891120071,-1.305292383986893,-0.08878119275377287,0.4212421178817749,-0.4010036885738373,-0.5011077523231506,0.4313899874687195,-0.07812079787254333,-0.01944535970687866,1,-0.3782522678375244,-0.4756512939929962,-0.4351083040237427,0.6643506288528442,-0.961159884929657,0.08866460621356964,-0.2613621354103088,0,0,0,-1,60897.62761800001,3,2,1561238357.795804,1561238131.651496,34,2.131246,0,0,28.10168,0,0,1561238341.922048,60894.959285,0,-0.9221191,74.40506,2650659446,177292352,1,1,0.45,-160,-160,2
1561238358.417613,73,0,0,1561238357.871073,4.603071496128067,-74.06476976503635,2648.518,0.1244365,-1,16.42833518981934,200,-9999,1561238358.402039,-13.75398254394531,18.36647415161133,-2.62713623046875,358.3457946777344,5.889478206634521,15,60898.25668266667,-0.6802215576171875,-0.067474365234375,-0.2586669921875,60898.24655066667,0.5579892400189281,-0.5042040386436878,-0.3917501974023289,60898.24493366667,23.67048645019531,18.68531799316406,-537.405029296875,60898.25161666667,-1.219713018088104,-1.314469047975455,-0.07788940686778259,0.5695817470550537,-0.4839140474796295,-0.4111346900463104,0.3560422658920288,-0.1264709532260895,-0.02447605133056641,1,-0.3749120831489563,-0.4827633798122406,-0.4335950314998627,0.6620995998382568,-0.9643949270248413,0.07781067490577698,-0.2527608871459961,0,0,0,-1,60897.62761800001,3,2,1561238357.795804,1561238131.651496,34,2.131246,0,0,28.10168,0,0,1561238341.922048,60894.959285,0,-0.9221191,74.40506,2650659446,177292352,1,1,0.45,-160,-160,2
1561238358.437835,74,0,0,1561238357.871073,4.603071496128067,-74.06476976503635,2648.518,0.1244365,-1,16.42833518981934,200,-9999,1561238358.428027,-14.08297157287598,18.12059020996094,-2.82958984375,357.7208557128906,5.264529705047607,15,60898.27694566667,-0.76983642578125,-0.10626220703125,-0.248809814453125,60898.26681466667,0.522191561278301,-0.4041504080699559,-0.419277163061606,60898.26504466667,23.600341796875,18.14405822753906,-537.772705078125,60898.27188066667,-1.211245259690573,-1.322647561836663,-0.06690450788551092,0.473575085401535,-0.4059073925018311,-0.4056139588356018,0.2408664226531982,-0.164342999458313,-0.008296608924865723,1,-0.3711314797401428,-0.4896235764026642,-0.4321203529834747,0.6601531505584717,-0.9672000408172607,0.06685460358858109,-0.2450603544712067,0,0,0,-1,60897.62761800001,3,2,1561238357.795804,1561238131.651496,34,2.131246,0,0,28.10168,0,0,1561238341.922048,60894.959285,0,-0.9221191,74.40506,2650659446,177292352,1,1,0.45,-160,-160,2
1561238358.458119,75,0,0,1561238357.871073,4.603071496128067,-74.06476976503635,2648.518,0.1244365,-1,16.42833518981934,200,-9999,1561238358.452211,-13.93722724914551,17.87130737304688,-2.86712646484375,357.2681579589844,4.811850547790527,15,60898.29720966667,-0.8617706298828125,-0.11016845703125,-0.254547119140625,60898.28707766667,0.342011669303464,-0.3557607710632161,-0.2657914662731782,60898.28518566667,23.58990478515625,18.02850341796875,-537.89599609375,60898.29214366667,-1.205266208350069,-1.329968198519501,-0.05872414879405153,0.3000669479370117,-0.3313644528388977,-0.1986445486545563,0.1530452966690063,-0.1660207211971283,-0.01101922988891602,1,-0.3686326146125793,-0.4950374662876129,-0.4309244155883789,0.6582947969436646,-0.9694667458534241,0.05869040265679359,-0.2380958050489426,0,0,0,-1,60897.62761800001,3,2,1561238357.795804,1561238131.651496,34,2.131246,0,0,28.10168,0,0,1561238341.922048,60894.959285,0,-0.9221191,74.40506,2650659446,177292352,1,1,0.45,-160,-160,2
1561238358.496027,76,0,0,1561238357.871073,4.603071496128067,-74.06476976503635,2648.518,0.1244365,-1,16.42833518981934,200,-9999,1561238358.478931,-14.22114562988281,17.50265884399414,-2.86761474609375,357.0215759277344,4.565262317657471,15,60898.31747366667,-0.9557647705078125,-0.127716064453125,-0.2759246826171875,60898.30734166667,0.1697972921490541,-0.2038332898285938,-0.03997751007150647,60898.30529666667,23.4349365234375,17.83380126953125,-537.8013305664062,60898.31240766667,-1.20154082822842,-1.334889077735087,-0.05592053770143717,0.1281396448612213,-0.1752195805311203,-0.005978427827358246,0.06941568851470947,-0.1780227422714233,-0.03035777807235718,1,-0.3678722083568573,-0.4979860484600067,-0.4295247495174408,0.6574104428291321,-0.9707828760147095,0.05589139834046364,-0.2333598732948303,0,0,0,-1,60897.62761800001,3,2,1561238357.795804,1561238131.651496,34,2.131246,0,0,28.10168,0,0,1561238341.922048,60894.959285,0,-0.9221191,74.40506,2650659446,177292352,1,1,0.45,-160,-160,2
1561238358.498583,77,0,0,1561238357.871073,4.603071496128067,-74.06476976503635,2648.518,0.1244365,-1,16.42833518981934,200,-9999,1561238358.478931,-14.22114562988281,17.50265884399414,-2.86761474609375,357.0215759277344,4.565262317657471,15,60898.33773666667,-1.041900634765625,-0.150634765625,-0.29339599609375,60898.32760566667,0.07834806874125913,-0.02347816185402956,0.08680706731167781,60898.32543866667,23.40962219238281,17.91548156738281,-537.8255615234375,60898.33267166667,-1.199495444280463,-1.336400920026869,-0.05657308545093324,0.07231205701828003,0.01502333208918571,0.1101146265864372,-0.03747665882110596,-0.1934447884559631,-0.05444777011871338,1,-0.3678949475288391,-0.4987099468708038,-0.4284034967422485,0.6575804948806763,-0.9710988402366638,0.05654291436076164,-0.2318833917379379,0,0,0,-1,60897.62761800001,3,2,1561238357.795804,1561238131.651496,34,2.131246,0,0,28.10168,0,0,1561238341.922048,60895.907136,0,-0.8930664,74.4048,2650659446,177292352,1,1,0.45,-160,-160,2
1561238358.518887,78,0,0,1561238357.871073,4.603071496128067,-74.06476976503635,2648.518,0.1244365,-1,16.42833518981934,200,-9999,1561238358.514911,-14.09432792663574,17.68058776855469,-2.82745361328125,356.8731689453125,4.41684627532959,15,60898.35800066667,-1.082412719726562,-0.15155029296875,-0.287109375,60898.34786866667,0.1181969481321148,0.1484818834162779,0.213588981533772,60898.34554966667,23.50007629394531,17.95256042480469,-537.9810180664062,60898.35293466667,-1.196742707031017,-1.334267577558748,-0.05954830595587615,0.1377179622650146,0.1669649332761765,0.2360198199748993,-0.09465992450714111,-0.216556578874588,-0.06161808967590332,1,-0.3677021265029907,-0.4978334009647369,-0.4271101653575897,0.659191906452179,-0.9704341292381287,0.05951311811804771,-0.2339141070842743,0,0,0,-1,60897.62761800001,3,2,1561238357.795804,1561238131.651496,34,2.131246,0,0,28.10168,0,0,1561238341.922048,60895.907136,0,-0.8930664,74.4048,2650659446,177292352,1,1,0.45,-160,-160,2
1561238358.539157,79,0,0,1561238357.871073,4.603071496128067,-74.06476976503635,2648.518,0.1244365,-1,16.42833518981934,200,-9999,1561238358.514911,-14.09432792663574,17.68058776855469,-2.82745361328125,356.8731689453125,4.41684627532959,15,60898.37826466667,-1.108184814453125,-0.1273040771484375,-0.264068603515625,60898.36813266667,0.1863480393755695,0.1766237729712542,0.1686486707709029,60898.36569166667,23.4952392578125,17.93275451660156,-537.7199096679688,60898.37319866667,-1.192452439143154,-1.330531767481299,-0.06260102171252428,0.191265881061554,0.145423948764801,0.1013666763901711,-0.1287108659744263,-0.1973105072975159,-0.03789710998535156,1,-0.3668145835399628,-0.4966893494129181,-0.4255793988704681,0.661535382270813,-0.9693726301193237,0.06256014108657837,-0.2374935001134872,0,0,0,-1,60897.62761800001,3,2,1561238357.795804,1561238131.651496,34,2.131246,0,0,28.10168,0,0,1561238341.922048,60895.907136,0,-0.8930664,74.4048,2650659446,177292352,1,1,0.45,-160,-160,2
1561238358.56268,80,0,0,1561238357.871073,4.603071496128067,-74.06476976503635,2648.518,0.1244365,-1,16.42833518981934,200,-9999,1561238358.553957,-14.04180335998535,17.71856689453125,-3.157958984375,356.3544006347656,3.898102998733521,15,60898.39852766667,-1.115737915039062,-0.0916748046875,-0.22271728515625,60898.38839666667,0.1575816385449696,0.04787165217471934,-0.09647593996531949,60898.38580266667,23.60185241699219,17.94622802734375,-537.8677978515625,60898.39343166667,-1.189318383635411,-1.328749746330703,-0.06112589310661131,0.123548611998558,0.008025342598557472,-0.1473339647054672,-0.1428564786911011,-0.1809303760528564,-0.004837155342102051,1,-0.3651845455169678,-0.4970101118087769,-0.425254762172699,0.6624043583869934,-0.9690362811088562,0.06108783558011055,-0.2392423897981644,0,0,0,-1,60897.62761800001,3,2,1561238357.795804,1561238131.651496,34,2.131246,0,0,28.10168,0,0,1561238341.922048,60895.907136,0,-0.8930664,74.4048,2650659446,177292352,1,1,0.45,-160,-160,2
1561238358.579751,81,0,0,1561238357.871073,4.603071496128067,-74.06476976503635,2648.518,0.1244365,-1,16.42833518981934,200,-9999,1561238358.553957,-14.04180335998535,17.71856689453125,-3.157958984375,356.3544006347656,3.898102998733521,15,60898.41879166667,-1.098922729492188,-0.052337646484375,-0.196624755859375,60898.40865966667,-0.01281486484935229,0.05460492235876668,-0.2387673054277082,60898.40594366667,23.58395385742188,17.90928649902344,-537.985595703125,60898.41369566667,-1.189699895061575,-1.328215225081514,-0.05679908583608063,-0.07622308284044266,0.08775905519723892,-0.2583400905132294,-0.1427980661392212,-0.1241818964481354,0.03373634815216064,1,-0.3637773096561432,-0.4977502226829529,-0.4266107678413391,0.6617506742477417,-0.9691557288169861,0.05676855146884918,-0.2398215681314468,0,0,0,-1,60897.62761800001,3,2,1561238357.795804,1561238131.651496,34,2.131246,0,0,28.10168,0,0,1561238341.922048,60895.907136,0,-0.8930664,74.4048,2650659446,177292352,1,1,0.45,-160,-160,2
1561238358.599941,82,0,0,1561238357.871073,4.603071496128067,-74.06476976503635,2648.518,0.1244365,-1,16.42833518981934,200,-9999,1561238358.579761,-14.03682899475098,17.47883987426758,-2.97845458984375,356.4237670898438,3.967466592788696,15,60898.43905566667,-1.034164428710938,-0.0206756591796875,-0.1773834228515625,60898.42892366667,-0.1954187660483794,0.2718043513823591,-0.2140606273628251,60898.42608566667,23.41389465332031,17.77389526367188,-537.8809204101562,60898.43395866667,-1.194018671853241,-1.324312369667199,-0.05294169115390938,-0.2167050987482071,0.3193086385726929,-0.1728515774011612,-0.1044583916664124,-0.08880561590194702,0.05682522058486938,1,-0.3627760708332062,-0.4965547323226929,-0.4297536909580231,0.6611646413803101,-0.9684175848960876,0.05291696265339851,-0.2436538338661194,0,0,0,-1,60897.62761800001,3,2,1561238357.795804,1561238131.651496,34,2.131246,0,0,28.10168,0,0,1561238341.922048,60895.907136,0,-0.8930664,74.4048,2650659446,177292352,1,1,0.45,-160,-160,2
1561238358.620219,83,0,0,1561238357.871073,4.603071496128067,-74.06476976503635,2648.518,0.1244365,-1,16.42833518981934,200,-9999,1561238358.604185,-14.00449371337891,17.25609970092773,-3.1595458984375,356.7662353515625,4.309924125671387,15,60898.45928866667,-0.9806976318359375,0.0406646728515625,-0.1707000732421875,60898.44915666667,-0.1980414470898894,0.3659052842875459,-0.04381086414456652,60898.44619666667,23.58488464355469,18.01992797851562,-538.1470947265625,60898.45422266667,-1.198587102178577,-1.317399670017345,-0.05225761480084142,-0.1724385619163513,0.331886500120163,-0.03799122199416161,-0.03162240982055664,-0.04553520679473877,0.07601970434188843,1,-0.3621964454650879,-0.4935970604419708,-0.4326948523521423,0.6617785096168518,-0.9667448997497559,0.05223383381962776,-0.2503513395786285,0,0,0,-1,60897.62761800001,3,2,1561238357.795804,1561238131.651496,34,2.131246,0,0,28.10168,0,0,1561238341.922048,60895.907136,0,-0.8930664,74.4048,2650659446,177292352,1,1,0.45,-160,-160,2
1561238358.645063,84,0,0,1561238357.871073,4.603071496128067,-74.06476976503635,2648.518,0.1244365,-1,16.42833518981934,200,-9999,1561238358.630606,-14.09830284118652,17.50445175170898,-3.14019775390625,356.9979858398438,4.541684150695801,15,60898.47955266667,-0.956390380859375,0.0728759765625,-0.1539459228515625,60898.46942066667,-0.04545137137605534,0.1545451022700612,-0.1071847770246371,60898.46633866667,23.28805541992188,17.97445678710938,-538.199462890625,60898.47448666667,-1.200830743134595,-1.313209332312923,-0.0511106418461485,0.0001150977332144976,0.06517012417316437,-0.1386248916387558,-0.007781386375427246,0.01292222738265991,0.08960509300231934,1,-0.3614714741706848,-0.4920678436756134,-0.4344914257526398,0.6621364951133728,-0.96574467420578,0.05108839273452759,-0.2544152140617371,0,0,0,-1,60897.62761800001,3,2,1561238357.795804,1561238131.651496,34,2.131246,0,0,28.10168,0,0,1561238341.922048,60895.907136,0,-0.8930664,74.4048,2650659446,177292352,1,1,0.45,-160,-160,2
1561238358.660806,85,0,0,1561238357.871073,4.603071496128067,-74.06476976503635,2648.518,0.1244365,-1,16.42833518981934,200,-9999,1561238358.655891,-14.23971557617188,17.51406478881836,-3.2161865234375,356.9826965332031,4.526380062103271,15,60898.49981566667,-0.9451904296875,0.0835418701171875,-0.1488494873046875,60898.48968466667,0.1067525459797173,-0.1529048613546815,-0.1621905051274607,60898.48644966667,23.4208984375,17.92349243164062,-537.8712768554688,60898.49474966667,-1.200282146004895,-1.31497766921798,-0.04764841942771889,0.1172582283616066,-0.2094198912382126,-0.1620761603116989,0.02483010292053223,0.03714743256568909,0.1045416593551636,1,-0.3606046438217163,-0.4935474991798401,-0.4348820447921753,0.6612508893013,-0.9663584232330322,0.04763039201498032,-0.2527503073215485,0,0,0,-1,60897.62761800001,3,2,1561238357.795804,1561238131.651496,34,2.131246,0,0,28.10168,0,0,1561238341.922048,60895.907136,0,-0.8930664,74.4048,2650659446,177292352,1,1,0.45,-160,-160,2
1561238358.681123,86,0,0,1561238357.871073,4.603071496128067,-74.06476976503635,2648.518,0.1244365,-1,16.42833518981934,200,-9999,1561238358.655891,-14.23971557617188,17.51406478881836,-3.2161865234375,356.9826965332031,4.526380062103271,15,60898.52007966667,-0.976959228515625,0.056854248046875,-0.159454345703125,60898.50994766667,0.1255813612026865,-0.2364524858082113,-0.1392814607983811,60898.50659066667,23.50479125976562,17.47895812988281,-538.1875610351562,60898.51501366667,-1.198655176955418,-1.319725891512001,-0.04407045631303694,0.1201099455356598,-0.2072715163230896,-0.1355060636997223,0.008645832538604736,0.02494403719902039,0.0908052921295166,1,-0.3600805997848511,-0.4962278604507446,-0.4344111680984497,0.6598384380340576,-0.9677065014839172,0.04405619204044342,-0.2481997460126877,0,0,0,-1,60897.62761800001,3,2,1561238357.795804,1561238131.651496,34,2.131246,0,0,28.10168,0,0,1561238341.922048,60895.907136,0,-0.8930664,74.4048,2650659446,177292352,1,1,0.45,-160,-160,2
1561238358.703176,87,0,0,1561238357.871073,4.603071496128067,-74.06476976503635,2648.518,0.1244365,-1,16.42833518981934,200,-9999,1561238358.681136,-14.3917121887207,17.29445648193359,-3.23431396484375,356.8655395507812,4.409226417541504,15,60898.54034366667,-0.973663330078125,0.026580810546875,-0.152923583984375,60898.53021166667,0.09151819928002798,-0.04448757337755566,-0.05553063715367823,60898.52673266667,23.0435791015625,17.73626708984375,-538.196044921875,60898.53527766667,-1.197122773428174,-1.321875851747486,-0.04180693188600058,0.06671542674303055,-0.008100896142423153,-0.02401202358305454,-0.01500535011291504,-0.0003366172313690186,0.09274601936340332,1,-0.359436959028244,-0.4977286159992218,-0.4341031908988953,0.6592615246772766,-0.9683321118354797,0.04179475456476212,-0.2461425960063934,0,0,0,-1,60897.62761800001,3,2,1561238357.795804,1561238131.651496,34,2.131246,0,0,28.10168,0,0,1561238341.922048,60895.907136,0,-0.8930664,74.4048,2650659446,177292352,1,1,0.45,-160,-160,2
1561238358.732536,88,0,0,1561238357.871073,4.603071496128067,-74.06476976503635,2648.518,0.1244365,-1,16.42833518981934,200,-9999,1561238358.708432,-14.53091430664062,17.19362640380859,-3.35943603515625,356.7776184082031,4.321319103240967,15,60898.56060666667,-0.9894561767578125,0.0070343017578125,-0.1700286865234375,60898.55047566667,-0.0003025350998330014,0.08403338503636028,0.02173965029442583,60898.54684366667,23.188720703125,17.56561279296875,-538.273193359375,60898.55554066667,-1.1966955882046,-1.320932459901762,-0.04190057810519883,-0.02455988898873329,0.08631828427314758,0.004837734624743462,-0.008024215698242188,-0.02519521117210388,0.088409423828125,1,-0.35915607213974,-0.4974730014801025,-0.4341076612472534,0.6596046090126038,-0.9680957794189453,0.04188831895589828,-0.2470550537109375,0,0,0,-1,60897.62761800001,3,2,1561238357.795804,1561238131.651496,34,2.131246,0,0,28.10168,0,0,1561238341.922048,60895.907136,0,-0.8930664,74.4048,2650659446,177292352,1,1,0.45,-160,-160,2
1561238358.741835,89,0,0,1561238357.871073,4.603071496128067,-74.06476976503635,2648.518,0.1244365,-1,16.42833518981934,200,-9999,1561238358.732018,-14.47799110412598,17.27537536621094,-3.38836669921875,356.8265380859375,4.370229721069336,15,60898.58087066667,-0.9865875244140625,-0.0010986328125,-0.1817779541015625,60898.57073866667,-0.07264197978965535,0.07205475276929288,-0.06026014493354995,60898.56698566667,23.07380676269531,17.48933410644531,-538.1646118164062,60898.57580466667,-1.198066313137939,-1.319686743736144,-0.04150583399635966,-0.09526441991329193,0.04412289336323738,-0.07583287358283997,-0.02842801809310913,-0.04189065098762512,0.07170546054840088,1,-0.3590989112854004,-0.4969059526920319,-0.434885174036026,0.6595508456230164,-0.9678030610084534,0.04149391874670982,-0.2482648938894272,0,0,0,-1,60897.62761800001,3,2,1561238357.795804,1561238131.651496,34,2.131246,0,0,28.10168,0,0,1561238341.922048,60895.907136,0,-0.8930664,74.4048,2650659446,177292352,1,1,0.45,-160,-160,2
1561238358.762044,90,0,0,1561238357.871073,4.603071496128067,-74.06476976503635,2648.518,0.1244365,-1,16.42833518981934,200,-9999,1561238358.756129,-14.58981132507324,17.15646362304688,-3.25115966796875,357.0234680175781,4.567167282104492,15,60898.60113466667,-0.9628753662109375,-0.0075531005859375,-0.1938934326171875,60898.59100266667,-0.1413504706492637,-0.03110785206099757,-0.07621753986919573,60898.58709666667,23.16780090332031,17.47099304199219,-537.9620971679688,60898.59606866667,-1.200993739062525,-1.320149036134978,-0.04068594398885694,-0.1546467840671539,-0.06749843806028366,-0.07793436944484711,-0.006186008453369141,-0.03873685002326965,0.06319451332092285,1,-0.3596623837947845,-0.4967193007469177,-0.4359780251979828,0.6586623191833496,-0.9679503440856934,0.04067471995949745,-0.2478258162736893,0,0,0,-1,60897.62761800001,3,2,1561238357.795804,1561238131.651496,34,2.131246,0,0,28.10168,0,0,1561238341.922048,60895.907136,0,-0.8930664,74.4048,2650659446,177292352,1,1,0.45,-160,-160,2
1561238358.783991,91,0,0,1561238357.871073,4.603071496128067,-74.06476976503635,2648.518,0.1244365,-1,16.42833518981934,200,-9999,1561238358.782502,-14.39703941345215,17.14134979248047,-3.15533447265625,357.3033142089844,4.847002506256104,15,60898.62139766667,-0.9701080322265625,-0.05810546875,-0.21734619140625,60898.61126666667,-0.1876612441090876,-0.1470640164519197,-0.0476450171659536,60898.60723766667,23.28207397460938,17.52951049804688,-538.2567138671875,60898.61633166667,-1.20481734731381,-1.32304238169201,-0.04038870096658377,-0.201771154999733,-0.1668535172939301,-0.04125625640153885,0.009965300559997559,-0.07474052906036377,0.03651577234268188,1,-0.361147940158844,-0.4970498979091644,-0.4367908835411072,0.6570596098899841,-0.9686750769615173,0.04037772119045258,-0.2450271248817444,0,0,0,-1,60897.62761800001,3,2,1561238357.795804,1561238131.651496,34,2.131246,0,0,28.10168,0,0,1561238341.922048,60895.907136,0,-0.8930664,74.4048,2650659446,177292352,1,1,0.45,-160,-160,2
1561238358.81362,92,0,0,1561238357.871073,4.603071496128067,-74.06476976503635,2648.518,0.1244365,-1,16.42833518981934,200,-9999,1561238358.810572,-14.62463569641113,17.32898330688477,-2.99053955078125,357.6068725585938,5.150556564331055,15,60898.6416585,-1.002029418945312,-0.082489013671875,-0.23333740234375,60898.63152966667,-0.2076786281265592,-0.146367866142973,-0.03319177561398457,60898.62734866667,22.97419738769531,17.66661071777344,-538.0013427734375,60898.63659566667,-1.209093952954147,-1.32659946691133,-0.04066175406496218,-0.2036721259355545,-0.1359834969043732,-0.04518894851207733,-0.01631009578704834,-0.1160289645195007,0.01539623737335205,1,-0.3630762696266174,-0.4973801374435425,-0.4374795854091644,0.6552863717079163,-0.9695297479629517,0.04065055027604103,-0.2415772378444672,0,0,0,-1,60897.62761800001,3,2,1561238357.795804,1561238131.651496,34,2.131246,0,0,28.10168,0,0,1561238341.922048,60895.907136,0,-0.8930664,74.4048,2650659446,177292352,1,1,0.45,-160,-160,2
1561238358.822935,93,0,0,1561238357.871073,4.603071496128067,-74.06476976503635,2648.518,0.1244365,-1,16.42833518981934,200,-9999,1561238358.810572,-14.62463569641113,17.32898330688477,-2.99053955078125,357.6068725585938,5.150556564331055,15,60898.6619225,-0.9789276123046875,-0.0881500244140625,-0.232391357421875,60898.6517905,-0.1825756716914723,-0.05332873556440072,-0.07878615874057716,60898.64748750001,22.93351745605469,17.70822143554688,-537.6725463867188,60898.65685650001,-1.213200843712974,-1.328654871876812,-0.04014843817910828,-0.1791531890630722,-0.04226871952414513,-0.0859861746430397,-0.02846026420593262,-0.126242995262146,0.00608372688293457,1,-0.3643834590911865,-0.4974235892295837,-0.4385821521282196,0.6537891030311584,-0.9700444340705872,0.04013765230774879,-0.2395889312028885,0,0,0,-1,60897.62761800001,3,2,1561238357.795804,1561238131.651496,34,2.131246,0,0,28.10168,0,0,1561238341.922048,60895.907136,0,-0.8930664,74.4048,2650659446,177292352,1,1,0.45,-160,-160,2
1561238358.843195,94,0,0,1561238357.871073,4.603071496128067,-74.06476976503635,2648.518,0.1244365,-1,16.42833518981934,200,-9999,1561238358.833249,-14.62464141845703,17.17674255371094,-2.853759765625,357.8842163085938,5.427908897399902,15,60898.6821855,-0.9307708740234375,-0.1051483154296875,-0.2372589111328125,60898.67205450001,-0.1509021642149418,-0.01594274754965035,-0.09089448695273142,60898.66762950001,22.96424865722656,17.65817260742188,-537.6580200195312,60898.6770895,-1.216863632250318,-1.329491891105494,-0.03906677120667679,-0.146327868103981,-0.0179082527756691,-0.09239480644464493,0.01175963878631592,-0.1296330094337463,0.003801822662353516,1,-0.3651323914527893,-0.4972773492336273,-0.4399043619632721,0.6525931358337402,-0.9702862501144409,0.03905683383345604,-0.2387871444225311,0,0,0,-1,60897.62761800001,3,2,1561238357.795804,1561238131.651496,34,2.131246,0,0,28.10168,0,0,1561238341.922048,60895.907136,0,-0.8930664,74.4048,2650659446,177292352,1,1,0.45,-160,-160,2
1561238358.863709,95,0,0,1561238357.871073,4.603071496128067,-74.06476976503635,2648.518,0.1244365,-1,16.42833518981934,200,-9999,1561238358.858465,-14.69675064086914,17.41779708862305,-2.8314208984375,358.1242980957031,5.667971134185791,15,60898.7024495,-0.893341064453125,-0.1490020751953125,-0.225921630859375,60898.6923175,-0.1511184128954563,-0.007745271398277448,-0.07088136399300396,60898.68774050001,23.07362365722656,17.56060791015625,-537.6907958984375,60898.69735350001,-1.220204322793757,-1.329999515106691,-0.03806687962795069,-0.1774399876594543,-0.008564818650484085,-0.05525090172886848,0.06111234426498413,-0.163408637046814,0.005332589149475098,1,-0.3657554984092712,-0.4970624148845673,-0.4411580264568329,0.6515607237815857,-0.9704446196556091,0.03805768489837646,-0.2383037358522415,0,0,0,-1,60897.62761800001,3,2,1561238357.795804,1561238131.651496,34,2.131246,0,0,28.10168,0,0,1561238341.922048,60895.907136,0,-0.8930664,74.4048,2650659446,177292352,1,1,0.45,-160,-160,2
1561238358.892154,96,0,0,1561238357.871073,4.603071496128067,-74.06476976503635,2648.518,0.1244365,-1,16.42833518981934,200,-9999,1561238358.88374,-14.59789276123047,17.34145736694336,-2.5985107421875,358.5040588378906,6.047745704650879,15,60898.7226825,-0.8646087646484375,-0.1681365966796875,-0.21502685546875,60898.7125815,-0.293612711232909,0.004953213311438375,0.06714068792587867,60898.70788150001,22.91653442382812,17.68258666992188,-537.516845703125,60898.71761650001,-1.225130307497462,-1.330316270583963,-0.03947310093089065,-0.3492604494094849,-0.01718573644757271,0.110195055603981,0.08936375379562378,-0.2057073414325714,0.01987427473068237,1,-0.3674964308738708,-0.4959381818771362,-0.442342221736908,0.6506344079971313,-0.9704672694206238,0.0394628494977951,-0.2379833906888962,0,0,0,-1,60897.62761800001,3,2,1561238357.795804,1561238131.651496,34,2.131246,0,0,28.10168,0,0,1561238341.922048,60895.907136,0,-0.8930664,74.4048,2650659446,177292352,1,1,0.45,-160,-160,2
1561238358.903789,97,0,0,1561238357.871073,4.603071496128067,-74.06476976503635,2648.518,0.1244365,-1,16.42833518981934,200,-9999,1561238358.88374,-14.59789276123047,17.34145736694336,-2.5985107421875,358.5040588378906,6.047745704650879,15,60898.7429465,-0.8118133544921875,-0.15362548828125,-0.226837158203125,60898.73281450001,-0.5061524072971898,-0.08345121802206897,0.2648268693263515,60898.72802350001,23.11824035644531,17.93362426757812,-537.1326293945312,60898.7378805,-1.23311365374176,-1.331973256408518,-0.04561997646940297,-0.5516911149024963,-0.1230224147439003,0.3409813940525055,0.1319373250007629,-0.2092394232749939,0.0131075382232666,1,-0.3717895448207855,-0.4935746788978577,-0.4430509209632874,0.6495093703269958,-0.9706061482429504,0.0456041544675827,-0.236313134431839,0,0,0,-1,60897.62761800001,3,2,1561238357.795804,1561238131.651496,34,2.131246,0,0,28.10168,0,0,1561238341.922048,60895.907136,0,-0.8930664,74.4048,2650659446,177292352,1,1,0.45,-160,-160,2
1561238358.924302,98,0,0,1561238357.871073,4.603071496128067,-74.06476976503635,2648.518,0.1244365,-1,16.42833518981934,200,-9999,1561238358.908381,-14.18977165222168,17.52670669555664,-2.423828125,359.1327514648438,6.676445960998535,15,60898.7632105,-0.741912841796875,-0.1140899658203125,-0.235107421875,60898.75307850001,-0.6330123521392232,-0.2313056606855241,0.7109873120117624,60898.74813450001,23.20880126953125,18.10195922851562,-537.2811279296875,60898.7581445,-1.242390475333584,-1.336444772436801,-0.05974443296587567,-0.6533492803573608,-0.2796554565429688,0.8633037209510803,0.189786434173584,-0.1906140446662903,0.001390278339385986,1,-0.379510372877121,-0.489972323179245,-0.4415794014930725,0.6487731337547302,-0.9709296822547913,0.05970889702439308,-0.231797993183136,0,0,0,-1,60897.62761800001,3,2,1561238357.795804,1561238131.651496,34,2.131246,0,0,28.10168,0,0,1561238341.922048,60895.907136,0,-0.8930664,74.4048,2650659446,177292352,1,1,0.45,-160,-160,2
1561238358.97012,99,0,0,1561238357.871073,4.603071496128067,-74.06476976503635,2648.518,0.1244365,-1,16.42833518981934,200,-9999,1561238358.958568,-13.14254760742188,18.87009429931641,-1.76947021484375,0.2870097160339355,7.830697536468506,15,60898.78347350001,-0.7442779541015625,-0.0750732421875,-0.2464447021484375,60898.7733415,-0.690877516304465,-0.3204501844859645,1.268288923837232,60898.76827550001,23.93833923339844,18.7882080078125,-536.799072265625,60898.7784075,-1.250589625615848,-1.343442234452195,-0.08522466048991911,-0.7100415825843811,-0.315692275762558,1.346792101860046,0.2495997548103333,-0.1838306188583374,-0.01687264442443848,1,-0.3909797370433807,-0.4846066832542419,-0.4362621605396271,0.649589478969574,-0.9707301259040833,0.0851215273141861,-0.2245824187994003,0,0,0,-1,60897.62761800001,3,2,1561238357.795804,1561238131.651496,34,2.131246,0,0,28.10168,0,0,1561238341.922048,60895.907136,0,-0.8930664,74.4048,2650659446,177292352,1,1,0.45,-160,-160,2
1561238358.972748,100,0,0,1561238357.871073,4.603071496128067,-74.06476976503635,2648.518,0.1244365,-1,16.42833518981934,200,-9999,1561238358.958568,-13.14254760742188,18.87009429931641,-1.76947021484375,0.2870097160339355,7.830697536468506,15,60898.80373750001,-0.798187255859375,-0.0417633056640625,-0.27294921875,60898.7936055,-0.6756753938539657,-0.2530434467671869,1.432251230037922,60898.78841750001,24.20140075683594,19.02029418945312,-536.7420043945312,60898.7986715,-1.257957821317627,-1.349828874195113,-0.1161879346706496,-0.6345971822738647,-0.2608349025249481,1.457822561264038,0.1802893280982971,-0.160680741071701,-0.04011654853820801,1,-0.4036364555358887,-0.477733850479126,-0.4292258024215698,0.6516236066818237,-0.9691076874732971,0.1159266978502274,-0.2176959663629532,0,0,0,-1,60897.62761800001,3,2,1561238357.795804,1561238131.651496,34,2.131246,0,0,28.10168,0,0,1561238341.922048,60895.907136,0,-0.8930664,74.4048,2650659446,177292352,1,1,0.45,-160,-160,2
1561238358.985038,101,0,0,1561238357.871073,4.603071496128067,-74.06476976503635,2648.518,0.1244365,-1,16.42833518981934,200,-9999,1561238358.958568,-13.14254760742188,18.87009429931641,-1.76947021484375,0.2870097160339355,7.830697536468506,15,60898.8240015,-0.761016845703125,0.0109710693359375,-0.252044677734375,60898.8138695,-0.4248772582018245,-0.4168534201535248,1.75698750598226,60898.80852850001,25.08369445800781,19.54643249511719,-536.2713623046875,60898.81893550001,-1.260699994113016,-1.357441622579511,-0.1509331842774762,-0.3517438471317291,-0.5102532505989075,1.932163715362549,0.1768168210983276,-0.1839301288127899,-0.05990886688232422,1,-0.4163956642150879,-0.4711140096187592,-0.4192541837692261,0.6548985242843628,-0.9662150144577026,0.1503607779741287,-0.2093324810266495,0,0,0,-1,60897.62761800001,3,2,1561238357.795804,1561238131.651496,34,2.131246,0,0,28.10168,0,0,1561238341.922048,60895.907136,0,-0.8930664,74.4048,2650659446,177292352,1,1,0.45,-160,-160,2
1561238359.005245,102,0,0,1561238357.871073,4.603071496128067,-74.06476976503635,2648.518,0.1244365,-1,16.42833518981934,200,-9999,1561238358.987769,-12.26264762878418,19.40439605712891,-1.24041748046875,0.4082455635070801,7.95193338394165,15,60898.8442645,-0.6709136962890625,0.1146240234375,-0.204071044921875,60898.8341325,-0.1357554355151162,-0.7300179948453596,2.615267067351362,60898.82867050001,26.15861511230469,20.08073425292969,-535.816650390625,60898.83919850001,-1.254894378304768,-1.369879694034645,-0.199004374505509,-0.09980963915586472,-0.8009777665138245,2.845320701599121,0.2446025609970093,-0.1341253519058228,-0.03296303749084473,1,-0.4318448901176453,-0.4644303321838379,-0.4015454947948456,0.6607387065887451,-0.9605449438095093,0.1976934522390366,-0.1956289112567902,0,0,0,-1,60897.62761800001,3,2,1561238357.795804,1561238131.651496,34,2.131246,0,0,28.10168,0,0,1561238341.922048,60895.907136,0,-0.8930664,74.4048,2650659446,177292352,1,1,0.45,-160,-160,2
1561238359.043885,103,0,0,1561238357.871073,4.603071496128067,-74.06476976503635,2648.518,0.1244365,-1,16.42833518981934,200,-9999,1561238359.026701,-11.15286254882812,19.90380859375,-1.07147216796875,359.8087768554688,7.352449417114258,15,60898.8645285,-0.681182861328125,0.2222747802734375,-0.1498870849609375,60898.85439650001,-0.1000728053335805,-0.7939154851957397,3.262203757250065,60898.8487815,27.23457336425781,20.70297241210938,-535.7005004882812,60898.8594625,-1.244306022252499,-1.384002372868333,-0.261762031880147,-0.1286910772323608,-0.7295230031013489,3.280721187591553,0.2797601222991943,-0.08007204532623291,-0.0008075833320617676,1,-0.4503417015075684,-0.455522358417511,-0.377219557762146,0.6688774824142456,-0.9491326808929443,0.2587829530239105,-0.1793834716081619,0,0,0,-1,60897.62761800001,3,2,1561238357.795804,1561238131.651496,34,2.131246,0,0,28.10168,0,0,1561238341.922048,60895.907136,0,-0.8930664,74.4048,2650659446,177292352,1,1,0.45,-160,-160,2
1561238359.045943,104,0,0,1561238357.871073,4.603071496128067,-74.06476976503635,2648.518,0.1244365,-1,16.42833518981934,200,-9999,1561238359.026701,-11.15286254882812,19.90380859375,-1.07147216796875,359.8087768554688,7.352449417114258,15,60898.8847925,-0.7562103271484375,0.3038482666015625,-0.086181640625,60898.87466050001,-0.2179062319768995,-0.4930445947279288,3.139264251848737,60898.86892250001,28.78605651855469,21.46864318847656,-535.590087890625,60898.8797265,-1.236074826308571,-1.393328777353237,-0.3260739601882751,-0.2333634346723557,-0.4200213551521301,3.047754049301147,0.2463325262069702,-0.08402875065803528,0.03306466341018677,1,-0.4683372676372528,-0.4438948035240173,-0.3536411821842194,0.6771672368049622,-0.9324287176132202,0.3203263282775879,-0.1672352105379105,0,0,0,-1,60897.62761800001,3,2,1561238357.795804,1561238131.651496,34,2.131246,0,0,28.10168,0,0,1561238341.922048,60895.907136,0,-0.8930664,74.4048,2650659446,177292352,1,1,0.45,-160,-160,2
1561238359.065943,105,0,0,1561238357.871073,4.603071496128067,-74.06476976503635,2648.518,0.1244365,-1,16.42833518981934,200,-9999,1561238359.059949,-7.13629150390625,21.82909393310547,-0.48980712890625,358.7291564941406,6.272835731506348,15,60898.90505550001,-0.8226165771484375,0.4205780029296875,-0.0056304931640625,60898.8949235,-0.2625282949895041,-0.0191071155568825,2.711040731737228,60898.88906450001,30.46035766601562,22.23271179199219,-535.5670166015625,60898.8999895,-1.230814335579443,-1.394833379912138,-0.3833481725724098,-0.296459823846817,0.1340706348419189,2.601425647735596,0.09670573472976685,0.005076885223388672,0.1273924112319946,1,-0.4832011461257935,-0.4305130839347839,-0.3344901204109192,0.685048520565033,-0.9130967259407043,0.3740276992321014,-0.1623502671718597,0,0,0,-1,60897.62761800001,3,2,1561238357.795804,1561238131.651496,34,2.131246,0,0,28.10168,0,0,1561238341.922048,60895.907136,0,-0.8930664,74.4048,2650659446,177292352,1,1,0.45,-160,-160,2
1561238359.086235,106,0,0,1561238357.871073,4.603071496128067,-74.06476976503635,2648.518,0.1244365,-1,16.42833518981934,200,-9999,1561238359.059949,-7.13629150390625,21.82909393310547,-0.48980712890625,358.7291564941406,6.272835731506348,15,60898.92531950001,-0.7776336669921875,0.480865478515625,-0.0131378173828125,60898.9151875,-0.4936174406784048,0.6894223650848457,2.469302403797427,60898.9091755,31.71469116210938,22.39710998535156,-535.3646240234375,60898.9202535,-1.23016095391816,-1.384546712913429,-0.4347812984133434,-0.6072028279304504,0.869295060634613,2.487455606460571,0.08480405807495117,0.02461925148963928,0.1684499979019165,1,-0.4952420294284821,-0.4132337272167206,-0.3212999105453491,0.6933538913726807,-0.8912768363952637,0.4212120473384857,-0.1679464429616928,0,0,0,-1,60897.62761800001,3,2,1561238357.795804,1561238131.651496,34,2.131246,0,0,28.10168,0,0,1561238341.922048,60895.907136,0,-0.8930664,74.4048,2650659446,177292352,1,1,0.45,-160,-160,2
1561238359.120263,107,0,0,1561238357.871073,4.603071496128067,-74.06476976503635,2648.518,0.1244365,-1,16.42833518981934,200,-9999,1561238359.110873,-4.243179321289062,22.20791625976562,-0.22003173828125,359.4800109863281,7.023685455322266,15,60898.9455835,-0.582000732421875,0.519989013671875,-0.0899505615234375,60898.9354515,-0.9659927095540106,1.300307044358818,2.626390824908514,60898.92931750001,32.9273681640625,22.48735046386719,-535.170654296875,60898.9404865,-1.237637807868764,-1.364519392110818,-0.4892460902126946,-1.072729468345642,1.362775087356567,2.668153285980225,0.1677618026733398,0.04459631443023682,0.1313053369522095,1,-0.5079938769340515,-0.3892909586429596,-0.3124257028102875,0.7019863724708557,-0.8639745712280273,0.4699605405330658,-0.1807895451784134,0,0,0,-1,60897.62761800001,3,2,1561238357.795804,1561238131.651496,34,2.131246,0,0,28.10168,0,0,1561238341.922048,60895.907136,0,-0.8930664,74.4048,2650659446,177292352,1,1,0.45,-160,-160,2
1561238359.127288,108,0,0,1561238357.871073,4.603071496128067,-74.06476976503635,2648.518,0.1244365,-1,16.42833518981934,200,-9999,1561238359.110873,-4.243179321289062,22.20791625976562,-0.22003173828125,359.4800109863281,7.023685455322266,15,60898.9658465,-0.434295654296875,0.517852783203125,-0.1708831787109375,60898.95571450001,-1.185215342057736,1.272638398529549,2.759315053868767,60898.9494285,34.23744201660156,22.97663879394531,-535.0205688476562,60898.9607505,-1.250319645815622,-1.344230781410328,-0.5483324759750839,-1.139623761177063,1.146148204803467,2.763308763504028,0.3483545780181885,-0.01204854249954224,0.05121225118637085,1,-0.5225680470466614,-0.3620395958423615,-0.3041460812091827,0.7094681262969971,-0.831585168838501,0.521264910697937,-0.1916999369859695,0,0,0,-1,60897.62761800001,3,2,1561238357.795804,1561238131.651496,34,2.131246,0,0,28.10168,0,0,1561238341.922048,60895.907136,0,-0.8930664,74.4048,2650659446,177292352,1,1,0.45,-160,-160,2
1561238359.147018,109,0,0,1561238357.871073,4.603071496128067,-74.06476976503635,2648.518,0.1244365,-1,16.42833518981934,200,-9999,1561238359.137134,-2.849411010742188,22.52505111694336,0.0867919921875,0.1534481048583984,7.697135925292969,15,60898.9861105,-0.489593505859375,0.6106414794921875,-0.1528778076171875,60898.97597850001,-0.7321631711034183,0.6217700839135628,2.766149524174237,60898.9695695,35.66154479980469,22.66433715820312,-534.7197265625,60898.9810145,-1.255572124307933,-1.330841472603524,-0.6069479263056762,-0.5571412444114685,0.4372749626636505,2.758928060531616,0.3522714376449585,-0.01154053211212158,0.02702879905700684,1,-0.5363155007362366,-0.3387626111507416,-0.2916121780872345,0.7159384489059448,-0.7978585958480835,0.5703631639480591,-0.1952111572027206,0,0,0,-1,60897.62761800001,3,2,1561238357.795804,1561238131.651496,34,2.131246,0,0,28.10168,0,0,1561238341.922048,60895.907136,0,-0.8930664,74.4048,2650659446,177292352,1,1,0.45,-160,-160,2
1561238359.167288,110,0,0,1561238357.871073,4.603071496128067,-74.06476976503635,2648.518,0.1244365,-1,16.42833518981934,200,-9999,1561238359.161298,-0.3136863708496094,22.49639892578125,0.43475341796875,359.550537109375,7.094210147857666,15,60899.0063435,-0.542755126953125,0.75494384765625,-0.074188232421875,60898.9962115,-0.08804197510914755,0.1457806391226105,2.605505783007895,60898.98971150001,37.05429077148438,22.79644775390625,-534.5075073242188,60899.00127750001,-1.245223501931822,-1.320078542070896,-0.6604815480881759,0.01852020435035229,0.1141664311289787,2.500468730926514,0.2335429191589355,0.05744695663452148,0.07513463497161865,1,-0.5463380813598633,-0.3217966258525848,-0.2742659747600555,0.7230073809623718,-0.7650065422058105,0.6134971976280212,-0.1959232687950134,0,0,0,-1,60897.62761800001,3,2,1561238357.795804,1561238131.651496,34,2.131246,0,0,28.10168,0,0,1561238341.922048,60895.907136,0,-0.8930664,74.4048,2650659446,177292352,1,1,0.45,-160,-160,2
1561238359.200431,111,0,0,1561238357.871073,4.603071496128067,-74.06476976503635,2648.518,0.1244365,-1,16.42833518981934,200,-9999,1561238359.18783,1.054813385009766,22.41033935546875,0.35302734375,358.2252197265625,5.768906116485596,15,60899.0266075,-0.485565185546875,0.7911224365234375,-0.058624267578125,60899.0164755,0.1753462545963431,-0.009468602939667723,2.165739057467546,60899.0098225,38.20979309082031,23.03741455078125,-534.5713500976562,60899.02154150001,-1.226854188196852,-1.307872183734382,-0.7044328543241341,0.1787799149751663,-0.09640412032604218,2.085812568664551,0.218703031539917,0.1529505848884583,0.1453690528869629,1,-0.5525801777839661,-0.3092474043369293,-0.2572647035121918,0.7299562096595764,-0.735792875289917,0.6476017832756042,-0.1980423778295517,0,0,0,-1,60897.62761800001,3,2,1561238357.795804,1561238131.651496,34,2.131246,0,0,28.10168,0,0,1561238341.922048,60895.907136,0,-0.8930664,74.4048,2650659446,177292352,1,1,0.45,-160,-160,2
1561238359.208002,112,0,0,1561238357.871073,4.603071496128067,-74.06476976503635,2648.518,0.1244365,-1,16.42833518981934,200,-9999,1561238359.18783,1.054813385009766,22.41033935546875,0.35302734375,358.2252197265625,5.768906116485596,15,60899.0468705,-0.404205322265625,0.7763214111328125,-0.064910888671875,60899.03673950001,0.1189972280396836,-0.3335361591342869,1.998545537916263,60899.02996450001,39.31538391113281,22.69244384765625,-534.5397338867188,60899.0418055,-1.208772260890185,-1.301164144449404,-0.7431783152485286,0.06536440551280975,-0.4158478975296021,1.992789745330811,0.2564705610275269,0.1011089086532593,0.1369502544403076,1,-0.5584201812744141,-0.3001621961593628,-0.2403667420148849,0.7350465059280396,-0.7097176313400269,0.6766315698623657,-0.1961391121149063,0,0,0,-1,60897.62761800001,3,2,1561238357.795804,1561238131.651496,34,2.131246,0,0,28.10168,0,0,1561238341.922048,60895.907136,0,-0.8930664,74.4048,2650659446,177292352,1,1,0.45,-160,-160,2
1561238359.22806,113,0,0,1561238357.871073,4.603071496128067,-74.06476976503635,2648.518,0.1244365,-1,16.42833518981934,200,-9999,1561238359.211901,2.06341552734375,22.03543853759766,0.37249755859375,357.0195922851562,4.563279628753662,15,60899.0671345,-0.34027099609375,0.783538818359375,-0.0723114013671875,60899.05700250001,-0.06223754204293378,-0.6078081955827134,2.018537888219488,60899.0500755,40.52735900878906,22.37460327148438,-534.59814453125,60899.0620685,-1.194351082526074,-1.30236160024844,-0.7825026558427778,-0.08306580781936646,-0.6610134840011597,2.026273250579834,0.3238761425018311,0.06844210624694824,0.1157867908477783,1,-0.5658899545669556,-0.2927919030189514,-0.2223072946071625,0.7379844188690186,-0.6837546825408936,0.705056369304657,-0.1880829185247421,0,0,0,-1,60897.62761800001,3,2,1561238357.795804,1561238131.651496,34,2.131246,0,0,28.10168,0,0,1561238341.922048,60895.907136,0,-0.8930664,74.4048,2650659446,177292352,1,1,0.45,-160,-160,2
1561238359.24826,114,0,0,1561238357.871073,4.603071496128067,-74.06476976503635,2648.518,0.1244365,-1,16.42833518981934,200,-9999,1561238359.238628,3.225490570068359,21.99650955200195,0.2733154296875,356.0256958007812,3.569394588470459,15,60899.08739850001,-0.428497314453125,0.92462158203125,-0.0267333984375,60899.0772665,-0.02182833355872547,-0.733798352012727,2.105358803968834,60899.0702165,41.58782958984375,22.23361206054688,-534.4757080078125,60899.0823325,-1.179812401793812,-1.306447661936209,-0.8233246269837579,-0.004397096112370491,-0.7357915639877319,2.119208335876465,0.2795706987380981,0.1047095656394958,0.1253537535667419,1,-0.5738906264305115,-0.2860804200172424,-0.2027727365493774,0.740061342716217,-0.6561728715896606,0.7334099411964417,-0.1776150912046432,0,0,0,-1,60897.62761800001,3,2,1561238357.795804,1561238131.651496,34,2.131246,0,0,28.10168,0,0,1561238341.922048,60895.907136,0,-0.8930664,74.4048,2650659446,177292352,1,1,0.45,-160,-160,2
1561238359.282932,115,0,0,1561238357.871073,4.603071496128067,-74.06476976503635,2648.518,0.1244365,-1,16.42833518981934,200,-9999,1561238359.262815,5.477039337158203,21.30525207519531,0.27215576171875,354.8965454101562,2.440232276916504,15,60899.10766150001,-0.4832000732421875,1.032363891601562,0.001556396484375,60899.0975305,-0.05197025709235129,-0.6327987666197989,2.081874783160406,60899.09035850001,42.56451416015625,21.78436279296875,-534.6783447265625,60899.1025965,-1.164133043652903,-1.308420822743312,-0.8645277602873884,-0.1143275946378708,-0.5877006053924561,2.054926156997681,0.1646150350570679,0.2408896088600159,0.1560969948768616,1,-0.5814595222473145,-0.2788145244121552,-0.1831664144992828,0.742035984992981,-0.6267885565757751,0.7607888579368591,-0.168334573507309,0,0,0,-1,60897.62761800001,3,2,1561238357.795804,1561238131.651496,34,2.131246,0,0,28.10168,0,0,1561238341.922048,60895.907136,0,-0.8930664,74.4048,2650659446,177292352,1,1,0.45,-160,-160,2
1561238359.289197,116,0,0,1561238357.871073,4.603071496128067,-74.06476976503635,2648.518,0.1244365,-1,16.42833518981934,200,-9999,1561238359.262815,5.477039337158203,21.30525207519531,0.27215576171875,354.8965454101562,2.440232276916504,15,60899.1279255,-0.494415283203125,1.034408569335938,0.0044403076171875,60899.1177935,-0.3815407030474012,-0.3899267310039516,2.002013239971655,60899.1104695,43.57621765136719,21.31106567382812,-534.722412109375,60899.12285950001,-1.156521294618836,-1.311906970626251,-0.9055378795350408,-0.5071425437927246,-0.3211008906364441,1.982688188552856,0.09904187917709351,0.2475139498710632,0.1698033213615417,1,-0.5900773406028748,-0.2698091268539429,-0.1660618335008621,0.7425867915153503,-0.5966920256614685,0.7867572903633118,-0.1580235362052917,0,0,0,-1,60897.62761800001,3,2,1561238357.795804,1561238131.651496,34,2.131246,0,0,28.10168,0,0,1561238341.922048,60895.907136,0,-0.8930664,74.4048,2650659446,177292352,1,1,0.45,-160,-160,2
1561238359.309005,117,0,0,1561238357.871073,4.603071496128067,-74.06476976503635,2648.518,0.1244365,-1,16.42833518981934,200,-9999,1561238359.290727,6.378223419189453,20.98945617675781,0.37738037109375,354.4837646484375,2.027466058731079,15,60899.1481895,-0.4625701904296875,1.0252685546875,-0.0316314697265625,60899.1380575,-0.9352132252554198,-0.04318635286894294,1.912348600810322,60899.1306115,44.55960083007812,20.97695922851562,-534.0964965820312,60899.14312350001,-1.166065302019903,-1.322439694827282,-0.9475207350154077,-1.080626726150513,0.04865159839391708,1.871880888938904,0.08518284559249878,0.2123973965644836,0.126206636428833,1,-0.6014441251754761,-0.2579247057437897,-0.1527845412492752,0.7405381798744202,-0.5657889246940613,0.8119708895683289,-0.1434796154499054,0,0,0,-1,60897.62761800001,3,2,1561238357.795804,1561238131.651496,34,2.131246,0,0,28.10168,0,0,1561238341.922048,60895.907136,0,-0.8930664,74.4048,2650659446,177292352,1,1,0.45,-160,-160,2
1561238359.329327,118,0,0,1561238357.871073,4.603071496128067,-74.06476976503635,2648.518,0.1244365,-1,16.42833518981934,200,-9999,1561238359.313354,7.128276824951172,20.45460510253906,0.85711669921875,355.7427368164062,3.286413669586182,15,60899.1684525,-0.4667205810546875,1.133560180664062,-0.0383148193359375,60899.15832150001,-1.423382104659632,0.2678197297593826,1.749727728850704,60899.1507225,45.4505615234375,20.72421264648438,-533.9765014648438,60899.1633875,-1.196739806049755,-1.34381913516507,-0.9890060710338959,-1.498848795890808,0.2844856977462769,1.714374423027039,0.08295726776123047,0.2244105339050293,0.08510148525238037,1,-0.6155353784561157,-0.2434871047735214,-0.1439454257488251,0.7356018424034119,-0.535426139831543,0.8354802131652832,-0.1236604526638985,0,0,0,-1,60897.62761800001,3,2,1561238357.795804,1561238131.651496,34,2.131246,0,0,28.10168,0,0,1561238341.922048,60895.907136,0,-0.8930664,74.4048,2650659446,177292352,1,1,0.45,-160,-160,2
1561238359.369212,119,0,0,1561238357.871073,4.603071496128067,-74.06476976503635,2648.518,0.1244365,-1,16.42833518981934,200,-9999,1561238359.366591,9.553840637207031,18.9642448425293,2.38702392578125,2.281739234924316,9.825427055358887,15,60899.1887165,-0.5381011962890625,1.323760986328125,-0.0312957763671875,60899.1785845,-1.5988503320339,0.260607623211339,1.634351600945201,60899.1708635,46.166748046875,20.25694274902344,-533.3628540039062,60899.1836505,-1.24206777350118,-1.376770697337978,-1.028549200374502,-1.600248336791992,0.213582769036293,1.619674801826477,0.004425525665283203,0.3850564956665039,0.06831324100494385,1,-0.6307958364486694,-0.2287914156913757,-0.1370908319950104,0.7286680936813354,-0.5063786506652832,0.8565511703491211,-0.09950219839811325,0,0,0,-1,60897.62761800001,3,2,1561238357.795804,1561238131.651496,34,2.131246,0,0,28.10168,0,0,1561238341.922048,60895.907136,0,-0.8930664,74.4048,2650659446,177292352,1,1,0.45,-160,-160,2
1561238359.3716,120,0,0,1561238357.871073,4.603071496128067,-74.06476976503635,2648.518,0.1244365,-1,16.42833518981934,200,-9999,1561238359.366591,9.553840637207031,18.9642448425293,2.38702392578125,2.281739234924316,9.825427055358887,15,60899.20898050001,-0.5626220703125,1.318267822265625,-0.06304931640625,60899.1988485,-1.53543327594417,0.09310837276691429,1.631328913107962,60899.1909745,47.11213684082031,19.74491882324219,-532.780517578125,60899.2039145,-1.293122435428018,-1.418374615741973,-1.066436261959807,-1.511207938194275,0.05332864075899124,1.616253733634949,-0.08067432045936584,0.4653517007827759,0.029884934425354,1,-0.6457491517066956,-0.2152249366044998,-0.1295156180858612,0.7210492491722107,-0.4776447713375092,0.8754839301109314,-0.07337252050638199,0,0,0,-1,60897.62761800001,3,2,1561238357.795804,1561238131.651496,34,2.131246,0,0,28.10168,0,0,1561238341.922048,60895.907136,0,-0.8930664,74.4048,2650659446,177292352,1,1,0.45,-160,-160,2
