loggingTime,loggingSample,identifierForVendor,deviceID,locationTimestamp_since1970,locationLatitude,locationLongitude,locationAltitude,locationSpeed,locationCourse,locationVerticalAccuracy,locationHorizontalAccuracy,locationFloor,locationHeadingTimestamp_since1970,locationHeadingX,locationHeadingY,locationHeadingZ,locationTrueHeading,locationMagneticHeading,locationHeadingAccuracy,accelerometerTimestamp_sinceReboot,accelerometerAccelerationX,accelerometerAccelerationY,accelerometerAccelerationZ,gyroTimestamp_sinceReboot,gyroRotationX,gyroRotationY,gyroRotationZ,magnetometerTimestamp_sinceReboot,magnetometerX,magnetometerY,magnetometerZ,motionTimestamp_sinceReboot,motionYaw,motionRoll,motionPitch,motionRotationRateX,motionRotationRateY,motionRotationRateZ,motionUserAccelerationX,motionUserAccelerationY,motionUserAccelerationZ,motionAttitudeReferenceFrame,motionQuaternionX,motionQuaternionY,motionQuaternionZ,motionQuaternionW,motionGravityX,motionGravityY,motionGravityZ,motionMagneticFieldX,motionMagneticFieldY,motionMagneticFieldZ,motionMagneticFieldCalibrationAccuracy,activityTimestamp_sinceReboot,activity,activityActivityConfidence,activityActivityStartDate,pedometerStartDate,pedometerNumberofSteps,pedometerAverageActivePace,pedometerCurrentPace,pedometerCurrentCadence,pedometerDistance,pedometerFloorAscended,pedometerFloorDescended,pedometerEndDate,altimeterTimestamp_sinceReboot,altimeterReset,altimeterRelativeAltitude,altimeterPressure,IP_en0,IP_pdp_ip0,deviceOrientation,batteryState,batteryLevel,avAudioRecorderPeakPower,avAudioRecorderAveragePower,label
1561238381.255305,1,0,0,1561238374.870129,4.603081906105113,-74.06472629063053,2648.072,0.1460393,-1,16.51217079162598,200,-9999,1561238381.233805,8.144725799560547,20.02523040771484,-0.6856689453125,94.81452178955078,102.3582077026367,15,60921.09148616667,-0.400970458984375,0.89617919921875,-0.168060302734375,60921.08135416667,-0.008761001038033669,0.07096099250959734,0.0232677721279133,60921.07146616667,45.87809753417969,20.69778442382812,-535.6353759765625,60921.08642016667,-0.9805439294773248,-1.16924442829339,-1.115422642656054,-0.01372035220265388,0.06384538859128952,0.01735955290496349,0.006087034940719604,-0.004038512706756592,0.006992101669311523,1,-0.6098461747169495,-0.2052820771932602,-0.0754871591925621,0.761740505695343,-0.4048144519329071,0.8980967402458191,-0.1718938201665878,0,0,0,-1,60918.374954625,2,0,1561238378.54314,1561238131.651496,34,2.131246,0,0,28.10168,0,0,1561238341.922048,60918.659115,0,-1.109619,74.40683,2650659446,177292352,1,1,0.45,-160,-160,3
1561238381.279026,2,0,0,1561238374.870129,4.603081906105113,-74.06472629063053,2648.072,0.1460393,-1,16.51217079162598,200,-9999,1561238381.26209,8.158084869384766,20.17022705078125,-0.5643310546875,94.91335296630859,102.4570388793945,15,60921.11174916667,-0.4033203125,0.900146484375,-0.175811767578125,60921.10161716667,-0.01302099351772442,0.05392075627472533,0.007822769385998754,60921.09160816667,45.72772216796875,20.93424987792969,-535.5941162109375,60921.10668316667,-0.9810088888055464,-1.168617107101744,-1.115728711583555,-0.02116601914167404,0.04437048733234406,0.001852764748036861,0.001911282539367676,0.0001146793365478516,0.000119328498840332,1,-0.6099446415901184,-0.2048108875751495,-0.07576048374176025,0.7617613077163696,-0.4044534265995026,0.8982313275337219,-0.1720400750637054,0,0,0,-1,60918.374954625,2,0,1561238378.54314,1561238131.651496,34,2.131246,0,0,28.10168,0,0,1561238341.922048,60918.659115,0,-1.109619,74.40683,2650659446,177292352,1,1,0.45,-160,-160,3
1561238381.292769,3,0,0,1561238374.870129,4.603081906105113,-74.06472629063053,2648.072,0.1460393,-1,16.51217079162598,200,-9999,1561238381.284377,8.288227081298828,20.25832748413086,-0.66473388671875,94.99027252197266,102.5339584350586,15,60921.13201316667,-0.3980560302734375,0.9026947021484375,-0.1741790771484375,60921.12188116667,-0.02033456650330002,0.04187501234818793,0.003911384692999377,60921.11171916667,46.10629272460938,20.75370788574219,-535.4647827148438,60921.12694716667,-0.9819743600137657,-1.168718051321804,-1.115954084708957,-0.02414023503661156,0.0293798241764307,0.0005387610290199518,0.003909647464752197,0.002960562705993652,-0.001938343048095703,1,-0.6101019382476807,-0.2044883966445923,-0.07602762430906296,0.7616955637931824,-0.4042850136756897,0.8983303308486938,-0.1719202399253845,0,0,0,-1,60918.374954625,2,0,1561238378.54314,1561238131.651496,34,2.131246,0,0,28.10168,0,0,1561238341.922048,60918.659115,0,-1.109619,74.40683,2650659446,177292352,1,1,0.45,-160,-160,3
1561238381.312765,4,0,0,1561238374.870129,4.603081906105113,-74.06472629063053,2648.072,0.1460393,-1,16.51217079162598,200,-9999,1561238381.284377,8.288227081298828,20.25832748413086,-0.66473388671875,94.99027252197266,102.5339584350586,15,60921.15227716667,-0.394317626953125,0.897613525390625,-0.1702423095703125,60921.14214516667,-0.008453672248238526,0.007568437501896187,-0.0004926848016646591,60921.13186016667,45.88017272949219,20.56289672851562,-535.5599365234375,60921.14718016667,-0.9827438668733821,-1.169185278639506,-1.116038066595229,-0.006598260253667831,-0.005154451820999384,-0.006744984537363052,0.008665382862091064,0.002908408641815186,-0.001363575458526611,1,-0.6102189421653748,-0.2044065743684769,-0.07615185528993607,0.7616111636161804,-0.4042952656745911,0.8983672261238098,-0.1717015951871872,0,0,0,-1,60918.374954625,2,0,1561238378.54314,1561238131.651496,34,2.131246,0,0,28.10168,0,0,1561238341.922048,60918.659115,0,-1.109619,74.40683,2650659446,177292352,1,1,0.45,-160,-160,3
1561238381.333038,5,0,0,1561238374.870129,4.603081906105113,-74.06472629063053,2648.072,0.1460393,-1,16.51217079162598,200,-9999,1561238381.323368,8.134559631347656,20.20989608764648,-0.83721923828125,95.03894805908203,102.582633972168,15,60921.17254016667,-0.3944854736328125,0.8887786865234375,-0.1594085693359375,60921.16240816667,0.007051784250420814,-0.0109162973082348,-0.01109819121068721,60921.15197116667,46.00752258300781,20.29426574707031,-535.689453125,60921.16744416667,-0.983002743653338,-1.169700825282583,-1.115829425775075,0.004876501858234406,-0.0167397353798151,-0.01421861350536346,0.01184111833572388,-0.003713846206665039,0.007214009761810303,1,-0.6102142930030823,-0.2045856863260269,-0.07615803182125092,0.7615662813186646,-0.4045565724372864,0.8982755541801453,-0.1715664267539978,0,0,0,-1,60918.374954625,2,0,1561238378.54314,1561238131.651496,34,2.131246,0,0,28.10168,0,0,1561238341.922048,60918.659115,0,-1.109619,74.40683,2650659446,177292352,1,1,0.45,-160,-160,3
1561238381.357238,6,0,0,1561238374.870129,4.603081906105113,-74.06472629063053,2648.072,0.1460393,-1,16.51217079162598,200,-9999,1561238381.347511,8.134735107421875,20.07846069335938,-0.838623046875,95.02716827392578,102.5708541870117,15,60921.19280416667,-0.4041748046875,0.8882904052734375,-0.154327392578125,60921.18267216667,0.01102282375183797,0.01125851350830998,0.001227450946417521,60921.17211316667,45.85287475585938,20.52435302734375,-535.6079711914062,60921.18770716667,-0.9829008305609687,-1.16968996448956,-1.1156743616922,0.003206699620932341,0.0160341914743185,0.0005763114895671606,0.00621497631072998,-0.009947538375854492,0.01503956317901611,1,-0.6101657748222351,-0.2046585232019424,-0.07617072761058807,0.7615843415260315,-0.404682993888855,0.898207426071167,-0.1716252267360687,0,0,0,-1,60918.374954625,2,0,1561238378.54314,1561238131.651496,34,2.131246,0,0,28.10168,0,0,1561238341.922048,60918.659115,0,-1.109619,74.40683,2650659446,177292352,1,1,0.45,-160,-160,3
1561238381.373782,7,0,0,1561238374.870129,4.603081906105113,-74.06472629063053,2648.072,0.1460393,-1,16.51217079162598,200,-9999,1561238381.347511,8.134735107421875,20.07846069335938,-0.838623046875,95.02716827392578,102.5708541870117,15,60921.21303716667,-0.406982421875,0.8937835693359375,-0.15924072265625,60921.20290516667,-0.005760417437841392,0.05466351190274843,0.008915997013476281,60921.19222416667,45.78800964355469,20.3646240234375,-535.5685424804688,60921.20797116667,-0.9830690119954821,-1.169085428063086,-1.115807042637201,-0.01650122553110123,0.05211149901151657,0.007054184097796679,-0.003291040658950806,-0.0088309645652771,0.01644301414489746,1,-0.6101921200752258,-0.2043377906084061,-0.07637803256511688,0.7616286277770996,-0.4044695794582367,0.8982657194137573,-0.1718232929706573,0,0,0,-1,60918.374954625,2,0,1561238378.54314,1561238131.651496,34,2.131246,0,0,28.10168,0,0,1561238341.922048,60918.659115,0,-1.109619,74.40683,2650659446,177292352,1,1,0.45,-160,-160,3
1561238381.394,8,0,0,1561238374.870129,4.603081906105113,-74.06472629063053,2648.072,0.1460393,-1,16.51217079162598,200,-9999,1561238381.375205,8.285053253173828,20.1851921081543,-0.6595458984375,95.08637237548828,102.6300582885742,15,60921.23330116667,-0.399566650390625,0.9011077880859375,-0.168792724609375,60921.22316916667,-0.009007609754975008,0.04520263213024193,0.004191282923566705,60921.21236616667,45.6534423828125,20.57025146484375,-535.4951782226562,60921.22823516667,-0.9835516373527161,-1.16859818338971,-1.115994423163971,-0.005516750738024712,0.03058676980435848,-0.001906020916067064,-0.0003102421760559082,-0.0002004504203796387,0.00822758674621582,1,-0.6102682948112488,-0.2039495259523392,-0.07665225863456726,0.7616440653800964,-0.4042307734489441,0.8983480930328369,-0.1719543933868408,0,0,0,-1,60918.374954625,2,0,1561238378.54314,1561238131.651496,34,2.131246,0,0,28.10168,0,0,1561238341.922048,60918.659115,0,-1.109619,74.40683,2650659446,177292352,1,1,0.45,-160,-160,3
1561238381.414168,9,0,0,1561238374.870129,4.603081906105113,-74.06472629063053,2648.072,0.1460393,-1,16.51217079162598,200,-9999,1561238381.398174,8.217521667480469,20.32629776000977,-0.8048095703125,95.13568878173828,102.6793746948242,15,60921.25356416667,-0.392059326171875,0.90130615234375,-0.1747589111328125,60921.24343316667,0.009270996386783845,0.01039751352788736,-0.01064811698646382,60921.23250716667,45.73431396484375,20.48823547363281,-535.665283203125,60921.24849816667,-0.9836583936212187,-1.16846187471805,-1.115791947824468,0.00559608731418848,-0.0001415838487446308,-0.01601411588490009,0.0102703869342804,0.003275930881500244,-0.002373158931732178,1,-0.6102248430252075,-0.2039248496294022,-0.07679727673530579,0.7616707682609558,-0.4043744206428528,0.8982591032981873,-0.1720805913209915,0,0,0,-1,60918.374954625,2,0,1561238378.54314,1561238131.651496,34,2.131246,0,0,28.10168,0,0,1561238341.922048,60918.659115,0,-1.109619,74.40683,2650659446,177292352,1,1,0.45,-160,-160,3
1561238381.441443,10,0,0,1561238374.870129,4.603081906105113,-74.06472629063053,2648.072,0.1460393,-1,16.51217079162598,200,-9999,1561238381.424503,8.248821258544922,20.23983001708984,-0.69317626953125,95.13257598876953,102.6762619018555,15,60921.27382816667,-0.39471435546875,0.8935394287109375,-0.1688995361328125,60921.26369616667,0.005828860677856429,0.003067695259662274,-0.01043319988649442,60921.25261816667,45.95857238769531,20.58259582519531,-535.6192626953125,60921.26876216667,-0.9837857687893586,-1.168653743426974,-1.115517398723787,0.0008343555964529514,-0.004095844924449921,-0.01058366522192955,0.01245307922363281,-9.763240814208984e-05,0.0004229545593261719,1,-0.6101784706115723,-0.2040403038263321,-0.07687254250049591,0.7616694569587708,-0.4046344757080078,0.8981384038925171,-0.1720995754003525,0,0,0,-1,60918.374954625,2,0,1561238378.54314,1561238131.651496,34,2.131246,0,0,28.10168,0,0,1561238341.922048,60918.659115,0,-1.109619,74.40683,2650659446,177292352,1,1,0.45,-160,-160,3
1561238381.454546,11,0,0,1561238374.870129,4.603081906105113,-74.06472629063053,2648.072,0.1460393,-1,16.51217079162598,200,-9999,1561238381.449371,8.157112121582031,20.13788223266602,-0.63836669921875,95.13102722167969,102.6747131347656,15,60921.29409216667,-0.401214599609375,0.893280029296875,-0.16448974609375,60921.28396016667,-0.002456499789489089,0.00558491512200517,-0.00427144407237809,60921.27276016667,45.914306640625,20.34364318847656,-535.6480102539062,60921.28902616667,-0.984150754841866,-1.169037334729713,-1.11541585567335,-0.008332777768373489,-4.251394420862198e-05,-0.006271208170801401,0.006606191396713257,-0.006431162357330322,0.007291913032531738,1,-0.6102058291435242,-0.2041050344705582,-0.07692600041627884,0.7616247534751892,-0.4047842919826508,0.8980937600135803,-0.1719799637794495,0,0,0,-1,60918.374954625,2,0,1561238378.54314,1561238131.651496,34,2.131246,0,0,28.10168,0,0,1561238341.922048,60918.659115,0,-1.109619,74.40683,2650659446,177292352,1,1,0.45,-160,-160,3
1561238381.475204,12,0,0,1561238374.870129,4.603081906105113,-74.06472629063053,2648.072,0.1460393,-1,16.51217079162598,200,-9999,1561238381.449371,8.157112121582031,20.13788223266602,-0.63836669921875,95.13102722167969,102.6747131347656,15,60921.31435516667,-0.404632568359375,0.8917236328125,-0.160308837890625,60921.30422416667,0.007619836510934716,-0.001510278654183936,0.00449728013281681,60921.29287116667,45.59223937988281,20.47428894042969,-535.5859985351562,60921.30928916667,-0.9842481799864381,-1.169266859533606,-1.115387105135611,0.008701866492629051,-0.0122911911457777,0.001334779895842075,0.001466333866119385,-0.004846811294555664,0.009681046009063721,1,-0.6102175712585449,-0.2041712701320648,-0.07690206170082092,0.7616000771522522,-0.4048476815223694,0.8980811238288879,-0.17189721763134,0,0,0,-1,60918.374954625,2,0,1561238378.54314,1561238131.651496,34,2.131246,0,0,28.10168,0,0,1561238341.922048,60918.659115,0,-1.109619,74.40683,2650659446,177292352,1,1,0.45,-160,-160,3
1561238381.495765,13,0,0,1561238374.870129,4.603081906105113,-74.06472629063053,2648.072,0.1460393,-1,16.51217079162598,200,-9999,1561238381.475203,8.062046051025391,20.27664947509766,-0.67913818359375,95.11947631835938,102.6631622314453,15,60921.33461916667,-0.4060516357421875,0.88836669921875,-0.157012939453125,60921.32448716667,0.01615819728183776,-0.002232794257922433,0.009217200532764244,60921.31301316667,45.7694091796875,20.73916625976562,-535.6307373046875,60921.32955316667,-0.9836580916329896,-1.168962542689057,-1.115390730811354,0.01273067761212587,-0.00811531487852335,0.009796448051929474,-0.0004961490631103516,-0.007350921630859375,0.01309889554977417,1,-0.6101464629173279,-0.204234391450882,-0.07676912844181061,0.7616536021232605,-0.4047925472259521,0.8980827331542969,-0.1720192134380341,0,0,0,-1,60918.374954625,2,0,1561238378.54314,1561238131.651496,34,2.131246,0,0,28.10168,0,0,1561238341.922048,60918.659115,0,-1.109619,74.40683,2650659446,177292352,1,1,0.45,-160,-160,3
1561238381.530325,14,0,0,1561238374.870129,4.603081906105113,-74.06472629063053,2648.072,0.1460393,-1,16.51217079162598,200,-9999,1561238381.526165,8.061016082763672,20.31174468994141,-0.828125,95.14974975585938,102.6934356689453,15,60921.35488316667,-0.406585693359375,0.885894775390625,-0.161407470703125,60921.34475116667,0.008265919391387939,0.01891669953894184,0.02824069283141826,60921.33315416667,45.65446472167969,20.47544860839844,-535.8443603515625,60921.34981716667,-0.9829403089630715,-1.16818434231768,-1.115729053341299,-0.00257397722452879,0.02552147395908833,0.03024845942854881,-0.00242045521736145,-0.01215362548828125,0.01352369785308838,1,-0.6101256012916565,-0.204056903719902,-0.07662808150053024,0.7617320418357849,-0.4043788611888885,0.8982314467430115,-0.1722150593996048,0,0,0,-1,60918.374954625,2,0,1561238378.54314,1561238131.651496,34,2.131246,0,0,28.10168,0,0,1561238341.922048,60918.659115,0,-1.109619,74.40683,2650659446,177292352,1,1,0.45,-160,-160,3
1561238381.535811,15,0,0,1561238374.870129,4.603081906105113,-74.06472629063053,2648.072,0.1460393,-1,16.51217079162598,200,-9999,1561238381.526165,8.061016082763672,20.31174468994141,-0.828125,95.14974975585938,102.6934356689453,15,60921.37514616667,-0.4049835205078125,0.8917388916015625,-0.16644287109375,60921.36501516667,-0.006155896859718159,0.0706776321696129,0.05102749806646324,60921.35326516667,45.84884643554688,20.47175598144531,-535.6699829101562,60921.37008016667,-0.9824969561538502,-1.166729671590353,-1.116576663999199,-0.01512865070253611,0.07180161774158478,0.04935663938522339,-0.003600358963012695,-0.01148819923400879,0.008609116077423096,1,-0.6102308034896851,-0.2033875286579132,-0.07663999497890472,0.7618256211280823,-0.4034278392791748,0.8986036777496338,-0.1725037544965744,0,0,0,-1,60918.374954625,2,0,1561238378.54314,1561238131.651496,34,2.131246,0,0,28.10168,0,0,1561238341.922048,60918.659115,0,-1.109619,74.40683,2650659446,177292352,1,1,0.45,-160,-160,3
1561238381.556622,16,0,0,1561238374.870129,4.603081906105113,-74.06472629063053,2648.072,0.1460393,-1,16.51217079162598,200,-9999,1561238381.549968,8.094036102294922,20.24691772460938,-0.74090576171875,95.26466369628906,102.808349609375,15,60921.39541016667,-0.398468017578125,0.901275634765625,-0.1673736572265625,60921.38527816667,-0.02175509662874829,0.08934452719830531,0.05696608098123094,60921.37340716667,45.60755920410156,20.69792175292969,-535.4464111328125,60921.39034416667,-0.9824792388681544,-1.165120559756731,-1.117720727022868,-0.02161051891744137,0.07688505947589874,0.05329785123467445,0.001752853393554688,-0.002040863037109375,0.005327284336090088,1,-0.6104457378387451,-0.2024416923522949,-0.07676932960748672,0.7618921995162964,-0.4022045135498047,0.8991050720214844,-0.1727467179298401,0,0,0,-1,60918.374954625,2,0,1561238378.54314,1561238131.651496,34,2.131246,0,0,28.10168,0,0,1561238341.922048,60918.659115,0,-1.109619,74.40683,2650659446,177292352,1,1,0.45,-160,-160,3
1561238381.576474,17,0,0,1561238374.870129,4.603081906105113,-74.06472629063053,2648.072,0.1460393,-1,16.51217079162598,200,-9999,1561238381.549968,8.094036102294922,20.24691772460938,-0.74090576171875,95.26466369628906,102.808349609375,15,60921.41567416667,-0.3905029296875,0.9039764404296875,-0.163909912109375,60921.40554216667,-0.008072041264030171,0.06414942538950166,0.05812695290039648,60921.39351816667,45.82781982421875,20.48654174804688,-535.4620971679688,60921.41060816667,-0.9822254747727703,-1.163614918622513,-1.118849924688877,-0.00835330318659544,0.04960284009575844,0.05034653842449188,0.00651097297668457,0.004438698291778564,0.006354570388793945,1,-0.6106370687484741,-0.2016118764877319,-0.07678233087062836,0.7619577050209045,-0.401011735200882,0.8995987772941589,-0.1729500442743301,0,0,0,-1,60918.374954625,2,0,1561238378.54314,1561238131.651496,34,2.131246,0,0,28.10168,0,0,1561238341.922048,60918.659115,0,-1.109619,74.40683,2650659446,177292352,1,1,0.45,-160,-160,3
1561238381.609735,18,0,0,1561238374.870129,4.603081906105113,-74.06472629063053,2648.072,0.1460393,-1,16.51217079162598,200,-9999,1561238381.601236,8.230327606201172,20.15996932983398,-0.7359619140625,95.39600372314453,102.9396896362305,15,60921.43593716667,-0.390380859375,0.89801025390625,-0.1570892333984375,60921.42580616667,0.008748217864801289,0.03928322397532281,0.04318528760450691,60921.41366016667,45.88986206054688,20.46600341796875,-535.456787109375,60921.43084116667,-0.9814925452416359,-1.162197328139578,-1.1196493101889,0.007186508737504482,0.03262705355882645,0.03744272515177727,0.01006069779396057,0.001129627227783203,0.01301515102386475,1,-0.6107036471366882,-0.2010592669248581,-0.07668817788362503,0.76205974817276,-0.4001058340072632,0.8999475836753845,-0.1732324510812759,0,0,0,-1,60918.374954625,2,0,1561238378.54314,1561238131.651496,34,2.131246,0,0,28.10168,0,0,1561238341.922048,60918.659115,0,-1.109619,74.40683,2650659446,177292352,1,1,0.45,-160,-160,3
1561238381.616783,19,0,0,1561238374.870129,4.603081906105113,-74.06472629063053,2648.072,0.1460393,-1,16.51217079162598,200,-9999,1561238381.601236,8.230327606201172,20.15996932983398,-0.7359619140625,95.39600372314453,102.9396896362305,15,60921.45620116667,-0.3907012939453125,0.89483642578125,-0.158538818359375,60921.44606916667,0.008991098156216517,0.04492806022185476,0.04344973950075178,60921.43377116667,45.97933959960938,20.40969848632812,-535.649658203125,60921.45110516667,-0.9805183803348433,-1.160629202000328,-1.120304573366103,0.003402422415092587,0.04623021185398102,0.04053065925836563,0.009110331535339355,-0.003504574298858643,0.01537555456161499,1,-0.6107054948806763,-0.2005656212568283,-0.07659290730953217,0.7621979117393494,-0.3992928266525269,0.9002330899238586,-0.1736244559288025,0,0,0,-1,60918.374954625,2,0,1561238378.54314,1561238131.651496,34,2.131246,0,0,28.10168,0,0,1561238341.922048,60918.659115,0,-1.109619,74.40683,2650659446,177292352,1,1,0.45,-160,-160,3
1561238381.637022,20,0,0,1561238374.870129,4.603081906105113,-74.06472629063053,2648.072,0.1460393,-1,16.51217079162598,200,-9999,1561238381.627182,8.374153137207031,20.18326568603516,-0.651611328125,95.45853424072266,103.0022201538086,15,60921.47643416667,-0.3893890380859375,0.8939208984375,-0.1614532470703125,60921.46630216667,0.001949433917938002,0.06688156235181396,0.04885542388139462,60921.45391216667,46.06353759765625,20.53802490234375,-535.4954833984375,60921.47136816667,-0.9797540496624489,-1.158825460444673,-1.121121346294007,-0.002619250910356641,0.06132660806179047,0.04754941910505295,0.007909148931503296,-0.007323682308197021,0.01442784070968628,1,-0.6107591986656189,-0.1998704671859741,-0.07659976184368134,0.7623368501663208,-0.3983052670955658,0.9005884528160095,-0.1740499883890152,0,0,0,-1,60918.374954625,2,0,1561238378.54314,1561238131.651496,34,2.131246,0,0,28.10168,0,0,1561238341.922048,60918.659115,0,-1.109619,74.40683,2650659446,177292352,1,1,0.45,-160,-160,3
1561238381.657327,21,0,0,1561238374.870129,4.603081906105113,-74.06472629063053,2648.072,0.1460393,-1,16.51217079162598,200,-9999,1561238381.654174,8.364643096923828,20.14273071289062,-0.68719482421875,95.53896331787109,103.082649230957,15,60921.49669816667,-0.3874359130859375,0.89996337890625,-0.1686859130859375,60921.48656616667,-0.004788896272180486,0.06106947958882503,0.05396842685823774,60921.47405416667,46.02500915527344,20.50404357910156,-535.580322265625,60921.49163216667,-0.9790785255015293,-1.157076107117435,-1.122118188636595,-0.009566106833517551,0.04682489857077599,0.05164030194282532,0.00795668363571167,-0.003636658191680908,0.009041249752044678,1,-0.6108683943748474,-0.1991157233715057,-0.07656831294298172,0.7624499797821045,-0.3971778750419617,0.9010213017463684,-0.1743854731321335,0,0,0,-1,60918.374954625,2,0,1561238378.54314,1561238131.651496,34,2.131246,0,0,28.10168,0,0,1561238341.922048,60918.659115,0,-1.109619,74.40683,2650659446,177292352,1,1,0.45,-160,-160,3
1561238381.68586,22,0,0,1561238374.870129,4.603081906105113,-74.06472629063053,2648.072,0.1460393,-1,16.51217079162598,200,-9999,1561238381.654174,8.364643096923828,20.14273071289062,-0.68719482421875,95.53896331787109,103.082649230957,15,60921.51696216667,-0.3908843994140625,0.9055023193359375,-0.1750640869140625,60921.50683016667,-0.0003169161697194294,0.02460068425349796,0.05412874915586052,60921.49416516667,45.95686340332031,20.32379150390625,-535.40576171875,60921.51189616667,-0.978382656712501,-1.155894616846156,-1.12315335324976,0.0008644300978630781,0.002011887263506651,0.05601933598518372,0.008651435375213623,0.001774191856384277,0.003351271152496338,1,-0.6110070943832397,-0.198572501540184,-0.07634413987398148,0.7625030279159546,-0.3961178958415985,0.9014698266983032,-0.1744785904884338,0,0,0,-1,60918.374954625,2,0,1561238378.54314,1561238131.651496,34,2.131246,0,0,28.10168,0,0,1561238341.922048,60918.659115,0,-1.109619,74.40683,2650659446,177292352,1,1,0.45,-160,-160,3
1561238381.697786,23,0,0,1561238374.870129,4.603081906105113,-74.06472629063053,2648.072,0.1460393,-1,16.51217079162598,200,-9999,1561238381.683992,8.402034759521484,20.12087631225586,-0.4273681640625,95.56748962402344,103.1111755371094,15,60921.53722516667,-0.38519287109375,0.9008636474609375,-0.1747283935546875,60921.52709316667,0.0226762840498067,-0.029610090263937,0.04742024636995092,60921.51430716667,46.22628784179688,20.46842956542969,-535.38037109375,60921.53215916667,-0.9769123765153217,-1.155174701793973,-1.123935191702867,0.01649612002074718,-0.0374995693564415,0.03688106313347816,0.008201062679290771,0.006334125995635986,-0.0006003379821777344,1,-0.6110250949859619,-0.1985165923833847,-0.07576199620962143,0.7625611424446106,-0.3953470289707184,0.901807963848114,-0.1744789928197861,0,0,0,-1,60918.374954625,2,0,1561238378.54314,1561238131.651496,34,2.131246,0,0,28.10168,0,0,1561238341.922048,60918.659115,0,-1.109619,74.40683,2650659446,177292352,1,1,0.45,-160,-160,3
1561238381.718041,24,0,0,1561238374.870129,4.603081906105113,-74.06472629063053,2648.072,0.1460393,-1,16.51217079162598,200,-9999,1561238381.683992,8.402034759521484,20.12087631225586,-0.4273681640625,95.56748962402344,103.1111755371094,15,60921.55748916667,-0.390960693359375,0.9010467529296875,-0.171234130859375,60921.54735716667,0.008820389530342436,-0.02766651530039718,0.03290628474512808,60921.53441816667,46.16001892089844,20.51591491699219,-535.3543090820312,60921.55242316667,-0.9760202345155207,-1.155096743295922,-1.124454272371851,0.004532136023044586,-0.03500072658061981,0.03064021095633507,0.001991629600524902,-0.001748383045196533,-0.00147557258605957,1,-0.6110605597496033,-0.1986065208911896,-0.07528550922870636,0.7625566124916077,-0.3949054479598999,0.9020321369171143,-0.1743208914995193,0,0,0,-1,60918.374954625,2,0,1561238378.54314,1561238131.651496,34,2.131246,0,0,28.10168,0,0,1561238341.922048,60918.659115,0,-1.109619,74.40683,2650659446,177292352,1,1,0.45,-160,-160,3
1561238381.73845,25,0,0,1561238374.870129,4.603081906105113,-74.06472629063053,2648.072,0.1460393,-1,16.51217079162598,200,-9999,1561238381.728501,8.538478851318359,19.99077224731445,-0.62744140625,95.46155548095703,103.005241394043,15,60921.57775316667,-0.383941650390625,0.8988189697265625,-0.1691436767578125,60921.56762116667,0.00318247750264469,-0.0287496229157324,0.02324007525257647,60921.55455916667,46.29776000976562,20.6099853515625,-535.5927734375,60921.57268716667,-0.9755449954229993,-1.155404019974094,-1.124898539640097,-0.0001414457801729441,-0.03715575486421585,0.01384951360523701,0.00885009765625,-0.004000008106231689,0.005336642265319824,1,-0.6111336350440979,-0.1987379640340805,-0.07487328350543976,0.7625043988227844,-0.3945923149585724,0.9022238254547119,-0.1740377992391586,0,0,0,-1,60918.374954625,2,0,1561238378.54314,1561238131.651496,34,2.131246,0,0,28.10168,0,0,1561238341.922048,60918.659115,0,-1.109619,74.40683,2650659446,177292352,1,1,0.45,-160,-160,3
1561238381.762335,26,0,0,1561238374.870129,4.603081906105113,-74.06472629063053,2648.072,0.1460393,-1,16.51217079162598,200,-9999,1561238381.754993,8.522041320800781,20.04104995727539,-0.60791015625,95.40249633789062,102.9461822509766,15,60921.59801616667,-0.3848876953125,0.9000091552734375,-0.1634521484375,60921.58788416667,0.006701578567075395,-0.0429565220668691,0.00968831372959926,60921.57470116667,45.98805236816406,20.34201049804688,-535.4544677734375,60921.59295016667,-0.9753242110447093,-1.1561236405441,-1.125082117410565,0.002799216425046325,-0.04912133887410164,0.006116492673754692,0.01109728217124939,-0.001454651355743408,0.007305264472961426,1,-0.6111834645271301,-0.1990256905555725,-0.0745125487446785,0.7624247670173645,-0.3945659101009369,0.9023029804229736,-0.1736871004104614,0,0,0,-1,60918.374954625,2,0,1561238378.54314,1561238131.651496,34,2.131246,0,0,28.10168,0,0,1561238341.922048,60918.659115,0,-1.109619,74.40683,2650659446,177292352,1,1,0.45,-160,-160,3
1561238381.779148,27,0,0,1561238374.870129,4.603081906105113,-74.06472629063053,2648.072,0.1460393,-1,16.51217079162598,200,-9999,1561238381.754993,8.522041320800781,20.04104995727539,-0.60791015625,95.40249633789062,102.9461822509766,15,60921.61828016667,-0.384552001953125,0.8980255126953125,-0.1618194580078125,60921.60814816667,0.002836266560934389,-0.03353745392347685,0.007633152316385112,60921.59481216667,45.82228088378906,20.74508666992188,-535.509033203125,60921.61321416667,-0.9751750658624032,-1.156881255342428,-1.12516561797765,-0.0002767343539744616,-0.03730489313602448,0.003803536528721452,0.009755551815032959,-0.001963615417480469,0.01039373874664307,1,-0.6112173199653625,-0.1993353366851807,-0.07419823110103607,0.7623472213745117,-0.3946279585361481,0.902338981628418,-0.1733576208353043,0,0,0,-1,60918.374954625,2,0,1561238378.54314,1561238131.651496,34,2.131246,0,0,28.10168,0,0,1561238341.922048,60918.659115,0,-1.109619,74.40683,2650659446,177292352,1,1,0.45,-160,-160,3
1561238381.799112,28,0,0,1561238374.870129,4.603081906105113,-74.06472629063053,2648.072,0.1460393,-1,16.51217079162598,200,-9999,1561238381.779155,8.339210510253906,20.32810211181641,-0.63348388671875,95.34473419189453,102.8884201049805,15,60921.63854416667,-0.38775634765625,0.89794921875,-0.1602630615234375,60921.62841216667,0.006332464439990412,-0.02779061860719487,0.01062255063999906,60921.61495416667,46.16781616210938,20.69447326660156,-535.3845825195312,60921.63347816667,-0.9749575551734053,-1.157376233744141,-1.125273300056791,0.003141166409477592,-0.03022647649049759,0.007598541676998138,0.008302807807922363,-0.004634559154510498,0.01261603832244873,1,-0.6112402677536011,-0.1995587646961212,-0.07393081486225128,0.7622963786125183,-0.3946248292922974,0.902385413646698,-0.1731232702732086,0,0,0,-1,60918.374954625,2,0,1561238378.54314,1561238131.651496,34,2.131246,0,0,28.10168,0,0,1561238341.922048,60918.659115,0,-1.109619,74.40683,2650659446,177292352,1,1,0.45,-160,-160,3
1561238381.819488,29,0,0,1561238374.870129,4.603081906105113,-74.06472629063053,2648.072,0.1460393,-1,16.51217079162598,200,-9999,1561238381.803788,8.525157928466797,20.33556747436523,-0.6337890625,95.30017852783203,102.843864440918,15,60921.65880716667,-0.3895416259765625,0.897430419921875,-0.160552978515625,60921.64867516667,0.01055517266442005,-0.01887781738702668,0.01053067158239132,60921.63509516667,46.19032287597656,20.59567260742188,-535.6533203125,60921.65374116667,-0.9745957264675331,-1.157603874767076,-1.125383604788678,0.006596351973712444,-0.02710072323679924,0.008907484821975231,0.0061911940574646,-0.004254817962646484,0.01147925853729248,1,-0.611239492893219,-0.1997236311435699,-0.0736892893910408,0.7622772455215454,-0.3945731520652771,0.902432918548584,-0.1729935109615326,0,0,0,-1,60918.374954625,2,0,1561238378.54314,1561238131.651496,34,2.131246,0,0,28.10168,0,0,1561238341.922048,60918.659115,0,-1.109619,74.40683,2650659446,177292352,1,1,0.45,-160,-160,3
1561238381.848519,30,0,0,1561238374.870129,4.603081906105113,-74.06472629063053,2648.072,0.1460393,-1,16.51217079162598,200,-9999,1561238381.829798,8.662967681884766,20.29333877563477,-0.4591064453125,95.26584625244141,102.8095321655273,15,60921.67908241667,-0.3915557861328125,0.89813232421875,-0.15863037109375,60921.66895041667,0.01326014538361353,-0.004546282296874268,0.01266839098939793,60921.65521741667,46.37490844726562,20.53684997558594,-535.7029418945312,60921.67401641667,-0.9739803469516737,-1.157367388822403,-1.125523834124097,0.004026667214930058,-0.001553286332637072,0.009470477700233459,0.004066050052642822,-0.00512397289276123,0.01408517360687256,1,-0.6112036108970642,-0.1997802555561066,-0.07348370552062988,0.7623110413551331,-0.3944163918495178,0.9024933576583862,-0.1730359941720963,0,0,0,-1,60918.374954625,2,0,1561238378.54314,1561238131.651496,34,2.131246,0,0,28.10168,0,0,1561238341.922048,60918.659115,0,-1.109619,74.40683,2650659446,177292352,1,1,0.45,-160,-160,3
1561238381.86004,31,0,0,1561238374.870129,4.603081906105113,-74.06472629063053,2648.072,0.1460393,-1,16.51217079162598,200,-9999,1561238381.854099,8.586524963378906,19.98994064331055,-0.55755615234375,95.27168273925781,102.8153686523438,15,60921.69934641667,-0.388153076171875,0.8991241455078125,-0.162200927734375,60921.68921441667,-0.0004727110934890648,0.01525005935012074,0.007620369143152732,60921.67535941667,46.14601135253906,20.75576782226562,-535.2105712890625,60921.69424941667,-0.9739445807320393,-1.157197945885009,-1.125672791367656,-0.006894423626363277,0.01247598044574261,0.001416012877598405,0.002830237150192261,-0.004257321357727051,0.01246529817581177,1,-0.6112302541732788,-0.1996827125549316,-0.07347583770751953,0.7623159885406494,-0.3942639529705048,0.9025574922561646,-0.1730487793684006,0,0,0,-1,60918.374954625,2,0,1561238378.54314,1561238131.651496,34,2.131246,0,0,28.10168,0,0,1561238341.922048,60918.659115,0,-1.109619,74.40683,2650659446,177292352,1,1,0.45,-160,-160,3
1561238381.880348,32,0,0,1561238374.870129,4.603081906105113,-74.06472629063053,2648.072,0.1460393,-1,16.51217079162598,200,-9999,1561238381.854099,8.586524963378906,19.98994064331055,-0.55755615234375,95.27168273925781,102.8153686523438,15,60921.71960941667,-0.3820953369140625,0.902191162109375,-0.167083740234375,60921.70947741667,-0.003712979191788474,0.01460743857908462,0.002544117789352696,60921.69550041667,46.1904296875,20.73873901367188,-535.3558959960938,60921.71451341667,-0.9743118898222091,-1.157330481390536,-1.125757224303517,-0.004314352758228779,0.0006177225150167942,-0.002912156516686082,0.009283483028411865,-0.001379251480102539,0.008888065814971924,1,-0.6112924814224243,-0.1995960474014282,-0.07354919612407684,0.7622816562652588,-0.3942169547080994,0.9025938510894775,-0.1729658395051956,0,0,0,-1,60918.374954625,2,0,1561238378.54314,1561238131.651496,34,2.131246,0,0,28.10168,0,0,1561238341.922048,60918.659115,0,-1.109619,74.40683,2650659446,177292352,1,1,0.45,-160,-160,3
1561238381.90039,33,0,0,1561238381.875696,4.603091738540973,-74.06473486536156,2647.951,0.1050749,-1,17.18174743652344,200,-9999,1561238381.890441,8.666027069091797,20.18683242797852,-0.59088134765625,95.28642272949219,102.8301086425781,15,60921.73984241667,-0.379608154296875,0.900604248046875,-0.1679840087890625,60921.72974141667,0.002029595066749388,-0.005512477140355015,-0.00309139739336398,60921.71561241667,46.15634155273438,20.7294921875,-535.4011840820312,60921.73477741667,-0.9745446109543516,-1.157717214170898,-1.125692328437791,-4.530581645667553e-05,-0.01954214088618755,-0.00740331131964922,0.01314240694046021,0.0007697343826293945,0.003220200538635254,1,-0.611314058303833,-0.1996914446353912,-0.07353974878787994,0.7622402906417847,-0.3943375051021576,0.9025658965110779,-0.1728368997573853,0,0,0,-1,60918.374954625,2,0,1561238378.54314,1561238131.651496,34,2.131246,0,0,28.10168,0,0,1561238341.922048,60918.659115,0,-1.109619,74.40683,2650659446,177292352,1,1,0.45,-160,-160,3
1561238381.923363,34,0,0,1561238381.875696,4.603091738540973,-74.06473486536156,2647.951,0.1050749,-1,17.18174743652344,200,-9999,1561238381.890441,8.666027069091797,20.18683242797852,-0.59088134765625,95.28642272949219,102.8301086425781,15,60921.76010641667,-0.38238525390625,0.8957672119140625,-0.1632080078125,60921.74997441667,0.007394799398823021,-0.03078774009797004,-0.01508174756922773,60921.73575341667,46.26158142089844,20.69082641601562,-535.6185913085938,60921.75504041667,-0.9747298122747622,-1.158533198078321,-1.125425532781468,0.003570467932149768,-0.04047591984272003,-0.01703463308513165,0.01286321878433228,-0.003967702388763428,0.004963278770446777,1,-0.6112973093986511,-0.2000244855880737,-0.07344342023134232,0.7621757388114929,-0.3946991562843323,0.9024509787559509,-0.1726116091012955,0,0,0,-1,60918.374954625,2,0,1561238378.54314,1561238131.651496,34,2.131246,0,0,28.10168,0,0,1561238341.922048,60918.659115,0,-1.109619,74.40683,2650659446,177292352,1,1,0.45,-160,-160,3
1561238381.941051,35,0,0,1561238381.875696,4.603091738540973,-74.06473486536156,2647.951,0.1050749,-1,17.18174743652344,200,-9999,1561238381.931606,8.451408386230469,20.27503967285156,-0.63787841796875,95.21994781494141,102.7636337280273,15,60921.78037041667,-0.388916015625,0.89910888671875,-0.1606903076171875,60921.77023841667,-0.004234159817116981,-0.005647233091513024,0.004540423342476094,60921.75589541667,46.21267700195312,20.61465454101562,-535.29052734375,60921.77530441667,-0.9750123259197925,-1.159287790592089,-1.12536109045659,-0.01105614565312862,-0.006004760041832924,0.0061002466827631,0.008957028388977051,-0.008471846580505371,0.014728844165802,1,-0.6113376021385193,-0.2002446055412292,-0.07334025949239731,0.7620954513549805,-0.3948823213577271,0.9024232029914856,-0.1723368614912033,0,0,0,-1,60918.374954625,2,0,1561238378.54314,1561238131.651496,34,2.131246,0,0,28.10168,0,0,1561238341.922048,60918.659115,0,-1.109619,74.40683,2650659446,177292352,1,1,0.45,-160,-160,3
1561238381.961228,36,0,0,1561238381.875696,4.603091738540973,-74.06473486536156,2647.951,0.1050749,-1,17.18174743652344,200,-9999,1561238381.9553,8.572784423828125,20.0467643737793,-0.67974853515625,95.22075653076172,102.7644424438477,15,60921.80063341667,-0.39385986328125,0.9054107666015625,-0.1680145263671875,60921.79050241667,-0.004777977311711161,0.005029646034723649,0.01906077655391512,60921.77603641667,46.2855224609375,20.36093139648438,-535.1973266601562,60921.79556841667,-0.9752483793109173,-1.159563570655832,-1.125720961304366,-0.00763238500803709,-0.001721864566206932,0.01399625279009342,0.002832382917404175,-0.0009363889694213867,0.004724562168121338,1,-0.6114591360092163,-0.2001714706420898,-0.0732346847653389,0.762027382850647,-0.3946323096752167,0.9025782346725464,-0.1720982193946838,0,0,0,-1,60918.374954625,2,0,1561238378.54314,1561238131.651496,34,2.131246,0,0,28.10168,0,0,1561238341.922048,60918.659115,0,-1.109619,74.40683,2650659446,177292352,1,1,0.45,-160,-160,3
1561238381.983927,37,0,0,1561238381.875696,4.603091738540973,-74.06473486536156,2647.951,0.1050749,-1,17.18174743652344,200,-9999,1561238381.9553,8.572784423828125,20.0467643737793,-0.67974853515625,95.22075653076172,102.7644424438477,15,60921.82089741667,-0.3942413330078125,0.9063720703125,-0.1709747314453125,60921.81076541667,-7.190534943213943e-06,-0.01036262611760732,0.004004861647261158,60921.79614741667,45.98377990722656,20.62373352050781,-535.469970703125,60921.81583141667,-0.9754097769643038,-1.159948717571706,-1.125893335985999,-0.005636878777295351,-0.02171368151903152,-0.003470355179160833,-0.001195996999740601,0.005016624927520752,0.0002685189247131348,1,-0.6115314364433289,-0.2002180367708206,-0.07312511652708054,0.761967658996582,-0.3945559561252594,0.9026524424552917,-0.1718840748071671,0,0,0,-1,60918.374954625,2,0,1561238378.54314,1561238131.651496,34,2.131246,0,0,28.10168,0,0,1561238341.922048,60918.659115,0,-1.109619,74.40683,2650659446,177292352,1,1,0.45,-160,-160,3
1561238382.009711,38,0,0,1561238381.875696,4.603091738540973,-74.06473486536156,2647.951,0.1050749,-1,17.18174743652344,200,-9999,1561238382.006654,8.860546112060547,20.15707397460938,-0.67218017578125,95.16782379150391,102.7115097045898,15,60921.84116141667,-0.3905029296875,0.9018707275390625,-0.166961669921875,60921.83102941667,0.003589674833317805,-0.02236176472506834,-0.007159642274569024,60921.81628941667,46.22059631347656,20.36083984375,-535.5106201171875,60921.83609541667,-0.9756833922854046,-1.16073292996591,-1.125780992167654,-0.003363870782777667,-0.03201132640242577,-0.01029870007187128,0.002068132162094116,0.001891136169433594,0.001464247703552246,1,-0.6115601062774658,-0.2004662603139877,-0.07302431017160416,0.7618890404701233,-0.394783616065979,0.9026040434837341,-0.1716150343418121,0,0,0,-1,60918.374954625,2,0,1561238378.54314,1561238131.651496,34,2.131246,0,0,28.10168,0,0,1561238341.922048,60918.659115,0,-1.109619,74.40683,2650659446,177292352,1,1,0.45,-160,-160,3
1561238382.022174,39,0,0,1561238381.875696,4.603091738540973,-74.06473486536156,2647.951,0.1050749,-1,17.18174743652344,200,-9999,1561238382.006654,8.860546112060547,20.15707397460938,-0.67218017578125,95.16782379150391,102.7115097045898,15,60921.86142541667,-0.387359619140625,0.8932342529296875,-0.159088134765625,60921.85129341667,0.005336974824518793,-0.02038862867342863,-0.008596151366557765,60921.83643141667,46.332763671875,20.50595092773438,-535.4461059570312,60921.85635941667,-0.9759265262383789,-1.161531966368599,-1.125600867060492,0.001983224181458354,-0.02085427939891815,-0.006040305830538273,0.007404893636703491,-0.004531502723693848,0.008125662803649902,1,-0.6115697622299194,-0.2007494121789932,-0.07292831689119339,0.7618159055709839,-0.3950696885585785,0.9025264978408813,-0.1713642030954361,0,0,0,-1,60918.374954625,2,0,1561238378.54314,1561238131.651496,34,2.131246,0,0,28.10168,0,0,1561238341.922048,60918.659115,0,-1.109619,74.40683,2650659446,177292352,1,1,0.45,-160,-160,3
1561238382.042321,40,0,0,1561238381.875696,4.603091738540973,-74.06473486536156,2647.951,0.1050749,-1,17.18174743652344,200,-9999,1561238382.033373,8.947231292724609,20.09729385375977,-0.713623046875,95.14469909667969,102.6883850097656,15,60921.88168841667,-0.3858795166015625,0.88995361328125,-0.15557861328125,60921.87155641667,0.0059287292187344,0.003521231593302769,0.005617938319522153,60921.85654241667,46.38894653320312,20.74354553222656,-535.507568359375,60921.87662241667,-0.9759444156465548,-1.161725741774312,-1.125578473251662,-0.0003451777156442404,-0.0004121218807995319,0.003396605839952826,0.007639765739440918,-0.01201397180557251,0.0142827033996582,1,-0.6115731596946716,-0.2008243650197983,-0.07288281619548798,0.7617977857589722,-0.3951214551925659,0.9025168418884277,-0.1712956875562668,0,0,0,-1,60918.374954625,2,0,1561238378.54314,1561238131.651496,34,2.131246,0,0,28.10168,0,0,1561238341.922048,60918.659115,0,-1.109619,74.40683,2650659446,177292352,1,1,0.45,-160,-160,3
1561238382.063356,41,0,0,1561238381.875696,4.603091738540973,-74.06473486536156,2647.951,0.1050749,-1,17.18174743652344,200,-9999,1561238382.056549,8.687118530273438,20.2342414855957,-0.78387451171875,95.14389038085938,102.6875762939453,15,60921.90195241667,-0.3839263916015625,0.897979736328125,-0.163482666015625,60921.89182041667,0.004927646964973615,0.008660866181046691,0.01792280782012427,60921.87668341667,46.25967407226562,20.48313903808594,-535.614501953125,60921.89688641667,-0.975671037145315,-1.16146792668001,-1.12576292166199,0.002248474629595876,-0.0006757746450603008,0.01869380287826061,0.01197496056556702,-0.00930100679397583,0.01312828063964844,1,-0.6115812063217163,-0.2007554024457932,-0.07280050963163376,0.761817455291748,-0.3949247896671295,0.9025962948799133,-0.1713313907384872,0,0,0,-1,60918.374954625,2,0,1561238378.54314,1561238131.651496,34,2.131246,0,0,28.10168,0,0,1561238341.922048,60918.659115,0,-1.109619,74.40683,2650659446,177292352,1,1,0.45,-160,-160,3
1561238382.092,42,0,0,1561238381.875696,4.603091738540973,-74.06473486536156,2647.951,0.1050749,-1,17.18174743652344,200,-9999,1561238382.084192,8.764049530029297,20.32504272460938,-0.60101318359375,95.15415191650391,102.6978378295898,15,60921.92221641667,-0.3832244873046875,0.904632568359375,-0.1765594482421875,60921.91208441667,-0.007134608560322279,0.01473873242082553,0.0180381226953247,60921.89682541667,46.42607116699219,20.46635437011719,-535.544189453125,60921.91715041667,-0.9756091008317258,-1.161329563588025,-1.126127534930029,-0.01543731149286032,0.00612647132948041,0.01120099984109402,0.01091688871383667,-0.001111388206481934,0.002431750297546387,1,-0.6116588115692139,-0.2006140649318695,-0.07270637899637222,0.7618013620376587,-0.3945991396903992,0.9027531743049622,-0.1712549924850464,0,0,0,-1,60918.374954625,2,0,1561238378.54314,1561238131.651496,34,2.131246,0,0,28.10168,0,0,1561238341.922048,60918.659115,0,-1.109619,74.40683,2650659446,177292352,1,1,0.45,-160,-160,3
1561238382.103081,43,0,0,1561238381.875696,4.603091738540973,-74.06473486536156,2647.951,0.1050749,-1,17.18174743652344,200,-9999,1561238382.084192,8.764049530029297,20.32504272460938,-0.60101318359375,95.15415191650391,102.6978378295898,15,60921.94247941667,-0.3778533935546875,0.9073944091796875,-0.180450439453125,60921.93234741667,-0.01240793383478818,-0.002985403581978826,-0.007295996122381081,60921.91693641667,46.35505676269531,20.47354125976562,-535.6213989257812,60921.93741341667,-0.9763348418661861,-1.16207315723756,-1.126209588483484,-0.01854149252176285,-0.01825769804418087,-0.01868739165365696,0.01399719715118408,0.0001961588859558105,-0.007916271686553955,1,-0.6117786765098572,-0.2006510496139526,-0.07272990792989731,0.7616930603981018,-0.394658237695694,0.9027884602546692,-0.1709320098161697,0,0,0,-1,60918.374954625,2,0,1561238378.54314,1561238131.651496,34,2.131246,0,0,28.10168,0,0,1561238341.922048,60918.659115,0,-1.109619,74.40683,2650659446,177292352,1,1,0.45,-160,-160,3
1561238382.123345,44,0,0,1561238381.875696,4.603091738540973,-74.06473486536156,2647.951,0.1050749,-1,17.18174743652344,200,-9999,1561238382.109634,8.80267333984375,20.14651870727539,-0.8310546875,95.14456176757812,102.6882476806641,15,60921.96274341667,-0.38275146484375,0.9111175537109375,-0.178192138671875,60921.95261141667,-0.009983658294489049,-0.03612311702583479,-0.03904806685106881,60921.93707841667,46.43226623535156,20.52104187011719,-535.54443359375,60921.95764641667,-0.9776517755804645,-1.163946823906703,-1.125715512505945,-0.005019824486225843,-0.04968646168708801,-0.04752968996763229,0.01761049032211304,0.008633255958557129,-0.01107347011566162,1,-0.6118589043617249,-0.2011076062917709,-0.0728113204240799,0.7615004777908325,-0.395387589931488,0.9025758504867554,-0.1703688204288483,0,0,0,-1,60921.94186941667,1,2,1561238382.110055,1561238131.651496,34,2.131246,0,0,28.10168,0,0,1561238341.922048,60918.659115,0,-1.109619,74.40683,2650659446,177292352,1,1,0.45,-160,-160,3
1561238382.170882,45,0,0,1561238381.875696,4.603091738540973,-74.06473486536156,2647.951,0.1050749,-1,17.18174743652344,200,-9999,1561238382.158327,8.617378234863281,20.21203994750977,-0.729248046875,94.97209167480469,102.5157775878906,15,60921.98300741667,-0.39666748046875,0.90216064453125,-0.16387939453125,60921.97287541667,0.02416605636359702,-0.06075629184463171,-0.05166479251531921,60921.95718941667,46.39910888671875,20.52163696289062,-535.557373046875,60921.97791041667,-0.9781121462328366,-1.16561318739619,-1.12464455251996,0.0285290814936161,-0.06504011899232864,-0.05311380699276924,0.006956160068511963,0.006668686866760254,-0.003401875495910645,1,-0.6117058396339417,-0.2019175142049789,-0.07280877232551575,0.7614092826843262,-0.3965588510036469,0.9021142721176147,-0.1700905710458755,0,0,0,-1,60921.94186941667,1,2,1561238382.110055,1561238131.651496,34,2.131246,0,0,28.10168,0,0,1561238341.922048,60918.659115,0,-1.109619,74.40683,2650659446,177292352,1,1,0.45,-160,-160,3
1561238382.173515,46,0,0,1561238381.875696,4.603091738540973,-74.06473486536156,2647.951,0.1050749,-1,17.18174743652344,200,-9999,1561238382.158327,8.617378234863281,20.21203994750977,-0.729248046875,94.97209167480469,102.5157775878906,15,60922.00324041667,-0.40545654296875,0.882965087890625,-0.1516265869140625,60921.99313841667,0.04285638720988213,-0.05190208016844527,-0.03897802571439973,60921.97733041667,46.39938354492188,20.18104553222656,-535.6332397460938,60921.99817441667,-0.9773823665312408,-1.16614693459511,-1.123526371910163,0.03613639995455742,-0.05104627087712288,-0.03441761806607246,-0.00440061092376709,-0.00967872142791748,0.01443803310394287,1,-0.6113796830177307,-0.2026742547750473,-0.07271458208560944,0.7614793181419373,-0.3975769281387329,0.901631236076355,-0.1702760607004166,0,0,0,-1,60921.94186941667,1,2,1561238382.110055,1561238131.651496,34,2.131246,0,0,28.10168,0,0,1561238341.922048,60918.659115,0,-1.109619,74.40683,2650659446,177292352,1,1,0.45,-160,-160,3
1561238382.184375,47,0,0,1561238381.875696,4.603091738540973,-74.06473486536156,2647.951,0.1050749,-1,17.18174743652344,200,-9999,1561238382.158327,8.617378234863281,20.21203994750977,-0.729248046875,94.97209167480469,102.5157775878906,15,60922.02350341667,-0.4137725830078125,0.878143310546875,-0.1535491943359375,60922.01337241667,0.0155680407842762,-0.02382384016352184,-0.01638696281947557,60921.99747241667,46.26652526855469,20.73928833007812,-535.3843994140625,60922.01843741667,-0.976889771795422,-1.166407156415259,-1.122922744932238,0.00407140888273716,-0.02180449664592743,-0.01549292914569378,-0.01127195358276367,-0.02322667837142944,0.01984339952468872,1,-0.6111924648284912,-0.2031020820140839,-0.07263461500406265,0.7615231871604919,-0.3981213569641113,0.9013699889183044,-0.1703866273164749,0,0,0,-1,60921.94186941667,1,2,1561238382.110055,1561238131.651496,34,2.131246,0,0,28.10168,0,0,1561238341.922048,60918.659115,0,-1.109619,74.40683,2650659446,177292352,1,1,0.45,-160,-160,3
1561238382.204368,48,0,0,1561238381.875696,4.603091738540973,-74.06473486536156,2647.951,0.1050749,-1,17.18174743652344,200,-9999,1561238382.184368,8.721855163574219,20.37679672241211,-0.613037109375,94.919189453125,102.4628753662109,15,60922.04376741667,-0.4159088134765625,0.88543701171875,-0.1711273193359375,60922.03363541667,-0.003993942686791834,-0.002766225424265305,0.004941229086533019,60922.01761341667,46.44544982910156,20.614501953125,-535.7211303710938,60922.03870141667,-0.9771095987903917,-1.166869056738191,-1.122900679050486,-0.01304499339312315,-0.01160432212054729,0.0045066112652421,-0.017751544713974,-0.02132499217987061,0.008650481700897217,1,-0.6112262010574341,-0.2032172828912735,-0.07258399575948715,0.7614701986312866,-0.3982183039188385,0.9013604521751404,-0.1702105402946472,0,0,0,-1,60921.94186941667,1,2,1561238382.110055,1561238131.651496,34,2.131246,0,0,28.10168,0,0,1561238341.922048,60919.607154,0,-1.054199,74.4063,2650659446,177292352,1,1,0.45,-160,-160,3
1561238382.25294,49,0,0,1561238381.875696,4.603091738540973,-74.06473486536156,2647.951,0.1050749,-1,17.18174743652344,200,-9999,1561238382.208653,8.597698211669922,20.17387008666992,-0.7156982421875,94.90732574462891,102.4510116577148,15,60922.06403141667,-0.4062957763671875,0.8983612060546875,-0.1842498779296875,60922.05389941667,-0.01674622325052726,-0.0213992983071137,0.01178368887527361,60922.03772541667,46.34111022949219,20.49098205566406,-535.660400390625,60922.05896541667,-0.9776539860253834,-1.167809345512132,-1.123206779299289,-0.01505408249795437,-0.03841916099190712,0.01124787144362926,-0.01523631811141968,-0.008670687675476074,-0.01087522506713867,1,-0.6113899946212769,-0.2033184319734573,-0.07240885496139526,0.7613283395767212,-0.3981242775917053,0.9014929533004761,-0.1697277724742889,0,0,0,-1,60921.94186941667,1,2,1561238382.110055,1561238131.651496,34,2.131246,0,0,28.10168,0,0,1561238341.922048,60919.607154,0,-1.054199,74.4063,2650659446,177292352,1,1,0.45,-160,-160,3
1561238382.255669,50,0,0,1561238381.875696,4.603091738540973,-74.06473486536156,2647.951,0.1050749,-1,17.18174743652344,200,-9999,1561238382.208653,8.597698211669922,20.17387008666992,-0.7156982421875,94.90732574462891,102.4510116577148,15,60922.08429441667,-0.388580322265625,0.9015960693359375,-0.1854095458984375,60922.07416341667,0.01234188743975421,-0.09825919263123654,0.01820670079232671,60922.05786641667,46.27937316894531,20.71138000488281,-535.7333984375,60922.07922841667,-0.9775002314909229,-1.169322274971953,-1.123456866274646,0.01934863068163395,-0.1287069767713547,0.009988462552428246,0.00234454870223999,-0.0001118779182434082,-0.01815783977508545,1,-0.6114896535873413,-0.2038673311471939,-0.07181008160114288,0.7611581087112427,-0.3981727957725525,0.9016011357307434,-0.1690370291471481,0,0,0,-1,60921.94186941667,1,2,1561238382.110055,1561238131.651496,34,2.131246,0,0,28.10168,0,0,1561238341.922048,60919.607154,0,-1.054199,74.4063,2650659446,177292352,1,1,0.45,-160,-160,3
1561238382.265132,51,0,0,1561238381.875696,4.603091738540973,-74.06473486536156,2647.951,0.1050749,-1,17.18174743652344,200,-9999,1561238382.208653,8.597698211669922,20.17387008666992,-0.7156982421875,94.90732574462891,102.4510116577148,15,60922.10455841667,-0.386688232421875,0.88995361328125,-0.1747589111328125,60922.09442641667,0.05618817162681879,-0.1854271182706201,0.009234511079849758,60922.07797741667,46.52456665039062,20.6422119140625,-535.5029296875,60922.09949241667,-0.9756419659255688,-1.171146312931922,-1.123239801696113,0.05837193131446838,-0.1996019184589386,0.00824036356061697,0.01391059160232544,-0.004671931266784668,-0.01232314109802246,1,-0.6113118529319763,-0.2051937282085419,-0.07061278820037842,0.7610566020011902,-0.3986609578132629,0.9015072584152222,-0.168386697769165,0,0,0,-1,60921.94186941667,1,2,1561238382.110055,1561238131.651496,34,2.131246,0,0,28.10168,0,0,1561238341.922048,60919.607154,0,-1.054199,74.4063,2650659446,177292352,1,1,0.45,-160,-160,3
1561238382.285527,52,0,0,1561238381.875696,4.603091738540973,-74.06473486536156,2647.951,0.1050749,-1,17.18174743652344,200,-9999,1561238382.264599,8.548484802246094,20.24203872680664,-0.85870361328125,94.84246826171875,102.3861541748047,15,60922.12482241667,-0.393218994140625,0.8765106201171875,-0.160675048828125,60922.11469041667,0.05791043790377304,-0.1861533622998847,0.02916134762025865,60922.09811941667,46.4437255859375,20.56080627441406,-535.44482421875,60922.11975641667,-0.9729237002925857,-1.172689658319016,-1.123109981072001,0.04946072772145271,-0.1879758983850479,0.03698492422699928,0.01105839014053345,-0.01898950338363647,0.001846849918365479,1,-0.6110543608665466,-0.2066500335931778,-0.06914719194173813,0.7610039710998535,-0.3990283906459808,0.901451051235199,-0.1678166687488556,0,0,0,-1,60921.94186941667,1,2,1561238382.110055,1561238131.651496,34,2.131246,0,0,28.10168,0,0,1561238341.922048,60919.607154,0,-1.054199,74.4063,2650659446,177292352,1,1,0.45,-160,-160,3
1561238382.321603,53,0,0,1561238381.875696,4.603091738540973,-74.06473486536156,2647.951,0.1050749,-1,17.18174743652344,200,-9999,1561238382.309885,8.483829498291016,20.38882446289062,-0.81695556640625,94.05971527099609,101.603401184082,15,60922.14508541667,-0.4077301025390625,0.873077392578125,-0.15911865234375,60922.13495441667,0.04678268560498595,-0.1584210669205626,0.07167844810726468,60922.11826041667,46.23452758789062,20.69374084472656,-535.64892578125,60922.14001941667,-0.9699220835645194,-1.173486445551288,-1.123803762541076,0.04617598280310631,-0.1625837236642838,0.07944715768098831,-0.002034425735473633,-0.02934515476226807,0.008153200149536133,1,-0.6109392046928406,-0.2076655775308609,-0.06754610687494278,0.7609637379646301,-0.3985850811004639,0.9017511606216431,-0.1672565937042236,0,0,0,-1,60921.94186941667,1,2,1561238382.110055,1561238131.651496,34,2.131246,0,0,28.10168,0,0,1561238341.922048,60919.607154,0,-1.054199,74.4063,2650659446,177292352,1,1,0.45,-160,-160,3
1561238382.326028,54,0,0,1561238381.875696,4.603091738540973,-74.06473486536156,2647.951,0.1050749,-1,17.18174743652344,200,-9999,1561238382.309885,8.483829498291016,20.38882446289062,-0.81695556640625,94.05971527099609,101.603401184082,15,60922.16534941667,-0.4241485595703125,0.869720458984375,-0.1648406982421875,60922.15521741667,0.05843747748349971,-0.1498949566906739,0.1177950771236218,60922.13837241667,46.19808959960938,20.74212646484375,-535.658203125,60922.16028341667,-0.9657459424680797,-1.172902463317425,-1.125298771861929,0.05781799182295799,-0.1574171930551529,0.1266530305147171,-0.01982414722442627,-0.03008192777633667,0.007176876068115234,1,-0.6108490228652954,-0.2082787305116653,-0.06567127257585526,0.76103276014328,-0.3972443342208862,0.9023963809013367,-0.1669668853282928,0,0,0,-1,60921.94186941667,1,2,1561238382.110055,1561238131.651496,34,2.131246,0,0,28.10168,0,0,1561238341.922048,60919.607154,0,-1.054199,74.4063,2650659446,177292352,1,1,0.45,-160,-160,3
1561238382.346199,55,0,0,1561238381.875696,4.603091738540973,-74.06473486536156,2647.951,0.1050749,-1,17.18174743652344,200,-9999,1561238382.336377,8.511573791503906,20.45631408691406,-0.81121826171875,93.79618072509766,101.3398666381836,15,60922.18561341667,-0.454803466796875,0.856719970703125,-0.1767120361328125,60922.17548141667,0.07766443528943578,-0.2020487055821316,0.1935628090847032,60922.15851341667,46.08511352539062,20.60212707519531,-535.6148071289062,60922.18054741667,-0.9597408630752888,-1.171303489913362,-1.127881677795109,0.08252174407243729,-0.2377967089414597,0.2208133488893509,-0.03881162405014038,-0.03911119699478149,-0.004646420478820801,1,-0.6108013391494751,-0.2087449133396149,-0.06307297199964523,0.7611629366874695,-0.3948279023170471,0.903506338596344,-0.1666945666074753,0,0,0,-1,60921.94186941667,1,2,1561238382.110055,1561238131.651496,34,2.131246,0,0,28.10168,0,0,1561238341.922048,60919.607154,0,-1.054199,74.4063,2650659446,177292352,1,1,0.45,-160,-160,3
1561238382.366546,56,0,0,1561238381.875696,4.603091738540973,-74.06473486536156,2647.951,0.1050749,-1,17.18174743652344,200,-9999,1561238382.362411,8.840476989746094,20.32266998291016,-0.94287109375,93.35377502441406,100.8974609375,15,60922.20587641667,-0.566497802734375,0.84698486328125,-0.1866912841796875,60922.19574541667,0.09488230436901607,-0.33854982620247,0.3111035543242224,60922.17862441667,46.47427368164062,20.82844543457031,-535.6978759765625,60922.20081041667,-0.9506925415442048,-1.169336811913084,-1.132381679451137,0.06627006828784943,-0.3607793748378754,0.3146895170211792,-0.1077972948551178,-0.0492856502532959,-0.01574492454528809,1,-0.6108962893486023,-0.2094409316778183,-0.05883618071675301,0.7612349390983582,-0.3907531201839447,0.9054257869720459,-0.1658804416656494,0,0,0,-1,60921.94186941667,1,2,1561238382.110055,1561238131.651496,34,2.131246,0,0,28.10168,0,0,1561238341.922048,60919.607154,0,-1.054199,74.4063,2650659446,177292352,1,1,0.45,-160,-160,3
1561238382.40195,57,0,0,1561238381.875696,4.603091738540973,-74.06473486536156,2647.951,0.1050749,-1,17.18174743652344,200,-9999,1561238382.386964,8.988910675048828,20.35287857055664,-1.04559326171875,93.05685424804688,100.6005401611328,15,60922.22614041667,-0.6805419921875,0.766204833984375,-0.1761932373046875,60922.21600841667,-0.109904130813717,-0.2236189788312284,0.2331301923483374,60922.19876641667,46.5318603515625,20.72122192382812,-536.0213623046875,60922.22104441667,-0.9480077813031291,-1.172675063735331,-1.137522136832863,-0.1997943669557571,-0.1707604229450226,0.1547810733318329,-0.2522271573543549,-0.09305131435394287,-0.02445679903030396,1,-0.6119676232337952,-0.2100270539522171,-0.05520272254943848,0.7604847550392151,-0.3870092928409576,0.9075959920883179,-0.1627685278654099,0,0,0,-1,60921.94186941667,1,2,1561238382.110055,1561238131.651496,34,2.131246,0,0,28.10168,0,0,1561238341.922048,60919.607154,0,-1.054199,74.4063,2650659446,177292352,1,1,0.45,-160,-160,3
1561238382.407141,58,0,0,1561238381.875696,4.603091738540973,-74.06473486536156,2647.951,0.1050749,-1,17.18174743652344,200,-9999,1561238382.386964,8.988910675048828,20.35287857055664,-1.04559326171875,93.05685424804688,100.6005401611328,15,60922.24640441667,-0.819671630859375,0.6773834228515625,-0.2401123046875,60922.23627241667,-0.3215016004843278,-0.02544037894519994,-0.1788200819222425,60922.21890741667,46.56037902832031,20.76918029785156,-535.8751220703125,60922.24130741667,-0.9623022285000451,-1.187143795730637,-1.138342621471212,-0.3598868250846863,-0.04762650653719902,-0.2675323486328125,-0.3748558759689331,-0.189586877822876,-0.03769153356552124,1,-0.6140725016593933,-0.210898831486702,-0.0559409111738205,0.7584901452064514,-0.3886329233646393,0.907940149307251,-0.1568732857704163,0,0,0,-1,60921.94186941667,1,2,1561238382.110055,1561238131.651496,34,2.131246,0,0,28.10168,0,0,1561238341.922048,60919.607154,0,-1.054199,74.4063,2650659446,177292352,1,1,0.45,-160,-160,3
1561238382.427257,59,0,0,1561238381.875696,4.603091738540973,-74.06473486536156,2647.951,0.1050749,-1,17.18174743652344,200,-9999,1561238382.411343,8.990650177001953,20.34888458251953,-0.63720703125,93.17195129394531,100.7156372070312,15,60922.26666741667,-0.8466033935546875,0.660308837890625,-0.3428192138671875,60922.25653641667,-0.4537073085824774,-0.1772671926906173,-0.3858994988035339,60922.23901841667,46.6082763671875,20.28558349609375,-535.7205200195312,60922.26157141667,-0.9875368493412475,-1.212772020764249,-1.134711031450341,-0.4647245705127716,-0.2961612343788147,-0.4015378355979919,-0.4433479905128479,-0.2189273834228516,-0.1470723748207092,1,-0.6166298985481262,-0.213913306593895,-0.05874742940068245,0.7553524971008301,-0.3956107497215271,0.9064121246337891,-0.1480173319578171,0,0,0,-1,60921.94186941667,1,2,1561238382.110055,1561238131.651496,34,2.131246,0,0,28.10168,0,0,1561238341.922048,60919.607154,0,-1.054199,74.4063,2650659446,177292352,1,1,0.45,-160,-160,3
1561238382.447579,60,0,0,1561238381.875696,4.603091738540973,-74.06473486536156,2647.951,0.1050749,-1,17.18174743652344,200,-9999,1561238382.437627,9.200855255126953,20.56425476074219,-0.54248046875,92.92005920410156,100.4637451171875,15,60922.28690141667,-0.9386138916015625,0.585662841796875,-0.455780029296875,60922.27676941667,-0.3958245675540412,-0.7299703242618472,-0.4022355952461889,60922.25916041667,46.92733764648438,20.55921936035156,-535.3350830078125,60922.28183541667,-1.013197666814579,-1.247885007185886,-1.129830701303804,-0.387101948261261,-0.9089154005050659,-0.4125153720378876,-0.473176121711731,-0.2877628207206726,-0.2592589855194092,1,-0.6193391084671021,-0.2206785678863525,-0.05911823362112045,0.7511492371559143,-0.4047535359859467,0.9043399691581726,-0.1354400813579559,0,0,0,-1,60921.94186941667,1,2,1561238382.110055,1561238131.651496,34,2.131246,0,0,28.10168,0,0,1561238341.922048,60919.607154,0,-1.054199,74.4063,2650659446,177292352,1,1,0.45,-160,-160,3
1561238382.485485,61,0,0,1561238381.875696,4.603091738540973,-74.06473486536156,2647.951,0.1050749,-1,17.18174743652344,200,-9999,1561238382.461815,9.195209503173828,20.54990005493164,-0.35650634765625,91.59908294677734,99.14276885986328,15,60922.30716441667,-1.179458618164062,0.6505889892578125,-0.49212646484375,60922.29703241667,-0.3547088224326348,-1.402827294734182,-0.4726426502490497,60922.27930241667,46.9686279296875,20.76364135742188,-535.1351928710938,60922.30209841667,-1.036288616728779,-1.293993698567033,-1.1232560830286,-0.3547237515449524,-1.578045845031738,-0.5203750133514404,-0.6242508292198181,-0.3139593601226807,-0.3781517744064331,1,-0.6218404173851013,-0.2327730804681778,-0.05558262020349503,0.7456821203231812,-0.4162764847278595,0.9015142917633057,-0.1182623729109764,0,0,0,-1,60921.94186941667,1,2,1561238382.110055,1561238131.651496,34,2.131246,0,0,28.10168,0,0,1561238341.922048,60919.607154,0,-1.054199,74.4063,2650659446,177292352,1,1,0.45,-160,-160,3
1561238382.488321,62,0,0,1561238381.875696,4.603091738540973,-74.06473486536156,2647.951,0.1050749,-1,17.18174743652344,200,-9999,1561238382.461815,9.195209503173828,20.54990005493164,-0.35650634765625,91.59908294677734,99.14276885986328,15,60922.32742841667,-1.520919799804688,0.8046722412109375,-0.5117950439453125,60922.31729641667,-0.3507716050770617,-2.016586856404895,-0.8992538926366249,60922.29941341667,46.78886413574219,21.16171264648438,-535.358154296875,60922.32236241667,-1.06071823466366,-1.354108633758334,-1.109987435465849,-0.3460334539413452,-2.071662902832031,-1.141337156295776,-0.8988099694252014,-0.1558859944343567,-0.4087916612625122,1,-0.6236296892166138,-0.2515642642974854,-0.05031182244420052,0.7384241223335266,-0.4342741370201111,0.8956931233406067,-0.0956028625369072,0,0,0,-1,60921.94186941667,1,2,1561238382.110055,1561238131.651496,34,2.131246,0,0,28.10168,0,0,1561238341.922048,60919.607154,0,-1.054199,74.4063,2650659446,177292352,1,1,0.45,-160,-160,3
1561238382.508353,63,0,0,1561238381.875696,4.603091738540973,-74.06473486536156,2647.951,0.1050749,-1,17.18174743652344,200,-9999,1561238382.48849,9.297985076904297,20.75660705566406,-0.38641357421875,89.28856658935547,96.83225250244141,15,60922.34769241667,-1.862213134765625,0.9192657470703125,-0.4572906494140625,60922.33756041667,-0.2534943199397373,-1.96635724140102,-2.167551338589345,60922.31955441667,46.87522888183594,21.09095764160156,-535.3792114257812,60922.34262641667,-1.087667128101062,-1.418830972656298,-1.074976291301096,-0.2351378202438354,-1.858907580375671,-2.52515983581543,-1.251653790473938,-0.01942569017410278,-0.4281325340270996,1,-0.621937096118927,-0.2778205275535583,-0.05184736475348473,0.7302888035774231,-0.470270037651062,0.8795788884162903,-0.07202000916004181,0,0,0,-1,60921.94186941667,1,2,1561238382.110055,1561238131.651496,34,2.131246,0,0,28.10168,0,0,1561238341.922048,60919.607154,0,-1.054199,74.4063,2650659446,177292352,1,1,0.45,-160,-160,3
1561238382.528863,64,0,0,1561238381.875696,4.603091738540973,-74.06473486536156,2647.951,0.1050749,-1,17.18174743652344,200,-9999,1561238382.512676,8.783561706542969,21.26924133300781,-0.5413818359375,87.06012725830078,94.60381317138672,15,60922.36795541667,-1.954986572265625,1.122833251953125,-0.4167327880859375,60922.35782341667,-0.243130628557694,-1.362480404219482,-3.122913774336195,60922.33966541667,46.48684692382812,21.52067565917969,-535.43896484375,60922.36288941667,-1.112090078792062,-1.471023746149222,-1.016239935576667,-0.2227583825588226,-1.280794382095337,-3.142117977142334,-1.403466463088989,0.155404806137085,-0.3770546317100525,1,-0.6158245205879211,-0.3074659109115601,-0.06466406583786011,0.7225257158279419,-0.5239474773406982,0.8501341342926025,-0.05244974792003632,0,0,0,-1,60921.94186941667,1,2,1561238382.110055,1561238131.651496,34,2.131246,0,0,28.10168,0,0,1561238341.922048,60919.607154,0,-1.054199,74.4063,2650659446,177292352,1,1,0.45,-160,-160,3
1561238382.57458,65,0,0,1561238381.875696,4.603091738540973,-74.06473486536156,2647.951,0.1050749,-1,17.18174743652344,200,-9999,1561238382.563701,6.508766174316406,22.33818054199219,-0.54742431640625,84.10375213623047,91.64743804931641,15,60922.38821941667,-1.937164306640625,1.31549072265625,-0.4393157958984375,60922.37808741667,-0.02637115374618263,-1.115446913084276,-3.020510703048795,60922.35980741667,45.651123046875,22.02116394042969,-535.5108642578125,60922.38315341667,-1.125032347599723,-1.505580207100729,-0.9544585736788946,0.05180421099066734,-1.100330114364624,-3.016514301300049,-1.369818449020386,0.4175806641578674,-0.3755975365638733,1,-0.6074329018592834,-0.3349470496177673,-0.08008004724979401,0.7158371210098267,-0.5768215656280518,0.8160008788108826,-0.03767148777842522,0,0,0,-1,60921.94186941667,1,2,1561238382.110055,1561238131.651496,34,2.131246,0,0,28.10168,0,0,1561238341.922048,60919.607154,0,-1.054199,74.4063,2650659446,177292352,1,1,0.45,-160,-160,3
1561238382.57733,66,0,0,1561238381.875696,4.603091738540973,-74.06473486536156,2647.951,0.1050749,-1,17.18174743652344,200,-9999,1561238382.563701,6.508766174316406,22.33818054199219,-0.54742431640625,84.10375213623047,91.64743804931641,15,60922.40848341667,-1.981201171875,1.518020629882812,-0.4766082763671875,60922.39835141667,0.3520555150385888,-1.226459984175902,-3.205258981557555,60922.37991841667,44.75389099121094,22.66047668457031,-535.5807495117188,60922.40341741667,-1.122489173268511,-1.52747618659294,-0.8907648619923901,0.4674714505672455,-1.321978330612183,-3.347178936004639,-1.319404244422913,0.6429792642593384,-0.4433796405792236,1,-0.5956180095672607,-0.3627991378307343,-0.09466607868671417,0.7103902697563171,-0.6282275915145874,0.7775529623031616,-0.02723194472491741,0,0,0,-1,60921.94186941667,1,2,1561238382.110055,1561238131.651496,34,2.131246,0,0,28.10168,0,0,1561238341.922048,60919.607154,0,-1.054199,74.4063,2650659446,177292352,1,1,0.45,-160,-160,3
1561238382.590586,67,0,0,1561238381.875696,4.603091738540973,-74.06473486536156,2647.951,0.1050749,-1,17.18174743652344,200,-9999,1561238382.563701,6.508766174316406,22.33818054199219,-0.54742431640625,84.10375213623047,91.64743804931641,15,60922.42874641667,-2.114547729492188,1.666702270507812,-0.4682159423828125,60922.41861441667,0.7332068639346204,-1.626926175193843,-4.013721185259525,60922.40006041667,43.49491882324219,23.06463623046875,-535.4802856445312,60922.42368041667,-1.106480542686991,-1.546374940583679,-0.8137417193798427,0.7674006819725037,-1.719655394554138,-4.303156852722168,-1.34450364112854,0.8606166243553162,-0.4589375257492065,1,-0.5779985785484314,-0.3969034850597382,-0.1101953834295273,0.7044445276260376,-0.6865785121917725,0.7268620133399963,-0.01677053421735764,0,0,0,-1,60921.94186941667,1,2,1561238382.110055,1561238131.651496,34,2.131246,0,0,28.10168,0,0,1561238341.922048,60919.607154,0,-1.054199,74.4063,2650659446,177292352,1,1,0.45,-160,-160,3
1561238382.609765,68,0,0,1561238381.875696,4.603091738540973,-74.06473486536156,2647.951,0.1050749,-1,17.18174743652344,200,-9999,1561238382.595117,5.447345733642578,22.76816177368164,-0.6495361328125,81.75010681152344,89.29379272460938,15,60922.44901041667,-2.212539672851562,1.710296630859375,-0.368560791015625,60922.43887841667,0.7760741701049719,-1.872534342513637,-5.190479126643496,60922.42020141667,41.81495666503906,23.55906677246094,-535.490478515625,60922.44394441667,-1.086411387977398,-1.56952729117357,-0.7143204814024099,0.7278258204460144,-1.885669350624084,-5.479914665222168,-1.433732271194458,1.052674770355225,-0.4273554086685181,1,-0.5539734959602356,-0.4389008581638336,-0.1311479061841965,0.6951830983161926,-0.7555378675460815,0.6551041603088379,-0.0009588049724698067,0,0,0,-1,60921.94186941667,1,2,1561238382.110055,1561238131.651496,34,2.131246,0,0,28.10168,0,0,1561238341.922048,60919.607154,0,-1.054199,74.4063,2650659446,177292352,1,1,0.45,-160,-160,3
1561238382.653019,69,0,0,1561238381.875696,4.603091738540973,-74.06473486536156,2647.951,0.1050749,-1,17.18174743652344,200,-9999,1561238382.640413,-0.9315719604492188,24.10330200195312,-1.23602294921875,348.8418273925781,356.3855285644531,15,60922.46927441667,-2.128173828125,1.763137817382812,-0.2313079833984375,60922.45914241667,0.4168763233388995,-1.723961911620297,-6.205064139763202,60922.44031241667,39.90443420410156,23.88282775878906,-536.0771484375,60922.46420841667,-1.07102561750148,-1.596353155880351,-0.5934627583278583,0.2858680784702301,-1.625716328620911,-6.379827976226807,-1.360150098800659,1.163329601287842,-0.3207603693008423,1,-0.5249602794647217,-0.4847772419452667,-0.1605491787195206,0.6809050440788269,-0.8287384510040283,0.5592350363731384,0.02118453942239285,0,0,0,-1,60921.94186941667,1,2,1561238382.110055,1561238131.651496,34,2.131246,0,0,28.10168,0,0,1561238341.922048,60919.607154,0,-1.054199,74.4063,2650659446,177292352,1,1,0.45,-160,-160,3
1561238382.65545,70,0,0,1561238381.875696,4.603091738540973,-74.06473486536156,2647.951,0.1050749,-1,17.18174743652344,200,-9999,1561238382.640413,-0.9315719604492188,24.10330200195312,-1.23602294921875,348.8418273925781,356.3855285644531,15,60922.48953741667,-1.982223510742188,1.750747680664062,-0.16943359375,60922.47940541667,0.0002689792700980031,-1.181058413912232,-6.656316546452844,60922.46045441667,37.41995239257812,24.47845458984375,-536.1717529296875,60922.48444141667,-1.063067129746645,-1.619391308542573,-0.4605450794719038,-0.03321800753474236,-0.9977198243141174,-6.674567699432373,-1.154426217079163,1.339392304420471,-0.2396664619445801,1,-0.4930193722248077,-0.5279102921485901,-0.1978964805603027,0.6626307964324951,-0.8947528600692749,0.4444364607334137,0.04351475462317467,0,0,0,-1,60921.94186941667,1,2,1561238382.110055,1561238131.651496,34,2.131246,0,0,28.10168,0,0,1561238341.922048,60919.607154,0,-1.054199,74.4063,2650659446,177292352,1,1,0.45,-160,-160,3
1561238382.670436,71,0,0,1561238381.875696,4.603091738540973,-74.06473486536156,2647.951,0.1050749,-1,17.18174743652344,200,-9999,1561238382.664537,-4.235252380371094,23.99027252197266,-0.964599609375,348.3014831542969,355.8451843261719,15,60922.50980141667,-1.791168212890625,1.692123413085938,-0.10089111328125,60922.49966941667,0.03616279812607696,-0.1034307851520614,-6.558322870982288,60922.50070741667,31.4573974609375,24.18180847167969,-535.6337890625,60922.50470541667,-1.055219353835601,-1.624954171023594,-0.3268777099877268,0.06359002739191055,0.2675423920154572,-6.477524280548096,-0.9622523784637451,1.404666185379028,-0.1772110462188721,1,-0.4573252201080322,-0.5625710487365723,-0.2395589351654053,0.6457390189170837,-0.9456608295440674,0.3210876286029816,0.05126508325338364,0,0,0,-1,60921.94186941667,1,2,1561238382.110055,1561238131.651496,34,2.131246,0,0,28.10168,0,0,1561238341.922048,60919.607154,0,-1.054199,74.4063,2650659446,177292352,1,1,0.45,-160,-160,3
1561238382.690893,72,0,0,1561238381.875696,4.603091738540973,-74.06473486536156,2647.951,0.1050749,-1,17.18174743652344,200,-9999,1561238382.664537,-4.235252380371094,23.99027252197266,-0.964599609375,348.3014831542969,355.8451843261719,15,60922.53006541667,-1.490325927734375,1.57745361328125,-0.0746002197265625,60922.51993341667,0.1850090019794776,1.447857620341896,-6.094887034937752,60922.52084841667,27.75723266601562,23.15199279785156,-535.943359375,60922.52496841667,-1.046473464923406,-1.601471316785041,-0.2008462916188591,0.2670288980007172,1.76619291305542,-5.928610324859619,-0.6582125425338745,1.43712854385376,-0.1222167015075684,1,-0.417358785867691,-0.5838137269020081,-0.2837780117988586,0.6359584331512451,-0.979436993598938,0.1994986832141876,0.0300536472350359,0,0,0,-1,60921.94186941667,1,2,1561238382.110055,1561238131.651496,34,2.131246,0,0,28.10168,0,0,1561238341.922048,60919.607154,0,-1.054199,74.4063,2650659446,177292352,1,1,0.45,-160,-160,3
1561238382.728437,73,0,0,1561238381.875696,4.603091738540973,-74.06473486536156,2647.951,0.1050749,-1,17.18174743652344,200,-9999,1561238382.693383,-10.71900749206543,22.49282455444336,-1.1514892578125,347.6614990234375,355.2052001953125,15,60922.55029841667,-1.192276000976562,1.47442626953125,-0.0203094482421875,60922.54016641667,0.6706699825851618,2.413205844912107,-5.451627637872231,60922.54095941667,25.29476928710938,22.12312316894531,-536.5399780273438,60922.54523241667,-1.03462759726171,-1.555127066348362,-0.08723078878640879,0.8112304210662842,2.50223708152771,-5.319573402404785,-0.347277820110321,1.456428408622742,-0.0249488353729248,1,-0.3736231625080109,-0.5938023328781128,-0.3255055248737335,0.6339169144630432,-0.9960755109786987,0.08712020516395569,-0.01560904365032911,0,0,0,-1,60921.94186941667,1,2,1561238382.110055,1561238131.651496,34,2.131246,0,0,28.10168,0,0,1561238341.922048,60919.607154,0,-1.054199,74.4063,2650659446,177292352,1,1,0.45,-160,-160,3
1561238382.731747,74,0,0,1561238381.875696,4.603091738540973,-74.06473486536156,2647.951,0.1050749,-1,17.18174743652344,200,-9999,1561238382.693383,-10.71900749206543,22.49282455444336,-1.1514892578125,347.6614990234375,355.2052001953125,15,60922.57056141667,-0.8493804931640625,1.267608642578125,0.0211944580078125,60922.56043041667,1.166655239788756,2.514740725684141,-5.002670343410019,60922.56110141667,23.09017944335938,21.04786682128906,-537.6107177734375,60922.56549641667,-1.017627359477669,-1.503554824768273,0.0170381287200275,1.209423303604126,2.438409328460693,-4.968183517456055,-0.04728072881698608,1.383309245109558,0.07107210159301758,1,-0.3272408843040466,-0.5994354486465454,-0.3609133064746857,0.6350843906402588,-0.9975953698158264,-0.01703730411827564,-0.06718109548091888,0,0,0,-1,60921.94186941667,1,2,1561238382.110055,1561238131.651496,34,2.131246,0,0,28.10168,0,0,1561238341.922048,60919.607154,0,-1.054199,74.4063,2650659446,177292352,1,1,0.45,-160,-160,3
1561238382.751176,75,0,0,1561238381.875696,4.603091738540973,-74.06473486536156,2647.951,0.1050749,-1,17.18174743652344,200,-9999,1561238382.737121,-13.11980247497559,21.41614151000977,-2.04705810546875,346.6611328125,354.204833984375,15,60922.59082541667,-0.382965087890625,1.075439453125,0.0062255859375,60922.58069341667,1.061648129587477,2.025214965704534,-5.011477949767129,60922.58124341667,21.02745056152344,19.81581115722656,-538.77294921875,60922.58575941667,-1.00404412088447,-1.460509596463649,0.1197871581117818,0.9213324189186096,1.827167272567749,-5.038809776306152,0.3723002672195435,1.29306960105896,0.1282565593719482,1,-0.2813209593296051,-0.6051621437072754,-0.3928546011447906,0.6326947212219238,-0.9868022799491882,-0.1195008903741837,-0.1092745959758759,0,0,0,-1,60922.58981841667,1,2,1561238382.758004,1561238131.651496,34,2.131246,0,0,28.10168,0,0,1561238341.922048,60919.607154,0,-1.054199,74.4063,2650659446,177292352,1,1,0.45,-160,-160,3
1561238382.771583,76,0,0,1561238381.875696,4.603091738540973,-74.06473486536156,2647.951,0.1050749,-1,17.18174743652344,200,-9999,1561238382.765537,-17.26239013671875,18.52506637573242,-4.34136962890625,345.4175415039062,352.9612426757812,15,60922.61108941667,-0.0573272705078125,0.768585205078125,-0.0872344970703125,60922.60095741667,0.4355083309573119,1.005423472653724,-4.978369531095264,60922.60135441667,19.25668334960938,17.66539001464844,-539.7088623046875,60922.60602341667,-1.004714892256801,-1.434173508128006,0.221929488955741,0.3038896918296814,0.6511638164520264,-4.927961349487305,0.7760008573532104,1.153278708457947,0.08883631229400635,1,-0.2413339912891388,-0.6126409769058228,-0.4244647324085236,0.6214971542358398,-0.9663847684860229,-0.2201122045516968,-0.1328578740358353,0,0,0,-1,60922.58981841667,1,2,1561238382.758004,1561238131.651496,34,2.131246,0,0,28.10168,0,0,1561238341.922048,60919.607154,0,-1.054199,74.4063,2650659446,177292352,1,1,0.45,-160,-160,3
1561238382.803303,77,0,0,1561238381.875696,4.603091738540973,-74.06473486536156,2647.951,0.1050749,-1,17.18174743652344,200,-9999,1561238382.7949,-20.57189750671387,14.74709224700928,-4.73974609375,346.0677490234375,353.6114501953125,15,60922.63135241667,0.061676025390625,0.510467529296875,-0.0566864013671875,60922.62122141667,0.1985503771742036,-0.3136631184478976,-4.705273013951998,60922.62149541667,17.40213012695312,15.62193298339844,-539.876953125,60922.62628741667,-1.014211250388253,-1.431640896201898,0.3185458104171152,0.2490701526403427,-0.5836925506591797,-4.604245662689209,0.9633083939552307,0.9383994340896606,0.0461421012878418,1,-0.2100545763969421,-0.6245099902153015,-0.452792227268219,0.6007026433944702,-0.9405117630958557,-0.3131858706474304,-0.1317286938428879,0,0,0,-1,60922.58981841667,1,2,1561238382.758004,1561238131.651496,34,2.131246,0,0,28.10168,0,0,1561238341.922048,60919.607154,0,-1.054199,74.4063,2650659446,177292352,1,1,0.45,-160,-160,3
1561238382.812187,78,0,0,1561238381.875696,4.603091738540973,-74.06473486536156,2647.951,0.1050749,-1,17.18174743652344,200,-9999,1561238382.7949,-20.57189750671387,14.74709224700928,-4.73974609375,346.0677490234375,353.6114501953125,15,60922.65161641667,0.1064300537109375,0.2794342041015625,-0.0057525634765625,60922.64148441667,0.5113343861462659,-1.048815155242712,-4.141463701686811,60922.64160641667,15.74801635742188,14.11566162109375,-539.4276733398438,60922.64655041667,-1.017383518496169,-1.449064363178346,0.4060912776167103,0.5966968536376953,-1.066590785980225,-3.945737838745117,0.9942556619644165,0.7940083742141724,0.07968008518218994,1,-0.1842876672744751,-0.6405155658721924,-0.4739345908164978,0.5754683613777161,-0.911873459815979,-0.3950215280056,-0.1115557327866554,0,0,0,-1,60922.58981841667,1,2,1561238382.758004,1561238131.651496,34,2.131246,0,0,28.10168,0,0,1561238341.922048,60919.607154,0,-1.054199,74.4063,2650659446,177292352,1,1,0.45,-160,-160,3
1561238382.832507,79,0,0,1561238381.875696,4.603091738540973,-74.06473486536156,2647.951,0.1050749,-1,17.18174743652344,200,-9999,1561238382.816333,-21.97787475585938,13.35171127319336,-4.58697509765625,345.9892883300781,353.5329895019531,15,60922.67188329167,0.1636962890625,0.1101226806640625,0.1207733154296875,60922.66175129167,0.8197593330460866,-0.7164079100945095,-3.151831176400603,60922.66175129167,15.17863464355469,12.31161499023438,-539.2758178710938,60922.66681729167,-1.009271232314836,-1.469914944297159,0.4767791376357308,0.8297005295753479,-0.5374494194984436,-2.828683853149414,1.014224767684937,0.6336787939071655,0.1475080847740173,1,-0.1616922467947006,-0.6550695896148682,-0.4871430397033691,0.5544646978378296,-0.8839604258537292,-0.458919882774353,-0.08947890251874924,0,0,0,-1,60922.58981841667,1,2,1561238382.758004,1561238131.651496,34,2.131246,0,0,28.10168,0,0,1561238341.922048,60919.607154,0,-1.054199,74.4063,2650659446,177292352,1,1,0.45,-160,-160,3
1561238382.852787,80,0,0,1561238381.875696,4.603091738540973,-74.06473486536156,2647.951,0.1050749,-1,17.18174743652344,200,-9999,1561238382.842906,-22.91601943969727,11.51041412353516,-4.3563232421875,345.1510925292969,352.6947937011719,15,60922.69214629167,0.2660980224609375,0.010406494140625,0.1775054931640625,60922.68201529167,0.6611142942778484,0.006899185119959275,-1.746976949760762,60922.68189329167,14.27439880371094,11.17225646972656,-538.998779296875,60922.68708129167,-0.9972737902457443,-1.479237637254673,0.5208440045018075,0.5499277114868164,0.1776524484157562,-1.387523770332336,1.08170759677887,0.5685963034629822,0.2333292961120605,1,-0.1444088518619537,-0.6629423499107361,-0.4937844276428223,0.5439029932022095,-0.8637663125991821,-0.4976124167442322,-0.07930704951286316,0,0,0,-1,60922.58981841667,1,2,1561238382.758004,1561238131.651496,34,2.131246,0,0,28.10168,0,0,1561238341.922048,60919.607154,0,-1.054199,74.4063,2650659446,177292352,1,1,0.45,-160,-160,3
1561238382.883103,81,0,0,1561238381.875696,4.603091738540973,-74.06473486536156,2647.951,0.1050749,-1,17.18174743652344,200,-9999,1561238382.868049,-23.31359672546387,10.64456939697266,-4.338134765625,344.6689453125,352.212646484375,15,60922.71241029167,0.2913665771484375,0.0115814208984375,0.201507568359375,60922.70227829167,0.2062061663598543,0.7157445166669708,-0.4505469353168803,60922.70203429167,14.22529602050781,10.88670349121094,-539.45849609375,60922.70734429167,-0.9914829994126571,-1.471450312494814,0.5367037412010477,0.107483983039856,0.8347885012626648,-0.2068978995084763,1.135861873626709,0.4956809282302856,0.281312882900238,1,-0.1349183022975922,-0.6627053022384644,-0.4965464472770691,0.5441142916679382,-0.8551612496376038,-0.5113059878349304,-0.08523746579885483,0,0,0,-1,60922.58981841667,1,2,1561238382.758004,1561238131.651496,34,2.131246,0,0,28.10168,0,0,1561238341.922048,60919.607154,0,-1.054199,74.4063,2650659446,177292352,1,1,0.45,-160,-160,3
1561238382.893052,82,0,0,1561238382.877377,4.603092268307257,-74.06474247682057,2647.828,0.09972794,-1,17.29241180419922,200,-9999,1561238382.868049,-23.31359672546387,10.64456939697266,-4.338134765625,344.6689453125,352.212646484375,15,60922.73267429167,0.3013916015625,-0.003875732421875,0.177337646484375,60922.72254229167,-0.02129516870849161,0.9108088159742607,0.39985419659944,60922.72217629167,14.51963806152344,10.84101867675781,-539.737548828125,60922.72760829167,-0.9906431139973544,-1.453705833298716,0.5326730275415492,-0.01686966046690941,0.8323655724525452,0.5628949403762817,1.162148952484131,0.5276437401771545,0.2840482592582703,1,-0.1316774040460587,-0.6575273871421814,-0.4965455830097198,0.5511454343795776,-0.8555541038513184,-0.5078378319740295,-0.1006375923752785,0,0,0,-1,60922.58981841667,1,2,1561238382.758004,1561238131.651496,34,2.131246,0,0,28.10168,0,0,1561238341.922048,60919.607154,0,-1.054199,74.4063,2650659446,177292352,1,1,0.45,-160,-160,3
1561238382.913425,83,0,0,1561238382.877377,4.603092268307257,-74.06474247682057,2647.828,0.09972794,-1,17.29241180419922,200,-9999,1561238382.896672,-23.13017272949219,10.55209159851074,-5.10614013671875,344.6015930175781,352.1452941894531,15,60922.75293829167,0.2005157470703125,-3.0517578125e-05,0.232208251953125,60922.74280629167,0.07211627179047371,0.5866832028678779,0.9437680976250813,60922.74228729167,14.47090148925781,11.17803955078125,-540.05224609375,60922.74787229167,-0.9874208025592637,-1.441855396051456,0.5162908047794496,0.0875406339764595,0.5217171311378479,1.039734244346619,1.116419553756714,0.4900262355804443,0.3117597699165344,1,-0.133575975894928,-0.6528748273849487,-0.4925797879695892,0.5597116947174072,-0.8624370098114014,-0.4936578273773193,-0.1118238344788551,0,0,0,-1,60922.58981841667,1,2,1561238382.758004,1561238131.651496,34,2.131246,0,0,28.10168,0,0,1561238341.922048,60919.607154,0,-1.054199,74.4063,2650659446,177292352,1,1,0.45,-160,-160,3
1561238382.933957,84,0,0,1561238382.877377,4.603092268307257,-74.06474247682057,2647.828,0.09972794,-1,17.29241180419922,200,-9999,1561238382.9177,-22.97692489624023,10.86478424072266,-5.12835693359375,344.2902526855469,351.8339538574219,15,60922.77320129167,0.11395263671875,0.02496337890625,0.256591796875,60922.76306929167,0.01288996599209252,0.4102410574829671,1.204794902391999,60922.76242829167,14.92129516601562,11.51152038574219,-540.1221313476562,60922.76810529167,-0.9828613930779608,-1.435143457509319,0.4932497213165946,-0.070720374584198,0.3685947060585022,1.197746515274048,1.025249242782593,0.4706830978393555,0.3759222030639648,1,-0.1387404352426529,-0.6489936113357544,-0.486298531293869,0.5683943033218384,-0.8727070689201355,-0.4734907448291779,-0.1191167682409286,0,0,0,-1,60922.58981841667,1,2,1561238382.758004,1561238131.651496,34,2.131246,0,0,28.10168,0,0,1561238341.922048,60919.607154,0,-1.054199,74.4063,2650659446,177292352,1,1,0.45,-160,-160,3
1561238382.963256,85,0,0,1561238382.877377,4.603092268307257,-74.06474247682057,2647.828,0.09972794,-1,17.29241180419922,200,-9999,1561238382.944127,-22.57293510437012,11.49277591705322,-5.3154296875,344.2268676757812,351.7705688476562,15,60922.79346529167,0.1283416748046875,-0.008392333984375,0.192901611328125,60922.78333329167,-0.3081575655263767,0.2239825003200243,1.067029046569982,60922.78257029167,15.35307312011719,12.30278015136719,-540.4468383789062,60922.78836829167,-0.984630284627359,-1.428925775642732,0.4702233504536368,-0.351989358663559,0.1364307105541229,1.01508903503418,0.9889713525772095,0.4811157882213593,0.3526878952980042,1,-0.1460942178964615,-0.6446952223777771,-0.481756716966629,0.5752695202827454,-0.882510781288147,-0.4530853927135468,-0.1260491013526917,0,0,0,-1,60922.58981841667,1,2,1561238382.758004,1561238131.651496,34,2.131246,0,0,28.10168,0,0,1561238341.922048,60919.607154,0,-1.054199,74.4063,2650659446,177292352,1,1,0.45,-160,-160,3
1561238382.974306,86,0,0,1561238382.877377,4.603092268307257,-74.06474247682057,2647.828,0.09972794,-1,17.29241180419922,200,-9999,1561238382.968317,-22.38325500488281,11.99538898468018,-5.59832763671875,344.587646484375,352.13134765625,15,60922.81369829167,0.0748291015625,0.07403564453125,0.162322998046875,60922.80356629167,-0.3722188402837968,-0.1905638233811649,0.9414439569417692,60922.80268129167,15.61669921875,12.72639465332031,-540.0952758789062,60922.80863229167,-0.9898582302738755,-1.428245043105315,0.4498845821301197,-0.3788070976734161,-0.2834315299987793,0.9565114974975586,1.017767190933228,0.4428114593029022,0.3041107058525085,1,-0.1549200713634491,-0.6418982744216919,-0.4784344434738159,0.578849732875824,-0.8913635015487671,-0.4348616003990173,-0.1279327571392059,0,0,0,-1,60922.58981841667,1,2,1561238382.758004,1561238131.651496,34,2.131246,0,0,28.10168,0,0,1561238341.922048,60919.607154,0,-1.054199,74.4063,2650659446,177292352,1,1,0.45,-160,-160,3
1561238382.994718,87,0,0,1561238382.877377,4.603092268307257,-74.06474247682057,2647.828,0.09972794,-1,17.29241180419922,200,-9999,1561238382.968317,-22.38325500488281,11.99538898468018,-5.59832763671875,344.587646484375,352.13134765625,15,60922.83396229167,-0.0974273681640625,0.0834503173828125,0.146392822265625,60922.82383029167,-0.3943108267904401,-0.3716065795491876,1.180746824064692,60922.82282329167,15.84255981445312,13.276123046875,-540.0633544921875,60922.82889629167,-0.9951003004805048,-1.433151272378225,0.426854793796375,-0.4048834443092346,-0.3305609524250031,1.250803589820862,0.889715313911438,0.5205162167549133,0.2719329595565796,1,-0.1660113334655762,-0.6403051018714905,-0.4739784300327301,0.5812005400657654,-0.9016629457473755,-0.4140098690986633,-0.1248992308974266,0,0,0,-1,60922.58981841667,1,2,1561238382.758004,1561238131.651496,34,2.131246,0,0,28.10168,0,0,1561238341.922048,60919.607154,0,-1.054199,74.4063,2650659446,177292352,1,1,0.45,-160,-160,3
1561238383.014802,88,0,0,1561238382.877377,4.603092268307257,-74.06474247682057,2647.828,0.09972794,-1,17.29241180419922,200,-9999,1561238382.994721,-21.54611778259277,12.92879104614258,-5.15325927734375,344.9673767089844,352.5110778808594,15,60922.85422529167,-0.17657470703125,-0.0553436279296875,0.0857391357421875,60922.84409429167,-0.5197185498900534,0.05236733441088211,1.317788832702426,60922.84296429167,16.17715454101562,13.79794311523438,-539.7052612304688,60922.84915929167,-1.001589920760334,-1.432335506241046,0.3994734561045661,-0.5915395617485046,0.163756862282753,1.328232884407043,0.7657052278518677,0.4201222658157349,0.2625585198402405,1,-0.1776455342769623,-0.6362908482551575,-0.4692308604717255,0.5860020518302917,-0.9124490022659302,-0.3889333009719849,-0.1271520406007767,0,0,0,-1,60922.58981841667,1,2,1561238382.758004,1561238131.651496,34,2.131246,0,0,28.10168,0,0,1561238341.922048,60919.607154,0,-1.054199,74.4063,2650659446,177292352,1,1,0.45,-160,-160,3
1561238383.049669,89,0,0,1561238382.877377,4.603092268307257,-74.06474247682057,2647.828,0.09972794,-1,17.29241180419922,200,-9999,1561238383.045461,-20.93395042419434,14.4179220199585,-4.71685791015625,346.1234741210938,353.6671752929688,15,60922.87448929167,-0.1877288818359375,-0.0720977783203125,0.032623291015625,60922.86435729167,-0.7196508413538991,0.1521043151310036,1.493313785407913,60922.86310629167,16.49093627929688,14.77552795410156,-539.6141357421875,60922.86942329167,-1.011913094765824,-1.424961331429154,0.3688057726430518,-0.6966670751571655,-0.02967091649770737,1.61948037147522,0.7455043792724609,0.2722296714782715,0.1925082206726074,1,-0.1900755017995834,-0.629362940788269,-0.4653799533843994,0.5926172137260437,-0.9228572845458984,-0.360501766204834,-0.1355471909046173,0,0,0,-1,60922.58981841667,1,2,1561238382.758004,1561238131.651496,34,2.131246,0,0,28.10168,0,0,1561238341.922048,60919.607154,0,-1.054199,74.4063,2650659446,177292352,1,1,0.45,-160,-160,3
1561238383.055329,90,0,0,1561238382.877377,4.603092268307257,-74.06474247682057,2647.828,0.09972794,-1,17.29241180419922,200,-9999,1561238383.045461,-20.93395042419434,14.4179220199585,-4.71685791015625,346.1234741210938,353.6671752929688,15,60922.89475329167,-0.4309539794921875,-0.0035552978515625,0.027984619140625,60922.88462129167,-0.3815905041597856,-0.724723364282173,2.103238395108912,60922.88321729167,17.24368286132812,15.45716857910156,-539.4151000976562,60922.88968729167,-1.016575359222083,-1.433385090103926,0.3284717445877608,-0.2432700395584106,-0.8342017531394958,2.205758810043335,0.6626966595649719,0.2712968289852142,0.1521777510643005,1,-0.2077063322067261,-0.6261231303215027,-0.4558354914188385,0.5975297689437866,-0.9376142621040344,-0.3225968480110168,-0.1296558082103729,0,0,0,-1,60922.58981841667,1,2,1561238382.758004,1561238131.651496,34,2.131246,0,0,28.10168,0,0,1561238341.922048,60919.607154,0,-1.054199,74.4063,2650659446,177292352,1,1,0.45,-160,-160,3
1561238383.075618,91,0,0,1561238382.877377,4.603092268307257,-74.06474247682057,2647.828,0.09972794,-1,17.29241180419922,200,-9999,1561238383.069703,-20.39885520935059,15.54945468902588,-4.4368896484375,345.7171936035156,353.2608947753906,15,60922.91501629167,-0.761688232421875,-0.0057830810546875,0.09234619140625,60922.90488529167,0.1987767458668603,-0.782464158824508,2.330149307363588,60922.90335929167,17.59626770019531,16.20806884765625,-539.07421875,60922.90995029167,-1.009388738880802,-1.452116084586833,0.2825048765637412,0.2839828431606293,-0.6822284460067749,2.316909790039062,0.3485022783279419,0.3012230396270752,0.1652373671531677,1,-0.2256862819194794,-0.6262679100036621,-0.4398047924041748,0.60284823179245,-0.9536048173904419,-0.2787621021270752,-0.1137084141373634,0,0,0,-1,60922.58981841667,1,2,1561238382.758004,1561238131.651496,34,2.131246,0,0,28.10168,0,0,1561238341.922048,60919.607154,0,-1.054199,74.4063,2650659446,177292352,1,1,0.45,-160,-160,3
1561238383.096218,92,0,0,1561238382.877377,4.603092268307257,-74.06474247682057,2647.828,0.09972794,-1,17.29241180419922,200,-9999,1561238383.069703,-20.39885520935059,15.54945468902588,-4.4368896484375,345.7171936035156,353.2608947753906,15,60922.93528029167,-0.931549072265625,-0.0561676025390625,0.1209716796875,60922.92514829167,0.1928602671891403,-0.221654098578968,2.126098170957826,60922.92350029167,18.40608215332031,17.43353271484375,-539.1581420898438,60922.93021429167,-0.999232745556704,-1.462595763148196,0.2388614693870778,0.07007349282503128,-0.08520688116550446,2.014198064804077,0.09489327669143677,0.2004485130310059,0.2253000736236572,1,-0.2398315817117691,-0.6245150566101074,-0.4238941371440887,0.6105533838272095,-0.9659259915351868,-0.2365965694189072,-0.1049235165119171,0,0,0,-1,60922.58981841667,1,2,1561238382.758004,1561238131.651496,34,2.131246,0,0,28.10168,0,0,1561238341.922048,60919.607154,0,-1.054199,74.4063,2650659446,177292352,1,1,0.45,-160,-160,3
1561238383.132256,93,0,0,1561238382.877377,4.603092268307257,-74.06474247682057,2647.828,0.09972794,-1,17.29241180419922,200,-9999,1561238383.120309,-18.37469482421875,17.90331268310547,-3.919189453125,345.1897277832031,352.7334289550781,15,60922.95554429167,-0.9786834716796875,-0.0625,0.077392578125,60922.94541229167,-0.2720229969078546,0.02370399791446828,1.717842766383622,60922.94361129167,19.23051452636719,18.22332763671875,-539.0051879882812,60922.95047829167,-0.9985247662300001,-1.46278097293266,0.2019833831672166,-0.3260264694690704,-0.07980146259069443,1.636346936225891,0.01084154844284058,0.1363580226898193,0.2115708589553833,1,-0.2522730529308319,-0.6193152666091919,-0.413631945848465,0.617831289768219,-0.9739611148834229,-0.2006127834320068,-0.1056138128042221,0,0,0,-1,60922.58981841667,1,2,1561238382.758004,1561238131.651496,34,2.131246,0,0,28.10168,0,0,1561238341.922048,60919.607154,0,-1.054199,74.4063,2650659446,177292352,1,1,0.45,-160,-160,3
1561238383.136999,94,0,0,1561238382.877377,4.603092268307257,-74.06474247682057,2647.828,0.09972794,-1,17.29241180419922,200,-9999,1561238383.120309,-18.37469482421875,17.90331268310547,-3.919189453125,345.1897277832031,352.7334289550781,15,60922.97580729167,-1.070343017578125,-0.0431976318359375,0.0752410888671875,60922.96567629167,-0.2133618138927882,-0.6889009181434081,1.491425604195047,60922.96375329167,19.4898681640625,18.8896484375,-538.822998046875,60922.97074129167,-1.00073416897051,-1.47195264567448,0.1705098546873562,-0.1385926306247711,-0.8609308004379272,1.464015483856201,-0.01540577411651611,0.1115488409996033,0.1567915678024292,1,-0.2655150294303894,-0.6171514391899109,-0.4044412672519684,0.6205264329910278,-0.9806880354881287,-0.1696848273277283,-0.09725174307823181,0,0,0,-1,60922.58981841667,1,2,1561238382.758004,1561238131.651496,34,2.131246,0,0,28.10168,0,0,1561238341.922048,60920.555308,0,-0.9934082,74.40573,2650659446,177292352,1,1,0.45,-160,-160,3
1561238383.156736,95,0,0,1561238382.877377,4.603092268307257,-74.06474247682057,2647.828,0.09972794,-1,17.29241180419922,200,-9999,1561238383.146801,-18.09781646728516,18.56051635742188,-3.80279541015625,345.1992797851562,352.7429809570312,15,60922.99607129167,-1.238372802734375,-0.0214691162109375,0.1200714111328125,60922.98593929167,-0.1194267959235134,-0.8919917186600879,1.41973969923673,60922.98386429167,19.93606567382812,19.1866455078125,-538.73193359375,60922.99100529167,-1.000484148179203,-1.49034134863853,0.1414070282831643,-0.2136727422475815,-0.7565879225730896,1.412011384963989,-0.1768494248390198,0.1221831738948822,0.1806097626686096,1,-0.2788688838481903,-0.6184247136116028,-0.3936738967895508,0.6203257441520691,-0.9868163466453552,-0.1409362405538559,-0.07956603914499283,0,0,0,-1,60922.58981841667,1,2,1561238382.758004,1561238131.651496,34,2.131246,0,0,28.10168,0,0,1561238341.922048,60920.555308,0,-0.9934082,74.40573,2650659446,177292352,1,1,0.45,-160,-160,3
1561238383.176877,96,0,0,1561238382.877377,4.603092268307257,-74.06474247682057,2647.828,0.09972794,-1,17.29241180419922,200,-9999,1561238383.146801,-18.09781646728516,18.56051635742188,-3.80279541015625,345.1992797851562,352.7429809570312,15,60923.01633529167,-1.361587524414062,-0.0204925537109375,0.0788116455078125,60923.00620329167,-0.630345728939727,-0.1527362832576794,1.387963660058232,60923.00400629167,20.69499206542969,19.95863342285156,-538.2750244140625,60923.01126929167,-1.00823160288307,-1.496856422693532,0.112478327103023,-0.7310399413108826,-0.01506747212260962,1.356504678726196,-0.3112038373947144,0.06208565831184387,0.1935839653015137,1,-0.2921143472194672,-0.6147896647453308,-0.3868793547153473,0.6221151947975159,-0.9909660220146179,-0.1122413128614426,-0.07340575009584427,0,0,0,-1,60922.58981841667,1,2,1561238382.758004,1561238131.651496,34,2.131246,0,0,28.10168,0,0,1561238341.922048,60920.555308,0,-0.9934082,74.40573,2650659446,177292352,1,1,0.45,-160,-160,3
1561238383.201178,97,0,0,1561238382.877377,4.603092268307257,-74.06474247682057,2647.828,0.09972794,-1,17.29241180419922,200,-9999,1561238383.197784,-16.46917915344238,20.17982864379883,-2.96820068359375,346.4620361328125,354.0057373046875,15,60923.03659829167,-1.428482055664062,0.1038665771484375,-0.0396270751953125,60923.02646729167,-0.6338483184053991,-0.08282990253975347,1.229352709751947,60923.02414729167,21.11286926269531,20.47911071777344,-538.0406494140625,60923.03150229167,-1.020258552200763,-1.496472577077991,0.08580228329499053,-0.5212097764015198,-0.214257538318634,1.161129832267761,-0.4054466485977173,0.1289404630661011,0.0914992094039917,1,-0.3044708371162415,-0.6085280776023865,-0.3829973340034485,0.6247432827949524,-0.9935706853866577,-0.08569703996181488,-0.07398217916488647,0,0,0,-1,60922.58981841667,1,2,1561238382.758004,1561238131.651496,34,2.131246,0,0,28.10168,0,0,1561238341.922048,60920.555308,0,-0.9934082,74.40573,2650659446,177292352,1,1,0.45,-160,-160,3
1561238383.217344,98,0,0,1561238382.877377,4.603092268307257,-74.06474247682057,2647.828,0.09972794,-1,17.29241180419922,200,-9999,1561238383.197784,-16.46917915344238,20.17982864379883,-2.96820068359375,346.4620361328125,354.0057373046875,15,60923.05686229167,-1.476272583007812,0.13311767578125,-0.1084442138671875,60923.04673029167,-0.1430213379171794,-0.5030783204509113,0.8666016734594904,60923.04425829167,21.43940734863281,20.91348266601562,-537.5407104492188,60923.05176629167,-1.024431784088797,-1.504645400809616,0.06580749478440716,-0.04147353768348694,-0.5351002812385559,0.7398896813392639,-0.4644910097122192,0.2017616033554077,-0.03146779537200928,1,-0.3137924373149872,-0.6070868968963623,-0.377232551574707,0.6250403523445129,-0.9956530332565308,-0.06576000899076462,-0.06595961004495621,0,0,0,-1,60922.58981841667,1,2,1561238382.758004,1561238131.651496,34,2.131246,0,0,28.10168,0,0,1561238341.922048,60920.555308,0,-0.9934082,74.40573,2650659446,177292352,1,1,0.45,-160,-160,3
1561238383.237778,99,0,0,1561238382.877377,4.603092268307257,-74.06474247682057,2647.828,0.09972794,-1,17.29241180419922,200,-9999,1561238383.221554,-16.05049896240234,20.44155883789062,-2.62579345703125,346.5545349121094,354.0982360839844,15,60923.07709529167,-1.451202392578125,0.0408477783203125,-0.0741424560546875,60923.06699429167,0.08862201159456681,-0.4923732118171198,0.4424429361197692,60923.06440029167,21.83375549316406,21.00541687011719,-537.4707641601562,60923.07202929167,-1.022738599818331,-1.515134657744063,0.05506679262980078,0.06006826460361481,-0.4355691373348236,0.3748746812343597,-0.4732464551925659,0.1423802673816681,-0.04984384775161743,1,-0.3187052309513092,-0.6088125109672546,-0.3718960285186768,0.6240734457969666,-0.9969378709793091,-0.05503896623849869,-0.05554860457777977,0,0,0,-1,60922.58981841667,1,2,1561238382.758004,1561238131.651496,34,2.131246,0,0,28.10168,0,0,1561238341.922048,60920.555308,0,-0.9934082,74.40573,2650659446,177292352,1,1,0.45,-160,-160,3
1561238383.258507,100,0,0,1561238382.877377,4.603092268307257,-74.06474247682057,2647.828,0.09972794,-1,17.29241180419922,200,-9999,1561238383.247991,-15.98972702026367,20.75271987915039,-2.59014892578125,346.4953002929688,354.0390014648438,15,60923.09735929167,-1.392471313476562,0.0573272705078125,-0.03192138671875,60923.08722729167,-0.09004440593277813,-0.1978046920689814,0.2760627459653958,60923.08451129167,21.83633422851562,20.88719177246094,-537.447509765625,60923.09229329167,-1.023207203387066,-1.52079125936091,0.04892645954174011,-0.1293410807847977,-0.1636486947536469,0.2558364570140839,-0.4192695021629333,0.08844247460365295,0.01220470666885376,1,-0.3218648135662079,-0.6094594597816467,-0.3693228363990784,0.6233481168746948,-0.9975548386573792,-0.04890694096684456,-0.04992441833019257,0,0,0,-1,60922.58981841667,1,2,1561238382.758004,1561238131.651496,34,2.131246,0,0,28.10168,0,0,1561238341.922048,60920.555308,0,-0.9934082,74.40573,2650659446,177292352,1,1,0.45,-160,-160,3
1561238383.286528,101,0,0,1561238382.877377,4.603092268307257,-74.06474247682057,2647.828,0.09972794,-1,17.29241180419922,200,-9999,1561238383.276675,-15.7209415435791,20.80500793457031,-2.6097412109375,346.6246032714844,354.1683044433594,15,60923.11762329167,-1.340118408203125,0.0762481689453125,-0.0341339111328125,60923.10749129167,-0.06358882998003999,-0.1047919267852009,0.1788925199038927,60923.10465329167,22.01051330566406,21.06622314453125,-537.3258666992188,60923.11255729167,-1.024943808366443,-1.523263418170968,0.04467820596456376,-0.01677352003753185,-0.08507212251424789,0.1529343128204346,-0.3699849843978882,0.1156472265720367,0.01087701320648193,1,-0.3242070078849792,-0.6092257499694824,-0.3682056069374084,0.6230237483978271,-0.9978739023208618,-0.04466334357857704,-0.04746760427951813,0,0,0,-1,60922.58981841667,1,2,1561238382.758004,1561238131.651496,34,2.131246,0,0,28.10168,0,0,1561238341.922048,60920.555308,0,-0.9934082,74.40573,2650659446,177292352,1,1,0.45,-160,-160,3
1561238383.298638,102,0,0,1561238382.877377,4.603092268307257,-74.06474247682057,2647.828,0.09972794,-1,17.29241180419922,200,-9999,1561238383.276675,-15.7209415435791,20.80500793457031,-2.6097412109375,346.6246032714844,354.1683044433594,15,60923.13788629167,-1.2696533203125,0.0458984375,-0.029693603515625,60923.12775429167,0.07284624424526442,0.1195005654857085,0.1258564657432917,60923.12479429167,22.0335693359375,21.26811218261719,-537.2266845703125,60923.13282029167,-1.023946299147484,-1.522507442024641,0.04208163094361728,0.06193514168262482,0.2048904597759247,0.1189057603478432,-0.3117117881774902,0.1087348461151123,0.01729786396026611,1,-0.324592798948288,-0.6087083220481873,-0.3672466278076172,0.6238939166069031,-0.9979500770568848,-0.042069211602211,-0.04822738841176033,0,0,0,-1,60922.58981841667,1,2,1561238382.758004,1561238131.651496,34,2.131246,0,0,28.10168,0,0,1561238341.922048,60920.555308,0,-0.9934082,74.40573,2650659446,177292352,1,1,0.45,-160,-160,3
1561238383.319242,103,0,0,1561238382.877377,4.603092268307257,-74.06474247682057,2647.828,0.09972794,-1,17.29241180419922,200,-9999,1561238383.298653,-15.61830139160156,20.73498153686523,-2.59967041015625,346.5549621582031,354.0986633300781,15,60923.15815029167,-1.191726684570312,0.0140533447265625,-0.046051025390625,60923.14801829167,-0.008255266747027623,0.461054437397788,0.1137100543275493,60923.14490529167,22.02719116210938,21.41395568847656,-537.446533203125,60923.15308429167,-1.023558945930093,-1.514994749741013,0.03982444392037209,-0.02400586754083633,0.4935614466667175,0.1178146600723267,-0.2325270175933838,0.06418219208717346,0.01764243841171265,1,-0.3238161206245422,-0.6060354113578796,-0.3676742911338806,0.6266416907310486,-0.9976518154144287,-0.03981391713023186,-0.05572840198874474,0,0,0,-1,60922.58981841667,1,2,1561238382.758004,1561238131.651496,34,2.131246,0,0,28.10168,0,0,1561238341.922048,60920.555308,0,-0.9934082,74.40573,2650659446,177292352,1,1,0.45,-160,-160,3
1561238383.339096,104,0,0,1561238382.877377,4.603092268307257,-74.06474247682057,2647.828,0.09972794,-1,17.29241180419922,200,-9999,1561238383.323196,-15.63396263122559,20.92220687866211,-2.4989013671875,346.5617065429688,354.1054077148438,15,60923.17841429167,-1.135116577148438,0.018951416015625,-0.088897705078125,60923.16828229167,0.004702343536752911,0.3799465348188797,0.1238958465487753,60923.16504729167,21.80804443359375,21.30264282226562,-537.5010986328125,60923.17334829167,-1.023634036660056,-1.50638823243714,0.03736867321486305,0.03913368657231331,0.2812100052833557,0.1093878895044327,-0.1598592400550842,0.05092504620552063,-0.0008363723754882812,1,-0.3230423033237457,-0.6028966307640076,-0.3683643639087677,0.6296563744544983,-0.9972299337387085,-0.03735997527837753,-0.06431864947080612,0,0,0,-1,60922.58981841667,1,2,1561238382.758004,1561238131.651496,34,2.131246,0,0,28.10168,0,0,1561238341.922048,60920.555308,0,-0.9934082,74.40573,2650659446,177292352,1,1,0.45,-160,-160,3
1561238383.371165,105,0,0,1561238382.877377,4.603092268307257,-74.06474247682057,2647.828,0.09972794,-1,17.29241180419922,200,-9999,1561238383.349912,-15.6425609588623,20.90918731689453,-2.5809326171875,346.4529724121094,353.9966735839844,15,60923.19867729167,-1.129608154296875,0.0320281982421875,-0.0950927734375,60923.18854529167,0.1959860193605663,-0.02648327282807497,0.07281721578938256,60923.18518829167,22.07853698730469,21.28163146972656,-537.419189453125,60923.19361129167,-1.020707584756938,-1.504995498034999,0.03589844363235824,0.2407799959182739,-0.09854905307292938,0.05198957771062851,-0.1292716860771179,0.06280723214149475,-0.03571414947509766,1,-0.3223764896392822,-0.6026756167411804,-0.3672333657741547,0.630868673324585,-0.9971931576728821,-0.03589073196053505,-0.06571099907159805,0,0,0,-1,60922.58981841667,1,2,1561238382.758004,1561238131.651496,34,2.131246,0,0,28.10168,0,0,1561238341.922048,60920.555308,0,-0.9934082,74.40573,2650659446,177292352,1,1,0.45,-160,-160,3
1561238383.379578,106,0,0,1561238382.877377,4.603092268307257,-74.06474247682057,2647.828,0.09972794,-1,17.29241180419922,200,-9999,1561238383.375256,-15.40800476074219,20.92657852172852,-2.760498046875,346.0553894042969,353.5990905761719,15,60923.21894129167,-1.117279052734375,-0.005706787109375,-0.0460662841796875,60923.20880929167,0.310754147589204,-0.1122375925608445,-0.01866849292534645,60923.20530029167,22.28164672851562,21.26214599609375,-537.531982421875,60923.21387529167,-1.014847956065827,-1.507618424235629,0.03617603382199357,0.2943766117095947,-0.08526520431041718,-0.04793249070644379,-0.130531907081604,0.05780509114265442,-0.01171928644180298,1,-0.3209990561008453,-0.6044934391975403,-0.3650448024272919,0.6311019062995911,-0.9973520040512085,-0.03616814315319061,-0.06309457868337631,0,0,0,-1,60922.58981841667,1,2,1561238382.758004,1561238131.651496,34,2.131246,0,0,28.10168,0,0,1561238341.922048,60920.555308,0,-0.9934082,74.40573,2650659446,177292352,1,1,0.45,-160,-160,3
1561238383.399842,107,0,0,1561238382.877377,4.603092268307257,-74.06474247682057,2647.828,0.09972794,-1,17.29241180419922,200,-9999,1561238383.375256,-15.40800476074219,20.92657852172852,-2.760498046875,346.0553894042969,353.5990905761719,15,60923.23920529167,-1.081100463867188,-0.0478515625,-0.0167694091796875,60923.22907329167,0.1347008237234448,0.08293563003502961,-0.07322414680394668,60923.22544129167,22.44252014160156,21.29768371582031,-537.7760009765625,60923.23413929167,-1.011054333647462,-1.507351069307145,0.03783221072917674,0.06149465590715408,0.1217430979013443,-0.0673179104924202,-0.1065621376037598,0.006329059600830078,0.04042339324951172,1,-0.3192699551582336,-0.6052999496459961,-0.3643801212310791,0.6315898895263672,-0.9972739219665527,-0.03782318532466888,-0.06335733085870743,0,0,0,-1,60922.58981841667,1,2,1561238382.758004,1561238131.651496,34,2.131246,0,0,28.10168,0,0,1561238341.922048,60920.555308,0,-0.9934082,74.40573,2650659446,177292352,1,1,0.45,-160,-160,3
1561238383.420047,108,0,0,1561238382.877377,4.603092268307257,-74.06474247682057,2647.828,0.09972794,-1,17.29241180419922,200,-9999,1561238383.399853,-15.26843643188477,20.91184616088867,-2.93170166015625,345.8345031738281,353.3782043457031,15,60923.25946829167,-1.064666748046875,-0.0393218994140625,-0.044708251953125,60923.24933629167,-0.07948976590057609,0.1598772834046179,-0.04048857068469267,60923.24555229167,22.32919311523438,21.31173706054688,-537.8153076171875,60923.25440229167,-1.011880147344407,-1.504288355300631,0.03879578989372774,-0.0967080295085907,0.1372759938240051,-0.05291926115751266,-0.06845235824584961,-0.01274284720420837,0.04176598787307739,1,-0.3186503648757935,-0.604365348815918,-0.3654143512248993,0.6321999430656433,-0.9970383048057556,-0.03878605738282204,-0.06640893965959549,0,0,0,-1,60922.58981841667,1,2,1561238382.758004,1561238131.651496,34,2.131246,0,0,28.10168,0,0,1561238341.922048,60920.555308,0,-0.9934082,74.40573,2650659446,177292352,1,1,0.45,-160,-160,3
1561238383.455167,109,0,0,1561238382.877377,4.603092268307257,-74.06474247682057,2647.828,0.09972794,-1,17.29241180419922,200,-9999,1561238383.450819,-15.43302345275879,20.8915901184082,-2.8466796875,345.9344177246094,353.4781188964844,15,60923.27973229167,-1.070449829101562,-0.031036376953125,-0.0624542236328125,60923.26960029167,-0.02908944227082651,0.09851592136032018,-0.09588391925499487,60923.26569429167,22.19189453125,21.31314086914062,-537.62939453125,60923.27466629167,-1.01318129015582,-1.502070079066748,0.04037739240879106,0.003391135716810822,0.08603863418102264,-0.1078831776976585,-0.07092291116714478,0.008124589920043945,0.008969545364379883,1,-0.3181269764900208,-0.6037276983261108,-0.3666454255580902,0.63236004114151,-0.996826171875,-0.04036642238497734,-0.06861618906259537,0,0,0,-1,60922.58981841667,1,2,1561238382.758004,1561238131.651496,34,2.131246,0,0,28.10168,0,0,1561238341.922048,60920.555308,0,-0.9934082,74.40573,2650659446,177292352,1,1,0.45,-160,-160,3
1561238383.460671,110,0,0,1561238382.877377,4.603092268307257,-74.06474247682057,2647.828,0.09972794,-1,17.29241180419922,200,-9999,1561238383.450819,-15.43302345275879,20.8915901184082,-2.8466796875,345.9344177246094,353.4781188964844,15,60923.29999629167,-1.055221557617188,-0.032257080078125,-0.05145263671875,60923.28986429167,0.07622526303635696,0.1604839515009379,-0.09944909300628395,60923.28583529167,22.24870300292969,21.0096435546875,-537.8670654296875,60923.29489929167,-1.012259158138769,-1.499547433960631,0.0425785757120254,0.0729004368185997,0.2149942219257355,-0.09668911248445511,-0.06923705339431763,0.01200234889984131,0.01155376434326172,1,-0.3166743814945221,-0.6034528017044067,-0.367402195930481,0.6329120397567749,-0.9965587854385376,-0.04256571084260941,-0.07112410664558411,0,0,0,-1,60922.58981841667,1,2,1561238382.758004,1561238131.651496,34,2.131246,0,0,28.10168,0,0,1561238341.922048,60920.555308,0,-0.9934082,74.40573,2650659446,177292352,1,1,0.45,-160,-160,3
1561238383.480908,111,0,0,1561238382.877377,4.603092268307257,-74.06474247682057,2647.828,0.09972794,-1,17.29241180419922,200,-9999,1561238383.474918,-15.45709609985352,20.64435958862305,-2.8494873046875,345.883544921875,353.42724609375,15,60923.32025929167,-1.001541137695312,-0.061798095703125,-0.0634002685546875,60923.31012729167,0.01770043386910265,0.3959598561374172,-0.09068942354879532,60923.30594729167,22.24876403808594,20.90803527832031,-537.996826171875,60923.31516329167,-1.011664487247102,-1.492862711841513,0.04453567053236698,-0.0006930881645530462,0.4219556748867035,-0.09467682987451553,-0.03855437040328979,0.000636667013168335,0.02440232038497925,1,-0.3146305084228516,-0.601763129234314,-0.3688433170318604,0.6346995234489441,-0.9959762692451477,-0.04452094808220863,-0.07777755707502365,0,0,0,-1,60922.58981841667,1,2,1561238382.758004,1561238131.651496,34,2.131246,0,0,28.10168,0,0,1561238341.922048,60920.555308,0,-0.9934082,74.40573,2650659446,177292352,1,1,0.45,-160,-160,3
1561238383.501161,112,0,0,1561238382.877377,4.603092268307257,-74.06474247682057,2647.828,0.09972794,-1,17.29241180419922,200,-9999,1561238383.474918,-15.45709609985352,20.64435958862305,-2.8494873046875,345.883544921875,353.42724609375,15,60923.34049229167,-0.934661865234375,-0.0582733154296875,-0.093658447265625,60923.33039129167,0.006852846116991895,0.3102068679851927,-0.09248252991074567,60923.32608829167,21.92359924316406,20.91212463378906,-538.2156372070312,60923.33542729167,-1.011859934971433,-1.485666363013841,0.04648190425203314,0.01486425846815109,0.2087432444095612,-0.09643585234880447,0.03062647581100464,-0.01887297630310059,0.005681157112121582,1,-0.3127258718013763,-0.5997790098190308,-0.370602935552597,0.6364912390708923,-0.9953024387359619,-0.04646516963839531,-0.08493533730506897,0,0,0,-1,60922.58981841667,1,2,1561238382.758004,1561238131.651496,34,2.131246,0,0,28.10168,0,0,1561238341.922048,60920.555308,0,-0.9934082,74.40573,2650659446,177292352,1,1,0.45,-160,-160,3
1561238383.534724,113,0,0,1561238382.877377,4.603092268307257,-74.06474247682057,2647.828,0.09972794,-1,17.29241180419922,200,-9999,1561238383.525602,-15.55435943603516,20.65599822998047,-3.07843017578125,345.8562316894531,353.3999328613281,15,60923.36075629167,-0.9413299560546875,-0.053192138671875,-0.10479736328125,60923.35062429167,0.03696760540749891,-0.06387325558446044,-0.08121789113192851,60923.34619929167,22.13188171386719,20.99948120117188,-538.0294189453125,60923.35569029167,-1.011464605792957,-1.485242462491475,0.0483027814999381,0.03890487924218178,-0.1092357933521271,-0.07800757139921188,0.06991797685623169,-0.003504306077957153,-0.01902025938034058,1,-0.3119350969791412,-0.6000179648399353,-0.3710741102695465,0.636379599571228,-0.9951804876327515,-0.04828400164842606,-0.08534987270832062,0,0,0,-1,60922.58981841667,1,2,1561238382.758004,1561238131.651496,34,2.131246,0,0,28.10168,0,0,1561238341.922048,60920.555308,0,-0.9934082,74.40573,2650659446,177292352,1,1,0.45,-160,-160,3
1561238383.542215,114,0,0,1561238382.877377,4.603092268307257,-74.06474247682057,2647.828,0.09972794,-1,17.29241180419922,200,-9999,1561238383.525602,-15.55435943603516,20.65599822998047,-3.07843017578125,345.8562316894531,353.3999328613281,15,60923.38102029167,-0.9799957275390625,-0.0440826416015625,-0.0867156982421875,60923.37088829167,0.05400464584906282,-0.0215939753827985,-0.04910229891444496,60923.36634129167,22.19792175292969,21.16484069824219,-538.0844116210938,60923.37595429167,-1.010602772574758,-1.486627276656916,0.04959185059140311,0.05833264067769051,0.03773714601993561,-0.04675218090415001,0.02941441535949707,0.002437114715576172,-0.009554803371429443,1,-0.3115129470825195,-0.6008132100105286,-0.3709598779678345,0.6359024047851562,-0.9952347278594971,-0.04957152530550957,-0.08396634459495544,0,0,0,-1,60922.58981841667,1,2,1561238382.758004,1561238131.651496,34,2.131246,0,0,28.10168,0,0,1561238341.922048,60920.555308,0,-0.9934082,74.40573,2650659446,177292352,1,1,0.45,-160,-160,3
1561238383.561898,115,0,0,1561238382.877377,4.603092268307257,-74.06474247682057,2647.828,0.09972794,-1,17.29241180419922,200,-9999,1561238383.552028,-15.53549957275391,20.79487609863281,-3.186279296875,345.7697143554688,353.3134155273438,15,60923.40128329167,-0.9627838134765625,-0.05303955078125,-0.0846405029296875,60923.39115229167,0.09309186116815581,0.2004686521073876,-0.04784182477051046,60923.38648229167,22.0177001953125,20.82427978515625,-538.0172729492188,60923.39621829167,-1.009081896675912,-1.483848826051846,0.0507012311414249,0.09880869090557098,0.2060816884040833,-0.05139673128724098,0.01506853103637695,0.005803406238555908,0.00504612922668457,1,-0.3101786375045776,-0.6003549098968506,-0.3712310194969177,0.6368285417556763,-0.9949421286582947,-0.05067951232194901,-0.08672638982534409,0,0,0,-1,60922.58981841667,1,2,1561238382.758004,1561238131.651496,34,2.131246,0,0,28.10168,0,0,1561238341.922048,60920.555308,0,-0.9934082,74.40573,2650659446,177292352,1,1,0.45,-160,-160,3
1561238383.584357,116,0,0,1561238382.877377,4.603092268307257,-74.06474247682057,2647.828,0.09972794,-1,17.29241180419922,200,-9999,1561238383.576977,-15.64408683776855,20.66053771972656,-3.18719482421875,345.6332397460938,353.1769409179688,15,60923.42154729167,-0.9170989990234375,-0.0730133056640625,-0.089080810546875,60923.41141529167,0.1043423851931955,0.1276700784456356,-0.03910399323396048,60923.40659429167,21.918212890625,20.67369079589844,-538.3345336914062,60923.41648129167,-1.007113254343046,-1.480854666598986,0.05182040500741412,0.0889776274561882,0.06672618538141251,-0.0369352363049984,0.05847907066345215,-0.01224392652511597,0.001366734504699707,1,-0.3086659908294678,-0.5998961329460144,-0.3713924884796143,0.6379008889198303,-0.9946210384368896,-0.05179721489548683,-0.0896998718380928,0,0,0,-1,60922.58981841667,1,2,1561238382.758004,1561238131.651496,34,2.131246,0,0,28.10168,0,0,1561238341.922048,60920.555308,0,-0.9934082,74.40573,2650659446,177292352,1,1,0.45,-160,-160,3
1561238383.619193,117,0,0,1561238382.877377,4.603092268307257,-74.06474247682057,2647.828,0.09972794,-1,17.29241180419922,200,-9999,1561238383.602704,-15.46207237243652,20.62743377685547,-3.2877197265625,345.5650634765625,353.1087646484375,15,60923.44181129167,-0.9158935546875,-0.0765533447265625,-0.08587646484375,60923.43167929167,0.04935636448243852,-0.1157875862939201,-0.02881913142018347,60923.42673529167,21.96556091308594,20.99781799316406,-538.110107421875,60923.43674529167,-1.00593984217398,-1.482071511753245,0.05262972049915923,0.02785995230078697,-0.1692687571048737,-0.03208508715033531,0.08350872993469238,-0.02080461382865906,0.0008392930030822754,1,-0.3082747459411621,-0.6006028652191162,-0.3710660040378571,0.6376149654388428,-0.9946873188018799,-0.05260542780160904,-0.08848575502634048,0,0,0,-1,60922.58981841667,1,2,1561238382.758004,1561238131.651496,34,2.131246,0,0,28.10168,0,0,1561238341.922048,60920.555308,0,-0.9934082,74.40573,2650659446,177292352,1,1,0.45,-160,-160,3
1561238383.622899,118,0,0,1561238382.877377,4.603092268307257,-74.06474247682057,2647.828,0.09972794,-1,17.29241180419922,200,-9999,1561238383.602704,-15.46207237243652,20.62743377685547,-3.2877197265625,345.5650634765625,353.1087646484375,15,60923.46207429167,-0.9533233642578125,-0.0780029296875,-0.0780792236328125,60923.45194329167,-0.007364173046287109,-0.1915033866137449,-0.01996784922119611,60923.44687729167,22.1231689453125,21.02304077148438,-538.0697021484375,60923.45700929167,-1.005979658129925,-1.485961737668038,0.05317041218327562,-0.02055844664573669,-0.1666692495346069,-0.01437107007950544,0.0650792121887207,-0.02804666757583618,-0.002011001110076904,1,-0.3088311851024628,-0.6019275188446045,-0.370635986328125,0.6363454461097717,-0.9949955940246582,-0.05314536392688751,-0.0846131220459938,0,0,0,-1,60922.58981841667,1,2,1561238382.758004,1561238131.651496,34,2.131246,0,0,28.10168,0,0,1561238341.922048,60920.555308,0,-0.9934082,74.40573,2650659446,177292352,1,1,0.45,-160,-160,3
1561238383.643084,119,0,0,1561238382.877377,4.603092268307257,-74.06474247682057,2647.828,0.09972794,-1,17.29241180419922,200,-9999,1561238383.62714,-15.57308959960938,20.64127731323242,-3.151611328125,345.5914306640625,353.1351318359375,15,60923.48233829167,-0.9929351806640625,-0.0615234375,-0.058868408203125,60923.47220629167,-0.04571981801393532,0.02356285037669408,-0.01765436118224428,60923.46698829167,21.88578796386719,20.93862915039062,-538.1223754882812,60923.47727229167,-1.006795745830231,-1.486891841321314,0.05343058838223476,-0.06049174815416336,0.09618633985519409,-0.03539406508207321,0.01378262042999268,-0.009842485189437866,0.0176159143447876,1,-0.3091642260551453,-0.6021413803100586,-0.370827704668045,0.635869562625885,-0.9950600862503052,-0.05340516939759254,-0.08368647843599319,0,0,0,-1,60922.58981841667,1,2,1561238382.758004,1561238131.651496,34,2.131246,0,0,28.10168,0,0,1561238341.922048,60920.555308,0,-0.9934082,74.40573,2650659446,177292352,1,1,0.45,-160,-160,3
