loggingTime,loggingSample,identifierForVendor,deviceID,locationTimestamp_since1970,locationLatitude,locationLongitude,locationAltitude,locationSpeed,locationCourse,locationVerticalAccuracy,locationHorizontalAccuracy,locationFloor,locationHeadingTimestamp_since1970,locationHeadingX,locationHeadingY,locationHeadingZ,locationTrueHeading,locationMagneticHeading,locationHeadingAccuracy,accelerometerTimestamp_sinceReboot,accelerometerAccelerationX,accelerometerAccelerationY,accelerometerAccelerationZ,gyroTimestamp_sinceReboot,gyroRotationX,gyroRotationY,gyroRotationZ,magnetometerTimestamp_sinceReboot,magnetometerX,magnetometerY,magnetometerZ,motionTimestamp_sinceReboot,motionYaw,motionRoll,motionPitch,motionRotationRateX,motionRotationRateY,motionRotationRateZ,motionUserAccelerationX,motionUserAccelerationY,motionUserAccelerationZ,motionAttitudeReferenceFrame,motionQuaternionX,motionQuaternionY,motionQuaternionZ,motionQuaternionW,motionGravityX,motionGravityY,motionGravityZ,motionMagneticFieldX,motionMagneticFieldY,motionMagneticFieldZ,motionMagneticFieldCalibrationAccuracy,activityTimestamp_sinceReboot,activity,activityActivityConfidence,activityActivityStartDate,pedometerStartDate,pedometerNumberofSteps,pedometerAverageActivePace,pedometerCurrentPace,pedometerCurrentCadence,pedometerDistance,pedometerFloorAscended,pedometerFloorDescended,pedometerEndDate,altimeterTimestamp_sinceReboot,altimeterReset,altimeterRelativeAltitude,altimeterPressure,IP_en0,IP_pdp_ip0,deviceOrientation,batteryState,batteryLevel,avAudioRecorderPeakPower,avAudioRecorderAveragePower,label
1561238397.779975,1,0,0,1561238395.869471,4.603029053325773,-74.06479650784185,2643.493,1.810272,-1,57.23728942871094,200,-9999,1561238397.75922,-18.43627166748047,17.76180267333984,-0.943359375,351.3830261230469,358.9267272949219,15,60937.58438750001,-0.9924774169921875,-0.1682586669921875,-0.0280303955078125,60937.5742565,0.1692207177730519,-0.1002072949686295,0.109164837295111,60937.5588145,18.84721374511719,18.38166809082031,-535.5108642578125,60937.5793215,-1.097934500288287,-1.526437924405022,0.1807767113489681,0.1577355414628983,-0.1102235540747643,0.1081519201397896,0.007257461547851562,0.01213014125823975,0.009014308452606201,1,-0.3035840392112732,-0.6213099956512451,-0.428753525018692,0.5813612937927246,-0.9827366471290588,-0.1797936856746674,-0.0436212420463562,0,0,0,-1,60936.221038,3,1,1561238396.389224,1561238131.651496,42,1.925081,0,0,35.15249,0,0,1561238396.38959,60934.778817,0,-0.2827148,74.39908,2650659446,177292352,1,1,0.45,-160,-160,4
1561238397.782259,2,0,0,1561238395.869471,4.603029053325773,-74.06479650784185,2643.493,1.810272,-1,57.23728942871094,200,-9999,1561238397.75922,-18.43627166748047,17.76180267333984,-0.943359375,351.3830261230469,358.9267272949219,15,60937.60465150001,-1.039871215820312,-0.1619110107421875,-0.0330657958984375,60937.5945195,0.06502161064650262,-0.03908135636469481,0.09856305931161459,60937.5789555,19.22616577148438,18.25808715820312,-535.8299560546875,60937.5995855,-1.095824000155258,-1.528289305539279,0.1788008807376918,0.01459463592618704,0.004472937900573015,0.07242853939533234,-0.03634727001190186,0.01416864991188049,0.01863867044448853,1,-0.303962767124176,-0.6218506693840027,-0.4273114204406738,0.5816470384597778,-0.9831687211990356,-0.1778496950864792,-0.04181676357984543,0,0,0,-1,60936.221038,3,1,1561238396.389224,1561238131.651496,42,1.925081,0,0,35.15249,0,0,1561238396.38959,60934.778817,0,-0.2827148,74.39908,2650659446,177292352,1,1,0.45,-160,-160,4
1561238397.78557,3,0,0,1561238395.869471,4.603029053325773,-74.06479650784185,2643.493,1.810272,-1,57.23728942871094,200,-9999,1561238397.75922,-18.43627166748047,17.76180267333984,-0.943359375,351.3830261230469,358.9267272949219,15,60937.6249155,-1.051864624023438,-0.162353515625,-0.0638275146484375,60937.6147835,-0.08037207116971934,0.1445942008569802,-0.04351951432131185,60937.59906650001,19.3551025390625,18.08644104003906,-535.6591186523438,60937.6198185,-1.096930741118718,-1.526207703205197,0.178813302859159,-0.08796928822994232,0.1581490486860275,-0.08877739310264587,-0.06837528944015503,0.01448604464530945,-0.004354596138000488,1,-0.3038575649261475,-0.6210789084434509,-0.4279531538486481,0.5820546746253967,-0.983077347278595,-0.1778619289398193,-0.04386314004659653,0,0,0,-1,60936.221038,3,1,1561238396.389224,1561238131.651496,42,1.925081,0,0,35.15249,0,0,1561238396.38959,60934.778817,0,-0.2827148,74.39908,2650659446,177292352,1,1,0.45,-160,-160,4
1561238397.805521,4,0,0,1561238395.869471,4.603029053325773,-74.06479650784185,2643.493,1.810272,-1,57.23728942871094,200,-9999,1561238397.785585,-18.39045906066895,17.62511825561523,-0.7520751953125,351.472412109375,359.01611328125,15,60937.6451785,-1.040817260742188,-0.1557464599609375,-0.080535888671875,60937.63504750001,0.005645901510967985,0.1272250642274834,-0.1695104696996525,60937.6192085,19.10731506347656,18.14515686035156,-535.8631591796875,60937.6400825,-1.097738873324072,-1.523274637388711,0.1817493895927249,0.05053426325321198,0.08886398375034332,-0.1819094717502594,-0.06517338752746582,0.01836642622947693,-0.02778726816177368,1,-0.302529901266098,-0.6205763220787048,-0.4294447302818298,0.582183837890625,-0.9824187755584717,-0.1807504296302795,-0.04672137647867203,0,0,0,-1,60936.221038,3,1,1561238396.389224,1561238131.651496,42,1.925081,0,0,35.15249,0,0,1561238396.38959,60934.778817,0,-0.2827148,74.39908,2650659446,177292352,1,1,0.45,-160,-160,4
1561238397.833667,5,0,0,1561238395.869471,4.603029053325773,-74.06479650784185,2643.493,1.810272,-1,57.23728942871094,200,-9999,1561238397.81042,-18.43320655822754,17.99906539916992,-0.91876220703125,351.4403381347656,358.9840393066406,15,60937.66541250001,-1.0247802734375,-0.157867431640625,-0.0658721923828125,60937.65531050001,0.1937865146162698,0.0553783043393257,-0.1816864422034948,60937.63931950001,19.2918701171875,18.14900207519531,-535.8643188476562,60937.6603465,-1.094936260101807,-1.522616775239081,0.1855983967701421,0.2208838909864426,0.04555139690637589,-0.1806963980197906,-0.05287551879882812,0.0324656069278717,-0.02838033437728882,1,-0.3002710342407227,-0.6214261054992676,-0.4297900199890137,0.5821920037269592,-0.9816855788230896,-0.1845346838235855,-0.04733380302786827,0,0,0,-1,60936.221038,3,1,1561238396.389224,1561238131.651496,42,1.925081,0,0,35.15249,0,0,1561238396.38959,60934.778817,0,-0.2827148,74.39908,2650659446,177292352,1,1,0.45,-160,-160,4
1561238397.846173,6,0,0,1561238395.869471,4.603029053325773,-74.06479650784185,2643.493,1.810272,-1,57.23728942871094,200,-9999,1561238397.836209,-18.70461845397949,17.79675674438477,-0.8233642578125,351.1340942382812,358.6777954101562,15,60937.68568316667,-0.9811859130859375,-0.181610107421875,-0.043487548828125,60937.67555116667,0.2361377001673639,0.0725058922579523,-0.1733012131952713,60937.65946150001,18.98187255859375,18.098388671875,-535.746826171875,60937.68061716667,-1.090312834928038,-1.522329361888404,0.1893717946908372,0.2138185203075409,0.06474613398313522,-0.1769248396158218,-0.02690422534942627,0.01828956604003906,-0.008143246173858643,1,-0.2975460886955261,-0.6226358413696289,-0.4295274913311005,0.5824920535087585,-0.9809693098068237,-0.1882419586181641,-0.04758187010884285,0,0,0,-1,60936.221038,3,1,1561238396.389224,1561238131.651496,42,1.925081,0,0,35.15249,0,0,1561238396.38959,60934.778817,0,-0.2827148,74.39908,2650659446,177292352,1,1,0.45,-160,-160,4
1561238397.866434,7,0,0,1561238395.869471,4.603029053325773,-74.06479650784185,2643.493,1.810272,-1,57.23728942871094,200,-9999,1561238397.860523,-18.67976951599121,17.83179473876953,-1.0401611328125,350.8858947753906,358.4295959472656,15,60937.70594716667,-0.9472503662109375,-0.190887451171875,-0.0219879150390625,60937.69581516667,0.143716156645581,0.03834392705885186,-0.1546353834310149,60937.67961016667,19.1513671875,18.1636962890625,-536.0348510742188,60937.70088116667,-1.087071712957009,-1.522048429378762,0.1928116791098521,0.1247523054480553,0.01431278511881828,-0.1393020898103714,0.02466076612472534,0.0007928311824798584,0.01433253288269043,1,-0.295356810092926,-0.6235796213150024,-0.4295737743377686,0.5825626254081726,-0.9803034663200378,-0.1916192322969437,-0.04782561957836151,0,0,0,-1,60936.221038,3,1,1561238396.389224,1561238131.651496,42,1.925081,0,0,35.15249,0,0,1561238396.38959,60934.778817,0,-0.2827148,74.39908,2650659446,177292352,1,1,0.45,-160,-160,4
1561238397.88693,8,0,0,1561238395.869471,4.603029053325773,-74.06479650784185,2643.493,1.810272,-1,57.23728942871094,200,-9999,1561238397.860523,-18.67976951599121,17.83179473876953,-1.0401611328125,350.8858947753906,358.4295959472656,15,60937.72621116667,-0.95928955078125,-0.1955718994140625,-0.01568603515625,60937.71607916667,0.1118293299657353,-0.01637923965231434,-0.07349259344182665,60937.69972116667,18.89642333984375,18.33680725097656,-535.9148559570312,60937.72114516667,-1.084878643132756,-1.522663812257619,0.1948520887842154,0.1095781400799751,-0.02316534705460072,-0.05608602240681648,0.02960729598999023,0.001452237367630005,0.0307849645614624,1,-0.2941401600837708,-0.6244035959243774,-0.4294070899486542,0.5824183225631714,-0.9799399375915527,-0.193621426820755,-0.0472034327685833,0,0,0,-1,60936.221038,3,1,1561238396.389224,1561238131.651496,42,1.925081,0,0,35.15249,0,0,1561238396.38959,60934.778817,0,-0.2827148,74.39908,2650659446,177292352,1,1,0.45,-160,-160,4
1561238397.925658,9,0,0,1561238395.869471,4.603029053325773,-74.06479650784185,2643.493,1.810272,-1,57.23728942871094,200,-9999,1561238397.911054,-18.81222915649414,17.44486236572266,-1.13189697265625,350.5361633300781,358.0798645019531,15,60937.74647416667,-0.969482421875,-0.197662353515625,-0.012939453125,60937.73634216667,0.1335239728377388,0.01866636239647439,-0.008900018046935807,60937.71986316667,19.26092529296875,18.1273193359375,-536.0469970703125,60937.74140816667,-1.082377849016336,-1.523122613125047,0.1954051609143778,0.1378688961267471,0.0257039237767458,-0.003902449738234282,0.01214194297790527,-0.003498345613479614,0.03196293115615845,1,-0.2932772040367126,-0.6249912977218628,-0.4287639260292053,0.5826969146728516,-0.9798543453216553,-0.1941640079021454,-0.04674872010946274,0,0,0,-1,60936.221038,3,1,1561238396.389224,1561238131.651496,42,1.925081,0,0,35.15249,0,0,1561238396.38959,60934.778817,0,-0.2827148,74.39908,2650659446,177292352,1,1,0.45,-160,-160,4
1561238397.928117,10,0,0,1561238395.869471,4.603029053325773,-74.06479650784185,2643.493,1.810272,-1,57.23728942871094,200,-9999,1561238397.911054,-18.81222915649414,17.44486236572266,-1.13189697265625,350.5361633300781,358.0798645019531,15,60937.76673816667,-0.9589080810546875,-0.204986572265625,-0.008544921875,60937.75660616667,0.1441894003712881,0.02772963221823205,0.0125799740412073,60937.73997416667,19.14915466308594,17.94511413574219,-536.0438232421875,60937.76167216667,-1.079474748398015,-1.523171639005694,0.1953352142366669,0.1339505910873413,0.01279132254421711,0.007485759910196066,0.01478248834609985,-0.005901545286178589,0.03513514995574951,1,-0.2924029529094696,-0.6254197359085083,-0.4278911650180817,0.5833179354667664,-0.9798703789710999,-0.1940953880548477,-0.0467013344168663,0,0,0,-1,60936.221038,3,1,1561238396.389224,1561238131.651496,42,1.925081,0,0,35.15249,0,0,1561238396.38959,60934.778817,0,-0.2827148,74.39908,2650659446,177292352,1,1,0.45,-160,-160,4
1561238397.947569,11,0,0,1561238395.869471,4.603029053325773,-74.06479650784185,2643.493,1.810272,-1,57.23728942871094,200,-9999,1561238397.937586,-18.66276741027832,17.4868049621582,-1.26007080078125,350.3502197265625,357.8939208984375,15,60937.78700216667,-0.95855712890625,-0.2125091552734375,0.004791259765625,60937.77687016667,0.1002720097831184,-0.004564125476177798,-0.004148139713907421,60937.76011616667,18.88726806640625,17.927001953125,-535.9638061523438,60937.78193616667,-1.07721028201777,-1.523696380810414,0.1954789291251909,0.07627370953559875,-0.01490076072514057,-0.01215771585702896,0.02234745025634766,-0.0175403356552124,0.04351556301116943,1,-0.2917597889900208,-0.6259259581565857,-0.42719367146492,0.5836082696914673,-0.9798669815063477,-0.1942363679409027,-0.04618583992123604,0,0,0,-1,60936.221038,3,1,1561238396.389224,1561238131.651496,42,1.925081,0,0,35.15249,0,0,1561238396.38959,60934.778817,0,-0.2827148,74.39908,2650659446,177292352,1,1,0.45,-160,-160,4
1561238397.967649,12,0,0,1561238395.869471,4.603029053325773,-74.06479650784185,2643.493,1.810272,-1,57.23728942871094,200,-9999,1561238397.96178,-18.85296058654785,17.54060363769531,-1.27276611328125,350.2783813476562,357.8220825195312,15,60937.80726516667,-0.957733154296875,-0.204620361328125,0.00726318359375,60937.79713316667,0.02463930008930411,-0.03218856283135172,-0.02114576537133816,60937.78022716667,18.92494201660156,17.94361877441406,-536.2166137695312,60937.80219916667,-1.076384395419596,-1.524528460620698,0.1959491387028681,0.007507964037358761,-0.05225851759314537,-0.02906213141977787,0.02090561389923096,-0.01381373405456543,0.05307197570800781,1,-0.2915254831314087,-0.6263623237609863,-0.4269615411758423,0.5834269523620605,-0.9798136353492737,-0.1946976035833359,-0.04536626487970352,0,0,0,-1,60936.221038,3,1,1561238396.389224,1561238131.651496,42,1.925081,0,0,35.15249,0,0,1561238396.38959,60934.778817,0,-0.2827148,74.39908,2650659446,177292352,1,1,0.45,-160,-160,4
1561238398.010137,13,0,0,1561238395.869471,4.603029053325773,-74.06479650784185,2643.493,1.810272,-1,57.23728942871094,200,-9999,1561238397.988307,-18.71087074279785,17.67808151245117,-1.266845703125,350.3117980957031,357.8554992675781,15,60937.82752916667,-0.95599365234375,-0.19757080078125,-0.00506591796875,60937.81739716667,-0.0259197479414142,-0.07612645975991503,-0.03256406854505289,60937.80036816667,18.99490356445312,18.17045593261719,-536.1861572265625,60937.82246316667,-1.076759017806364,-1.526004309139802,0.196632925933988,-0.03592606261372566,-0.08277861028909683,-0.03537701815366745,0.02483612298965454,-0.00664287805557251,0.04438722133636475,1,-0.2917348444461823,-0.6268442273139954,-0.4270449578762054,0.5827433466911316,-0.979746401309967,-0.1953682601451874,-0.04391419142484665,0,0,0,-1,60936.221038,3,1,1561238396.389224,1561238131.651496,42,1.925081,0,0,35.15249,0,0,1561238396.38959,60934.778817,0,-0.2827148,74.39908,2650659446,177292352,1,1,0.45,-160,-160,4
1561238398.013542,14,0,0,1561238395.869471,4.603029053325773,-74.06479650784185,2643.493,1.810272,-1,57.23728942871094,200,-9999,1561238398.012401,-18.60675239562988,17.54046630859375,-1.154541015625,350.3656616210938,357.9093627929688,15,60937.84779316667,-0.9583740234375,-0.1871337890625,-0.016357421875,60937.83766116667,-0.03608210434504756,-0.05021736446286114,-0.01960086562298319,60937.82051016667,18.92071533203125,18.14036560058594,-536.2144775390625,60937.84272716667,-1.077568868121712,-1.5272717697961,0.1971569800067401,-0.03434015065431595,-0.04618225246667862,-0.01583074778318405,0.02233189344406128,0.004445433616638184,0.0311475396156311,1,-0.2920885682106018,-0.6271764636039734,-0.4272409975528717,0.5820645689964294,-0.9796988368034363,-0.195882186293602,-0.04266790300607681,0,0,0,-1,60936.221038,3,1,1561238396.389224,1561238131.651496,42,1.925081,0,0,35.15249,0,0,1561238396.38959,60934.778817,0,-0.2827148,74.39908,2650659446,177292352,1,1,0.45,-160,-160,4
1561238398.028512,15,0,0,1561238395.869471,4.603029053325773,-74.06479650784185,2643.493,1.810272,-1,57.23728942871094,200,-9999,1561238398.012401,-18.60675239562988,17.54046630859375,-1.154541015625,350.3656616210938,357.9093627929688,15,60937.86805616667,-0.9547576904296875,-0.188385009765625,-0.02166748046875,60937.85792416667,-0.01266146677056372,0.01042414513878815,0.01361700896968415,60937.84062116667,18.78651428222656,17.88520812988281,-536.0943603515625,60937.86299016667,-1.078013170975136,-1.527531213758591,0.1971364023082224,-0.005523416213691235,0.01505154743790627,0.01931578665971756,0.02121776342391968,0.009216517210006714,0.02428644895553589,1,-0.2922900319099426,-0.6271838545799255,-0.4273266792297363,0.5818925499916077,-0.9797138571739197,-0.1958620101213455,-0.04241389781236649,0,0,0,-1,60936.221038,3,1,1561238396.389224,1561238131.651496,42,1.925081,0,0,35.15249,0,0,1561238396.38959,60934.778817,0,-0.2827148,74.39908,2650659446,177292352,1,1,0.45,-160,-160,4
1561238398.048834,16,0,0,1561238395.869471,4.603029053325773,-74.06479650784185,2643.493,1.810272,-1,57.23728942871094,200,-9999,1561238398.039014,-18.66291809082031,17.65218353271484,-1.20037841796875,350.3680114746094,357.9117126464844,15,60937.88832016667,-0.952789306640625,-0.185546875,-0.0214080810546875,60937.87818816667,0.0256843245010512,0.004165982893210953,0.0401498165940346,60937.86076316667,18.82113647460938,18.16737365722656,-536.2023315429688,60937.88322316667,-1.077737492052625,-1.527559836132654,0.1965450326846269,0.03521149978041649,-0.01706058345735073,0.04104745015501976,0.02870440483093262,0.006698697805404663,0.01928901672363281,1,-0.292402446269989,-0.6271406412124634,-0.4270783662796021,0.5820648074150085,-0.9798305034637451,-0.195282056927681,-0.0423908494412899,0,0,0,-1,60936.221038,3,1,1561238396.389224,1561238131.651496,42,1.925081,0,0,35.15249,0,0,1561238396.38959,60934.778817,0,-0.2827148,74.39908,2650659446,177292352,1,1,0.45,-160,-160,4
1561238398.086377,17,0,0,1561238395.869471,4.603029053325773,-74.06479650784185,2643.493,1.810272,-1,57.23728942871094,200,-9999,1561238398.063042,-18.6538200378418,17.57637405395508,-1.025634765625,350.2957458496094,357.8394470214844,15,60937.90858416667,-0.96209716796875,-0.1883392333984375,-0.0129547119140625,60937.89845216667,0.0639488893594187,-0.06276138582935237,0.03531458131888673,60937.88090416667,18.720947265625,17.91229248046875,-535.759521484375,60937.90348716667,-1.076610179686048,-1.528899814154522,0.1958911327847623,0.0591844767332077,-0.07775296270847321,0.02881288714706898,0.02473741769790649,0.008544504642486572,0.02313888072967529,1,-0.292547732591629,-0.627593994140625,-0.4263729453086853,0.5820204019546509,-0.980013906955719,-0.1946406960487366,-0.0410832054913044,0,0,0,-1,60936.221038,3,1,1561238396.389224,1561238131.651496,42,1.925081,0,0,35.15249,0,0,1561238396.38959,60934.778817,0,-0.2827148,74.39908,2650659446,177292352,1,1,0.45,-160,-160,4
1561238398.089896,18,0,0,1561238395.869471,4.603029053325773,-74.06479650784185,2643.493,1.810272,-1,57.23728942871094,200,-9999,1561238398.063042,-18.6538200378418,17.57637405395508,-1.025634765625,350.2957458496094,357.8394470214844,15,60937.92881716667,-0.9694976806640625,-0.1952362060546875,-0.0013580322265625,60937.91871516667,0.02045866981009772,-0.04247289201291071,0.01500211905263437,60937.90101516667,18.90150451660156,17.945068359375,-535.9509887695312,60937.92375116667,-1.075909414892294,-1.530343942984888,0.1955574465239678,-0.005933809094130993,-0.02576619014143944,0.005369078833609819,0.01254671812057495,0.002006858587265015,0.03388744592666626,1,-0.2927441000938416,-0.6280649900436401,-0.4258650541305542,0.5817853808403015,-0.980137050151825,-0.1943133920431137,-0.03967051953077316,0,0,0,-1,60936.221038,3,1,1561238396.389224,1561238131.651496,42,1.925081,0,0,35.15249,0,0,1561238396.38959,60934.778817,0,-0.2827148,74.39908,2650659446,177292352,1,1,0.45,-160,-160,4
1561238398.109471,19,0,0,1561238395.869471,4.603029053325773,-74.06479650784185,2643.493,1.810272,-1,57.23728942871094,200,-9999,1561238398.089405,-18.60284996032715,17.70829010009766,-1.19134521484375,350.2614440917969,357.8051452636719,15,60937.94908016667,-0.9620208740234375,-0.1921234130859375,-0.0103912353515625,60937.93894916667,-0.05668831327953567,0.04389368845446799,-0.004520449634300499,60937.92115716667,18.98910522460938,18.10479736328125,-536.118896484375,60937.94401416667,-1.076801435736277,-1.529865957226685,0.1955850308035628,-0.0687740221619606,0.04859645664691925,-0.005293685011565685,0.01252233982086182,-0.001170426607131958,0.03620201349258423,1,-0.2929133474826813,-0.6277996301651001,-0.4262021780014038,0.5817397832870483,-0.9801126718521118,-0.1943404376506805,-0.04013879224658012,0,0,0,-1,60936.221038,3,1,1561238396.389224,1561238131.651496,42,1.925081,0,0,35.15249,0,0,1561238396.38959,60934.778817,0,-0.2827148,74.39908,2650659446,177292352,1,1,0.45,-160,-160,4
1561238398.130218,20,0,0,1561238395.869471,4.603029053325773,-74.06479650784185,2643.493,1.810272,-1,57.23728942871094,200,-9999,1561238398.114215,-18.78653335571289,17.69836044311523,-1.1873779296875,350.349365234375,357.89306640625,15,60937.96934416667,-0.951904296875,-0.1850738525390625,-0.0226287841796875,60937.95921216667,-0.04637628722263985,0.0362107350256984,0.02220650243351672,60937.94129816667,18.68048095703125,17.82710266113281,-535.9713745117188,60937.96427816667,-1.077985370737331,-1.528899845922383,0.1953233668089013,-0.03007296845316887,0.006977375131100416,0.02984672598540783,0.02396261692047119,0.005576640367507935,0.02477610111236572,1,-0.293164074420929,-0.6273044943809509,-0.4266154766082764,0.5818445682525635,-0.9801241159439087,-0.1940837651491165,-0.0410877950489521,0,0,0,-1,60936.221038,3,1,1561238396.389224,1561238131.651496,42,1.925081,0,0,35.15249,0,0,1561238396.38959,60934.778817,0,-0.2827148,74.39908,2650659446,177292352,1,1,0.45,-160,-160,4
1561238398.171263,21,0,0,1561238395.869471,4.603029053325773,-74.06479650784185,2643.493,1.810272,-1,57.23728942871094,200,-9999,1561238398.164422,-18.70194435119629,17.53409194946289,-1.149658203125,350.3438110351562,357.8875122070312,15,60937.98960816667,-0.9539642333984375,-0.19036865234375,-0.0244598388671875,60937.97947616667,0.02552187167455636,-0.0513452131845097,0.05518895358582106,60937.96140916667,18.81410217285156,18.06747436523438,-535.9426879882812,60937.98454216667,-1.077832467725194,-1.529695709263835,0.1943987426880181,0.03276804834604263,-0.06376390904188156,0.05787090584635735,0.03180330991744995,0.007080435752868652,0.01451247930526733,1,-0.2935867309570312,-0.6274147629737854,-0.4261975288391113,0.5818188786506653,-0.9803354144096375,-0.1931766420602798,-0.04031509160995483,0,0,0,-1,60936.221038,3,1,1561238396.389224,1561238131.651496,42,1.925081,0,0,35.15249,0,0,1561238396.38959,60934.778817,0,-0.2827148,74.39908,2650659446,177292352,1,1,0.45,-160,-160,4
1561238398.175412,22,0,0,1561238395.869471,4.603029053325773,-74.06479650784185,2643.493,1.810272,-1,57.23728942871094,200,-9999,1561238398.164422,-18.70194435119629,17.53409194946289,-1.149658203125,350.3438110351562,357.8875122070312,15,60938.00987116667,-0.9808349609375,-0.194976806640625,-0.0119781494140625,60937.99974016667,0.01392380512726128,0.009199091037351705,0.06061967168071064,60937.98155116667,18.94981384277344,18.1279296875,-535.9602661132812,60938.00480516667,-1.077366897219615,-1.530294391494684,0.1932331364097104,-0.003745755879208446,0.04217317700386047,0.05327322334051132,0.0126272439956665,-0.0006856620311737061,0.0220065712928772,1,-0.2939473390579224,-0.6274761557579041,-0.4256502091884613,0.5819713473320007,-0.9805837869644165,-0.1920328587293625,-0.0397372730076313,0,0,0,-1,60936.221038,3,1,1561238396.389224,1561238131.651496,42,1.925081,0,0,35.15249,0,0,1561238396.38959,60934.778817,0,-0.2827148,74.39908,2650659446,177292352,1,1,0.45,-160,-160,4
1561238398.191062,23,0,0,1561238395.869471,4.603029053325773,-74.06479650784185,2643.493,1.810272,-1,57.23728942871094,200,-9999,1561238398.164422,-18.70194435119629,17.53409194946289,-1.149658203125,350.3438110351562,357.8875122070312,15,60938.03013516667,-0.9788055419921875,-0.1869354248046875,-0.01104736328125,60938.02000316667,-0.05248557876328162,0.1467471002822002,0.0531332595403889,60938.00166216667,18.82258605957031,17.93850708007812,-535.666748046875,60938.02506916667,-1.078115321910553,-1.528033008956035,0.1921899103156931,-0.07646709680557251,0.1539420485496521,0.0493282824754715,-0.003852009773254395,-0.004608750343322754,0.03308260440826416,1,-0.2940400242805481,-0.6265451908111572,-0.4259106516838074,0.5827363133430481,-0.9806908369064331,-0.1910089403390884,-0.04196317493915558,0,0,0,-1,60936.221038,3,1,1561238396.389224,1561238131.651496,42,1.925081,0,0,35.15249,0,0,1561238396.38959,60934.778817,0,-0.2827148,74.39908,2650659446,177292352,1,1,0.45,-160,-160,4
1561238398.210787,24,0,0,1561238395.869471,4.603029053325773,-74.06479650784185,2643.493,1.810272,-1,57.23728942871094,200,-9999,1561238398.19119,-18.7679443359375,17.57148742675781,-1.05401611328125,350.4118957519531,357.9555969238281,15,60938.05039916667,-0.96405029296875,-0.1805877685546875,-0.0316314697265625,60938.04026716667,-0.0978205699997005,0.1283587719035301,0.049372609765088,60938.02180416667,18.99577331542969,17.90325927734375,-536.2403564453125,60938.04533316667,-1.08000739295996,-1.524961229850091,0.1911626676110419,-0.09165989607572556,0.08582372218370438,0.04563607648015022,0.01256740093231201,0.0082378089427948,0.02537691593170166,1,-0.2943118214607239,-0.6252106428146362,-0.4266291558742523,0.5835064053535461,-0.9807528257369995,-0.1900005042552948,-0.04498440772294998,0,0,0,-1,60936.221038,3,1,1561238396.389224,1561238131.651496,42,1.925081,0,0,35.15249,0,0,1561238396.38959,60934.778817,0,-0.2827148,74.39908,2650659446,177292352,1,1,0.45,-160,-160,4
1561238398.250181,25,0,0,1561238395.869471,4.603029053325773,-74.06479650784185,2643.493,1.810272,-1,57.23728942871094,200,-9999,1561238398.246281,-18.91437530517578,17.83135223388672,-1.2852783203125,350.5070190429688,358.0507202148438,15,60938.07066216667,-0.972869873046875,-0.176055908203125,-0.0409088134765625,60938.06053116667,-0.0181257406951883,-0.05916878151883547,0.03440884023215078,60938.04194516667,18.87234497070312,18.2138671875,-536.1268920898438,60938.06559716667,-1.080926144474534,-1.525109363689624,0.1903897250181392,0.009181494824588299,-0.1036492735147476,0.02216110751032829,0.01563501358032227,0.01355189085006714,0.005462884902954102,1,-0.294882208108902,-0.6249972581863403,-0.4266611635684967,0.5834236741065979,-0.9809059500694275,-0.1892415881156921,-0.0448458194732666,0,0,0,-1,60936.221038,3,1,1561238396.389224,1561238131.651496,42,1.925081,0,0,35.15249,0,0,1561238396.38959,60934.778817,0,-0.2827148,74.39908,2650659446,177292352,1,1,0.45,-160,-160,4
1561238398.253568,26,0,0,1561238395.869471,4.603029053325773,-74.06479650784185,2643.493,1.810272,-1,57.23728942871094,200,-9999,1561238398.246281,-18.91437530517578,17.83135223388672,-1.2852783203125,350.5070190429688,358.0507202148438,15,60938.09092616667,-0.99383544921875,-0.1873016357421875,-0.0234375,60938.08079416667,0.08303736278867065,-0.1225504175660673,0.005769738501656669,60938.06205616667,18.72486877441406,18.25408935546875,-536.2678833007812,60938.08586016667,-1.079748256758497,-1.52791224624358,0.190272040445967,0.0799853578209877,-0.11314557492733,-0.001559933181852102,-0.00466763973236084,0.006676673889160156,0.007398724555969238,1,-0.2951495051383972,-0.6259697675704956,-0.4258716404438019,0.5828224420547485,-0.9810500741004944,-0.1891260296106339,-0.04209724068641663,0,0,0,-1,60936.221038,3,1,1561238396.389224,1561238131.651496,42,1.925081,0,0,35.15249,0,0,1561238396.38959,60934.778817,0,-0.2827148,74.39908,2650659446,177292352,1,1,0.45,-160,-160,4
1561238398.271739,27,0,0,1561238395.869471,4.603029053325773,-74.06479650784185,2643.493,1.810272,-1,57.23728942871094,200,-9999,1561238398.246281,-18.91437530517578,17.83135223388672,-1.2852783203125,350.5070190429688,358.0507202148438,15,60938.11119016667,-0.9889984130859375,-0.19183349609375,-0.007720947265625,60938.10105816667,0.0182466482086779,-0.02213086865855847,-0.0006905576706575465,60938.08219816667,18.61625671386719,18.0086669921875,-535.845458984375,60938.10612416667,-1.078909487817352,-1.529302517276339,0.1903896718311192,-0.01864773966372013,-0.006709142588078976,-0.00119135167915374,-0.01136147975921631,-0.002607226371765137,0.02837270498275757,1,-0.2951444983482361,-0.6265169978141785,-0.4254547953605652,0.5825414061546326,-0.981085479259491,-0.1892415434122086,-0.04073235392570496,0,0,0,-1,60936.221038,3,1,1561238396.389224,1561238131.651496,42,1.925081,0,0,35.15249,0,0,1561238396.38959,60934.778817,0,-0.2827148,74.39908,2650659446,177292352,1,1,0.45,-160,-160,4
1561238398.292195,28,0,0,1561238395.869471,4.603029053325773,-74.06479650784185,2643.493,1.810272,-1,57.23728942871094,200,-9999,1561238398.246281,-18.91437530517578,17.83135223388672,-1.2852783203125,350.5070190429688,358.0507202148438,15,60938.13145316667,-0.9884490966796875,-0.184600830078125,-0.0158538818359375,60938.12132216667,-0.08555298475435949,0.02232820889533334,0.01584527585375345,60938.10234016667,18.62980651855469,18.13212585449219,-536.0753784179688,60938.12638816667,-1.080302945946206,-1.528875437463047,0.1901592653834851,-0.09774895012378693,0.003695294726639986,0.01528828777372837,-0.006467819213867188,-0.0001631379127502441,0.0330202579498291,1,-0.2955648899078369,-0.6261507868766785,-0.425859659910202,0.582426130771637,-0.981111466884613,-0.1890152990818024,-0.04115317761898041,0,0,0,-1,60936.221038,3,1,1561238396.389224,1561238131.651496,42,1.925081,0,0,35.15249,0,0,1561238396.38959,60934.778817,0,-0.2827148,74.39908,2650659446,177292352,1,1,0.45,-160,-160,4
1561238398.326543,29,0,0,1561238395.869471,4.603029053325773,-74.06479650784185,2643.493,1.810272,-1,57.23728942871094,200,-9999,1561238398.318811,-18.7036075592041,17.71313095092773,-0.875732421875,350.6320190429688,358.1757202148438,15,60938.15171716667,-0.9952392578125,-0.1780853271484375,-0.031402587890625,60938.14158516667,-0.06487087572880414,-0.040600423450476,0.003955326850985684,60938.12245116667,18.74142456054688,18.32229614257812,-536.11181640625,60938.14662116667,-1.081950724375861,-1.529174333533306,0.1899319507259402,-0.04879844933748245,-0.05913133919239044,-0.006880662404000759,-0.0104106068611145,0.007319271564483643,0.01392996311187744,1,-0.2962182462215424,-0.6259583830833435,-0.4262319803237915,0.5820284485816956,-0.9811665415763855,-0.1887920647859573,-0.04086170718073845,0,0,0,-1,60936.221038,3,1,1561238396.389224,1561238131.651496,42,1.925081,0,0,35.15249,0,0,1561238396.38959,60935.727098,0,-0.4702148,74.40084,2650659446,177292352,1,1,0.45,-160,-160,4
1561238398.332462,30,0,0,1561238395.869471,4.603029053325773,-74.06479650784185,2643.493,1.810272,-1,57.23728942871094,200,-9999,1561238398.318811,-18.7036075592041,17.71313095092773,-0.875732421875,350.6320190429688,358.1757202148438,15,60938.17198116667,-0.9934844970703125,-0.17681884765625,-0.02911376953125,60938.16184916667,-0.006003297729256619,-0.05851950284507416,-0.02322569418269005,60938.16273416667,18.79084777832031,18.25065612792969,-535.6935424804688,60938.16688416667,-1.082400095446243,-1.530413315887416,0.1902998597616821,-0.006222762167453766,-0.05566230416297913,-0.028904739767313,-0.01570975780487061,0.01366204023361206,0.008377909660339355,1,-0.2965035140514374,-0.626309871673584,-0.4262813031673431,0.5814687013626099,-0.9811469912528992,-0.1891533434391022,-0.03964322060346603,0,0,0,-1,60938.15022216667,3,1,1561238398.318408,1561238131.651496,42,1.925081,0,0,35.15249,0,0,1561238396.38959,60935.727098,0,-0.4702148,74.40084,2650659446,177292352,1,1,0.45,-160,-160,4
1561238398.352675,31,0,0,1561238395.869471,4.603029053325773,-74.06479650784185,2643.493,1.810272,-1,57.23728942871094,200,-9999,1561238398.342997,-18.77232551574707,17.87559509277344,-0.98016357421875,350.6554870605469,358.1991882324219,15,60938.19221416667,-0.9826202392578125,-0.1763916015625,-0.0273590087890625,60938.18211316667,-0.02830993501976032,0.001374723754698903,-0.004736431998705925,60938.18284516667,18.73411560058594,18.3336181640625,-536.024169921875,60938.18714816667,-1.082861209551922,-1.530846650238865,0.190594155654673,-0.04232590273022652,0.00948074646294117,0.004333109594881535,-0.006211400032043457,0.01205891370773315,0.0129096508026123,1,-0.2966447472572327,-0.6264135837554932,-0.4264328479766846,0.581173837184906,-0.9811084866523743,-0.1894423216581345,-0.03921583294868469,0,0,0,-1,60938.15022216667,3,1,1561238398.318408,1561238131.651496,42,1.925081,0,0,35.15249,0,0,1561238396.38959,60935.727098,0,-0.4702148,74.40084,2650659446,177292352,1,1,0.45,-160,-160,4
1561238398.37283,32,0,0,1561238395.869471,4.603029053325773,-74.06479650784185,2643.493,1.810272,-1,57.23728942871094,200,-9999,1561238398.367012,-18.81513977050781,17.84812164306641,-1.06378173828125,350.719970703125,358.263671875,15,60938.21247816667,-0.9773406982421875,-0.1803131103515625,-0.036285400390625,60938.20234616667,-0.04196715772190467,0.0236914810573449,0.02802790626032093,60938.20298716667,18.99555969238281,18.09434509277344,-535.6423950195312,60938.20741216667,-1.083783481821938,-1.530409441702436,0.1901708236155433,-0.0362192764878273,0.0004318575374782085,0.02825415320694447,0.001770615577697754,0.01203995943069458,0.008321762084960938,1,-0.296977698802948,-0.6260832548141479,-0.4266481399536133,0.5812016725540161,-0.9811712503433228,-0.1890266388654709,-0.03964800760149956,0,0,0,-1,60938.15022216667,3,1,1561238398.318408,1561238131.651496,42,1.925081,0,0,35.15249,0,0,1561238396.38959,60935.727098,0,-0.4702148,74.40084,2650659446,177292352,1,1,0.45,-160,-160,4
1561238398.413019,33,0,0,1561238395.869471,4.603029053325773,-74.06479650784185,2643.493,1.810272,-1,57.23728942871094,200,-9999,1561238398.393291,-18.75280380249023,17.87554168701172,-1.083984375,350.7086181640625,358.2523193359375,15,60938.23274116667,-0.98126220703125,-0.1833343505859375,-0.032928466796875,60938.22260916667,0.02136068247130755,-0.04666550651702246,0.0341539757158302,60938.22312816667,18.83595275878906,18.23527526855469,-536.065673828125,60938.22767516667,-1.083784679298204,-1.531140798007232,0.1895370005334226,0.03549938648939133,-0.06940528005361557,0.03131412714719772,0.005474209785461426,0.004612088203430176,0.00167316198348999,1,-0.2973396778106689,-0.6261960864067078,-0.4263637363910675,0.5811037421226501,-0.9813194870948792,-0.1884042024612427,-0.03893515467643738,0,0,0,-1,60938.15022216667,3,1,1561238398.318408,1561238131.651496,42,1.925081,0,0,35.15249,0,0,1561238396.38959,60935.727098,0,-0.4702148,74.40084,2650659446,177292352,1,1,0.45,-160,-160,4
1561238398.415364,34,0,0,1561238395.869471,4.603029053325773,-74.06479650784185,2643.493,1.810272,-1,57.23728942871094,200,-9999,1561238398.393291,-18.75280380249023,17.87554168701172,-1.083984375,350.7086181640625,358.2523193359375,15,60938.25300516667,-0.9948272705078125,-0.1859893798828125,-0.02044677734375,60938.24287316667,0.05750856689528008,-0.06946962229915296,0.03421948947864615,60938.24327016667,18.72036743164062,18.23176574707031,-535.9098510742188,60938.24793916667,-1.082719342715425,-1.53290598712938,0.1889262340119342,0.04875660315155983,-0.06468269973993301,0.02915776334702969,-0.006672978401184082,0.005293995141983032,0.008490204811096191,1,-0.2975800037384033,-0.6267715096473694,-0.4256218373775482,0.5809041857719421,-0.9815014600753784,-0.1878043413162231,-0.03720723092556,0,0,0,-1,60938.15022216667,3,1,1561238398.318408,1561238131.651496,42,1.925081,0,0,35.15249,0,0,1561238396.38959,60935.727098,0,-0.4702148,74.40084,2650659446,177292352,1,1,0.45,-160,-160,4
1561238398.433656,35,0,0,1561238395.869471,4.603029053325773,-74.06479650784185,2643.493,1.810272,-1,57.23728942871094,200,-9999,1561238398.41771,-18.8832836151123,17.66488265991211,-1.16949462890625,350.6379699707031,358.1816711425781,15,60938.27326916667,-1.0059814453125,-0.190887451171875,-0.0095062255859375,60938.26313716667,0.009918943480000122,0.0009861685516563419,0.01337359604605091,60938.26338116667,18.63563537597656,18.18557739257812,-535.7939453125,60938.26820316667,-1.082238720169987,-1.533558700801019,0.1885577857369366,-0.01010245550423861,0.01644677668809891,0.000210802536457777,-0.02081620693206787,-0.002682089805603027,0.02182918787002563,1,-0.2976876199245453,-0.626974880695343,-0.4252825081348419,0.5808781385421753,-0.9815946817398071,-0.1874424368143082,-0.03656915947794914,0,0,0,-1,60938.15022216667,3,1,1561238398.318408,1561238131.651496,42,1.925081,0,0,35.15249,0,0,1561238396.38959,60935.727098,0,-0.4702148,74.40084,2650659446,177292352,1,1,0.45,-160,-160,4
1561238398.454024,36,0,0,1561238395.869471,4.603029053325773,-74.06479650784185,2643.493,1.810272,-1,57.23728942871094,200,-9999,1561238398.44461,-18.91937828063965,17.76599884033203,-0.98291015625,350.6652526855469,358.2089538574219,15,60938.29353216667,-0.9907379150390625,-0.188812255859375,-0.01739501953125,60938.28340016667,-0.05302087414238756,0.05369412126595959,-0.03005936553983337,60938.28352316667,18.99102783203125,18.11155700683594,-535.548095703125,60938.28846616667,-1.083103859092446,-1.532630401331432,0.1889375115197186,-0.06810183823108673,0.03933770954608917,-0.04087777808308601,-0.02154731750488281,-0.001652985811233521,0.02765095233917236,1,-0.2976381480693817,-0.6266360282897949,-0.4257776737213135,0.5809064507484436,-0.9814891815185547,-0.1878154277801514,-0.03747764229774475,0,0,0,-1,60938.15022216667,3,1,1561238398.318408,1561238131.651496,42,1.925081,0,0,35.15249,0,0,1561238396.38959,60935.727098,0,-0.4702148,74.40084,2650659446,177292352,1,1,0.45,-160,-160,4
1561238398.491123,37,0,0,1561238395.869471,4.603029053325773,-74.06479650784185,2643.493,1.810272,-1,57.23728942871094,200,-9999,1561238398.468479,-18.7440242767334,17.77791595458984,-0.9957275390625,350.7621459960938,358.3058471679688,15,60938.31379616667,-0.9742279052734375,-0.18475341796875,-0.0281524658203125,60938.30366416667,-0.05683931451334317,-0.009888317127464212,-0.03697293172967907,60938.30366416667,19.0831298828125,18.101318359375,-535.9437255859375,60938.30873016667,-1.084447841636488,-1.532315899359886,0.1897055230011529,-0.04463513195514679,-0.03799809142947197,-0.03067121282219887,0.002435684204101562,0.001237571239471436,0.0137481689453125,1,-0.2977432608604431,-0.6264651417732239,-0.426428347826004,0.5805593729019165,-0.9813327789306641,-0.1885697096586227,-0.0377807542681694,0,0,0,-1,60938.15022216667,3,1,1561238398.318408,1561238131.651496,42,1.925081,0,0,35.15249,0,0,1561238396.38959,60935.727098,0,-0.4702148,74.40084,2650659446,177292352,1,1,0.45,-160,-160,4
1561238398.49444,38,0,0,1561238395.869471,4.603029053325773,-74.06479650784185,2643.493,1.810272,-1,57.23728942871094,200,-9999,1561238398.468479,-18.7440242767334,17.77791595458984,-0.9957275390625,350.7621459960938,358.3058471679688,15,60938.33406016667,-0.9783782958984375,-0.180328369140625,-0.0287322998046875,60938.32392816667,0.009211874210584085,-0.07619037562607693,0.001899100173335505,60938.32377516667,18.978271484375,18.35615539550781,-535.8546752929688,60938.32899416667,-1.084692885544235,-1.533676919367549,0.1899094916026618,0.0189353208988905,-0.08435040712356567,0.007276701275259256,0.006201446056365967,0.007953375577926636,0.007650375366210938,1,-0.2980440855026245,-0.6268555521965027,-0.4263534545898438,0.5800384283065796,-0.9813448786735535,-0.1887700110673904,-0.03644368052482605,0,0,0,-1,60938.15022216667,3,1,1561238398.318408,1561238131.651496,42,1.925081,0,0,35.15249,0,0,1561238396.38959,60935.727098,0,-0.4702148,74.40084,2650659446,177292352,1,1,0.45,-160,-160,4
1561238398.514726,39,0,0,1561238395.869471,4.603029053325773,-74.06479650784185,2643.493,1.810272,-1,57.23728942871094,200,-9999,1561238398.494433,-18.81648254394531,17.82094192504883,-1.01763916015625,350.7704162597656,358.3141174316406,15,60938.35432316667,-0.9846343994140625,-0.181854248046875,-0.0239410400390625,60938.34419116667,0.03904460474165171,-0.0593578659562311,0.02018090210840245,60938.34391716667,18.66694641113281,18.34048461914062,-535.665771484375,60938.34925716667,-1.084051210800301,-1.535328880500056,0.1896292361842334,0.03447886183857918,-0.05818325281143188,0.01994802057743073,-0.0001412630081176758,0.00697624683380127,0.007251739501953125,1,-0.298285573720932,-0.6273862719535828,-0.4258431196212769,0.579715371131897,-0.9814566373825073,-0.1884947866201401,-0.03482436388731003,0,0,0,-1,60938.15022216667,3,1,1561238398.318408,1561238131.651496,42,1.925081,0,0,35.15249,0,0,1561238396.38959,60935.727098,0,-0.4702148,74.40084,2650659446,177292352,1,1,0.45,-160,-160,4
1561238398.53561,40,0,0,1561238395.869471,4.603029053325773,-74.06479650784185,2643.493,1.810272,-1,57.23728942871094,200,-9999,1561238398.519452,-18.78597831726074,17.84539794921875,-0.847900390625,350.7207641601562,358.2644653320312,15,60938.37458716667,-0.9895172119140625,-0.1875457763671875,-0.0204315185546875,60938.36445516667,0.02781725021809566,-0.01322552428944251,0.02139397198493355,60938.36402816667,18.81538391113281,18.35102844238281,-536.10400390625,60938.36952116667,-1.083423115130931,-1.536160452768877,0.1892334490897345,0.01681597717106342,-0.001358053181320429,0.01398839987814426,-0.007011532783508301,0.006007671356201172,0.01275527477264404,1,-0.2983936369419098,-0.627659022808075,-0.425426721572876,0.5796701312065125,-0.9815596342086792,-0.1881060898303986,-0.03401077538728714,0,0,0,-1,60938.15022216667,3,1,1561238398.318408,1561238131.651496,42,1.925081,0,0,35.15249,0,0,1561238396.38959,60935.727098,0,-0.4702148,74.40084,2650659446,177292352,1,1,0.45,-160,-160,4
1561238398.570733,41,0,0,1561238395.869471,4.603029053325773,-74.06479650784185,2643.493,1.810272,-1,57.23728942871094,200,-9999,1561238398.545517,-18.92160797119141,17.88543701171875,-1.00811767578125,350.7057800292969,358.2494812011719,15,60938.39485116667,-0.9806976318359375,-0.1929168701171875,-0.0176239013671875,60938.38471916667,-0.01403698947358965,0.04786845638141125,-0.006224606415842203,60938.38417016667,18.90516662597656,18.30296325683594,-535.9676513671875,60938.38978516667,-1.083531626645602,-1.535614883220619,0.1892493443519671,-0.02679275162518024,0.04153881222009659,-0.01539931632578373,-0.005186915397644043,-0.002521604299545288,0.0166018009185791,1,-0.2983064651489258,-0.6274871826171875,-0.4255439937114716,0.5798149704933167,-0.9815379977226257,-0.1881216913461685,-0.03454617783427238,0,0,0,-1,60938.15022216667,3,1,1561238398.318408,1561238131.651496,42,1.925081,0,0,35.15249,0,0,1561238396.38959,60935.727098,0,-0.4702148,74.40084,2650659446,177292352,1,1,0.45,-160,-160,4
1561238398.575711,42,0,0,1561238395.869471,4.603029053325773,-74.06479650784185,2643.493,1.810272,-1,57.23728942871094,200,-9999,1561238398.569561,-18.86203765869141,17.83514404296875,-0.98504638671875,350.7585144042969,358.3022155761719,15,60938.41511416667,-0.9754638671875,-0.18719482421875,-0.01861572265625,60938.40498216667,-0.0383923965906913,0.01597497179884031,-0.02804654838795148,60938.40431116667,18.73820495605469,18.29429626464844,-535.8966674804688,60938.41001816667,-1.084324544629741,-1.535042429765003,0.1897575711724908,-0.04008831456303596,-0.006705946754664183,-0.03241558372974396,0.004691958427429199,-0.002907484769821167,0.01700770854949951,1,-0.2982687950134277,-0.6272825598716736,-0.4260008037090302,0.5797202587127686,-0.9814223051071167,-0.1886208206415176,-0.03510463237762451,0,0,0,-1,60938.15022216667,3,1,1561238398.318408,1561238131.651496,42,1.925081,0,0,35.15249,0,0,1561238396.38959,60935.727098,0,-0.4702148,74.40084,2650659446,177292352,1,1,0.45,-160,-160,4
1561238398.595946,43,0,0,1561238395.869471,4.603029053325773,-74.06479650784185,2643.493,1.810272,-1,57.23728942871094,200,-9999,1561238398.569561,-18.86203765869141,17.83514404296875,-0.98504638671875,350.7585144042969,358.3022155761719,15,60938.43537816667,-0.9726409912109375,-0.17938232421875,-0.023284912109375,60938.42524616667,-0.0186162949679809,-0.04857206354141019,-0.02368029578076657,60938.42442216667,18.89021301269531,18.26329040527344,-535.592529296875,60938.43028216667,-1.084939818773239,-1.535724113865221,0.1902911228210376,-0.0151201169937849,-0.06183071807026863,-0.02430412732064724,0.007010579109191895,0.007702499628067017,0.013374924659729,1,-0.2984342873096466,-0.6274718642234802,-0.4262259602546692,0.5792645812034607,-0.9813453555107117,-0.1891447752714157,-0.0344320721924305,0,0,0,-1,60938.15022216667,3,1,1561238398.318408,1561238131.651496,42,1.925081,0,0,35.15249,0,0,1561238396.38959,60935.727098,0,-0.4702148,74.40084,2650659446,177292352,1,1,0.45,-160,-160,4
1561238398.615993,44,0,0,1561238395.869471,4.603029053325773,-74.06479650784185,2643.493,1.810272,-1,57.23728942871094,200,-9999,1561238398.596079,-18.73933982849121,17.85296630859375,-0.8001708984375,350.7994079589844,358.3431091308594,15,60938.45561116667,-0.972564697265625,-0.1844940185546875,-0.0286865234375,60938.44551016667,0.01035596821488213,-0.04509717095107479,-0.008819590582015414,60938.44456416667,18.87471008300781,18.3836669921875,-535.7421875,60938.45054516667,-1.08499080242233,-1.536894408787065,0.1906151923104045,0.01025661267340183,-0.04184582456946373,-0.006435382179915905,0.008575916290283203,0.009226202964782715,0.007021129131317139,1,-0.2985947728157043,-0.6278538107872009,-0.4261563122272491,0.5788191556930542,-0.9813237190246582,-0.1894629746675491,-0.03328150883316994,0,0,0,-1,60938.15022216667,3,1,1561238398.318408,1561238131.651496,42,1.925081,0,0,35.15249,0,0,1561238396.38959,60935.727098,0,-0.4702148,74.40084,2650659446,177292352,1,1,0.45,-160,-160,4
1561238398.651109,45,0,0,1561238395.869471,4.603029053325773,-74.06479650784185,2643.493,1.810272,-1,57.23728942871094,200,-9999,1561238398.646716,-18.82151985168457,17.67934799194336,-0.962646484375,350.7509155273438,358.2946166992188,15,60938.47587516667,-0.9745330810546875,-0.1837158203125,-0.0234527587890625,60938.46574316667,0.02349014607893491,0.002575809406324639,0.006611830038339725,60938.46467516667,18.68218994140625,18.33506774902344,-535.732666015625,60938.47080916667,-1.084610835523438,-1.537340878139756,0.1906069659989876,0.02352101728320122,0.00489078788086772,0.006725693587213755,0.008622884750366211,0.005098223686218262,0.004614710807800293,1,-0.298573225736618,-0.6280384659767151,-0.4259774088859558,0.5787616968154907,-0.9813401103019714,-0.1894548982381821,-0.03284342959523201,0,0,0,-1,60938.15022216667,3,1,1561238398.318408,1561238131.651496,42,1.925081,0,0,35.15249,0,0,1561238396.38959,60935.727098,0,-0.4702148,74.40084,2650659446,177292352,1,1,0.45,-160,-160,4
1561238398.656629,46,0,0,1561238395.869471,4.603029053325773,-74.06479650784185,2643.493,1.810272,-1,57.23728942871094,200,-9999,1561238398.646716,-18.82151985168457,17.67934799194336,-0.962646484375,350.7509155273438,358.2946166992188,15,60938.49613916667,-0.981048583984375,-0.1874847412109375,-0.0125579833984375,60938.48600716667,0.03662405762687869,0.01332166440479437,0.01683091177319178,60938.48481616667,18.90139770507812,18.1541748046875,-535.6387329101562,60938.49107316667,-1.083975766673878,-1.537349727445442,0.190414285795758,0.02762681432068348,0.004421539139002562,0.01122483797371387,0.002434015274047852,0.002940624952316284,0.01638698577880859,1,-0.2984380125999451,-0.6281057000160217,-0.4257385730743408,0.5789341926574707,-0.9813768863677979,-0.189265713095665,-0.03283596411347389,0,0,0,-1,60938.15022216667,3,1,1561238398.318408,1561238131.651496,42,1.925081,0,0,35.15249,0,0,1561238396.38959,60935.727098,0,-0.4702148,74.40084,2650659446,177292352,1,1,0.45,-160,-160,4
1561238398.676793,47,0,0,1561238395.869471,4.603029053325773,-74.06479650784185,2643.493,1.810272,-1,57.23728942871094,200,-9999,1561238398.671381,-18.84502601623535,17.76277542114258,-0.86773681640625,350.7430725097656,358.2867736816406,15,60938.51640216667,-0.9766845703125,-0.193359375,-0.0122833251953125,60938.50627016667,-0.0104089651205747,0.02928092355320321,-0.01163295395757512,60938.50492816667,18.73748779296875,18.31484985351562,-535.6618041992188,60938.51133616667,-1.083981085110054,-1.537079924877655,0.1905145381933858,-0.03465067595243454,0.02808319218456745,-0.02289771288633347,0.002085685729980469,-0.0004857182502746582,0.02336496114730835,1,-0.2983498275279999,-0.628042459487915,-0.425808310508728,0.5789968967437744,-0.9813489317893982,-0.1893641501665115,-0.03310009837150574,0,0,0,-1,60938.15022216667,3,1,1561238398.318408,1561238131.651496,42,1.925081,0,0,35.15249,0,0,1561238396.38959,60935.727098,0,-0.4702148,74.40084,2650659446,177292352,1,1,0.45,-160,-160,4
1561238398.697278,48,0,0,1561238395.869471,4.603029053325773,-74.06479650784185,2643.493,1.810272,-1,57.23728942871094,200,-9999,1561238398.671381,-18.84502601623535,17.76277542114258,-0.86773681640625,350.7430725097656,358.2867736816406,15,60938.53666616667,-0.9682769775390625,-0.1852874755859375,-0.0233917236328125,60938.52653416667,-0.06408524320723076,0.04072559202170973,-0.0286452270010013,60938.52506916667,18.96319580078125,18.04296875,-535.8861083984375,60938.53160016667,-1.085194264358735,-1.536189032282558,0.1910452301445693,-0.06467914581298828,0.02626771666109562,-0.02697501145303249,0.009233534336090088,-0.0007733404636383057,0.01610279083251953,1,-0.2983691394329071,-0.6276865601539612,-0.4264402389526367,0.5789077281951904,-0.9812183976173401,-0.189885213971138,-0.03397087752819061,0,0,0,-1,60938.15022216667,3,1,1561238398.318408,1561238131.651496,42,1.925081,0,0,35.15249,0,0,1561238396.38959,60935.727098,0,-0.4702148,74.40084,2650659446,177292352,1,1,0.45,-160,-160,4
1561238398.728717,49,0,0,1561238395.869471,4.603029053325773,-74.06479650784185,2643.493,1.810272,-1,57.23728942871094,200,-9999,1561238398.725154,-18.88926124572754,17.75137329101562,-0.87957763671875,350.8319702148438,358.3756713867188,15,60938.55693016667,-0.961151123046875,-0.1783447265625,-0.033172607421875,60938.54679816667,-0.02145735521887743,-0.004598213938130813,-0.004943359615405082,60938.54521116667,18.9066162109375,18.04241943359375,-535.6900634765625,60938.55186416667,-1.086007813901352,-1.536012980476004,0.1912933134398957,-0.007229437120258808,-0.02176106348633766,-0.002055281307548285,0.01676410436630249,0.008503437042236328,0.004143238067626953,1,-0.2985065877437592,-0.6275530457496643,-0.4267710149288177,0.5787378549575806,-0.98116534948349,-0.1901287734508514,-0.03414198383688927,0,0,0,-1,60938.15022216667,3,1,1561238398.318408,1561238131.651496,42,1.925081,0,0,35.15249,0,0,1561238396.38959,60935.727098,0,-0.4702148,74.40084,2650659446,177292352,1,1,0.45,-160,-160,4
1561238398.737589,50,0,0,1561238395.869471,4.603029053325773,-74.06479650784185,2643.493,1.810272,-1,57.23728942871094,200,-9999,1561238398.725154,-18.88926124572754,17.75137329101562,-0.87957763671875,350.8319702148438,358.3756713867188,15,60938.57719316667,-0.95794677734375,-0.1783294677734375,-0.0346221923828125,60938.56706116667,0.04159697833038365,-0.02192047893244221,0.01364390689669395,60938.56532216667,18.79667663574219,18.15303039550781,-535.3695068359375,60938.57212716667,-1.085495664535912,-1.536700657846187,0.1911696072938462,0.04349685832858086,-0.01596016436815262,0.01295376196503639,0.02180051803588867,0.01222717761993408,-0.002954661846160889,1,-0.2985325753688812,-0.6278091073036194,-0.4264857470989227,0.5786570310592651,-0.9812120795249939,-0.1900073289871216,-0.03346805274486542,0,0,0,-1,60938.15022216667,3,1,1561238398.318408,1561238131.651496,42,1.925081,0,0,35.15249,0,0,1561238396.38959,60935.727098,0,-0.4702148,74.40084,2650659446,177292352,1,1,0.45,-160,-160,4
1561238398.757998,51,0,0,1561238395.869471,4.603029053325773,-74.06479650784185,2643.493,1.810272,-1,57.23728942871094,200,-9999,1561238398.747995,-18.7596607208252,17.88073348999023,-0.64794921875,350.79736328125,358.341064453125,15,60938.59745716667,-0.9466705322265625,-0.185821533203125,-0.0305023193359375,60938.58732516667,0.03277925196113129,0.03866590323464245,0.02415274055814663,60938.58546316667,18.90684509277344,18.28091430664062,-535.8222045898438,60938.59239116667,-1.084723603888754,-1.536581452118983,0.1908262586857059,0.02249490283429623,0.04654582217335701,0.02689940482378006,0.02732419967651367,0.00921979546546936,0.001879453659057617,1,-0.2983759343624115,-0.6278361082077026,-0.4261844754219055,0.5789303779602051,-0.9812731742858887,-0.1896702200174332,-0.033587247133255,0,0,0,-1,60938.15022216667,3,1,1561238398.318408,1561238131.651496,42,1.925081,0,0,35.15249,0,0,1561238396.38959,60935.727098,0,-0.4702148,74.40084,2650659446,177292352,1,1,0.45,-160,-160,4
1561238398.778109,52,0,0,1561238395.869471,4.603029053325773,-74.06479650784185,2643.493,1.810272,-1,57.23728942871094,200,-9999,1561238398.772178,-18.88910865783691,17.87541198730469,-0.8511962890625,350.7692565917969,358.3129577636719,15,60938.61772116667,-0.9434356689453125,-0.1792755126953125,-0.029510498046875,60938.60758916667,0.01747299991200988,0.04647109575744667,0.05468721403645013,60938.60560516667,18.80093383789062,18.13784790039062,-535.7404174804688,60938.61265516667,-1.08435613227068,-1.535772705875303,0.189950691614004,0.01875289529561996,0.02320960909128189,0.0595681369304657,0.03742635250091553,0.007261425256729126,0.008034706115722656,1,-0.2983717024326324,-0.6275197267532349,-0.4259548187255859,0.579444408416748,-0.981411337852478,-0.1888104677200317,-0.03438663855195045,0,0,0,-1,60938.15022216667,3,1,1561238398.318408,1561238131.651496,42,1.925081,0,0,35.15249,0,0,1561238396.38959,60935.727098,0,-0.4702148,74.40084,2650659446,177292352,1,1,0.45,-160,-160,4
1561238398.805681,53,0,0,1561238395.869471,4.603029053325773,-74.06479650784185,2643.493,1.810272,-1,57.23728942871094,200,-9999,1561238398.798565,-18.69537734985352,17.77378463745117,-0.88983154296875,350.705810546875,358.24951171875,15,60938.63798416667,-0.9639739990234375,-0.18243408203125,-0.026336669921875,60938.62785216667,0.05196652866682518,-0.03351242020923011,0.0753392293416876,60938.62571616667,18.92576599121094,18.17645263671875,-535.824462890625,60938.63291816667,-1.08354132010525,-1.536330680720604,0.1885618066541646,0.05640546604990959,-0.05160045251250267,0.06926950067281723,0.03164875507354736,0.005515843629837036,0.003345727920532227,1,-0.298684298992157,-0.6275855898857117,-0.4252482950687408,0.5797308683395386,-0.9816914796829224,-0.1874463856220245,-0.03384803235530853,0,0,0,-1,60938.15022216667,3,1,1561238398.318408,1561238131.651496,42,1.925081,0,0,35.15249,0,0,1561238396.38959,60935.727098,0,-0.4702148,74.40084,2650659446,177292352,1,1,0.45,-160,-160,4
1561238398.818609,54,0,0,1561238395.869471,4.603029053325773,-74.06479650784185,2643.493,1.810272,-1,57.23728942871094,200,-9999,1561238398.798565,-18.69537734985352,17.77378463745117,-0.88983154296875,350.705810546875,358.24951171875,15,60938.65824816667,-0.9841156005859375,-0.18634033203125,-0.009033203125,60938.64811616667,0.05865026405459705,-0.02627101888919565,0.04532327332762252,60938.64585816667,18.92617797851562,18.31707763671875,-535.6456298828125,60938.65318216667,-1.082321508562259,-1.537409321000601,0.1875378532495419,0.04367022961378098,-0.01478118449449539,0.03323453292250633,0.004044055938720703,0.001961737871170044,0.01544630527496338,1,-0.2988618016242981,-0.6279202699661255,-0.424447774887085,0.5798637270927429,-0.9819188117980957,-0.1864404827356339,-0.03279551491141319,0,0,0,-1,60938.15022216667,3,1,1561238398.318408,1561238131.651496,42,1.925081,0,0,35.15249,0,0,1561238396.38959,60935.727098,0,-0.4702148,74.40084,2650659446,177292352,1,1,0.45,-160,-160,4
1561238398.838893,55,0,0,1561238395.869471,4.603029053325773,-74.06479650784185,2643.493,1.810272,-1,57.23728942871094,200,-9999,1561238398.822924,-18.73337554931641,18.04013061523438,-0.9898681640625,350.6410217285156,358.1847229003906,15,60938.678526,-0.97174072265625,-0.184814453125,-0.006866455078125,60938.66838016667,-0.01797580472581684,0.05429785988508055,0.02454742103169637,60938.666013,18.87161254882812,18.23538208007812,-535.7339477539062,60938.67341516667,-1.082281480967895,-1.536893732898886,0.1870284528087272,-0.04097994416952133,0.05887306481599808,0.02134351804852486,0.001329302787780762,0.001186609268188477,0.02953606843948364,1,-0.2989046573638916,-0.6276969909667969,-0.4243709444999695,0.5801393985748291,-0.9819964170455933,-0.1859399974346161,-0.03330498561263084,0,0,0,-1,60938.15022216667,3,1,1561238398.318408,1561238131.651496,42,1.925081,0,0,35.15249,0,0,1561238396.38959,60935.727098,0,-0.4702148,74.40084,2650659446,177292352,1,1,0.45,-160,-160,4
1561238398.859252,56,0,0,1561238395.869471,4.603029053325773,-74.06479650784185,2643.493,1.810272,-1,57.23728942871094,200,-9999,1561238398.849318,-18.64013862609863,17.83020401000977,-0.845947265625,350.7033386230469,358.2470397949219,15,60938.698789,-0.96539306640625,-0.178436279296875,-0.0202178955078125,60938.68865700001,-0.06006333732899309,0.0689835954002135,0.03530898868059756,60938.68612400001,18.78251647949219,17.97674560546875,-535.7603759765625,60938.693693,-1.083443323882471,-1.535418855837079,0.1864118358106347,-0.05470401048660278,0.04958795011043549,0.03866658359766006,0.01616406440734863,0.002182871103286743,0.02116173505783081,1,-0.2991555035114288,-0.6269986629486084,-0.4247564673423767,0.5804830193519592,-0.9820606112480164,-0.185334101319313,-0.03475732356309891,0,0,0,-1,60938.15022216667,3,1,1561238398.318408,1561238131.651496,42,1.925081,0,0,35.15249,0,0,1561238396.38959,60935.727098,0,-0.4702148,74.40084,2650659446,177292352,1,1,0.45,-160,-160,4
1561238398.891467,57,0,0,1561238395.869471,4.603029053325773,-74.06479650784185,2643.493,1.810272,-1,57.23728942871094,200,-9999,1561238398.8771,-18.73727989196777,17.75300598144531,-0.8304443359375,350.7407836914062,358.2844848632812,15,60938.719022,-0.975189208984375,-0.16845703125,-0.028900146484375,60938.708921,0.004842425810091078,0.00434334942181023,0.05435112310688214,60938.706266,18.87702941894531,18.18128967285156,-535.6228637695312,60938.71395600001,-1.083783219767923,-1.535023783801637,0.1854605066690937,0.02464939840137959,-0.01446160487830639,0.05264125391840935,0.01348799467086792,0.01166969537734985,0.00867760181427002,1,-0.2994858920574188,-0.6266836524009705,-0.4246488809585571,0.5807316303253174,-0.9822227358818054,-0.1843991577625275,-0.03515160083770752,0,0,0,-1,60938.15022216667,3,1,1561238398.318408,1561238131.651496,42,1.925081,0,0,35.15249,0,0,1561238396.38959,60935.727098,0,-0.4702148,74.40084,2650659446,177292352,1,1,0.45,-160,-160,4
1561238398.899802,58,0,0,1561238395.869471,4.603029053325773,-74.06479650784185,2643.493,1.810272,-1,57.23728942871094,200,-9999,1561238398.8771,-18.73727989196777,17.75300598144531,-0.8304443359375,350.7407836914062,358.2844848632812,15,60938.739286,-0.9832916259765625,-0.17315673828125,-0.0176544189453125,60938.729154,0.06258961193904225,-0.00748348266312266,0.04032957996761494,60938.72637700001,18.83840942382812,18.15347290039062,-535.9491577148438,60938.73422000001,-1.082720240490264,-1.535559303284671,0.1846268146634139,0.05360328778624535,0.006690818350762129,0.03049680404365063,0.002536177635192871,0.01535153388977051,0.008996248245239258,1,-0.2995361387729645,-0.6268672943115234,-0.4240272641181946,0.5809615254402161,-0.9823945164680481,-0.1835796982049942,-0.03463099524378777,0,0,0,-1,60938.15022216667,3,1,1561238398.318408,1561238131.651496,42,1.925081,0,0,35.15249,0,0,1561238396.38959,60935.727098,0,-0.4702148,74.40084,2650659446,177292352,1,1,0.45,-160,-160,4
1561238398.919919,59,0,0,1561238395.869471,4.603029053325773,-74.06479650784185,2643.493,1.810272,-1,57.23728942871094,200,-9999,1561238398.899818,-18.7281436920166,17.78456878662109,-1.01361083984375,350.6668090820312,358.2105102539062,15,60938.75955,-0.97418212890625,-0.179718017578125,-0.00390625,60938.74941800001,0.008280034145165359,0.09719952083349402,0.0220781380689749,60938.746519,19.01284790039062,18.26768493652344,-535.9083862304688,60938.754484,-1.08223841625926,-1.534482884647256,0.1842092681159859,-0.01664797216653824,0.1079577803611755,0.02218534238636494,-0.000476837158203125,0.002993464469909668,0.02896213531494141,1,-0.2992920279502869,-0.6265609860420227,-0.4239318072795868,0.5814872980117798,-0.9824333190917969,-0.1831692308187485,-0.03569122403860092,0,0,0,-1,60938.15022216667,3,1,1561238398.318408,1561238131.651496,42,1.925081,0,0,35.15249,0,0,1561238396.38959,60935.727098,0,-0.4702148,74.40084,2650659446,177292352,1,1,0.45,-160,-160,4
1561238398.944151,60,0,0,1561238395.869471,4.603029053325773,-74.06479650784185,2643.493,1.810272,-1,57.23728942871094,200,-9999,1561238398.924113,-18.69952964782715,17.98863983154297,-1.02911376953125,350.6714782714844,358.2151794433594,15,60938.779813,-0.963775634765625,-0.1674041748046875,-0.0116119384765625,60938.76968200001,-0.04286544195758839,0.1169093097450615,0.05896238653435434,60938.76666,18.90217590332031,18.14060974121094,-536.06982421875,60938.774747,-1.082961848692129,-1.532138141519041,0.1832965784045927,-0.04033093154430389,0.09175591170787811,0.06661619246006012,0.01455700397491455,0.008535325527191162,0.03180605173110962,1,-0.299316793680191,-0.625626802444458,-0.424238532781601,0.5822561383247375,-0.9825135469436646,-0.1822719126939774,-0.03800112381577492,0,0,0,-1,60938.15022216667,3,1,1561238398.318408,1561238131.651496,42,1.925081,0,0,35.15249,0,0,1561238396.38959,60935.727098,0,-0.4702148,74.40084,2650659446,177292352,1,1,0.45,-160,-160,4
1561238398.973282,61,0,0,1561238395.869471,4.603029053325773,-74.06479650784185,2643.493,1.810272,-1,57.23728942871094,200,-9999,1561238398.950839,-18.73332595825195,17.86736297607422,-0.87506103515625,350.7127685546875,358.2564697265625,15,60938.80007700001,-0.967559814453125,-0.168060302734375,-0.02813720703125,60938.789945,0.00410473018813913,0.01661466309267734,0.08370741411893458,60938.78677100001,19.10246276855469,18.28173828125,-535.9183959960938,60938.795011,-1.083184166482141,-1.531342830237724,0.1817286449899876,0.01707350462675095,-0.004725353792309761,0.07223572582006454,0.01862561702728271,0.01566043496131897,0.01824015378952026,1,-0.299725353717804,-0.6251142621040344,-0.4239852130413055,0.5827808380126953,-0.9827674627304077,-0.180730015039444,-0.03879374265670776,0,0,0,-1,60938.15022216667,3,1,1561238398.318408,1561238131.651496,42,1.925081,0,0,35.15249,0,0,1561238396.38959,60935.727098,0,-0.4702148,74.40084,2650659446,177292352,1,1,0.45,-160,-160,4
1561238398.980716,62,0,0,1561238395.869471,4.603029053325773,-74.06479650784185,2643.493,1.810272,-1,57.23728942871094,200,-9999,1561238398.977218,-18.45427894592285,17.981689453125,-1.05462646484375,350.6625671386719,358.2062683105469,15,60938.82034100001,-0.9770965576171875,-0.171966552734375,-0.0233306884765625,60938.810209,0.04857126459308316,0.009589510453157321,0.06113845546105808,60938.806913,19.042236328125,18.4249267578125,-535.898681640625,60938.815275,-1.082355613094844,-1.531560203199898,0.1804655787308452,0.03879664465785027,0.02743897400796413,0.05433875322341919,0.01057577133178711,0.00889432430267334,0.0109095573425293,1,-0.2999213933944702,-0.6251021027565002,-0.4233587682247162,0.5831483006477356,-0.9830031394958496,-0.1794876158237457,-0.03858903795480728,0,0,0,-1,60938.810056,2,0,1561238398.978242,1561238131.651496,42,1.925081,0,0,35.15249,0,0,1561238398.978609,60935.727098,0,-0.4702148,74.40084,2650659446,177292352,1,1,0.45,-160,-160,4
1561238399.001697,63,0,0,1561238395.869471,4.603029053325773,-74.06479650784185,2643.493,1.810272,-1,57.23728942871094,200,-9999,1561238398.977218,-18.45427894592285,17.981689453125,-1.05462646484375,350.6625671386719,358.2062683105469,15,60938.840604,-0.9751739501953125,-0.175140380859375,-0.016754150390625,60938.830473,-0.01179620573239698,0.1243520460435059,0.06947148651191602,60938.827055,19.1519775390625,18.54563903808594,-535.9074096679688,60938.83553800001,-1.082205699295311,-1.529879321092126,0.1792047870439816,-0.02911955676972866,0.1362749040126801,0.08272858709096909,0.006798148155212402,0.003488242626190186,0.02004790306091309,1,-0.2999270856380463,-0.6244345307350159,-0.4232152998447418,0.5839641690254211,-0.9831622242927551,-0.1782471537590027,-0.04025052115321159,0,0,0,-1,60938.810056,2,0,1561238398.978242,1561238131.651496,42,1.925081,0,0,35.15249,0,0,1561238398.978609,60935.727098,0,-0.4702148,74.40084,2650659446,177292352,1,1,0.45,-160,-160,4
1561238399.022329,64,0,0,1561238395.869471,4.603029053325773,-74.06479650784185,2643.493,1.810272,-1,57.23728942871094,200,-9999,1561238399.001704,-18.53885269165039,17.96588516235352,-0.97882080078125,350.6644897460938,358.2081909179688,15,60938.860868,-0.98443603515625,-0.1634521484375,-0.0171661376953125,60938.850736,-0.03689170531643166,0.1435635575151195,0.1233054237351048,60938.84716600001,18.95248413085938,18.38865661621094,-535.8193359375,60938.85580200001,-1.082876162029227,-1.527023823786243,0.1769852483209328,-0.0326881930232048,0.1207867562770844,0.1209582611918449,0.005225777626037598,0.008643299341201782,0.02728211879730225,1,-0.3002510368824005,-0.6231467127799988,-0.4232208728790283,0.5851681232452393,-0.9834361672401428,-0.1760627180337906,-0.04307497665286064,0,0,0,-1,60938.810056,2,0,1561238398.978242,1561238131.651496,42,1.925081,0,0,35.15249,0,0,1561238398.978609,60935.727098,0,-0.4702148,74.40084,2650659446,177292352,1,1,0.45,-160,-160,4
1561238399.053067,65,0,0,1561238395.869471,4.603029053325773,-74.06479650784185,2643.493,1.810272,-1,57.23728942871094,200,-9999,1561238399.025966,-18.45001602172852,18.08980560302734,-0.93475341796875,350.7052307128906,358.2489318847656,15,60938.881132,-1.011795043945312,-0.1713104248046875,-0.021697998046875,60938.87100000001,-0.001351554253215213,0.1000360537105374,0.1098455412697353,60938.867307,19.14161682128906,18.45133972167969,-536.0488891601562,60938.876066,-1.083048225531859,-1.525029114514859,0.1746854396336168,-0.0003944339696317911,0.1092432886362076,0.09520415961742401,-0.01336604356765747,0.005677074193954468,0.02588993310928345,1,-0.300628125667572,-0.6221697926521301,-0.422930121421814,0.5862231254577637,-0.98375004529953,-0.1737983673810959,-0.04505495727062225,0,0,0,-1,60938.810056,2,0,1561238398.978242,1561238131.651496,42,1.925081,0,0,35.15249,0,0,1561238398.978609,60935.727098,0,-0.4702148,74.40084,2650659446,177292352,1,1,0.45,-160,-160,4
1561238399.062477,66,0,0,1561238395.869471,4.603029053325773,-74.06479650784185,2643.493,1.810272,-1,57.23728942871094,200,-9999,1561238399.05192,-18.51948547363281,18.10398483276367,-1.33502197265625,350.7146606445312,358.2583618164062,15,60938.901395,-1.026580810546875,-0.175750732421875,-0.0332489013671875,60938.89126400001,-0.03194514990771848,0.2377289389186863,0.07194875895790773,60938.887449,19.2113037109375,18.53353881835938,-536.007568359375,60938.89633,-1.083421798460632,-1.521230611994595,0.1731027734993127,-0.05699672549962997,0.2803995907306671,0.06322146207094193,-0.04069077968597412,-0.0001847147941589355,0.02474188804626465,1,-0.3004540503025055,-0.6207454204559326,-0.4231700599193573,0.587647557258606,-0.9838453531265259,-0.1722395718097687,-0.04880497232079506,0,0,0,-1,60938.810056,2,0,1561238398.978242,1561238131.651496,42,1.925081,0,0,35.15249,0,0,1561238398.978609,60935.727098,0,-0.4702148,74.40084,2650659446,177292352,1,1,0.45,-160,-160,4
1561238399.082117,67,0,0,1561238395.869471,4.603029053325773,-74.06479650784185,2643.493,1.810272,-1,57.23728942871094,200,-9999,1561238399.07611,-18.61188697814941,18.04308700561523,-1.1678466796875,350.8188781738281,358.3625793457031,15,60938.92165900001,-1.03863525390625,-0.170257568359375,-0.05218505859375,60938.911527,-0.08855569888342384,0.3857242628038066,0.1035487631883519,60938.90759,19.2564697265625,18.44010925292969,-536.3400268554688,60938.916593,-1.085004740233326,-1.513871102918349,0.1713034903752683,-0.07589824497699738,0.4068113267421722,0.1308942437171936,-0.04111969470977783,-0.001408100128173828,0.01193332672119141,1,-0.2999697923660278,-0.6180511713027954,-0.4242414832115173,0.5899577140808105,-0.9837673902511597,-0.1704668998718262,-0.0560617484152317,0,0,0,-1,60938.810056,2,0,1561238398.978242,1561238131.651496,42,1.925081,0,0,35.15249,0,0,1561238398.978609,60935.727098,0,-0.4702148,74.40084,2650659446,177292352,1,1,0.45,-160,-160,4
1561238399.102957,68,0,0,1561238395.869471,4.603029053325773,-74.06479650784185,2643.493,1.810272,-1,57.23728942871094,200,-9999,1561238399.07611,-18.61188697814941,18.04308700561523,-1.1678466796875,350.8188781738281,358.3625793457031,15,60938.94192300001,-1.183746337890625,-0.1314849853515625,-0.027130126953125,60938.931791,0.03263837073946611,0.6193303620389412,0.2640074146589341,60938.927702,19.2967529296875,18.33955383300781,-536.434326171875,60938.936826,-1.084912153307076,-1.503161754328043,0.1670044822682638,0.06385885179042816,0.7607470154762268,0.3039997220039368,-0.1069725751876831,0.02552798390388489,0.02295678853988647,1,-0.2990696132183075,-0.6141954064369202,-0.4246301651000977,0.5941468477249146,-0.9838324785232544,-0.1662292629480362,-0.06664273887872696,0,0,0,-1,60938.810056,2,0,1561238398.978242,1561238131.651496,42,1.925081,0,0,35.15249,0,0,1561238398.978609,60935.727098,0,-0.4702148,74.40084,2650659446,177292352,1,1,0.45,-160,-160,4
1561238399.133176,69,0,0,1561238395.869471,4.603029053325773,-74.06479650784185,2643.493,1.810272,-1,57.23728942871094,200,-9999,1561238399.126735,-18.16368103027344,18.02775955200195,-1.9119873046875,350.7186889648438,358.2623901367188,15,60938.962186,-1.310516357421875,-0.143707275390625,-0.032318115234375,60938.952055,0.0684794590058615,1.419137292198154,0.2797802525310374,60938.947843,19.3076171875,18.5745849609375,-536.7581176757812,60938.95709,-1.083006982689473,-1.479417347614861,0.1611980651364974,0.02416097559034824,1.645259261131287,0.2215431779623032,-0.2868425846099854,0.01882296800613403,0.07223129272460938,1,-0.2953431010246277,-0.6064140796661377,-0.4259969294071198,0.6029601097106934,-0.9829174876213074,-0.1605008542537689,-0.09006883203983307,0,0,0,-1,60938.810056,2,0,1561238398.978242,1561238131.651496,42,1.925081,0,0,35.15249,0,0,1561238398.978609,60935.727098,0,-0.4702148,74.40084,2650659446,177292352,1,1,0.45,-160,-160,4
1561238399.142891,70,0,0,1561238395.869471,4.603029053325773,-74.06479650784185,2643.493,1.810272,-1,57.23728942871094,200,-9999,1561238399.126735,-18.16368103027344,18.02775955200195,-1.9119873046875,350.7186889648438,358.2623901367188,15,60938.98242,-1.283157348632812,-0.091033935546875,-0.1224365234375,60938.972318,-0.1710644241957137,2.223148022138057,0.05527044631517749,60938.967985,19.58389282226562,18.450927734375,-537.3267822265625,60938.977354,-1.084916618054397,-1.437970552440727,0.1587864963742422,-0.2406634986400604,2.300317525863647,0.03094634227454662,-0.3205941915512085,0.03128901124000549,0.06094527244567871,1,-0.2878263890743256,-0.5931030511856079,-0.4319723844528198,0.6154546737670898,-0.9787222146987915,-0.1581200808286667,-0.1307694762945175,0,0,0,-1,60938.810056,2,0,1561238398.978242,1561238131.651496,42,1.925081,0,0,35.15249,0,0,1561238398.978609,60935.727098,0,-0.4702148,74.40084,2650659446,177292352,1,1,0.45,-160,-160,4
1561238399.163228,71,0,0,1561238395.869471,4.603029053325773,-74.06479650784185,2643.493,1.810272,-1,57.23728942871094,200,-9999,1561238399.153734,-18.20731925964355,18.25019073486328,-2.53485107421875,351.0928649902344,358.6365661621094,15,60939.00268300001,-1.26849365234375,-0.032806396484375,-0.2617034912109375,60938.992551,-0.3727725114744243,2.216617418512965,-0.04132773274417664,60938.988096,19.58470153808594,19.06686401367188,-538.3758544921875,60938.997617,-1.09175420304976,-1.391306680254537,0.1581287862113808,-0.3973060846328735,2.084207057952881,-0.1074525415897369,-0.3075006008148193,0.1137389242649078,-0.0148773193359375,1,-0.2798703610897064,-0.577514111995697,-0.440548837184906,0.6277472972869873,-0.9716589450836182,-0.1574706137180328,-0.1763000637292862,0,0,0,-1,60938.810056,2,0,1561238398.978242,1561238131.651496,42,1.925081,0,0,35.15249,0,0,1561238398.978609,60935.727098,0,-0.4702148,74.40084,2650659446,177292352,1,1,0.45,-160,-160,4
1561238399.183553,72,0,0,1561238395.869471,4.603029053325773,-74.06479650784185,2643.493,1.810272,-1,57.23728942871094,200,-9999,1561238399.178169,-18.14967918395996,18.45451736450195,-3.40966796875,351.6566467285156,359.2003479003906,15,60939.022947,-1.32659912109375,-0.02862548828125,-0.3778228759765625,60939.012815,-0.2671781742527825,1.424642046171348,-0.4479173300565361,60939.008237,19.611328125,18.799560546875,-538.6556396484375,60939.01788100001,-1.099555067415243,-1.35651071987431,0.1634159947971637,-0.1420530378818512,1.167005300521851,-0.5946595072746277,-0.3172158002853394,0.1381229758262634,-0.1181560754776001,1,-0.2725521922111511,-0.5663983821868896,-0.4491583406925201,0.6349526643753052,-0.9641104936599731,-0.1626896411180496,-0.2098163515329361,0,0,0,-1,60938.810056,2,0,1561238398.978242,1561238131.651496,42,1.925081,0,0,35.15249,0,0,1561238398.978609,60935.727098,0,-0.4702148,74.40084,2650659446,177292352,1,1,0.45,-160,-160,4
1561238399.209955,73,0,0,1561238395.869471,4.603029053325773,-74.06479650784185,2643.493,1.810272,-1,57.23728942871094,200,-9999,1561238399.204585,-18.49399185180664,17.94307708740234,-4.340576171875,351.6092224121094,359.1529235839844,15,60939.043211,-1.470138549804688,-0.052337646484375,-0.3795166015625,60939.033079,0.3477518467170208,0.5017483378025257,-1.040691448653534,60939.028379,19.10173034667969,18.41494750976562,-539.1818237304688,60939.03814500001,-1.100077852012819,-1.341940021041669,0.1818791294471485,0.5061782002449036,0.3579226136207581,-1.195392489433289,-0.4391105175018311,0.1381076574325562,-0.1758955121040344,1,-0.2630199193954468,-0.5650306344032288,-0.4558480978012085,0.6354238390922546,-0.9578621387481689,-0.1808780282735825,-0.2231218069791794,0,0,0,-1,60938.810056,2,0,1561238398.978242,1561238131.651496,42,1.925081,0,0,35.15249,0,0,1561238398.978609,60935.727098,0,-0.4702148,74.40084,2650659446,177292352,1,1,0.45,-160,-160,4
1561238399.22403,74,0,0,1561238395.869471,4.603029053325773,-74.06479650784185,2643.493,1.810272,-1,57.23728942871094,200,-9999,1561238399.204585,-18.49399185180664,17.94307708740234,-4.340576171875,351.6092224121094,359.1529235839844,15,60939.063474,-1.522903442382812,-0.0741729736328125,-0.2864990234375,60939.05334200001,0.7632774147510322,0.3104420251094467,-1.591909335284827,60939.048521,18.86222839355469,18.13011169433594,-539.43896484375,60939.058408,-1.093178012644003,-1.337091457898045,0.2139340502695519,0.7592906355857849,0.3706370890140533,-1.693973302841187,-0.5630796551704407,0.1527508497238159,-0.1065513491630554,1,-0.2487664222717285,-0.5700555443763733,-0.4620844721794128,0.6321627497673035,-0.9506379365921021,-0.2123059034347534,-0.2263038903474808,0,0,0,-1,60938.810056,2,0,1561238398.978242,1561238131.651496,42,1.925081,0,0,35.15249,0,0,1561238398.978609,60935.727098,0,-0.4702148,74.40084,2650659446,177292352,1,1,0.45,-160,-160,4
1561238399.244219,75,0,0,1561238395.869471,4.603029053325773,-74.06479650784185,2643.493,1.810272,-1,57.23728942871094,200,-9999,1561238399.228146,-19.03168106079102,17.41372680664062,-4.53741455078125,351.1224365234375,358.6661376953125,15,60939.083738,-1.5098876953125,-0.0677490234375,-0.212371826171875,60939.07360600001,0.6040850963787826,0.7067156016232752,-1.901410199265039,60939.068632,18.38699340820312,17.44223022460938,-539.6622924804688,60939.078672,-1.088855621067912,-1.326162834938553,0.253253613359026,0.5207659006118774,0.7953127026557922,-1.963828921318054,-0.5837931632995605,0.1752377152442932,-0.005072593688964844,1,-0.2311189472675323,-0.5738871693611145,-0.471409022808075,0.6284990310668945,-0.9392781853675842,-0.2505550980567932,-0.2344750910997391,0,0,0,-1,60938.810056,2,0,1561238398.978242,1561238131.651496,42,1.925081,0,0,35.15249,0,0,1561238398.978609,60935.727098,0,-0.4702148,74.40084,2650659446,177292352,1,1,0.45,-160,-160,4
1561238399.286836,76,0,0,1561238395.869471,4.603029053325773,-74.06479650784185,2643.493,1.810272,-1,57.23728942871094,200,-9999,1561238399.2786,-20.66823387145996,14.67941856384277,-6.16162109375,351.7186279296875,359.2623291015625,15,60939.10400200001,-1.483474731445312,-0.0254058837890625,-0.203033447265625,60939.09387,0.3333265683564976,1.017213286799505,-2.124579636504262,60939.088773,17.85459899902344,16.62156677246094,-540.1153564453125,60939.098936,-1.091881112733981,-1.306240142304853,0.2959295835879142,0.2830926775932312,1.044259667396545,-2.205818176269531,-0.567577064037323,0.2311128079891205,0.05626708269119263,1,-0.2120020836591721,-0.5744543075561523,-0.4844195246696472,0.6248160600662231,-0.9232524633407593,-0.2916291654109955,-0.2501147389411926,0,0,0,-1,60938.810056,2,0,1561238398.978242,1561238131.651496,42,1.925081,0,0,35.15249,0,0,1561238398.978609,60936.675354,0,-0.6896973,74.40289,2650659446,177292352,1,1,0.45,-160,-160,4
1561238399.289238,77,0,0,1561238395.869471,4.603029053325773,-74.06479650784185,2643.493,1.810272,-1,57.23728942871094,200,-9999,1561238399.2786,-20.66823387145996,14.67941856384277,-6.16162109375,351.7186279296875,359.2623291015625,15,60939.12426500001,-1.482894897460938,-0.0056304931640625,-0.2674102783203125,60939.114133,0.2773895328204733,1.029413494069267,-2.548166326841835,60939.108884,17.36073303222656,15.51957702636719,-540.8810424804688,60939.119199,-1.100527054686883,-1.282603492919197,0.3448150509621311,0.304882138967514,1.004946947097778,-2.6970534324646,-0.5808908343315125,0.3382972478866577,0.02742373943328857,1,-0.1910111457109451,-0.5742557048797607,-0.5002874732017517,0.6192393898963928,-0.9023244976997375,-0.3380226194858551,-0.2674902677536011,0,0,0,-1,60938.810056,2,0,1561238398.978242,1561238131.651496,42,1.925081,0,0,35.15249,0,0,1561238398.978609,60936.675354,0,-0.6896973,74.40289,2650659446,177292352,1,1,0.45,-160,-160,4
1561238399.30508,78,0,0,1561238395.869471,4.603029053325773,-74.06479650784185,2643.493,1.810272,-1,57.23728942871094,200,-9999,1561238399.2786,-20.66823387145996,14.67941856384277,-6.16162109375,351.7186279296875,359.2623291015625,15,60939.144529,-1.476425170898438,0.0206451416015625,-0.313201904296875,60939.134397,0.4224556458226155,0.9441012590774502,-3.195868142921717,60939.129026,16.20475769042969,14.25738525390625,-541.418701171875,60939.13946300001,-1.112145887041135,-1.258939432512732,0.4057219180770284,0.4586304128170013,0.9348000288009644,-3.374160766601562,-0.6065648198127747,0.3942396640777588,-0.01512521505355835,1,-0.1660632789134979,-0.5757292509078979,-0.518676221370697,0.609863817691803,-0.8744990229606628,-0.3946821689605713,-0.2819176316261292,0,0,0,-1,60938.810056,2,0,1561238398.978242,1561238131.651496,42,1.925081,0,0,35.15249,0,0,1561238398.978609,60936.675354,0,-0.6896973,74.40289,2650659446,177292352,1,1,0.45,-160,-160,4
1561238399.325132,79,0,0,1561238395.869471,4.603029053325773,-74.06479650784185,2643.493,1.810272,-1,57.23728942871094,200,-9999,1561238399.305081,-21.35990524291992,13.40275764465332,-6.49163818359375,352.5823364257812,0.1260230541229248,15,60939.164793,-1.452423095703125,0.0674896240234375,-0.2959442138671875,60939.154661,0.5287559870492373,1.042014507083086,-3.914462508271182,60939.149168,15.70205688476562,12.61825561523438,-541.729736328125,60939.15972700001,-1.128169769179004,-1.231815037237425,0.4807120119514918,0.523338794708252,1.12744402885437,-4.102228164672852,-0.6411314606666565,0.5084769129753113,-0.01601213216781616,1,-0.1357795149087906,-0.5780518651008606,-0.5400722622871399,0.5964410305023193,-0.8362091779708862,-0.4624105989933014,-0.2948399186134338,0,0,0,-1,60938.810056,2,0,1561238398.978242,1561238131.651496,42,1.925081,0,0,35.15249,0,0,1561238398.978609,60936.675354,0,-0.6896973,74.40289,2650659446,177292352,1,1,0.45,-160,-160,4
1561238399.366154,80,0,0,1561238395.869471,4.603029053325773,-74.06479650784185,2643.493,1.810272,-1,57.23728942871094,200,-9999,1561238399.355812,-22.98820495605469,9.494895935058594,-7.86328125,356.2216186523438,3.765318632125854,15,60939.185056,-1.382095336914062,0.1497039794921875,-0.2441864013671875,60939.17492400001,0.5351486389298635,1.590830222411127,-4.591107559078045,60939.169279,14.94281005859375,10.5146484375,-542.4439086914062,60939.17999,-1.153049319903544,-1.190465867360569,0.5685851676164374,0.5381555557250977,1.746096611022949,-4.746933937072754,-0.6449958682060242,0.641177773475647,0.04302912950515747,1,-0.09867531061172485,-0.5778003931045532,-0.565091073513031,0.58058762550354,-0.7824485898017883,-0.5384403467178345,-0.31281977891922,0,0,0,-1,60938.810056,2,0,1561238398.978242,1561238131.651496,42,1.925081,0,0,35.15249,0,0,1561238398.978609,60936.675354,0,-0.6896973,74.40289,2650659446,177292352,1,1,0.45,-160,-160,4
1561238399.369423,81,0,0,1561238395.869471,4.603029053325773,-74.06479650784185,2643.493,1.810272,-1,57.23728942871094,200,-9999,1561238399.355812,-22.98820495605469,9.494895935058594,-7.86328125,356.2216186523438,3.765318632125854,15,60939.20532,-1.203216552734375,0.1513671875,-0.22296142578125,60939.19518800001,0.6500717631339439,2.112220704833532,-5.164136735037087,60939.18942,14.24253845214844,8.237030029296875,-543.443359375,60939.200224,-1.189114252288695,-1.129226340258188,0.6668033385472529,0.7033554315567017,2.157009601593018,-5.297018051147461,-0.5800211429595947,0.7800067663192749,0.1047410368919373,1,-0.05419681221246719,-0.573718249797821,-0.592211127281189,0.5632015466690063,-0.7104299068450928,-0.6184772253036499,-0.3358201384544373,0,0,0,-1,60938.810056,2,0,1561238398.978242,1561238131.651496,42,1.925081,0,0,35.15249,0,0,1561238398.978609,60936.675354,0,-0.6896973,74.40289,2650659446,177292352,1,1,0.45,-160,-160,4
1561238399.386006,82,0,0,1561238395.869471,4.603029053325773,-74.06479650784185,2643.493,1.810272,-1,57.23728942871094,200,-9999,1561238399.380357,-23.96709823608398,4.029390335083008,-9.81927490234375,359.6008911132812,7.144575119018555,15,60939.22558400001,-0.892852783203125,0.0711669921875,-0.2775421142578125,60939.215452,0.9107949675365923,2.094919212495723,-5.661408565363298,60939.209562,13.68159484863281,5.399185180664062,-544.75830078125,60939.22048700001,-1.238016798729946,-1.05391783820875,0.7743167265061484,0.99509596824646,1.993888854980469,-5.766226291656494,-0.4389464855194092,0.8234342932701111,0.10862135887146,1,-0.004414960276335478,-0.568630039691925,-0.6190412044525146,0.5416902899742126,-0.6215088367462158,-0.6992277503013611,-0.353280782699585,0,0,0,-1,60938.810056,2,0,1561238398.978242,1561238131.651496,42,1.925081,0,0,35.15249,0,0,1561238398.978609,60936.675354,0,-0.6896973,74.40289,2650659446,177292352,1,1,0.45,-160,-160,4
1561238399.406074,83,0,0,1561238395.869471,4.603029053325773,-74.06479650784185,2643.493,1.810272,-1,57.23728942871094,200,-9999,1561238399.380357,-23.96709823608398,4.029390335083008,-9.81927490234375,359.6008911132812,7.144575119018555,15,60939.245817,-0.642578125,-0.033599853515625,-0.26898193359375,60939.235715,1.31111947838454,1.640933337263223,-6.030623892569704,60939.229673,13.78782653808594,2.365280151367188,-545.2122192382812,60939.240751,-1.302250189299321,-0.9707613634636343,0.8893582988861384,1.395265579223633,1.511293411254883,-6.110257625579834,-0.2606882452964783,0.7982130646705627,0.07782983779907227,1,0.04737158492207527,-0.565605640411377,-0.6435750722885132,0.5134756565093994,-0.5198751091957092,-0.7766677141189575,-0.3556923866271973,0,0,0,-1,60938.810056,2,0,1561238398.978242,1561238131.651496,42,1.925081,0,0,35.15249,0,0,1561238398.978609,60936.675354,0,-0.6896973,74.40289,2650659446,177292352,1,1,0.45,-160,-160,4
1561238399.454101,84,0,0,1561238395.869471,4.603029053325773,-74.06479650784185,2643.493,1.810272,-1,57.23728942871094,200,-9999,1561238399.430859,-23.42961502075195,-2.4247145652771,-11.11175537109375,11.12069511413574,18.66438293457031,15,60939.26608,-0.40545654296875,-0.119049072265625,-0.1830596923828125,60939.25594900001,1.649980361802332,1.201805504068385,-6.103533786365021,60939.249815,14.08538818359375,-0.836273193359375,-545.7468872070312,60939.261015,-1.387480008235693,-0.8750986221252861,1.007424670814622,1.732792139053345,1.110124468803406,-6.036845207214355,-0.09084561467170715,0.7480319738388062,0.0994795560836792,1,0.09886836260557175,-0.5648772716522217,-0.6644920110702515,0.4791545569896698,-0.409932553768158,-0.8454593420028687,-0.3422774374485016,0,0,0,-1,60938.810056,2,0,1561238398.978242,1561238131.651496,42,1.925081,0,0,35.15249,0,0,1561238398.978609,60936.675354,0,-0.6896973,74.40289,2650659446,177292352,1,1,0.45,-160,-160,4
1561238399.458037,85,0,0,1561238395.869471,4.603029053325773,-74.06479650784185,2643.493,1.810272,-1,57.23728942871094,200,-9999,1561238399.430859,-23.42961502075195,-2.4247145652771,-11.11175537109375,11.12069511413574,18.66438293457031,15,60939.286344,-0.1243743896484375,-0.19317626953125,-0.1083221435546875,60939.276212,1.873623841715589,0.8865130636655768,-5.754394432720069,60939.269956,14.42878723144531,-4.053939819335938,-546.1334838867188,60939.281278,-1.499131138526198,-0.7580087884346141,1.119411986038146,1.872226238250732,0.7915749549865723,-5.618548393249512,0.01045668125152588,0.7749204039573669,0.1840282678604126,1,0.1474373340606689,-0.5655726194381714,-0.6801801323890686,0.4424306154251099,-0.2998853921890259,-0.8998441100120544,-0.3167797029018402,0,0,0,-1,60938.810056,2,0,1561238398.978242,1561238131.651496,42,1.925081,0,0,35.15249,0,0,1561238398.978609,60936.675354,0,-0.6896973,74.40289,2650659446,177292352,1,1,0.45,-160,-160,4
1561238399.467068,86,0,0,1561238395.869471,4.603029053325773,-74.06479650784185,2643.493,1.810272,-1,57.23728942871094,200,-9999,1561238399.460021,-22.85664749145508,-5.421640396118164,-11.38677978515625,59.99227905273438,67.53596496582031,15,60939.30660800001,0.11358642578125,-0.3715667724609375,-0.0579376220703125,60939.296476,1.788866609494945,0.5464194029791879,-5.189524117076594,60939.290098,15.46882629394531,-7.28106689453125,-546.1327514648438,60939.301542,-1.654470461046808,-0.6023209233634743,1.216260373774797,1.718181014060974,0.4685628414154053,-5.093621730804443,0.2008488774299622,0.6456171274185181,0.201408326625824,1,0.1901441663503647,-0.5664036870002747,-0.6916301250457764,0.4058078229427338,-0.1966832280158997,-0.9378076791763306,-0.2860641181468964,0,0,0,-1,60938.810056,2,0,1561238398.978242,1561238131.651496,42,1.925081,0,0,35.15249,0,0,1561238398.978609,60936.675354,0,-0.6896973,74.40289,2650659446,177292352,1,1,0.45,-160,-160,4
1561238399.487271,87,0,0,1561238395.869471,4.603029053325773,-74.06479650784185,2643.493,1.810272,-1,57.23728942871094,200,-9999,1561238399.481976,-21.11148834228516,-10.98352146148682,-10.97271728515625,59.03718566894531,66.58087158203125,15,60939.326871,0.282501220703125,-0.5187835693359375,-0.0287933349609375,60939.31674,1.534345108322764,0.2767154867485742,-4.900988722461921,60939.310209,16.24781799316406,-9.791534423828125,-545.9090576171875,60939.32180600001,-1.892466481555043,-0.3690891773160542,1.292191273448934,1.507890105247498,0.2298892885446548,-4.887795925140381,0.3347353339195251,0.5076435804367065,0.2036528587341309,1,0.227226197719574,-0.5657925605773926,-0.7013140320777893,0.3693312704563141,-0.09921593219041824,-0.9614400267601013,-0.2564940750598907,0,0,0,-1,60938.810056,2,0,1561238398.978242,1561238131.651496,42,1.925081,0,0,35.15249,0,0,1561238398.978609,60936.675354,0,-0.6896973,74.40289,2650659446,177292352,1,1,0.45,-160,-160,4
1561238399.521257,88,0,0,1561238395.869471,4.603029053325773,-74.06479650784185,2643.493,1.810272,-1,57.23728942871094,200,-9999,1561238399.507707,-19.8874683380127,-13.3627347946167,-10.59783935546875,58.74996185302734,66.29364776611328,15,60939.347135,0.4271392822265625,-0.608734130859375,-0.013031005859375,60939.337003,1.422980766283357,0.1109941626478865,-4.840700614336925,60939.330351,17.31820678710938,-12.41636657714844,-545.6143188476562,60939.34206900001,-2.256271400073054,-0.01363591549811428,1.340537393052782,1.354483723640442,0.08478828519582748,-4.791297912597656,0.3419029116630554,0.3880971074104309,0.2079145908355713,1,0.2612524926662445,-0.5635980367660522,-0.7099201679229736,0.3318400979042053,-0.003112028585746884,-0.9736073017120361,-0.2282087802886963,0,0,0,-1,60938.810056,2,0,1561238398.978242,1561238131.651496,42,1.925081,0,0,35.15249,0,0,1561238398.978609,60936.675354,0,-0.6896973,74.40289,2650659446,177292352,1,1,0.45,-160,-160,4
1561238399.52829,89,0,0,1561238395.869471,4.603029053325773,-74.06479650784185,2643.493,1.810272,-1,57.23728942871094,200,-9999,1561238399.507707,-19.8874683380127,-13.3627347946167,-10.59783935546875,58.74996185302734,66.29364776611328,15,60939.367399,0.614776611328125,-0.6077117919921875,0.0223541259765625,60939.35726700001,1.148876775299714,0.03440670970327872,-4.457565210428785,60939.350462,18.97488403320312,-14.36741638183594,-545.2388916015625,60939.362333,-2.684968863971091,0.405369381446029,1.346720472929845,1.08557665348053,-0.009236749261617661,-4.327155590057373,0.4274624884128571,0.3753447532653809,0.2123910188674927,1,0.2915346324443817,-0.5593827366828918,-0.7174449563026428,0.2955861985683441,0.08762846887111664,-0.9749998450279236,-0.2041970193386078,0,0,0,-1,60938.810056,2,0,1561238398.978242,1561238131.651496,42,1.925081,0,0,35.15249,0,0,1561238398.978609,60936.675354,0,-0.6896973,74.40289,2650659446,177292352,1,1,0.45,-160,-160,4
1561238399.547936,90,0,0,1561238395.869471,4.603029053325773,-74.06479650784185,2643.493,1.810272,-1,57.23728942871094,200,-9999,1561238399.532099,-18.35266304016113,-15.32731151580811,-10.12652587890625,58.87922668457031,66.42291259765625,15,60939.387663,0.8515777587890625,-0.6752166748046875,0.0183563232421875,60939.37753100001,0.9765225821880749,-0.1792448561161102,-3.918726495492507,60939.370603,20.14366149902344,-16.20747375488281,-544.6759643554688,60939.382597,-3.026823946980302,0.7353176041101906,1.319039079457172,0.9473126530647278,-0.2546840310096741,-3.801002740859985,0.5709461569786072,0.3273323774337769,0.2092931270599365,1,0.3163802325725555,-0.5545563101768494,-0.7236279249191284,0.2621707916259766,0.1671062111854553,-0.9684761762619019,-0.1847416907548904,0,0,0,-1,60938.810056,2,0,1561238398.978242,1561238131.651496,42,1.925081,0,0,35.15249,0,0,1561238398.978609,60936.675354,0,-0.6896973,74.40289,2650659446,177292352,1,1,0.45,-160,-160,4
1561238399.568375,91,0,0,1561238395.869471,4.603029053325773,-74.06479650784185,2643.493,1.810272,-1,57.23728942871094,200,-9999,1561238399.558819,-17.01086616516113,-17.00619506835938,-9.7265625,59.52545166015625,67.06913757324219,15,60939.40792600001,1.041290283203125,-0.70709228515625,0.009063720703125,60939.397794,0.8526469756635842,-0.3973510914908746,-3.410463000399212,60939.390745,21.26182556152344,-17.36474609375,-544.31396484375,60939.40286,3.028844919641571,0.9473217148433162,1.27711584213039,0.8043121099472046,-0.4310319125652313,-3.27039647102356,0.7263514995574951,0.2559062838554382,0.180625855922699,1,0.3357985019683838,-0.5502112507820129,-0.7287378311157227,0.2311884015798569,0.2350132316350937,-0.9571849703788757,-0.1690138876438141,0,0,0,-1,60938.810056,2,0,1561238398.978242,1561238131.651496,42,1.925081,0,0,35.15249,0,0,1561238398.978609,60936.675354,0,-0.6896973,74.40289,2650659446,177292352,1,1,0.45,-160,-160,4
1561238399.590215,92,0,0,1561238395.869471,4.603029053325773,-74.06479650784185,2643.493,1.810272,-1,57.23728942871094,200,-9999,1561238399.582706,-14.71006393432617,-19.28644561767578,-8.799072265625,60.40044403076172,67.94412994384766,15,60939.42819000001,1.11578369140625,-0.6917724609375,0.006805419921875,60939.418058,0.609508623938729,-0.4087741883545514,-2.84216386485226,60939.410856,22.60911560058594,-18.71089172363281,-543.449951171875,60939.423124,2.887770654698622,1.072884986226566,1.233027808641923,0.521781325340271,-0.3906179070472717,-2.709041833877563,0.8011839389801025,0.2467954158782959,0.1688246726989746,1,0.3507345616817474,-0.5457586050033569,-0.7330538630485535,0.2043647766113281,0.291146993637085,-0.9434964656829834,-0.158265620470047,0,0,0,-1,60938.810056,2,0,1561238398.978242,1561238131.651496,42,1.925081,0,0,35.15249,0,0,1561238398.978609,60936.675354,0,-0.6896973,74.40289,2650659446,177292352,1,1,0.45,-160,-160,4
1561238399.608663,93,0,0,1561238395.869471,4.603029053325773,-74.06479650784185,2643.493,1.810272,-1,57.23728942871094,200,-9999,1561238399.582706,-14.71006393432617,-19.28644561767578,-8.799072265625,60.40044403076172,67.94412994384766,15,60939.448454,1.133834838867188,-0.6834564208984375,-0.010650634765625,60939.438322,0.2859113819926178,-0.2929940589116836,-2.353013876902463,60939.430997,23.31759643554688,-19.56336975097656,-543.49267578125,60939.44338800001,2.805360780184353,1.143426433982431,1.191471869425083,0.2137723565101624,-0.2553468942642212,-2.255511522293091,0.783479630947113,0.2404994368553162,0.1520442366600037,1,0.362593412399292,-0.5401728749275208,-0.7370923757553101,0.1828499585390091,0.3369885087013245,-0.9289150238037109,-0.1534785628318787,0,0,0,-1,60939.446958,3,2,1561238399.615144,1561238131.651496,42,1.925081,0,0,35.15249,0,0,1561238398.978609,60936.675354,0,-0.6896973,74.40289,2650659446,177292352,1,1,0.45,-160,-160,4
1561238399.628865,94,0,0,1561238395.869471,4.603029053325773,-74.06479650784185,2643.493,1.810272,-1,57.23728942871094,200,-9999,1561238399.610913,-14.12969970703125,-20.17426300048828,-8.622314453125,60.99053955078125,68.53422546386719,15,60939.468717,1.176483154296875,-0.65509033203125,-0.0324249267578125,60939.458585,0.1503927014984097,-0.2210021567441166,-1.915575553103171,60939.451139,24.10130310058594,-20.30709838867188,-543.295654296875,60939.463621,2.755543797103757,1.184675576068978,1.154956792028417,0.1686786413192749,-0.251244843006134,-1.782644152641296,0.7872052788734436,0.2452065944671631,0.1306757926940918,1,0.3722008764743805,-0.5342299938201904,-0.7406623363494873,0.1657833755016327,0.3742174506187439,-0.9147775173187256,-0.1521296352148056,0,0,0,-1,60939.446958,3,2,1561238399.615144,1561238131.651496,42,1.925081,0,0,35.15249,0,0,1561238398.978609,60936.675354,0,-0.6896973,74.40289,2650659446,177292352,1,1,0.45,-160,-160,4
1561238399.649662,95,0,0,1561238395.869471,4.603029053325773,-74.06479650784185,2643.493,1.810272,-1,57.23728942871094,200,-9999,1561238399.633665,-13.33865737915039,-20.8714485168457,-8.32342529296875,61.42161560058594,68.96530151367188,15,60939.488981,1.142242431640625,-0.6250762939453125,-0.014923095703125,60939.47884900001,0.2746858916818248,-0.2585564565397599,-1.365050887303626,60939.47125,24.79087829589844,-20.95652770996094,-543.0135498046875,60939.483884,2.71819165480497,1.213260093553308,1.128192212396919,0.292296975851059,-0.237610250711441,-1.246957778930664,0.7667437195777893,0.2663865685462952,0.1207599639892578,1,0.3787239491939545,-0.5306822657585144,-0.7428361177444458,0.1521154046058655,0.4012097716331482,-0.9036393761634827,-0.1498890072107315,0,0,0,-1,60939.446958,3,2,1561238399.615144,1561238131.651496,42,1.925081,0,0,35.15249,0,0,1561238398.978609,60936.675354,0,-0.6896973,74.40289,2650659446,177292352,1,1,0.45,-160,-160,4
1561238399.670135,96,0,0,1561238395.869471,4.603029053325773,-74.06479650784185,2643.493,1.810272,-1,57.23728942871094,200,-9999,1561238399.659629,-12.52033996582031,-21.4739875793457,-8.08154296875,61.90431976318359,69.44800567626953,15,60939.50921400001,1.145721435546875,-0.6170654296875,0.010223388671875,60939.49911300001,0.2834455611393135,-0.1913345422006339,-0.9172539321283615,60939.491392,25.73985290527344,-21.48506164550781,-542.8414916992188,60939.50414800001,2.689429411598573,1.234931753295037,1.11055707718123,0.2523253262042999,-0.2087280005216599,-0.8159182667732239,0.7086303234100342,0.2706716060638428,0.1414914131164551,1,0.3831105828285217,-0.5291800498962402,-0.743632435798645,0.142146110534668,0.4193451404571533,-0.8959462642669678,-0.14638951420784,0,0,0,-1,60939.446958,3,2,1561238399.615144,1561238131.651496,42,1.925081,0,0,35.15249,0,0,1561238398.978609,60936.675354,0,-0.6896973,74.40289,2650659446,177292352,1,1,0.45,-160,-160,4
1561238399.689707,97,0,0,1561238395.869471,4.603029053325773,-74.06479650784185,2643.493,1.810272,-1,57.23728942871094,200,-9999,1561238399.683823,-11.946044921875,-21.99158096313477,-7.739990234375,62.41770172119141,69.96138763427734,15,60939.529478,1.34356689453125,-0.5872344970703125,-0.020965576171875,60939.519346,0.0533484429564673,-0.4080348948359455,-0.4605558936417251,60939.511533,25.73362731933594,-21.55198669433594,-542.5565795898438,60939.52441200001,2.675536514049366,1.240524047284703,1.100164554149003,-0.04503817111253738,-0.4992772936820984,-0.3178407847881317,0.7998327016830444,0.2968453764915466,0.1518909335136414,1,0.3838797509670258,-0.5283080339431763,-0.745104193687439,0.1354498714208603,0.4289423227310181,-0.8912819623947144,-0.1470539122819901,0,0,0,-1,60939.446958,3,2,1561238399.615144,1561238131.651496,42,1.925081,0,0,35.15249,0,0,1561238398.978609,60936.675354,0,-0.6896973,74.40289,2650659446,177292352,1,1,0.45,-160,-160,4
1561238399.709971,98,0,0,1561238395.869471,4.603029053325773,-74.06479650784185,2643.493,1.810272,-1,57.23728942871094,200,-9999,1561238399.683823,-11.946044921875,-21.99158096313477,-7.739990234375,62.41770172119141,69.96138763427734,15,60939.549741,1.438827514648438,-0.546356201171875,-0.050262451171875,60939.53961000001,-0.2326630738931375,-0.7817533611295658,0.28312704707294,60939.53167500001,25.72007751464844,-21.70075988769531,-542.413330078125,60939.544675,2.684144789401444,1.218851184901289,1.100351937093543,-0.2343793362379074,-0.8828638195991516,0.5318734645843506,0.9942103624343872,0.3170871734619141,0.1189649105072021,1,0.3780175745487213,-0.5281798839569092,-0.748626172542572,0.1329943090677261,0.4254978597164154,-0.8913669586181641,-0.1562574505805969,0,0,0,-1,60939.446958,3,2,1561238399.615144,1561238131.651496,42,1.925081,0,0,35.15249,0,0,1561238398.978609,60936.675354,0,-0.6896973,74.40289,2650659446,177292352,1,1,0.45,-160,-160,4
1561238399.73038,99,0,0,1561238395.869471,4.603029053325773,-74.06479650784185,2643.493,1.810272,-1,57.23728942871094,200,-9999,1561238399.710298,-12.08104133605957,-22.05258178710938,-7.54388427734375,63.28224945068359,70.82593536376953,15,60939.570005,1.348236083984375,-0.526031494140625,-0.0641326904296875,60939.55987300001,-0.0393367535132334,-1.092873959684765,1.426748340277492,60939.551786,25.30125427246094,-21.45529174804688,-542.5259399414062,60939.564939,2.707791318335515,1.17680943478962,1.120645460140156,0.04326239228248596,-1.112938523292542,1.736138701438904,1.012005925178528,0.3678802251815796,0.1078805923461914,1,0.3640066087245941,-0.5329046249389648,-0.7515978217124939,0.1364282369613647,0.4017666578292847,-0.9003814458847046,-0.167023703455925,0,0,0,-1,60939.446958,3,2,1561238399.615144,1561238131.651496,42,1.925081,0,0,35.15249,0,0,1561238398.978609,60936.675354,0,-0.6896973,74.40289,2650659446,177292352,1,1,0.45,-160,-160,4
1561238399.750752,100,0,0,1561238395.869471,4.603029053325773,-74.06479650784185,2643.493,1.810272,-1,57.23728942871094,200,-9999,1561238399.734507,-12.29881286621094,-21.76668548583984,-7.46112060546875,64.72840118408203,72.27208709716797,15,60939.590269,1.163131713867188,-0.5166778564453125,-0.061553955078125,60939.580137,0.2290454358683739,-1.008946302143681,2.627379390305152,60939.571928,24.62065124511719,-21.06182861328125,-541.81884765625,60939.585203,2.747037947009256,1.119701964237737,1.165127532838921,0.2519500851631165,-0.9605634212493896,2.902315378189087,0.9018455147743225,0.4001008868217468,0.1061074137687683,1,0.343492329120636,-0.5440521240234375,-0.7511120438575745,0.1478205770254135,0.3551582396030426,-0.9188386797904968,-0.1720406115055084,0,0,0,-1,60939.446958,3,2,1561238399.615144,1561238131.651496,42,1.925081,0,0,35.15249,0,0,1561238398.978609,60936.675354,0,-0.6896973,74.40289,2650659446,177292352,1,1,0.45,-160,-160,4
1561238399.770864,101,0,0,1561238395.869471,4.603029053325773,-74.06479650784185,2643.493,1.810272,-1,57.23728942871094,200,-9999,1561238399.760882,-13.37364196777344,-21.52461624145508,-7.006591796875,66.1358642578125,73.67955017089844,15,60939.61053200001,0.979522705078125,-0.489013671875,-0.052490234375,60939.600401,0.1978076215461805,-0.7881534698612442,3.663702722138738,60939.59206900001,23.31320190429688,-20.37834167480469,-541.857666015625,60939.605466,2.826472567006571,1.02847134152018,1.228046534185012,0.1406973451375961,-0.7533380389213562,3.879982471466064,0.7815119624137878,0.4416815042495728,0.1195654273033142,1,0.3183305859565735,-0.5585122108459473,-0.7472818493843079,0.16822449862957,0.2878544628620148,-0.9418340921401978,-0.1734595000743866,0,0,0,-1,60939.446958,3,2,1561238399.615144,1561238131.651496,42,1.925081,0,0,35.15249,0,0,1561238398.978609,60936.675354,0,-0.6896973,74.40289,2650659446,177292352,1,1,0.45,-160,-160,4
1561238399.791057,102,0,0,1561238395.869471,4.603029053325773,-74.06479650784185,2643.493,1.810272,-1,57.23728942871094,200,-9999,1561238399.785118,-16.38249778747559,-18.86319351196289,-6.8216552734375,67.21007537841797,74.75376129150391,15,60939.630796,0.797332763671875,-0.4729461669921875,-0.0552215576171875,60939.620664,-0.08014996353480673,-0.7237915242167543,4.45064605160065,60939.61221100001,21.80339050292969,-19.1031494140625,-541.84423828125,60939.62573000001,2.994882674592797,0.8529807969760731,1.29800012117399,-0.1621216386556625,-0.7636793851852417,4.612335205078125,0.6845693588256836,0.4811487197875977,0.1299706101417542,1,0.2883589267730713,-0.5729251503944397,-0.7416969537734985,0.1961923241615295,0.2029428482055664,-0.9630212783813477,-0.177211806178093,0,0,0,-1,60939.446958,3,2,1561238399.615144,1561238131.651496,42,1.925081,0,0,35.15249,0,0,1561238398.978609,60936.675354,0,-0.6896973,74.40289,2650659446,177292352,1,1,0.45,-160,-160,4
1561238399.811413,103,0,0,1561238395.869471,4.603029053325773,-74.06479650784185,2643.493,1.810272,-1,57.23728942871094,200,-9999,1561238399.785118,-16.38249778747559,-18.86319351196289,-6.8216552734375,67.21007537841797,74.75376129150391,15,60939.65106,0.6234893798828125,-0.4200592041015625,-0.04296875,60939.640928,-0.3113203356369548,-0.9604626555504611,5.112943322034711,60939.632322,20.10858154296875,-17.58384704589844,-541.3446655273438,60939.64599400001,-2.948685299254896,0.5049087582690869,1.357528843114339,-0.327117532491684,-1.068041086196899,5.32452392578125,0.6134982109069824,0.5328254699707031,0.1352713704109192,1,0.252059668302536,-0.5863820910453796,-0.7350715398788452,0.2286739945411682,0.1023831069469452,-0.9773445725440979,-0.1852439343929291,0,0,0,-1,60939.446958,3,2,1561238399.615144,1561238131.651496,42,1.925081,0,0,35.15249,0,0,1561238398.978609,60936.675354,0,-0.6896973,74.40289,2650659446,177292352,1,1,0.45,-160,-160,4
1561238399.833683,104,0,0,1561238395.869471,4.603029053325773,-74.06479650784185,2643.493,1.810272,-1,57.23728942871094,200,-9999,1561238399.811507,-18.11470794677734,-17.22528457641602,-6.578857421875,68.52211761474609,76.06580352783203,15,60939.671323,0.34979248046875,-0.330810546875,0.0025787353515625,60939.66119200001,-0.2850346693617637,-1.146639453667939,6.069487934989448,60939.65246400001,17.83528137207031,-15.2401123046875,-541.2605590820312,60939.666257,-2.364742940182252,-0.09070729782606864,1.376494280656537,-0.2890191674232483,-1.094350218772888,6.307564258575439,0.5200076103210449,0.5875974893569946,0.1704832315444946,1,0.2079078704118729,-0.6005250215530396,-0.7249966263771057,0.2655633985996246,-0.01748992130160332,-0.9811826944351196,-0.1922880262136459,0,0,0,-1,60939.446958,3,2,1561238399.615144,1561238131.651496,42,1.925081,0,0,35.15249,0,0,1561238398.978609,60936.675354,0,-0.6896973,74.40289,2650659446,177292352,1,1,0.45,-160,-160,4
1561238399.851938,105,0,0,1561238395.869471,4.603029053325773,-74.06479650784185,2643.493,1.810272,-1,57.23728942871094,200,-9999,1561238399.836019,-20.40731620788574,-14.88330268859863,-6.37603759765625,70.13923645019531,77.68292236328125,15,60939.69159925001,0.032989501953125,-0.261260986328125,0.030609130859375,60939.68146725,-0.3514959848935632,-0.7378511505596096,6.905066444910606,60939.67261725001,16.15902709960938,-12.6119384765625,-540.991943359375,60939.68653325,-1.798467732178884,-0.6614936814787299,1.317850116620271,-0.3941114842891693,-0.5409123301506042,7.070462703704834,0.3386992812156677,0.6932007074356079,0.211754322052002,1,0.1593034863471985,-0.6130957007408142,-0.7091298699378967,0.309630274772644,-0.1537322551012039,-0.9681792855262756,-0.1974721252918243,0,0,0,-1,60939.446958,3,2,1561238399.615144,1561238131.651496,42,1.925081,0,0,35.15249,0,0,1561238398.978609,60936.675354,0,-0.6896973,74.40289,2650659446,177292352,1,1,0.45,-160,-160,4
1561238399.872365,106,0,0,1561238395.869471,4.603029053325773,-74.06479650784185,2643.493,1.810272,-1,57.23728942871094,200,-9999,1561238399.862589,-22.09313011169434,-12.22391605377197,-6.05511474609375,70.84049224853516,78.38417816162109,15,60939.71186325001,-0.2095489501953125,-0.1664886474609375,0.0496826171875,60939.70173125,-0.6193537978565339,0.2089966265500394,7.484401986330955,60939.69272825,14.11807250976562,-9.661178588867188,-540.9933471679688,60939.70679725,-1.488894820593106,-0.9579478821605141,1.20098037509488,-0.7390826940536499,0.4207071661949158,7.565730571746826,0.1973533630371094,0.7036035656929016,0.2553572654724121,1,0.1111657992005348,-0.6194279193878174,-0.687646210193634,0.3620689213275909,-0.2956657111644745,-0.9323939085006714,-0.2079024314880371,0,0,0,-1,60939.446958,3,2,1561238399.615144,1561238131.651496,42,1.925081,0,0,35.15249,0,0,1561238398.978609,60936.675354,0,-0.6896973,74.40289,2650659446,177292352,1,1,0.45,-160,-160,4
1561238399.892565,107,0,0,1561238395.869471,4.603029053325773,-74.06479650784185,2643.493,1.810272,-1,57.23728942871094,200,-9999,1561238399.886396,-24.57392311096191,-5.070061683654785,-6.96417236328125,70.59228515625,78.13597106933594,15,60939.73212625,-0.46124267578125,-0.04718017578125,0.06207275390625,60939.72199525,-1.126547234823836,0.6748226496729223,7.488842008500335,60939.71287025,13.36689758300781,-5.9541015625,-541.5195922851562,60939.72703025,-1.34174548307169,-1.079204230867768,1.060347932373582,-1.258352518081665,0.5523378849029541,7.351548671722412,0.09094586968421936,0.7732060551643372,0.2990699410438538,1,0.06425033509731293,-0.6168974041938782,-0.6636312007904053,0.4182141125202179,-0.4307133555412292,-0.8725255131721497,-0.2306189686059952,0,0,0,-1,60939.446958,3,2,1561238399.615144,1561238131.651496,42,1.925081,0,0,35.15249,0,0,1561238398.978609,60936.675354,0,-0.6896973,74.40289,2650659446,177292352,1,1,0.45,-160,-160,4
1561238399.918289,108,0,0,1561238395.869471,4.603029053325773,-74.06479650784185,2643.493,1.810272,-1,57.23728942871094,200,-9999,1561238399.913164,-24.79697418212891,-1.088093996047974,-7.16455078125,71.62607574462891,79.16976165771484,15,60939.75239025,-0.699432373046875,0.0367889404296875,-0.006591796875,60939.74225825,-1.410831958022633,-0.09602080573502494,6.86777579806288,60939.73301125001,12.54774475097656,-1.841888427734375,-542.2180786132812,60939.74729425,-1.270839504545188,-1.13607461197115,0.9205215852146886,-1.366473317146301,-0.3335530459880829,6.724911212921143,-0.006859183311462402,0.7937965393066406,0.2849699854850769,1,0.01527585741132498,-0.6101483702659607,-0.6405656933784485,0.4660056233406067,-0.5490947365760803,-0.7959175109863281,-0.2549712359905243,0,0,0,-1,60939.446958,3,2,1561238399.615144,1561238131.651496,42,1.925081,0,0,35.15249,0,0,1561238398.978609,60936.675354,0,-0.6896973,74.40289,2650659446,177292352,1,1,0.45,-160,-160,4
1561238399.932995,109,0,0,1561238395.869471,4.603029053325773,-74.06479650784185,2643.493,1.810272,-1,57.23728942871094,200,-9999,1561238399.913164,-24.79697418212891,-1.088093996047974,-7.16455078125,71.62607574462891,79.16976165771484,15,60939.77262325001,-1.005157470703125,0.083831787109375,-0.1026763916015625,60939.76252225001,-1.041883479557454,-0.6333742757313651,6.251569323982602,60939.75312325,12.68559265136719,2.01934814453125,-542.0185546875,60939.76755725,-1.224330310201472,-1.182553395962217,0.7920178954089719,-0.92766273021698,-0.5791487097740173,6.076456546783447,-0.2187014818191528,0.7870895266532898,0.2096319794654846,1,-0.03343083336949348,-0.6049208045005798,-0.6161343455314636,0.5033206343650818,-0.6501340270042419,-0.711772084236145,-0.2659063935279846,0,0,0,-1,60939.446958,3,2,1561238399.615144,1561238131.651496,42,1.925081,0,0,35.15249,0,0,1561238398.978609,60936.675354,0,-0.6896973,74.40289,2650659446,177292352,1,1,0.45,-160,-160,4
1561238399.953339,110,0,0,1561238395.869471,4.603029053325773,-74.06479650784185,2643.493,1.810272,-1,57.23728942871094,200,-9999,1561238399.93715,-24.85133743286133,2.465474128723145,-6.8258056640625,73.22119903564453,80.76488494873047,15,60939.79288725001,-1.17974853515625,0.08807373046875,-0.1490478515625,60939.78275525,-0.5853047506876529,-0.2269625775798229,5.720737402863648,60939.77326425001,13.04818725585938,5.132949829101562,-541.8016357421875,60939.78782125001,-1.18458564877879,-1.216319682188481,0.6767895629068034,-0.4996778666973114,-0.1346468478441238,5.640388011932373,-0.3626919984817505,0.7068598866462708,0.1302746534347534,1,-0.07483775168657303,-0.5992512702941895,-0.5895519256591797,0.5364006757736206,-0.7311190366744995,-0.626293420791626,-0.270594447851181,0,0,0,-1,60939.446958,3,2,1561238399.615144,1561238131.651496,42,1.925081,0,0,35.15249,0,0,1561238398.978609,60936.675354,0,-0.6896973,74.40289,2650659446,177292352,1,1,0.45,-160,-160,4
1561238399.973564,111,0,0,1561238395.869471,4.603029053325773,-74.06479650784185,2643.493,1.810272,-1,57.23728942871094,200,-9999,1561238399.964126,-23.48510932922363,8.498318672180176,-6.9874267578125,73.95307922363281,81.49676513671875,15,60939.81315125,-1.36175537109375,0.0868377685546875,-0.1292877197265625,60939.80301925,-0.3949515833487132,-0.1685900812269211,5.188021028957354,60939.79340625001,14.03584289550781,8.112777709960938,-541.783935546875,60939.80808525001,-1.14964499478087,-1.239748604068531,0.5718912698096381,-0.4225417971611023,-0.2879189848899841,4.911264419555664,-0.469549298286438,0.642938494682312,0.1383503079414368,1,-0.1103302761912346,-0.5925960540771484,-0.5620914101600647,0.5663130879402161,-0.795221209526062,-0.5412233471870422,-0.2733142971992493,0,0,0,-1,60939.446958,3,2,1561238399.615144,1561238131.651496,42,1.925081,0,0,35.15249,0,0,1561238398.978609,60936.675354,0,-0.6896973,74.40289,2650659446,177292352,1,1,0.45,-160,-160,4
1561238400.007042,112,0,0,1561238395.869471,4.603029053325773,-74.06479650784185,2643.493,1.810272,-1,57.23728942871094,200,-9999,1561238399.988048,-22.62761306762695,10.83176517486572,-6.58758544921875,353.4864196777344,1.030119657516479,15,60939.83341425,-1.506240844726562,0.023834228515625,-0.2021026611328125,60939.82328225001,-0.4939127852432946,-0.9986031171020309,3.657158003759868,60939.81351725,14.76802062988281,10.6702880859375,-541.6787109375,60939.82834825,-1.129835075562077,-1.265021334193159,0.490115744862728,-0.4749149978160858,-1.354192972183228,3.182340860366821,-0.6228500008583069,0.5333806276321411,0.1183469295501709,1,-0.1417499333620071,-0.5891602635383606,-0.5400229692459106,0.5840995311737061,-0.8413528800010681,-0.4707280099391937,-0.2655942738056183,0,0,0,-1,60939.446958,3,2,1561238399.615144,1561238131.651496,42,1.925081,0,0,35.15249,0,0,1561238398.978609,60936.675354,0,-0.6896973,74.40289,2650659446,177292352,1,1,0.45,-160,-160,4
1561238400.014164,113,0,0,1561238395.869471,4.603029053325773,-74.06479650784185,2643.493,1.810272,-1,57.23728942871094,200,-9999,1561238399.988048,-22.62761306762695,10.83176517486572,-6.58758544921875,353.4864196777344,1.030119657516479,15,60939.85367825,-1.580886840820312,-0.0739288330078125,-0.253265380859375,60939.84354625001,-0.1423057465322751,-2.348148015274779,2.163013045775741,60939.83365825001,15.420654296875,12.14532470703125,-540.934326171875,60939.84861225,-1.119873211989753,-1.310540000782064,0.4403503759076405,-0.006940587423741817,-2.551005363464355,1.997599124908447,-0.6649997234344482,0.3977987766265869,-0.01316142082214355,1,-0.1691228151321411,-0.5958251357078552,-0.5237233638763428,0.5848963856697083,-0.8741390705108643,-0.4262564480304718,-0.2327797561883926,0,0,0,-1,60939.446958,3,2,1561238399.615144,1561238131.651496,42,1.925081,0,0,35.15249,0,0,1561238398.978609,60936.675354,0,-0.6896973,74.40289,2650659446,177292352,1,1,0.45,-160,-160,4
1561238400.034455,114,0,0,1561238395.869471,4.603029053325773,-74.06479650784185,2643.493,1.810272,-1,57.23728942871094,200,-9999,1561238400.014266,-22.17461776733398,12.03492736816406,-5.85028076171875,352.7439575195312,0.2876361012458801,15,60939.87394225,-1.625015258789062,-0.1314239501953125,-0.213104248046875,60939.86381025,0.2024673545054921,-2.414438622180705,1.907201775687635,60939.85380025001,15.74110412597656,12.956787109375,-539.8140869140625,60939.86887625,-1.10708583725442,-1.366432550440517,0.4031140179182481,0.1544038355350494,-2.151724815368652,1.939382314682007,-0.7034696340560913,0.2825587391853333,-0.05245876312255859,1,-0.193078801035881,-0.6077681183815002,-0.5069628953933716,0.5799371004104614,-0.9007021188735962,-0.3922846615314484,-0.1866769790649414,0,0,0,-1,60939.446958,3,2,1561238399.615144,1561238131.651496,42,1.925081,0,0,35.15249,0,0,1561238398.978609,60936.675354,0,-0.6896973,74.40289,2650659446,177292352,1,1,0.45,-160,-160,4
1561238400.054693,115,0,0,1561238395.869471,4.603029053325773,-74.06479650784185,2643.493,1.810272,-1,57.23728942871094,200,-9999,1561238400.038721,-21.72576904296875,12.89924049377441,-4.6865234375,351.9088439941406,359.4525451660156,15,60939.89420525001,-1.65704345703125,-0.19390869140625,-0.19671630859375,60939.88407325,-0.2347544542971768,-0.8887799463854522,2.091229402805418,60939.87391125,15.74627685546875,13.91777038574219,-539.0098266601562,60939.88913925,-1.10089067598801,-1.395943170161032,0.3621844086588903,-0.4383612275123596,-0.3827301561832428,2.107507467269897,-0.7348648309707642,0.1862269341945648,-0.04191219806671143,1,-0.2130552381277084,-0.610957145690918,-0.4928429126739502,0.5817599892616272,-0.9208663702011108,-0.3543177843093872,-0.1626776605844498,0,0,0,-1,60939.446958,3,2,1561238399.615144,1561238131.651496,42,1.925081,0,0,35.15249,0,0,1561238398.978609,60936.675354,0,-0.6896973,74.40289,2650659446,177292352,1,1,0.45,-160,-160,4
1561238400.097571,116,0,0,1561238395.869471,4.603029053325773,-74.06479650784185,2643.493,1.810272,-1,57.23728942871094,200,-9999,1561238400.065253,-20.77839088439941,15.04161739349365,-3.88818359375,352.1373901367188,359.6810913085938,15,60939.91446925,-1.592041015625,-0.1837158203125,-0.291961669921875,60939.90433725,-0.9220151315252051,0.8926617699903517,2.027355880904849,60939.89405325001,16.64898681640625,14.97190856933594,-538.6702880859375,60939.90940325001,-1.109381116228722,-1.383579721092759,0.3184164636688422,-0.9916883111000061,1.101061820983887,1.945672154426575,-0.6925956010818481,0.1235183775424957,-0.06166505813598633,1,-0.2279449105262756,-0.5997138619422913,-0.4864393174648285,0.5930945873260498,-0.9331368207931519,-0.3130630254745483,-0.1767688095569611,0,0,0,-1,60939.446958,3,2,1561238399.615144,1561238131.651496,42,1.925081,0,0,35.15249,0,0,1561238398.978609,60936.675354,0,-0.6896973,74.40289,2650659446,177292352,1,1,0.45,-160,-160,4
1561238400.100732,117,0,0,1561238395.869471,4.603029053325773,-74.06479650784185,2643.493,1.810272,-1,57.23728942871094,200,-9999,1561238400.08951,-19.95455741882324,15.98265743255615,-3.8675537109375,353.0294494628906,0.5731483101844788,15,60939.93473325,-1.459304809570312,-0.1673736572265625,-0.430572509765625,60939.92460125,-0.8749576076957229,0.9009279556978487,1.473545140636255,60939.91419425001,17.381591796875,15.81021118164062,-538.6634521484375,60939.92966725001,-1.121857373515794,-1.359623624489216,0.282110806245945,-0.7248188257217407,0.6133021712303162,1.26067066192627,-0.5867144465446472,0.111345648765564,-0.1691471934318542,1,-0.2385215759277344,-0.5851897001266479,-0.484438568353653,0.6049626469612122,-0.9391339421272278,-0.2783836424350739,-0.2013209462165833,0,0,0,-1,60939.446958,3,2,1561238399.615144,1561238131.651496,42,1.925081,0,0,35.15249,0,0,1561238398.978609,60936.675354,0,-0.6896973,74.40289,2650659446,177292352,1,1,0.45,-160,-160,4
1561238400.11559,118,0,0,1561238395.869471,4.603029053325773,-74.06479650784185,2643.493,1.810272,-1,57.23728942871094,200,-9999,1561238400.08951,-19.95455741882324,15.98265743255615,-3.8675537109375,353.0294494628906,0.5731483101844788,15,60939.95499625,-1.453018188476562,-0.2146453857421875,-0.42218017578125,60939.94486425001,-0.03244848735374346,-0.5167669684539186,0.6784789035334921,60939.93433625,17.70709228515625,16.45393371582031,-538.6871948242188,60939.94993025,-1.12371009274403,-1.361730311368678,0.2637254245233827,0.1947997212409973,-0.8468264937400818,0.5277251005172729,-0.4961634278297424,0.07536095380783081,-0.2541887760162354,1,-0.245982363820076,-0.5825009942054749,-0.4804129898548126,0.60777348279953,-0.9444035887718201,-0.2606789767742157,-0.2003705352544785,0,0,0,-1,60939.446958,3,2,1561238399.615144,1561238131.651496,42,1.925081,0,0,35.15249,0,0,1561238398.978609,60936.675354,0,-0.6896973,74.40289,2650659446,177292352,1,1,0.45,-160,-160,4
1561238400.13576,119,0,0,1561238395.869471,4.603029053325773,-74.06479650784185,2643.493,1.810272,-1,57.23728942871094,200,-9999,1561238400.115601,-19.85134124755859,16.17645645141602,-3.759765625,353.0241394042969,0.5678346157073975,15,60939.97526025,-1.473358154296875,-0.2497100830078125,-0.27044677734375,60939.96512825001,0.4918714722677489,-1.122777530300828,0.2168923665499063,60939.95444725001,18.05375671386719,16.64060974121094,-538.5314331054688,60939.97019425,-1.113919092393558,-1.38591371086158,0.2591244227590519,0.454061359167099,-1.02198600769043,0.1516124457120895,-0.5153584480285645,0.01693072915077209,-0.1708778738975525,1,-0.2504737079143524,-0.5902677178382874,-0.4733423292636871,0.6039817333221436,-0.950141429901123,-0.2562343180179596,-0.1776938885450363,0,0,0,-1,60939.446958,3,2,1561238399.615144,1561238131.651496,42,1.925081,0,0,35.15249,0,0,1561238398.978609,60936.675354,0,-0.6896973,74.40289,2650659446,177292352,1,1,0.45,-160,-160,4
1561238400.171303,120,0,0,1561238395.869471,4.603029053325773,-74.06479650784185,2643.493,1.810272,-1,57.23728942871094,200,-9999,1561238400.16642,-19.69309616088867,16.31842041015625,-3.2762451171875,352.2044372558594,359.7481384277344,15,60939.99552425001,-1.427047729492188,-0.303497314453125,-0.1531219482421875,60939.98539225,0.2105178241646926,-0.4279148597411689,0.08190951406702209,60939.97458925001,18.11314392089844,16.7791748046875,-538.28955078125,60939.99042725001,-1.107526840863067,-1.400487873439327,0.2582201107984351,0.109628900885582,-0.2345960736274719,0.09034109860658646,-0.5154341459274292,-0.03187137842178345,-0.03657221794128418,1,-0.2523258328437805,-0.5953134298324585,-0.4693632423877716,0.60135817527771,-0.9528581500053406,-0.2553600668907166,-0.1638671904802322,0,0,0,-1,60939.446958,3,2,1561238399.615144,1561238131.651496,42,1.925081,0,0,35.15249,0,0,1561238398.978609,60936.675354,0,-0.6896973,74.40289,2650659446,177292352,1,1,0.45,-160,-160,4
1561238400.176541,121,0,0,1561238395.869471,4.603029053325773,-74.06479650784185,2643.493,1.810272,-1,57.23728942871094,200,-9999,1561238400.16642,-19.69309616088867,16.31842041015625,-3.2762451171875,352.2044372558594,359.7481384277344,15,60940.01578725001,-1.2803955078125,-0.2657318115234375,-0.1414337158203125,60940.00565525,-0.1211983306806341,0.1602991281212864,0.1722934730387853,60939.99473025,17.81394958496094,16.65031433105469,-538.1671752929688,60940.01069125001,-1.108018490564968,-1.399691565802764,0.2552731925440019,-0.1633011549711227,0.1834286004304886,0.1864039748907089,-0.4033467173576355,-0.03337892889976501,0.03133046627044678,1,-0.253299742937088,-0.5945271849632263,-0.4688870012760162,0.6020976901054382,-0.9534648060798645,-0.252509742975235,-0.164753332734108,0,0,0,-1,60939.446958,3,2,1561238399.615144,1561238131.651496,42,1.925081,0,0,35.15249,0,0,1561238398.978609,60936.675354,0,-0.6896973,74.40289,2650659446,177292352,1,1,0.45,-160,-160,4
