loggingTime,loggingSample,identifierForVendor,deviceID,locationTimestamp_since1970,locationLatitude,locationLongitude,locationAltitude,locationSpeed,locationCourse,locationVerticalAccuracy,locationHorizontalAccuracy,locationFloor,locationHeadingTimestamp_since1970,locationHeadingX,locationHeadingY,locationHeadingZ,locationTrueHeading,locationMagneticHeading,locationHeadingAccuracy,accelerometerTimestamp_sinceReboot,accelerometerAccelerationX,accelerometerAccelerationY,accelerometerAccelerationZ,gyroTimestamp_sinceReboot,gyroRotationX,gyroRotationY,gyroRotationZ,magnetometerTimestamp_sinceReboot,magnetometerX,magnetometerY,magnetometerZ,motionTimestamp_sinceReboot,motionYaw,motionRoll,motionPitch,motionRotationRateX,motionRotationRateY,motionRotationRateZ,motionUserAccelerationX,motionUserAccelerationY,motionUserAccelerationZ,motionAttitudeReferenceFrame,motionQuaternionX,motionQuaternionY,motionQuaternionZ,motionQuaternionW,motionGravityX,motionGravityY,motionGravityZ,motionMagneticFieldX,motionMagneticFieldY,motionMagneticFieldZ,motionMagneticFieldCalibrationAccuracy,activityTimestamp_sinceReboot,activity,activityActivityConfidence,activityActivityStartDate,pedometerStartDate,pedometerNumberofSteps,pedometerAverageActivePace,pedometerCurrentPace,pedometerCurrentCadence,pedometerDistance,pedometerFloorAscended,pedometerFloorDescended,pedometerEndDate,altimeterTimestamp_sinceReboot,altimeterReset,altimeterRelativeAltitude,altimeterPressure,IP_en0,IP_pdp_ip0,deviceOrientation,batteryState,batteryLevel,avAudioRecorderPeakPower,avAudioRecorderAveragePower,label
1561238420.620666,1,0,0,1561238412.876458,4.602966367343234,-74.064827140666,2644.024,4.145806,209.5248346218031,93.09276580810547,200,-9999,1561238420.616198,-20.20693778991699,15.89962100982666,-4.3785400390625,346.9953918457031,354.5390930175781,15,60960.439422,-0.935699462890625,-0.2861785888671875,-0.12506103515625,60960.42929000001,-0.0595291072143232,0.03684456736513726,0.01324097062376496,60960.424163,17.52171325683594,16.44194030761719,-539.3373413085938,60960.43435600001,-0.9999452861988134,-1.422452390399924,0.2918870877791339,-0.05601395294070244,0.02602128125727177,0.01125212106853724,0.01139336824417114,0.003931254148483276,0.01612162590026855,1,-0.2129248231649399,-0.6195874214172363,-0.442624568939209,0.6122565269470215,-0.9471843838691711,-0.2877600193023682,-0.1415488868951797,0,0,0,-1,60959.55231616667,1,2,1561238419.720502,1561238131.651496,42,2.082445,0,0,35.15249,0,0,1561238417.130974,60957.53763,0,-0.486084,74.40098,2650659446,177292352,1,1,0.45,-160,-160,5
1561238420.644947,2,0,0,1561238412.876458,4.602966367343234,-74.064827140666,2644.024,4.145806,209.5248346218031,93.09276580810547,200,-9999,1561238420.616198,-20.20693778991699,15.89962100982666,-4.3785400390625,346.9953918457031,354.5390930175781,15,60960.459685,-0.9425506591796875,-0.284332275390625,-0.1219940185546875,60960.44955400001,-0.03780516957032883,0.008529039707087769,0.02512133224660845,60960.444274,17.38789367675781,16.43011474609375,-539.3231811523438,60960.454619,-1.000842255411355,-1.42199947874277,0.2913825813261068,-0.03500939905643463,-0.006867750082165003,0.02181247621774673,0.009305834770202637,0.001266062259674072,0.01838791370391846,1,-0.2132797837257385,-0.6192834973335266,-0.4428178071975708,0.6123006939888,-0.9472635984420776,-0.2872768044471741,-0.141999363899231,0,0,0,-1,60959.55231616667,1,2,1561238419.720502,1561238131.651496,42,2.082445,0,0,35.15249,0,0,1561238417.130974,60957.53763,0,-0.486084,74.40098,2650659446,177292352,1,1,0.45,-160,-160,5
1561238420.646901,3,0,0,1561238412.876458,4.602966367343234,-74.064827140666,2644.024,4.145806,209.5248346218031,93.09276580810547,200,-9999,1561238420.616198,-20.20693778991699,15.89962100982666,-4.3785400390625,346.9953918457031,354.5390930175781,15,60960.479949,-0.951324462890625,-0.286956787109375,-0.1206817626953125,60960.469817,-0.02238839633596913,-0.0242930891475938,0.01728631231959533,60960.464416,17.4228515625,16.19671630859375,-539.3438720703125,60960.474883,-1.001382610336984,-1.422341622236539,0.2909235393282885,-0.02546169981360435,-0.03501363471150398,0.008760590106248856,0.000451505184173584,0.001619786024093628,0.02139449119567871,1,-0.2136842310428619,-0.6192670464515686,-0.4428287744522095,0.6121683716773987,-0.9474424719810486,-0.2868370711803436,-0.1416947543621063,0,0,0,-1,60959.55231616667,1,2,1561238419.720502,1561238131.651496,42,2.082445,0,0,35.15249,0,0,1561238417.130974,60957.53763,0,-0.486084,74.40098,2650659446,177292352,1,1,0.45,-160,-160,5
1561238420.66047,4,0,0,1561238412.876458,4.602966367343234,-74.064827140666,2644.024,4.145806,209.5248346218031,93.09276580810547,200,-9999,1561238420.654359,-20.04004859924316,16.07340621948242,-4.600341796875,347.0811157226562,354.6248168945312,15,60960.50021300001,-0.95465087890625,-0.2891845703125,-0.1183624267578125,60960.490081,-0.02273327569713439,-0.01003638888407262,-0.003355849289608848,60960.484557,17.43119812011719,16.22964477539062,-539.4855346679688,60960.495147,-1.001898277838162,-1.422761124388943,0.2908521661408506,-0.02670379914343357,-0.004364378750324249,-0.009976079687476158,-0.00647282600402832,-0.001271456480026245,0.0198708176612854,1,-0.2139619290828705,-0.6193304061889648,-0.4429233968257904,0.6119386553764343,-0.9475219249725342,-0.2867687046527863,-0.1413002759218216,0,0,0,-1,60959.55231616667,1,2,1561238419.720502,1561238131.651496,42,2.082445,0,0,35.15249,0,0,1561238417.130974,60957.53763,0,-0.486084,74.40098,2650659446,177292352,1,1,0.45,-160,-160,5
1561238420.680665,5,0,0,1561238412.876458,4.602966367343234,-74.064827140666,2644.024,4.145806,209.5248346218031,93.09276580810547,200,-9999,1561238420.654359,-20.04004859924316,16.07340621948242,-4.600341796875,347.0811157226562,354.6248168945312,15,60960.52047600001,-0.95343017578125,-0.286163330078125,-0.122039794921875,60960.510345,-0.03545652780498795,0.02252048912603706,-0.01073573498632742,60960.504699,17.41725158691406,16.29397583007812,-539.3416137695312,60960.51541000001,-1.002679907268183,-1.422388789065365,0.2910144888928198,-0.03905926644802094,0.02021819725632668,-0.01285921782255173,-0.009134948253631592,-0.0009022951126098633,0.01940804719924927,1,-0.2140643745660782,-0.6191553473472595,-0.443244069814682,0.6118478775024414,-0.9474232792854309,-0.2869242131710052,-0.1416461914777756,0,0,0,-1,60960.520141,1,2,1561238420.688327,1561238131.651496,42,2.082445,0,0,35.15249,0,0,1561238417.130974,60957.53763,0,-0.486084,74.40098,2650659446,177292352,1,1,0.45,-160,-160,5
1561238420.702503,6,0,0,1561238412.876458,4.602966367343234,-74.064827140666,2644.024,4.145806,209.5248346218031,93.09276580810547,200,-9999,1561238420.683671,-20.36201858520508,15.75280666351318,-4.5958251953125,347.138427734375,354.68212890625,15,60960.54074,-0.9471435546875,-0.28411865234375,-0.121978759765625,60960.530608,-0.02215936448222232,0.02290025589748236,-0.002597381011154281,60960.52481,17.2509765625,16.36259460449219,-539.1773681640625,60960.53567400001,-1.003347467114457,-1.421821922276261,0.2911040347392738,-0.02283475734293461,0.009055823087692261,-0.002507510827854276,-0.00145876407623291,0.002326756715774536,0.02213853597640991,1,-0.214113861322403,-0.6189228892326355,-0.4435319602489471,0.6118571162223816,-0.9473174214363098,-0.287009984254837,-0.1421794295310974,0,0,0,-1,60960.520141,1,2,1561238420.688327,1561238131.651496,42,2.082445,0,0,35.15249,0,0,1561238417.130974,60957.53763,0,-0.486084,74.40098,2650659446,177292352,1,1,0.45,-160,-160,5
1561238420.727553,7,0,0,1561238412.876458,4.602966367343234,-74.064827140666,2644.024,4.145806,209.5248346218031,93.09276580810547,200,-9999,1561238420.705055,-20.17961883544922,15.98437786102295,-4.54168701171875,347.1790466308594,354.7227478027344,15,60960.561004,-0.944580078125,-0.2864532470703125,-0.118896484375,60960.55087200001,-0.01594514439463142,-0.007167365441730254,0.006669088001776428,60960.544951,17.44200134277344,16.31382751464844,-539.6165771484375,60960.555907,-1.003769324862506,-1.421870874736065,0.2910210790455346,-0.01767248660326004,-0.01939712464809418,0.002009210176765919,0.002004921436309814,0.00145384669303894,0.02114963531494141,1,-0.2142844200134277,-0.6188811659812927,-0.4436344802379608,0.6117652654647827,-0.9473479390144348,-0.2869305312633514,-0.1421365737915039,0,0,0,-1,60960.520141,1,2,1561238420.688327,1561238131.651496,42,2.082445,0,0,35.15249,0,0,1561238417.130974,60957.53763,0,-0.486084,74.40098,2650659446,177292352,1,1,0.45,-160,-160,5
1561238420.741739,8,0,0,1561238412.876458,4.602966367343234,-74.064827140666,2644.024,4.145806,209.5248346218031,93.09276580810547,200,-9999,1561238420.731573,-20.27184104919434,15.87155818939209,-4.56817626953125,347.2052307128906,354.7489318847656,15,60960.581267,-0.9452972412109375,-0.2885589599609375,-0.11956787109375,60960.57113600001,-0.01018685748566209,-0.03072728634122524,-0.003828560383097913,60960.565093,17.42289733886719,16.20451354980469,-539.5205688476562,60960.576171,-1.004099880098945,-1.422452907161248,0.2910555161165543,-0.01470386050641537,-0.03748824447393417,-0.008933718316257,0.004412293434143066,0.0003882050514221191,0.02294659614562988,1,-0.2145037353038788,-0.6190285086631775,-0.4436820149421692,0.6115047931671143,-0.9474207162857056,-0.2869634926319122,-0.1415837109088898,0,0,0,-1,60960.520141,1,2,1561238420.688327,1561238131.651496,42,2.082445,0,0,35.15249,0,0,1561238417.130974,60957.53763,0,-0.486084,74.40098,2650659446,177292352,1,1,0.45,-160,-160,5
1561238420.761719,9,0,0,1561238412.876458,4.602966367343234,-74.064827140666,2644.024,4.145806,209.5248346218031,93.09276580810547,200,-9999,1561238420.755692,-20.34148597717285,15.93148517608643,-4.49615478515625,347.2352294921875,354.7789306640625,15,60960.601501,-0.9425048828125,-0.2868804931640625,-0.1198577880859375,60960.591399,-0.01835290833617206,-0.02101234100072519,-0.01503913699178647,60960.585204,17.43984985351562,16.18057250976562,-539.301513671875,60960.59643500001,-1.004514878387301,-1.42299089558942,0.2912933525722842,-0.02580604702234268,-0.02343287691473961,-0.01972777768969536,0.001109600067138672,-0.001428663730621338,0.0215265154838562,1,-0.2146680355072021,-0.6191814541816711,-0.4438121914863586,0.6111977100372314,-0.9474291801452637,-0.2871913313865662,-0.141063928604126,0,0,0,-1,60960.520141,1,2,1561238420.688327,1561238131.651496,42,2.082445,0,0,35.15249,0,0,1561238417.130974,60957.53763,0,-0.486084,74.40098,2650659446,177292352,1,1,0.45,-160,-160,5
1561238420.783052,10,0,0,1561238412.876458,4.602966367343234,-74.064827140666,2644.024,4.145806,209.5248346218031,93.09276580810547,200,-9999,1561238420.781891,-20.39542579650879,15.86077785491943,-4.57977294921875,347.2968139648438,354.8405151367188,15,60960.621764,-0.9348602294921875,-0.284423828125,-0.1205596923828125,60960.611632,-0.03939507674110614,-0.00874954944534633,-0.01727752388799807,60960.605346,17.43807983398438,16.14242553710938,-539.3526000976562,60960.61669800001,-1.005344690596994,-1.423174073102814,0.2915869307412366,-0.04334322735667229,-0.0144356545060873,-0.01420731004327536,0.008544027805328369,0.001644909381866455,0.02037930488586426,1,-0.2148625105619431,-0.6191890835762024,-0.444121390581131,0.6108969449996948,-0.9473715424537659,-0.2874725162982941,-0.1408779621124268,0,0,0,-1,60960.520141,1,2,1561238420.688327,1561238131.651496,42,2.082445,0,0,35.15249,0,0,1561238417.130974,60957.53763,0,-0.486084,74.40098,2650659446,177292352,1,1,0.45,-160,-160,5
1561238420.811603,11,0,0,1561238412.876458,4.602966367343234,-74.064827140666,2644.024,4.145806,209.5248346218031,93.09276580810547,200,-9999,1561238420.781891,-20.39542579650879,15.86077785491943,-4.57977294921875,347.2968139648438,354.8405151367188,15,60960.642028,-0.9331817626953125,-0.2830963134765625,-0.1269073486328125,60960.63189600001,-0.03889440245617124,-0.01663756627805203,0.004699680375662832,60960.625487,17.41539001464844,16.35945129394531,-539.2100830078125,60960.636962,-1.006234431407042,-1.423330458296508,0.2915699665518759,-0.03793088719248772,-0.02604011259973049,0.006773872300982475,0.01325547695159912,0.004359960556030273,0.01864492893218994,1,-0.215178593993187,-0.6191388368606567,-0.4443719387054443,0.6106545329093933,-0.9473985433578491,-0.2874562740325928,-0.140730544924736,0,0,0,-1,60960.520141,1,2,1561238420.688327,1561238131.651496,42,2.082445,0,0,35.15249,0,0,1561238417.130974,60957.53763,0,-0.486084,74.40098,2650659446,177292352,1,1,0.45,-160,-160,5
1561238420.822429,12,0,0,1561238412.876458,4.602966367343234,-74.064827140666,2644.024,4.145806,209.5248346218031,93.09276580810547,200,-9999,1561238420.781891,-20.39542579650879,15.86077785491943,-4.57977294921875,347.2968139648438,354.8405151367188,15,60960.662292,-0.9369659423828125,-0.2833709716796875,-0.1279449462890625,60960.65216000001,-0.02822711070985885,-0.02762656788404599,0.02264805454225186,60960.64562900001,17.28799438476562,16.16059875488281,-539.1939086914062,60960.657226,-1.006880114786009,-1.423832210240948,0.2911556665487977,-0.03019094094634056,-0.03542429208755493,0.02269451320171356,0.0129249095916748,0.00268140435218811,0.01238864660263062,1,-0.2156353890895844,-0.6191648244857788,-0.4444087147712708,0.6104402542114258,-0.9475867748260498,-0.2870594561100006,-0.1402726024389267,0,0,0,-1,60960.520141,1,2,1561238420.688327,1561238131.651496,42,2.082445,0,0,35.15249,0,0,1561238417.130974,60957.53763,0,-0.486084,74.40098,2650659446,177292352,1,1,0.45,-160,-160,5
1561238420.842564,13,0,0,1561238412.876458,4.602966367343234,-74.064827140666,2644.024,4.145806,209.5248346218031,93.09276580810547,200,-9999,1561238420.825024,-20.23453903198242,15.93975925445557,-4.5238037109375,347.3554382324219,354.8991394042969,15,60960.68255500001,-0.9457550048828125,-0.2839813232421875,-0.1253662109375,60960.672423,-0.02329040899717897,-0.03312253342564251,0.02966495138239263,60960.66577100001,17.39524841308594,16.33670043945312,-539.0615844726562,60960.677489,-1.007392986686172,-1.424521275396201,0.2905619886329374,-0.0289405882358551,-0.03249481692910194,0.02715957164764404,0.00781857967376709,0.003547012805938721,0.01162320375442505,1,-0.216155618429184,-0.6192370653152466,-0.444338470697403,0.6102339625358582,-0.9478514790534973,-0.2864907085895538,-0.1396444141864777,0,0,0,-1,60960.520141,1,2,1561238420.688327,1561238131.651496,42,2.082445,0,0,35.15249,0,0,1561238417.130974,60957.53763,0,-0.486084,74.40098,2650659446,177292352,1,1,0.45,-160,-160,5
1561238420.880193,14,0,0,1561238412.876458,4.602966367343234,-74.064827140666,2644.024,4.145806,209.5248346218031,93.09276580810547,200,-9999,1561238420.856967,-20.15400123596191,16.04607391357422,-4.3392333984375,347.4410095214844,354.9847106933594,15,60960.70283537501,-0.94891357421875,-0.2839508056640625,-0.1272430419921875,60960.692687,-0.03277019721342503,-0.01139726420110311,0.008107727622637232,60960.685912,17.41091918945312,16.36570739746094,-539.3235473632812,60960.697769375,-1.008031409273568,-1.424812705080194,0.2902219417533771,-0.04193654656410217,-0.0197281539440155,-0.003234287491068244,-0.0008944272994995117,0.001741081476211548,0.01613712310791016,1,-0.2165372520685196,-0.6192095279693604,-0.4444144070148468,0.6100714206695557,-0.9479886293411255,-0.2861648797988892,-0.1393823623657227,0,0,0,-1,60960.520141,1,2,1561238420.688327,1561238131.651496,42,2.082445,0,0,35.15249,0,0,1561238417.130974,60957.53763,0,-0.486084,74.40098,2650659446,177292352,1,1,0.45,-160,-160,5
1561238420.883275,15,0,0,1561238412.876458,4.602966367343234,-74.064827140666,2644.024,4.145806,209.5248346218031,93.09276580810547,200,-9999,1561238420.856967,-20.15400123596191,16.04607391357422,-4.3392333984375,347.4410095214844,354.9847106933594,15,60960.72309937501,-0.9341583251953125,-0.2810211181640625,-0.128936767578125,60960.712967375,-0.04534431230023415,-0.02233726364303961,-0.01578934947086179,60960.706070375,17.27833557128906,16.18260192871094,-539.1817626953125,60960.718033375,-1.009027135453052,-1.425089333474349,0.290364140443893,-0.04970285668969154,-0.03790609538555145,-0.02015574648976326,0.006153285503387451,0.002701282501220703,0.0120694637298584,1,-0.2168571949005127,-0.6192058324813843,-0.4447245895862579,0.6097353100776672,-0.9479867815971375,-0.2863011360168457,-0.139114186167717,0,0,0,-1,60960.520141,1,2,1561238420.688327,1561238131.651496,42,2.082445,0,0,35.15249,0,0,1561238417.130974,60957.53763,0,-0.486084,74.40098,2650659446,177292352,1,1,0.45,-160,-160,5
1561238420.903919,16,0,0,1561238420.876563,4.602850034779505,-74.06489956781832,2643.988,3.241087,-1,83.81140899658203,200,-9999,1561238420.888105,-20.29818916320801,15.99922275543213,-4.49652099609375,347.5137939453125,355.0574951171875,15,60960.743362375,-0.9310302734375,-0.27606201171875,-0.134613037109375,60960.733230375,-0.0251197343499544,-0.06168147400732524,-0.004728442515435687,60960.726211375,17.37640380859375,16.16912841796875,-539.0507202148438,60960.73829637501,-1.009831929610985,-1.426066931204996,0.290518404397076,-0.02051620930433273,-0.07404065877199173,-0.001321072573773563,0.01572084426879883,0.008861035108566284,0.006024658679962158,1,-0.2172697484493256,-0.6194379329681396,-0.4449033439159393,0.6092221140861511,-0.9480786323547363,-0.2864489555358887,-0.1381810009479523,0,0,0,-1,60960.520141,1,2,1561238420.688327,1561238131.651496,42,2.082445,0,0,35.15249,0,0,1561238417.130974,60957.53763,0,-0.486084,74.40098,2650659446,177292352,1,1,0.45,-160,-160,5
1561238420.923708,17,0,0,1561238420.876563,4.602850034779505,-74.06489956781832,2643.988,3.241087,-1,83.81140899658203,200,-9999,1561238420.888105,-20.29818916320801,15.99922275543213,-4.49652099609375,347.5137939453125,355.0574951171875,15,60960.763626375,-0.924407958984375,-0.27532958984375,-0.136505126953125,60960.75349437501,0.006948986232343756,-0.07466837906309665,0.005900499711179561,60960.74635337501,17.44029235839844,16.16448974609375,-539.2508544921875,60960.758560375,-1.009907530847303,-1.427654116681839,0.2904624188474986,0.009218249469995499,-0.08210045099258423,0.007317422889173031,0.02207350730895996,0.01130983233451843,0.0009361505508422852,1,-0.217665821313858,-0.6199051737785339,-0.4447394013404846,0.6087248921394348,-0.9483125805854797,-0.2863953113555908,-0.1366783380508423,0,0,0,-1,60960.520141,1,2,1561238420.688327,1561238131.651496,42,2.082445,0,0,35.15249,0,0,1561238417.130974,60957.53763,0,-0.486084,74.40098,2650659446,177292352,1,1,0.45,-160,-160,5
1561238420.959129,18,0,0,1561238420.876563,4.602850034779505,-74.06489956781832,2643.988,3.241087,-1,83.81140899658203,200,-9999,1561238420.934701,-20.37917518615723,15.81436824798584,-4.42938232421875,347.5307312011719,355.0744323730469,15,60960.783890375,-0.933074951171875,-0.271453857421875,-0.1303558349609375,60960.77375837501,0.03097948769645575,-0.07234210785091243,0.03763579252499979,60960.766464375,17.37368774414062,16.29986572265625,-538.9766235351562,60960.778824375,-1.009372930553349,-1.429479623365085,0.2900247988637965,0.03192249685525894,-0.0707700327038765,0.04383708536624908,0.02149945497512817,0.01208072900772095,0.0002142190933227539,1,-0.2180589586496353,-0.6204578876495361,-0.4442653059959412,0.6083672046661377,-0.9486845135688782,-0.2859759926795959,-0.1349646002054214,0,0,0,-1,60960.520141,1,2,1561238420.688327,1561238131.651496,42,2.082445,0,0,35.15249,0,0,1561238417.130974,60957.53763,0,-0.486084,74.40098,2650659446,177292352,1,1,0.45,-160,-160,5
1561238420.96459,19,0,0,1561238420.876563,4.602850034779505,-74.06489956781832,2643.988,3.241087,-1,83.81140899658203,200,-9999,1561238420.958731,-20.33312225341797,16.09157180786133,-3.97698974609375,347.4860229492188,355.0297241210938,15,60960.804153375,-0.944793701171875,-0.278717041015625,-0.1208343505859375,60960.794021375,0.02025919904445078,-0.0191137734596077,0.05494607329440584,60960.786606375,17.50326538085938,16.35430908203125,-539.0333862304688,60960.799087375,-1.008739013448243,-1.430533629215143,0.2890790791217011,0.004269829951226711,-0.01141456514596939,0.04917006194591522,0.00826716423034668,0.01170843839645386,0.009917914867401123,1,-0.2184271663427353,-0.6207160353660583,-0.4437138140201569,0.6083742380142212,-0.9490935802459717,-0.2850696444511414,-0.1340023577213287,0,0,0,-1,60960.520141,1,2,1561238420.688327,1561238131.651496,42,2.082445,0,0,35.15249,0,0,1561238417.130974,60957.53763,0,-0.486084,74.40098,2650659446,177292352,1,1,0.45,-160,-160,5
1561238420.984318,20,0,0,1561238420.876563,4.602850034779505,-74.06489956781832,2643.988,3.241087,-1,83.81140899658203,200,-9999,1561238420.958731,-20.33312225341797,16.09157180786133,-3.97698974609375,347.4860229492188,355.0297241210938,15,60960.82441737501,-0.954376220703125,-0.280029296875,-0.1158599853515625,60960.814285375,-0.02954910387497419,0.03153369151930124,0.04415228139631468,60960.80674737501,17.16949462890625,16.27314758300781,-539.0160522460938,60960.81932137501,-1.009057086644696,-1.430167393706588,0.288142137578533,-0.04498640075325966,0.0252680815756321,0.0380239337682724,0.0001965761184692383,0.001838088035583496,0.0172150731086731,1,-0.2187723815441132,-0.620439350605011,-0.4436090588569641,0.6086087822914124,-0.9493085145950317,-0.284171462059021,-0.1343873143196106,0,0,0,-1,60960.520141,1,2,1561238420.688327,1561238131.651496,42,2.082445,0,0,35.15249,0,0,1561238417.130974,60957.53763,0,-0.486084,74.40098,2650659446,177292352,1,1,0.45,-160,-160,5
1561238421.004415,21,0,0,1561238420.876563,4.602850034779505,-74.06489956781832,2643.988,3.241087,-1,83.81140899658203,200,-9999,1561238420.984613,-20.45271873474121,15.8650484085083,-4.08551025390625,347.5185546875,355.062255859375,15,60960.84468137501,-0.954681396484375,-0.281097412109375,-0.122833251953125,60960.834549375,-0.05086344734331436,0.01558641659579775,0.02757703308777051,60960.82688937501,17.19253540039062,16.36628723144531,-538.9264526367188,60960.839584375,-1.010073606181797,-1.429559187392581,0.2874233119793212,-0.04993268847465515,-0.007647257298231125,0.01832586526870728,-0.005847930908203125,0.004002183675765991,0.01684457063674927,1,-0.2192041426897049,-0.620042622089386,-0.4437997341156006,0.6087186932563782,-0.9494285583496094,-0.2834821939468384,-0.1349933743476868,0,0,0,-1,60960.520141,1,2,1561238420.688327,1561238131.651496,42,2.082445,0,0,35.15249,0,0,1561238417.130974,60957.53763,0,-0.486084,74.40098,2650659446,177292352,1,1,0.45,-160,-160,5
1561238421.028705,22,0,0,1561238420.876563,4.602850034779505,-74.06489956781832,2643.988,3.241087,-1,83.81140899658203,200,-9999,1561238421.009272,-20.45155906677246,15.78488445281982,-4.30316162109375,347.5871276855469,355.1308288574219,15,60960.864944375,-0.9547271728515625,-0.278045654296875,-0.129974365234375,60960.854812375,-0.01176264990266198,-0.0484146707209865,0.01914147033494452,60960.84703037501,17.16168212890625,16.36264038085938,-539.1109008789062,60960.859848375,-1.01060395494591,-1.43018069276619,0.2870247064527687,-0.001295377500355244,-0.06533345580101013,0.01833784952759743,-0.005469202995300293,0.003619909286499023,0.007359206676483154,1,-0.2196458578109741,-0.6201178431510925,-0.4437901973724365,0.6084898114204407,-0.9496241211891174,-0.2830999195575714,-0.1344191133975983,0,0,0,-1,60960.520141,1,2,1561238420.688327,1561238131.651496,42,2.082445,0,0,35.15249,0,0,1561238417.130974,60957.53763,0,-0.486084,74.40098,2650659446,177292352,1,1,0.45,-160,-160,5
1561238421.045102,23,0,0,1561238420.876563,4.602850034779505,-74.06489956781832,2643.988,3.241087,-1,83.81140899658203,200,-9999,1561238421.035276,-20.34170913696289,15.9903039932251,-4.1864013671875,347.5748291015625,355.1185302734375,15,60960.88517737501,-0.95263671875,-0.28363037109375,-0.1275177001953125,60960.875046375,0.04185557127223035,-0.06559951660304982,0.03244262839934528,60960.86714237501,17.03811645507812,16.47810363769531,-538.6460571289062,60960.880112375,-1.009991615757281,-1.431814126664991,0.2865726322317767,0.04663379862904549,-0.06819263100624084,0.03113327175378799,-0.003155946731567383,0.002865850925445557,0.002941668033599854,1,-0.2199762016534805,-0.6206188201904297,-0.4433077871799469,0.6082112789154053,-0.9499690532684326,-0.2826662957668304,-0.1328855007886887,0,0,0,-1,60960.520141,1,2,1561238420.688327,1561238131.651496,42,2.082445,0,0,35.15249,0,0,1561238417.130974,60957.53763,0,-0.486084,74.40098,2650659446,177292352,1,1,0.45,-160,-160,5
1561238421.065307,24,0,0,1561238420.876563,4.602850034779505,-74.06489956781832,2643.988,3.241087,-1,83.81140899658203,200,-9999,1561238421.059401,-20.52548980712891,15.96711826324463,-3.9677734375,347.4879760742188,355.0316772460938,15,60960.90544137501,-0.9523773193359375,-0.2802734375,-0.113067626953125,60960.895309375,0.06640751967777986,-0.03693431589387292,0.04145822763759052,60960.88728337501,17.25637817382812,16.54031372070312,-538.7491455078125,60960.900375375,-1.00867331230848,-1.433274553872619,0.2860088828929993,0.05494153127074242,-0.04015619680285454,0.04047084972262383,-0.003156006336212158,-0.0004520416259765625,0.0103955864906311,1,-0.2200873196125031,-0.6211293339729309,-0.4426005482673645,0.6081651449203491,-0.9503199458122253,-0.2821255028247833,-0.1315198391675949,0,0,0,-1,60960.520141,1,2,1561238420.688327,1561238131.651496,42,2.082445,0,0,35.15249,0,0,1561238417.130974,60958.48601,0,-0.486084,74.40098,2650659446,177292352,1,1,0.45,-160,-160,5
1561238421.085567,25,0,0,1561238420.876563,4.602850034779505,-74.06489956781832,2643.988,3.241087,-1,83.81140899658203,200,-9999,1561238421.059401,-20.52548980712891,15.96711826324463,-3.9677734375,347.4879760742188,355.0316772460938,15,60960.925705375,-0.9466552734375,-0.280853271484375,-0.1058807373046875,60960.915573375,0.01694436243562915,-0.03481870072391398,0.04307822852868572,60960.907425375,17.1025390625,16.19573974609375,-538.5997314453125,60960.92063937501,-1.0079691994837,-1.43431492375843,0.2852582048350744,-0.004179581068456173,-0.04764820262789726,0.03937868401408195,0.002667665481567383,0.001223355531692505,0.02109330892562866,1,-0.2203609049320221,-0.6214186549186707,-0.4420776069164276,0.6081507802009583,-0.9506657123565674,-0.2814052402973175,-0.1305598467588425,0,0,0,-1,60960.520141,1,2,1561238420.688327,1561238131.651496,42,2.082445,0,0,35.15249,0,0,1561238417.130974,60958.48601,0,-0.486084,74.40098,2650659446,177292352,1,1,0.45,-160,-160,5
1561238421.107096,26,0,0,1561238420.876563,4.602850034779505,-74.06489956781832,2643.988,3.241087,-1,83.81140899658203,200,-9999,1561238421.085837,-20.54150199890137,16.00563049316406,-3.86956787109375,347.4505615234375,354.9942626953125,15,60960.945968375,-0.95318603515625,-0.2851104736328125,-0.1098175048828125,60960.935837375,-0.03247218948744516,-0.07034393808502598,0.03930266505128039,60960.927566375,17.19651794433594,16.34822082519531,-538.7608032226562,60960.94090337501,-1.008416023289527,-1.435567385839864,0.2844264932511432,-0.04413924738764763,-0.0889546275138855,0.03701566159725189,0.001581728458404541,-0.002214640378952026,0.02483206987380981,1,-0.2210669219493866,-0.6216342449188232,-0.4418597221374512,0.6078323125839233,-0.951059877872467,-0.2806070446968079,-0.1294005662202835,0,0,0,-1,60960.520141,1,2,1561238420.688327,1561238131.651496,42,2.082445,0,0,35.15249,0,0,1561238417.130974,60958.48601,0,-0.486084,74.40098,2650659446,177292352,1,1,0.45,-160,-160,5
1561238421.126147,27,0,0,1561238420.876563,4.602850034779505,-74.06489956781832,2643.988,3.241087,-1,83.81140899658203,200,-9999,1561238421.110129,-20.44937133789062,16.13530349731445,-3.89056396484375,347.5007629394531,355.0444641113281,15,60960.966232375,-0.9679412841796875,-0.287811279296875,-0.1178436279296875,60960.95610037501,-0.03733858374734695,-0.1095627135619689,0.03571725127570671,60960.94767737501,17.16775512695312,16.50669860839844,-538.7611083984375,60960.961166375,-1.009217225088963,-1.437478067584447,0.2836332448085557,-0.03067909926176071,-0.1250660270452499,0.03335488215088844,-0.007184028625488281,-0.007492691278457642,0.01486551761627197,1,-0.2220147401094437,-0.6220153570175171,-0.441685676574707,0.6072231531143188,-0.9515256881713867,-0.2798455655574799,-0.1276126950979233,0,0,0,-1,60960.520141,1,2,1561238420.688327,1561238131.651496,42,2.082445,0,0,35.15249,0,0,1561238417.130974,60958.48601,0,-0.486084,74.40098,2650659446,177292352,1,1,0.45,-160,-160,5
1561238421.14642,28,0,0,1561238420.876563,4.602850034779505,-74.06489956781832,2643.988,3.241087,-1,83.81140899658203,200,-9999,1561238421.136624,-20.48637390136719,16.13404846191406,-4.2200927734375,347.5355834960938,355.0792846679688,15,60960.986496375,-0.9770050048828125,-0.2862701416015625,-0.1165771484375,60960.976364375,-0.005559881407758426,-0.1242489817093198,0.02895069157803338,60960.967819375,17.34567260742188,16.49607849121094,-538.9615478515625,60960.981430375,-1.009464654758185,-1.440079465599601,0.2830226178115108,-0.007612661924213171,-0.1365685015916824,0.01953360810875893,-0.02240246534347534,-0.008414685726165771,0.007574975490570068,1,-0.222878709435463,-0.6226921081542969,-0.4413127601146698,0.6064838171005249,-0.9520238041877747,-0.2792592942714691,-0.1251592338085175,0,0,0,-1,60960.520141,1,2,1561238420.688327,1561238131.651496,42,2.082445,0,0,35.15249,0,0,1561238417.130974,60958.48601,0,-0.486084,74.40098,2650659446,177292352,1,1,0.45,-160,-160,5
1561238421.166655,29,0,0,1561238420.876563,4.602850034779505,-74.06489956781832,2643.988,3.241087,-1,83.81140899658203,200,-9999,1561238421.160721,-20.21703147888184,16.06214141845703,-3.89990234375,347.5425109863281,355.0862121582031,15,60961.00675937501,-0.9820098876953125,-0.2848052978515625,-0.1180877685546875,60960.996628375,0.0009430253419970583,-0.1496819038034675,-0.003512709477814515,60960.987961375,17.4127197265625,16.74429321289062,-538.9829711914062,60961.001694375,-1.009526671944036,-1.443104975612735,0.2829749431921283,-0.002971571171656251,-0.1476102322340012,-0.01675488986074924,-0.02836263179779053,-0.006415754556655884,0.003612399101257324,1,-0.2235819846391678,-0.6235952973365784,-0.4409814476966858,0.6055371761322021,-0.9524112939834595,-0.2792135179042816,-0.1222800016403198,0,0,0,-1,60960.520141,1,2,1561238420.688327,1561238131.651496,42,2.082445,0,0,35.15249,0,0,1561238417.130974,60958.48601,0,-0.486084,74.40098,2650659446,177292352,1,1,0.45,-160,-160,5
1561238421.187169,30,0,0,1561238420.876563,4.602850034779505,-74.06489956781832,2643.988,3.241087,-1,83.81140899658203,200,-9999,1561238421.160721,-20.21703147888184,16.06214141845703,-3.89990234375,347.5425109863281,355.0862121582031,15,60961.02702337501,-0.97698974609375,-0.274566650390625,-0.128082275390625,60961.016891375,-0.0006673881691738571,-0.1297742420229072,-0.03281733516471943,60961.008102375,17.26190185546875,16.423828125,-538.9978637695312,60961.02195737501,-1.009693314530943,-1.445916117660223,0.2835622288374355,-0.001465287292376161,-0.1324448585510254,-0.03655149787664413,-0.02554565668106079,-0.0004350244998931885,-0.003602504730224609,1,-0.2240495383739471,-0.6245085597038269,-0.4408704340457916,0.6045032143592834,-0.9525884985923767,-0.2797773778438568,-0.1195817291736603,0,0,0,-1,60960.520141,1,2,1561238420.688327,1561238131.651496,42,2.082445,0,0,35.15249,0,0,1561238417.130974,60958.48601,0,-0.486084,74.40098,2650659446,177292352,1,1,0.45,-160,-160,5
1561238421.207154,31,0,0,1561238420.876563,4.602850034779505,-74.06489956781832,2643.988,3.241087,-1,83.81140899658203,200,-9999,1561238421.187089,-20.11906051635742,16.06521606445312,-4.01800537109375,347.552978515625,355.0966796875,15,60961.047287375,-0.973724365234375,-0.2646484375,-0.1279296875,60961.037155375,0.03241040415015532,-0.09370492085109204,-0.03582963667370805,60961.028244375,17.10029602050781,16.24516296386719,-538.5414428710938,60961.04222137501,-1.009413363646585,-1.448287885790569,0.2843818029579211,0.03786427527666092,-0.09126278758049011,-0.03215062245726585,-0.02213573455810547,0.01084980368614197,-0.01020842790603638,1,-0.2242001295089722,-0.6253697276115417,-0.4407341480255127,0.6036558747291565,-0.9526415467262268,-0.2805641293525696,-0.1172940135002136,0,0,0,-1,60960.520141,1,2,1561238420.688327,1561238131.651496,42,2.082445,0,0,35.15249,0,0,1561238417.130974,60958.48601,0,-0.486084,74.40098,2650659446,177292352,1,1,0.45,-160,-160,5
1561238421.227478,32,0,0,1561238420.876563,4.602850034779505,-74.06489956781832,2643.988,3.241087,-1,83.81140899658203,200,-9999,1561238421.211426,-20.48779487609863,16.03422927856445,-3.88507080078125,347.5088195800781,355.0525207519531,15,60961.067550375,-0.9703216552734375,-0.2693023681640625,-0.117095947265625,60961.05741937501,0.08382432689078906,-0.06212515664493243,-0.01966291727638204,60961.048355375,17.38038635253906,16.30657958984375,-538.6063232421875,60961.06248537501,-1.008122461535454,-1.450197717596336,0.2850468163012875,0.08664486557245255,-0.06455954164266586,-0.02480962127447128,-0.021412193775177,0.01634034514427185,-0.009059786796569824,1,-0.2239860147237778,-0.6261823177337646,-0.4403046071529388,0.6032062768936157,-0.952678382396698,-0.2812023758888245,-0.1154519394040108,0,0,0,-1,60960.520141,1,2,1561238420.688327,1561238131.651496,42,2.082445,0,0,35.15249,0,0,1561238417.130974,60958.48601,0,-0.486084,74.40098,2650659446,177292352,1,1,0.45,-160,-160,5
1561238421.247744,33,0,0,1561238420.876563,4.602850034779505,-74.06489956781832,2643.988,3.241087,-1,83.81140899658203,200,-9999,1561238421.237964,-20.32898330688477,15.94371700286865,-3.87237548828125,347.39013671875,354.933837890625,15,60961.087814375,-0.964111328125,-0.2757720947265625,-0.1002655029296875,60961.07768237501,0.08388797644084195,-0.01624794581057343,-0.04150163716335881,60961.068497375,17.27963256835938,16.15707397460938,-538.5700073242188,60961.082748375,-1.006443496642394,-1.451478782554329,0.2860088536004699,0.06965629011392593,-0.01344442553818226,-0.04947368800640106,-0.01546108722686768,0.009191513061523438,0.004869937896728516,1,-0.2234080135822296,-0.6268885731697083,-0.4399069845676422,0.6029771566390991,-0.9525564908981323,-0.2821254730224609,-0.1141991540789604,0,0,0,-1,60960.520141,1,2,1561238420.688327,1561238131.651496,42,2.082445,0,0,35.15249,0,0,1561238417.130974,60958.48601,0,-0.486084,74.40098,2650659446,177292352,1,1,0.45,-160,-160,5
1561238421.268793,34,0,0,1561238420.876563,4.602850034779505,-74.06489956781832,2643.988,3.241087,-1,83.81140899658203,200,-9999,1561238421.2641,-20.49448776245117,15.87915325164795,-3.5902099609375,347.326171875,354.869873046875,15,60961.108078375,-0.953216552734375,-0.2788238525390625,-0.0957794189453125,60961.097946375,0.03229082821721076,0.01333764337133484,-0.05382381721104644,60961.088638375,17.16621398925781,16.38392639160156,-538.7591552734375,60961.10298137501,-1.005671440198733,-1.451686755640658,0.2871851210589699,0.01882906630635262,0.007132487837225199,-0.0556303858757019,-0.007024168968200684,0.004857122898101807,0.01827371120452881,1,-0.2228033244609833,-0.6271984577178955,-0.4399592578411102,0.6028406023979187,-0.9522501826286316,-0.2832537591457367,-0.1139615476131439,0,0,0,-1,60960.520141,1,2,1561238420.688327,1561238131.651496,42,2.082445,0,0,35.15249,0,0,1561238417.130974,60958.48601,0,-0.486084,74.40098,2650659446,177292352,1,1,0.45,-160,-160,5
1561238421.288213,35,0,0,1561238420.876563,4.602850034779505,-74.06489956781832,2643.988,3.241087,-1,83.81140899658203,200,-9999,1561238421.2641,-20.49448776245117,15.87915325164795,-3.5902099609375,347.326171875,354.869873046875,15,60961.12834237501,-0.9486541748046875,-0.2733917236328125,-0.0979461669921875,60961.118210375,0.01912682294894909,-7.137271721412359e-05,-0.04232242341132124,60961.108749375,17.09111022949219,16.352783203125,-538.6907958984375,60961.12324537501,-1.005479644876528,-1.451741378120865,0.2881855685297426,0.02874614298343658,-0.01689614914357662,-0.03984822705388069,0.00339663028717041,0.008028984069824219,0.01779121160507202,1,-0.2224078178405762,-0.6273729801177979,-0.4401574730873108,0.6026602983474731,-0.9519745111465454,-0.2842130959033966,-0.1138758137822151,0,0,0,-1,60960.520141,1,2,1561238420.688327,1561238131.651496,42,2.082445,0,0,35.15249,0,0,1561238417.130974,60958.48601,0,-0.486084,74.40098,2650659446,177292352,1,1,0.45,-160,-160,5
1561238421.30928,36,0,0,1561238420.876563,4.602850034779505,-74.06489956781832,2643.988,3.241087,-1,83.81140899658203,200,-9999,1561238421.288497,-20.48358345031738,15.87239551544189,-3.8260498046875,347.3074645996094,354.8511657714844,15,60961.148575375,-0.9473876953125,-0.2754669189453125,-0.0988922119140625,60961.138473375,0.07188537572396383,-0.04230218338703663,-0.020770525973746,60961.128891375,17.17622375488281,16.14591979980469,-538.5528564453125,60961.143509375,-1.004426848216608,-1.452811536639649,0.2888259705321838,0.07764603942632675,-0.04918378219008446,-0.01917490363121033,0.00316917896270752,0.01254916191101074,0.01298201084136963,1,-0.2220904976129532,-0.627899706363678,-0.4398891925811768,0.6024246215820312,-0.95191490650177,-0.2848270237445831,-0.1128355413675308,0,0,0,-1,60960.520141,1,2,1561238420.688327,1561238131.651496,42,2.082445,0,0,35.15249,0,0,1561238417.130974,60958.48601,0,-0.486084,74.40098,2650659446,177292352,1,1,0.45,-160,-160,5
1561238421.328609,37,0,0,1561238420.876563,4.602850034779505,-74.06489956781832,2643.988,3.241087,-1,83.81140899658203,200,-9999,1561238421.312663,-20.54311370849609,15.92736148834229,-3.8443603515625,347.20947265625,354.753173828125,15,60961.168838375,-0.9536590576171875,-0.283355712890625,-0.0935516357421875,60961.15870737501,0.08598734632815141,-0.01899686068775322,-0.01161404551383556,60961.149032375,17.03672790527344,16.33900451660156,-538.9916381835938,60961.163772375,-1.00275886635137,-1.453965650944586,0.2893113123507119,0.07732433080673218,-0.0007520667277276516,-0.01275588758289814,0.003863215446472168,0.004072725772857666,0.01392710208892822,1,-0.2216517776250839,-0.6284983158111572,-0.4393860995769501,0.6023290753364563,-0.9519070386886597,-0.2852922379970551,-0.1117207109928131,0,0,0,-1,60960.520141,1,2,1561238420.688327,1561238131.651496,42,2.082445,0,0,35.15249,0,0,1561238417.130974,60958.48601,0,-0.486084,74.40098,2650659446,177292352,1,1,0.45,-160,-160,5
1561238421.349271,38,0,0,1561238420.876563,4.602850034779505,-74.06489956781832,2643.988,3.241087,-1,83.81140899658203,200,-9999,1561238421.339214,-20.5129222869873,15.82612705230713,-3.8251953125,347.1029968261719,354.6466979980469,15,60961.18910237501,-0.945953369140625,-0.2925872802734375,-0.0844879150390625,60961.178970375,0.05523103153104431,0.09955215734047002,-0.01011388687179392,60961.16917437501,17.19343566894531,16.18125915527344,-538.528564453125,60961.184036375,-1.001490767792677,-1.453107795497078,0.2896938445744735,0.0342375822365284,0.1139169931411743,-0.01827821880578995,-0.006656348705291748,0.0005330741405487061,0.02477115392684937,1,-0.2209320068359375,-0.628432035446167,-0.4391993582248688,0.6027987003326416,-0.9517024159431458,-0.2856588363647461,-0.1125244498252869,0,0,0,-1,60960.520141,1,2,1561238420.688327,1561238131.651496,42,2.082445,0,0,35.15249,0,0,1561238417.130974,60958.48601,0,-0.486084,74.40098,2650659446,177292352,1,1,0.45,-160,-160,5
1561238421.369275,39,0,0,1561238420.876563,4.602850034779505,-74.06489956781832,2643.988,3.241087,-1,83.81140899658203,200,-9999,1561238421.36338,-20.32820510864258,15.95582485198975,-3.9449462890625,347.0987854003906,354.6424865722656,15,60961.20936637501,-0.92626953125,-0.2888031005859375,-0.0826263427734375,60961.199234375,-0.01981738061960664,0.1303063416087051,-0.01475977139343715,60961.18931637501,17.21113586425781,16.12928771972656,-538.6702880859375,60961.204300375,-1.001614329388175,-1.450614259001191,0.2900647991599534,-0.03140906989574432,0.1014576554298401,-0.006952859461307526,0.02188533544540405,-0.009014397859573364,0.03164780139923096,1,-0.2202940881252289,-0.6277167201042175,-0.4396089315414429,0.6034783720970154,-0.9513134360313416,-0.2860143184661865,-0.1148844659328461,0,0,0,-1,60960.520141,1,2,1561238420.688327,1561238131.651496,42,2.082445,0,0,35.15249,0,0,1561238417.130974,60958.48601,0,-0.486084,74.40098,2650659446,177292352,1,1,0.45,-160,-160,5
1561238421.389401,40,0,0,1561238420.876563,4.602850034779505,-74.06489956781832,2643.988,3.241087,-1,83.81140899658203,200,-9999,1561238421.36338,-20.32820510864258,15.95582485198975,-3.9449462890625,347.0987854003906,354.6424865722656,15,60961.229629375,-0.935302734375,-0.282684326171875,-0.088470458984375,60961.219498375,-0.007062170578672124,-0.01994361445527639,0.03107642676013463,60961.20945737501,17.12898254394531,16.19656372070312,-538.7424926757812,60961.22456337501,-1.001958108164792,-1.450189256157689,0.2896680780172622,0.002206945791840553,-0.06680884957313538,0.02414567023515701,0.02112507820129395,0.002492070198059082,0.029563307762146,1,-0.2204464972019196,-0.6274967193603516,-0.439655601978302,0.6036175489425659,-0.9513771533966064,-0.2856341600418091,-0.1153024211525917,0,0,0,-1,60960.520141,1,2,1561238420.688327,1561238131.651496,42,2.082445,0,0,35.15249,0,0,1561238417.130974,60958.48601,0,-0.486084,74.40098,2650659446,177292352,1,1,0.45,-160,-160,5
1561238421.40983,41,0,0,1561238420.876563,4.602850034779505,-74.06489956781832,2643.988,3.241087,-1,83.81140899658203,200,-9999,1561238421.389705,-20.44626808166504,15.93638706207275,-3.86962890625,347.1163940429688,354.6600952148438,15,60961.249893375,-0.9564056396484375,-0.29718017578125,-0.102813720703125,60961.23976137501,0.02551148534630505,-0.1101749742965781,-0.007215036025242672,60961.229599375,17.14056396484375,16.10908508300781,-538.8340454101562,60961.24482737501,-1.00160861028681,-1.452414353727696,0.2896532042766533,0.02032043598592281,-0.09938276559114456,-0.02939425408840179,0.006979107856750488,-0.004190295934677124,0.01665860414505005,1,-0.2208309024572372,-0.6282044649124146,-0.4393008053302765,0.6029988527297974,-0.9516355395317078,-0.2856198847293854,-0.1131857261061668,0,0,0,-1,60960.520141,1,2,1561238420.688327,1561238131.651496,42,2.082445,0,0,35.15249,0,0,1561238417.130974,60958.48601,0,-0.486084,74.40098,2650659446,177292352,1,1,0.45,-160,-160,5
1561238421.435281,42,0,0,1561238420.876563,4.602850034779505,-74.06489956781832,2643.988,3.241087,-1,83.81140899658203,200,-9999,1561238421.414097,-20.44890022277832,15.78808307647705,-3.906494140625,347.0950012207031,354.6387023925781,15,60961.270157375,-0.9547119140625,-0.28460693359375,-0.107940673828125,60961.26002537501,-0.00525148735352725,-0.004157460777722699,-0.06492120947340663,60961.249740375,17.07398986816406,16.12542724609375,-538.808837890625,60961.265091375,-1.001682192088476,-1.453277558265481,0.2907698222276522,-0.02167974412441254,0.01451423764228821,-0.07405146956443787,-0.01010167598724365,-0.006492525339126587,0.009024739265441895,1,-0.2206556349992752,-0.6286077499389648,-0.4395205974578857,0.6024824380874634,-0.9514156579971313,-0.286689817905426,-0.1123267784714699,0,0,0,-1,60960.520141,1,2,1561238420.688327,1561238131.651496,42,2.082445,0,0,35.15249,0,0,1561238417.130974,60958.48601,0,-0.486084,74.40098,2650659446,177292352,1,1,0.45,-160,-160,5
1561238421.45035,43,0,0,1561238420.876563,4.602850034779505,-74.06489956781832,2643.988,3.241087,-1,83.81140899658203,200,-9999,1561238421.440578,-20.39175796508789,15.68461894989014,-3.90093994140625,347.1411743164062,354.6848754882812,15,60961.290420375,-0.938629150390625,-0.263671875,-0.1121673583984375,60961.280289375,-0.03039572278551038,0.05838208373282607,-0.06591536750833321,60961.269852375,17.21572875976562,16.16635131835938,-538.74609375,60961.285354375,-1.002480790580955,-1.452235873492163,0.2921621803819555,-0.02475542947649956,0.05231914296746254,-0.05295497179031372,0.008624851703643799,0.0129837691783905,0.003941237926483154,1,-0.2201935797929764,-0.6283944249153137,-0.440240889787674,0.6023481488227844,-0.9509008526802063,-0.288023442029953,-0.1132704690098763,0,0,0,-1,60960.520141,1,2,1561238420.688327,1561238131.651496,42,2.082445,0,0,35.15249,0,0,1561238417.130974,60958.48601,0,-0.486084,74.40098,2650659446,177292352,1,1,0.45,-160,-160,5
1561238421.470639,44,0,0,1561238420.876563,4.602850034779505,-74.06489956781832,2643.988,3.241087,-1,83.81140899658203,200,-9999,1561238421.46472,-20.52959632873535,15.72826290130615,-3.91888427734375,347.150634765625,354.6943359375,15,60961.31068437501,-0.9226226806640625,-0.261077880859375,-0.1191864013671875,60961.300552375,0.02454928524445943,0.008194812990282824,-0.003393399860978965,60961.289993375,17.19149780273438,15.86006164550781,-538.8184814453125,60961.305618375,-1.002437986611082,-1.451874253809179,0.2925988240521959,0.03931942582130432,-0.01059324573725462,-0.002366096945479512,0.01990276575088501,0.02028357982635498,-0.003908514976501465,1,-0.2199487835168839,-0.6283493041992188,-0.4403821229934692,0.6023812294006348,-0.9507346749305725,-0.2884415686130524,-0.1135993674397469,0,0,0,-1,60960.520141,1,2,1561238420.688327,1561238131.651496,42,2.082445,0,0,35.15249,0,0,1561238417.130974,60958.48601,0,-0.486084,74.40098,2650659446,177292352,1,1,0.45,-160,-160,5
1561238421.49091,45,0,0,1561238420.876563,4.602850034779505,-74.06489956781832,2643.988,3.241087,-1,83.81140899658203,200,-9999,1561238421.46472,-20.52959632873535,15.72826290130615,-3.91888427734375,347.150634765625,354.6943359375,15,60961.33094837501,-0.9323577880859375,-0.26727294921875,-0.1143951416015625,60961.320816375,0.09128144425911994,-0.00829681206003286,0.01047154940619156,60961.310135375,17.26448059082031,15.98698425292969,-538.7964477539062,60961.325882375,-1.000870873883894,-1.452640078438783,0.2926877525996009,0.09114347398281097,-0.007565231993794441,0.008854866027832031,0.02402299642562866,0.02612128853797913,-0.003373205661773682,1,-0.2195938229560852,-0.6287642121315002,-0.4398492276668549,0.6024672985076904,-0.9507961273193359,-0.288526713848114,-0.1128682345151901,0,0,0,-1,60960.520141,1,2,1561238420.688327,1561238131.651496,42,2.082445,0,0,35.15249,0,0,1561238417.130974,60958.48601,0,-0.486084,74.40098,2650659446,177292352,1,1,0.45,-160,-160,5
1561238421.519523,46,0,0,1561238420.876563,4.602850034779505,-74.06489956781832,2643.988,3.241087,-1,83.81140899658203,200,-9999,1561238421.515511,-20.53640365600586,15.68300724029541,-3.9267578125,346.9215393066406,354.4652404785156,15,60961.351211375,-0.943389892578125,-0.2772216796875,-0.10223388671875,60961.341080375,0.07968018191851677,0.0391450059147477,0.01562742927658497,60961.330276375,17.14704895019531,16.22322082519531,-538.8802490234375,60961.34614537501,-0.9990954494762262,-1.45279593120857,0.2926756033751264,0.06835214048624039,0.0502309575676918,0.009190957061946392,0.01089096069335938,0.01667976379394531,0.001697540283203125,1,-0.2190740406513214,-0.6290042400360107,-0.4392939805984497,0.6028109788894653,-0.9508171677589417,-0.2885150909423828,-0.1127204596996307,0,0,0,-1,60960.520141,1,2,1561238420.688327,1561238131.651496,42,2.082445,0,0,35.15249,0,0,1561238417.130974,60958.48601,0,-0.486084,74.40098,2650659446,177292352,1,1,0.45,-160,-160,5
1561238421.531564,47,0,0,1561238420.876563,4.602850034779505,-74.06489956781832,2643.988,3.241087,-1,83.81140899658203,200,-9999,1561238421.515511,-20.53640365600586,15.68300724029541,-3.9267578125,346.9215393066406,354.4652404785156,15,60961.371475375,-0.9420166015625,-0.2834320068359375,-0.0911407470703125,60961.36134337501,0.0582185656418952,0.07177512085483456,0.007987885373583668,60961.350387375,17.15548706054688,16.0701904296875,-539.0155029296875,60961.366409375,-0.9978328683024451,-1.45192432482475,0.2926531803155789,0.04974783211946487,0.05647580325603485,0.0002741608768701553,0.006587326526641846,0.005839794874191284,0.01867073774337769,1,-0.2184934318065643,-0.6288765072822571,-0.4390027225017548,0.6033668518066406,-0.9507248997688293,-0.2884936034679413,-0.1135499179363251,0,0,0,-1,60960.520141,1,2,1561238420.688327,1561238131.651496,42,2.082445,0,0,35.15249,0,0,1561238417.130974,60958.48601,0,-0.486084,74.40098,2650659446,177292352,1,1,0.45,-160,-160,5
1561238421.552322,48,0,0,1561238420.876563,4.602850034779505,-74.06489956781832,2643.988,3.241087,-1,83.81140899658203,200,-9999,1561238421.542755,-20.43175888061523,15.72343158721924,-4.067138671875,346.8461608886719,354.3898620605469,15,60961.391739375,-0.9432220458984375,-0.2820281982421875,-0.0860137939453125,60961.38160737501,0.05312287321213759,0.0184045736613196,0.0009427590258880503,60961.370529375,17.21003723144531,16.03775024414062,-538.8342895507812,60961.386642375,-0.9967932995093862,-1.451646750256995,0.2927794601724939,0.05610240250825882,-0.005453344900161028,0.0005063884891569614,0.01034951210021973,0.006647348403930664,0.02597993612289429,1,-0.2180616855621338,-0.6289231777191162,-0.4387524425983429,0.6036563515663147,-0.9506571292877197,-0.2886145114898682,-0.1138094738125801,0,0,0,-1,60960.520141,1,2,1561238420.688327,1561238131.651496,42,2.082445,0,0,35.15249,0,0,1561238417.130974,60958.48601,0,-0.486084,74.40098,2650659446,177292352,1,1,0.45,-160,-160,5
1561238421.572129,49,0,0,1561238420.876563,4.602850034779505,-74.06489956781832,2643.988,3.241087,-1,83.81140899658203,200,-9999,1561238421.566609,-20.64893341064453,15.72133159637451,-4.05804443359375,346.7634887695312,354.3071899414062,15,60961.412002375,-0.9472503662109375,-0.2806243896484375,-0.0844573974609375,60961.401871375,0.05964841683115875,-0.01362446582073638,0.004672249816435016,60961.390671375,16.96742248535156,16.20463562011719,-538.9016723632812,60961.40690637501,-0.995608645980523,-1.452313609119498,0.2928470815158535,0.04984157532453537,-0.02026131935417652,0.001304005272686481,0.005355179309844971,0.006971508264541626,0.03124874830245972,1,-0.2178117334842682,-0.6292626261711121,-0.4383399486541748,0.6036925315856934,-0.9507134556770325,-0.2886792719364166,-0.1131731942296028,0,0,0,-1,60960.520141,1,2,1561238420.688327,1561238131.651496,42,2.082445,0,0,35.15249,0,0,1561238417.130974,60958.48601,0,-0.486084,74.40098,2650659446,177292352,1,1,0.45,-160,-160,5
1561238421.599522,50,0,0,1561238420.876563,4.602850034779505,-74.06489956781832,2643.988,3.241087,-1,83.81140899658203,200,-9999,1561238421.593278,-20.6229248046875,15.7916898727417,-4.0814208984375,346.6907653808594,354.2344665527344,15,60961.432236375,-0.953521728515625,-0.286834716796875,-0.0911102294921875,60961.422134375,0.05044160262664581,-0.004220844011666585,0.002614957874348804,60961.410782375,17.01161193847656,16.19166564941406,-538.806396484375,60961.42717037501,-0.9946124319118955,-1.452890296750374,0.2929428954022897,0.05261179804801941,0.00322696240618825,-0.001935996464453638,0.001623868942260742,0.004347175359725952,0.02265584468841553,1,-0.2175912261009216,-0.6295579671859741,-0.4380016326904297,0.6037096381187439,-0.9507510662078857,-0.288771003484726,-0.1126216500997543,0,0,0,-1,60960.520141,1,2,1561238420.688327,1561238131.651496,42,2.082445,0,0,35.15249,0,0,1561238417.130974,60958.48601,0,-0.486084,74.40098,2650659446,177292352,1,1,0.45,-160,-160,5
1561238421.613017,51,0,0,1561238420.876563,4.602850034779505,-74.06489956781832,2643.988,3.241087,-1,83.81140899658203,200,-9999,1561238421.593278,-20.6229248046875,15.7916898727417,-4.0814208984375,346.6907653808594,354.2344665527344,15,60961.452499375,-0.9481353759765625,-0.2910308837890625,-0.0885772705078125,60961.44236737501,0.06755614105593102,0.04586229713225456,-0.004096208072650876,60961.430923375,17.01640319824219,16.04913330078125,-538.781005859375,60961.447433375,-0.9933493637832043,-1.452728398107708,0.2931802445694321,0.06319567561149597,0.04341110587120056,-0.006719570606946945,-0.003528356552124023,0.002209275960922241,0.02219128608703613,1,-0.2170755118131638,-0.6296780705451965,-0.4377002418041229,0.6039885878562927,-0.950664758682251,-0.2889982163906097,-0.1127675026655197,0,0,0,-1,60960.520141,1,2,1561238420.688327,1561238131.651496,42,2.082445,0,0,35.15249,0,0,1561238417.130974,60958.48601,0,-0.486084,74.40098,2650659446,177292352,1,1,0.45,-160,-160,5
1561238421.632835,52,0,0,1561238420.876563,4.602850034779505,-74.06489956781832,2643.988,3.241087,-1,83.81140899658203,200,-9999,1561238421.616759,-20.4727611541748,15.79105281829834,-4.00946044921875,346.5974426269531,354.1411437988281,15,60961.472763375,-0.9403839111328125,-0.2882232666015625,-0.076019287109375,60961.46263137501,0.05805877597649045,0.04686364570212435,0.002780073861933717,60961.451065375,17.16032409667969,15.95111083984375,-539.0919189453125,60961.467697375,-0.9920990157205491,-1.45225800712357,0.2933852881947601,0.04546142369508743,0.03658729046583176,0.003524811007082462,0.007880091667175293,-0.00218731164932251,0.03039819002151489,1,-0.2165074944496155,-0.6296988725662231,-0.4374274015426636,0.6043683886528015,-0.9505528211593628,-0.2891945242881775,-0.1132076680660248,0,0,0,-1,60960.520141,1,2,1561238420.688327,1561238131.651496,42,2.082445,0,0,35.15249,0,0,1561238417.130974,60958.48601,0,-0.486084,74.40098,2650659446,177292352,1,1,0.45,-160,-160,5
1561238421.653076,53,0,0,1561238420.876563,4.602850034779505,-74.06489956781832,2643.988,3.241087,-1,83.81140899658203,200,-9999,1561238421.644139,-20.6036491394043,15.81752681732178,-4.3193359375,346.5358276367188,354.0795288085938,15,60961.49302737501,-0.94378662109375,-0.2839508056640625,-0.07196044921875,60961.482895375,0.01960486036461831,0.03325063147407532,0.0186935266395932,60961.471176375,17.077880859375,16.09764099121094,-539.0313720703125,60961.487961375,-0.9914962470073461,-1.451920462926827,0.2931981706518466,0.006656504236161709,0.02330370992422104,0.01647176779806614,0.008566915988922119,0.005873292684555054,0.04270362854003906,1,-0.2163091003894806,-0.6296371221542358,-0.4372325539588928,0.6046447157859802,-0.9505682587623596,-0.2890153825283051,-0.1135349348187447,0,0,0,-1,60960.520141,1,2,1561238420.688327,1561238131.651496,42,2.082445,0,0,35.15249,0,0,1561238417.130974,60958.48601,0,-0.486084,74.40098,2650659446,177292352,1,1,0.45,-160,-160,5
1561238421.686313,54,0,0,1561238420.876563,4.602850034779505,-74.06489956781832,2643.988,3.241087,-1,83.81140899658203,200,-9999,1561238421.667694,-20.45154190063477,15.76191806793213,-4.0267333984375,346.5388793945312,354.0825805664062,15,60961.51329037501,-0.95428466796875,-0.28692626953125,-0.086029052734375,60961.503158375,-0.01193309221242705,0.03083807384257254,0.01447321526014463,60961.491318375,17.15058898925781,16.1229248046875,-538.997802734375,60961.508224375,-0.9916028335830851,-1.451483749945462,0.292912945470361,-0.01913381367921829,0.02974376641213894,0.008204784244298935,0.004906415939331055,-0.0003049373626708984,0.03482776880264282,1,-0.2163465619087219,-0.6294555068016052,-0.4372370541095734,0.6048171520233154,-0.9506004452705383,-0.288742333650589,-0.113959863781929,0,0,0,-1,60960.520141,1,2,1561238420.688327,1561238131.651496,42,2.082445,0,0,35.15249,0,0,1561238417.130974,60958.48601,0,-0.486084,74.40098,2650659446,177292352,1,1,0.45,-160,-160,5
1561238421.694248,55,0,0,1561238420.876563,4.602850034779505,-74.06489956781832,2643.988,3.241087,-1,83.81140899658203,200,-9999,1561238421.667694,-20.45154190063477,15.76191806793213,-4.0267333984375,346.5388793945312,354.0825805664062,15,60961.533554375,-0.95684814453125,-0.281524658203125,-0.095947265625,60961.523422375,-0.01824851242144096,0.07190987680599256,0.005557484562777354,60961.511459375,16.95713806152344,16.1502685546875,-538.960205078125,60961.52848837501,-0.9920417704192275,-1.450349601567746,0.292747398777426,-0.02070720866322517,0.07347207516431808,0.006330984178930521,-0.01045000553131104,0.006738722324371338,0.02234655618667603,1,-0.2162943631410599,-0.6290428638458252,-0.4374490082263947,0.6051117777824402,-0.950518012046814,-0.2885838150978088,-0.1150436475872993,0,0,0,-1,60960.520141,1,2,1561238420.688327,1561238131.651496,42,2.082445,0,0,35.15249,0,0,1561238417.130974,60958.48601,0,-0.486084,74.40098,2650659446,177292352,1,1,0.45,-160,-160,5
1561238421.713998,56,0,0,1561238420.876563,4.602850034779505,-74.06489956781832,2643.988,3.241087,-1,83.81140899658203,200,-9999,1561238421.69385,-20.51511001586914,15.7376012802124,-3.94610595703125,346.5704956054688,354.1141967773438,15,60961.553818375,-0.9549407958984375,-0.2801513671875,-0.10418701171875,60961.543686375,-0.006345247613222793,0.05977678119570057,0.01809351644599834,60961.531570375,17.23027038574219,16.06889343261719,-538.9774169921875,60961.54875237501,-0.9922914156478126,-1.449039854080137,0.2924806839340931,-0.006338390521705151,0.05010496079921722,0.01987715251743793,-0.002758502960205078,0.007795631885528564,0.01365196704864502,1,-0.2161793410778046,-0.6285837888717651,-0.4375961720943451,0.6055233478546143,-0.9504428505897522,-0.2883284389972687,-0.1162978261709213,0,0,0,-1,60960.520141,1,2,1561238420.688327,1561238131.651496,42,2.082445,0,0,35.15249,0,0,1561238417.130974,60958.48601,0,-0.486084,74.40098,2650659446,177292352,1,1,0.45,-160,-160,5
1561238421.734142,57,0,0,1561238420.876563,4.602850034779505,-74.06489956781832,2643.988,3.241087,-1,83.81140899658203,200,-9999,1561238421.718659,-20.43436813354492,15.7692346572876,-4.112548828125,346.5775756835938,354.1212768554688,15,60961.574081375,-0.9657440185546875,-0.2790985107421875,-0.1059722900390625,60961.56394937501,0.01508947073638896,0.03366501933969165,0.03011502560661602,60961.551712375,17.0042724609375,16.08290100097656,-539.0453491210938,60961.569015375,-0.9920536665183406,-1.448464233865471,0.2920020023366754,0.01878240890800953,0.01682530529797077,0.02884934097528458,-0.008899033069610596,0.009793877601623535,0.01464307308197021,1,-0.2161456644535065,-0.6283710598945618,-0.4374608099460602,0.6058538556098938,-0.9505125880241394,-0.2878700494766235,-0.1168617233633995,0,0,0,-1,60960.520141,1,2,1561238420.688327,1561238131.651496,42,2.082445,0,0,35.15249,0,0,1561238417.130974,60958.48601,0,-0.486084,74.40098,2650659446,177292352,1,1,0.45,-160,-160,5
1561238421.766675,58,0,0,1561238420.876563,4.602850034779505,-74.06489956781832,2643.988,3.241087,-1,83.81140899658203,200,-9999,1561238421.744925,-20.45989799499512,15.75903797149658,-4.43768310546875,346.5361328125,354.079833984375,15,60961.594345375,-0.9739837646484375,-0.2863311767578125,-0.1043853759765625,60961.584213375,0.04568732744863636,0.002967826718784303,0.02481906346288445,60961.571853375,17.09068298339844,16.18301391601562,-539.2262573242188,60961.589279375,-0.9912249976527443,-1.448750393489302,0.291602326869654,0.05265648663043976,-0.006266698706895113,0.01499850675463676,-0.019783616065979,0.003277063369750977,0.01118069887161255,1,-0.2160872519016266,-0.6284937858581543,-0.4370739459991455,0.6060265898704529,-0.9506601095199585,-0.287487268447876,-0.1166037246584892,0,0,0,-1,60960.520141,1,2,1561238420.688327,1561238131.651496,42,2.082445,0,0,35.15249,0,0,1561238417.130974,60958.48601,0,-0.486084,74.40098,2650659446,177292352,1,1,0.45,-160,-160,5
1561238421.776872,59,0,0,1561238420.876563,4.602850034779505,-74.06489956781832,2643.988,3.241087,-1,83.81140899658203,200,-9999,1561238421.769596,-20.3603401184082,15.81045436859131,-4.35443115234375,346.4571533203125,354.0008544921875,15,60961.61460937501,-0.97833251953125,-0.2892913818359375,-0.100677490234375,60961.604477375,0.05427389143526983,0.009639844197759819,-0.00118270984010419,60961.591965375,17.16641235351562,16.14476013183594,-539.06982421875,60961.609543375,-0.9900949119778089,-1.449149953699146,0.2916939782460033,0.03880139067769051,0.01025395467877388,-0.01085439417511225,-0.02421891689300537,-0.0005566179752349854,0.01325434446334839,1,-0.2157873958349228,-0.6287491321563721,-0.4367124140262604,0.6061291098594666,-0.9506803750991821,-0.2875750660896301,-0.116220660507679,0,0,0,-1,60960.520141,1,2,1561238420.688327,1561238131.651496,42,2.082445,0,0,35.15249,0,0,1561238417.130974,60958.48601,0,-0.486084,74.40098,2650659446,177292352,1,1,0.45,-160,-160,5
1561238421.794893,60,0,0,1561238420.876563,4.602850034779505,-74.06489956781832,2643.988,3.241087,-1,83.81140899658203,200,-9999,1561238421.769596,-20.3603401184082,15.81045436859131,-4.35443115234375,346.4571533203125,354.0008544921875,15,60961.63487237501,-0.978271484375,-0.286163330078125,-0.104339599609375,60961.624740375,0.002251436385552988,0.06538965950915157,-0.02703055243208625,60961.612106375,17.16839599609375,16.11077880859375,-538.985107421875,60961.62980637501,-0.9898915322548852,-1.448400647038953,0.292178395790375,-0.01464745309203863,0.06917426735162735,-0.03469021990895271,-0.0301666259765625,0.0009448528289794922,0.0144684910774231,1,-0.2153907865285873,-0.6286086440086365,-0.436858743429184,0.6063104867935181,-0.9504547119140625,-0.288038969039917,-0.1169159635901451,0,0,0,-1,60960.520141,1,2,1561238420.688327,1561238131.651496,42,2.082445,0,0,35.15249,0,0,1561238417.130974,60958.48601,0,-0.486084,74.40098,2650659446,177292352,1,1,0.45,-160,-160,5
1561238421.815122,61,0,0,1561238420.876563,4.602850034779505,-74.06489956781832,2643.988,3.241087,-1,83.81140899658203,200,-9999,1561238421.79498,-20.5234489440918,15.68542957305908,-3.97235107421875,346.4532775878906,353.9969787597656,15,60961.655136375,-0.9804840087890625,-0.2786102294921875,-0.119842529296875,60961.645004375,-0.01566977353791723,0.08862946844561903,-0.03240694204073822,60961.632248375,16.92898559570312,16.14686584472656,-539.0473022460938,60961.650040375,-0.9903666349080665,-1.4466893161565,0.2928436738459928,-0.008544020354747772,0.07689876109361649,-0.03243771567940712,-0.02797961235046387,0.004893004894256592,0.006656408309936523,1,-0.214933767914772,-0.6281275153160095,-0.4373614192008972,0.6066089272499084,-0.9500629901885986,-0.288675993680954,-0.1185185983777046,0,0,0,-1,60960.520141,1,2,1561238420.688327,1561238131.651496,42,2.082445,0,0,35.15249,0,0,1561238417.130974,60958.48601,0,-0.486084,74.40098,2650659446,177292352,1,1,0.45,-160,-160,5
1561238421.835418,62,0,0,1561238420.876563,4.602850034779505,-74.06489956781832,2643.988,3.241087,-1,83.81140899658203,200,-9999,1561238421.819252,-20.83811187744141,15.91855716705322,-4.18597412109375,346.4725646972656,354.0162658691406,15,60961.675400375,-0.9738006591796875,-0.2790679931640625,-0.1266632080078125,60961.66526837501,0.04115329569277645,0.05503582182314151,-0.02731897277814183,60961.65238937501,16.93101501464844,15.92059326171875,-539.3626708984375,60961.670303375,-0.9899646715448629,-1.445686882319956,0.2934806529231189,0.05468288436532021,0.03089611418545246,-0.03320577368140221,-0.02857166528701782,0.0126592218875885,-0.005414783954620361,1,-0.2143658697605133,-0.6279516816139221,-0.4375139474868774,0.6068816781044006,-0.9497608542442322,-0.289285808801651,-0.1194479167461395,0,0,0,-1,60960.520141,1,2,1561238420.688327,1561238131.651496,42,2.082445,0,0,35.15249,0,0,1561238417.130974,60958.48601,0,-0.486084,74.40098,2650659446,177292352,1,1,0.45,-160,-160,5
1561238421.855666,63,0,0,1561238420.876563,4.602850034779505,-74.06489956781832,2643.988,3.241087,-1,83.81140899658203,200,-9999,1561238421.845804,-20.34649276733398,15.9398775100708,-4.34033203125,346.3934936523438,353.9371948242188,15,60961.695672,-0.9728851318359375,-0.2822723388671875,-0.125396728515625,60961.68553137501,0.08580358821293595,0.02264778822614285,-0.05297240461054811,60961.672500375,17.21281433105469,16.41400146484375,-539.07666015625,60961.690567375,-0.9885280803485785,-1.44572481479053,0.2946299445072407,0.07958982884883881,0.01927035301923752,-0.064963698387146,-0.02207696437835693,0.009944498538970947,-0.005156636238098145,1,-0.2135213762521744,-0.6282702088356018,-0.4373749494552612,0.6069498658180237,-0.9494348168373108,-0.2903857529163361,-0.1193703338503838,0,0,0,-1,60960.520141,1,2,1561238420.688327,1561238131.651496,42,2.082445,0,0,35.15249,0,0,1561238417.130974,60958.48601,0,-0.486084,74.40098,2650659446,177292352,1,1,0.45,-160,-160,5
1561238421.876238,64,0,0,1561238420.876563,4.602850034779505,-74.06489956781832,2643.988,3.241087,-1,83.81140899658203,200,-9999,1561238421.869753,-20.58312797546387,15.67493724822998,-4.1507568359375,346.2886962890625,353.8323974609375,15,60961.715905,-0.9685211181640625,-0.2804718017578125,-0.12396240234375,60961.705774,0.08485656812930377,0.05240967867221437,-0.08207995637678717,60961.692651,17.17788696289062,16.18644714355469,-538.968017578125,60961.71084000001,-0.9870577610639941,-1.445489348633545,0.2964036151457266,0.08490230143070221,0.05247544497251511,-0.08771561831235886,-0.02339577674865723,0.009474486112594604,-0.008491873741149902,1,-0.2123876959085464,-0.6285911202430725,-0.4374182820320129,0.6069841980934143,-0.9488942623138428,-0.2920825481414795,-0.1195293366909027,0,0,0,-1,60960.520141,1,2,1561238420.688327,1561238131.651496,42,2.082445,0,0,35.15249,0,0,1561238417.130974,60958.48601,0,-0.486084,74.40098,2650659446,177292352,1,1,0.45,-160,-160,5
1561238421.896229,65,0,0,1561238421.876052,4.60288497542118,-74.06487768421911,2643.672,3.115964,-1,76.84079742431641,200,-9999,1561238421.869753,-20.58312797546387,15.67493724822998,-4.1507568359375,346.2886962890625,353.8323974609375,15,60961.736169,-0.9644622802734375,-0.2844085693359375,-0.1234283447265625,60961.726037,0.1208534513194688,0.04918911796598154,-0.08717271932934569,60961.71279300001,17.42427062988281,16.19206237792969,-539.18408203125,60961.73110300001,-0.9850705585645686,-1.445126395522325,0.2984660668616028,0.1300993412733078,0.03826375305652618,-0.09260278940200806,-0.01788949966430664,0.01426929235458374,-0.005812346935272217,1,-0.2109618633985519,-0.6289643049240112,-0.437393456697464,0.6071128249168396,-0.9482512474060059,-0.2940544486045837,-0.1197979897260666,0,0,0,-1,60960.520141,1,2,1561238420.688327,1561238131.651496,42,2.082445,0,0,35.15249,0,0,1561238417.130974,60958.48601,0,-0.486084,74.40098,2650659446,177292352,1,1,0.45,-160,-160,5
1561238421.916519,66,0,0,1561238421.876052,4.60288497542118,-74.06487768421911,2643.672,3.115964,-1,76.84079742431641,200,-9999,1561238421.896313,-20.530517578125,15.77667140960693,-4.21588134765625,346.1387634277344,353.6824645996094,15,60961.756433,-0.96636962890625,-0.2718505859375,-0.109039306640625,60961.74630100001,0.1600914015562603,0.03365196985035026,-0.1062968791172047,60961.732904,17.15559387207031,16.16773986816406,-539.3077392578125,60961.751367,-0.9822357294850643,-1.445330198981514,0.3008701191751715,0.163273811340332,0.01960165053606033,-0.1174817681312561,-0.0191490650177002,0.01562014222145081,0.004922389984130859,1,-0.209272563457489,-0.6296404004096985,-0.4371407926082611,0.6071786284446716,-0.9475715160369873,-0.2963513433933258,-0.1195159181952477,0,0,0,-1,60960.520141,1,2,1561238420.688327,1561238131.651496,42,2.082445,0,0,35.15249,0,0,1561238417.130974,60958.48601,0,-0.486084,74.40098,2650659446,177292352,1,1,0.45,-160,-160,5
1561238421.936618,67,0,0,1561238421.876052,4.60288497542118,-74.06487768421911,2643.672,3.115964,-1,76.84079742431641,200,-9999,1561238421.920565,-20.62677574157715,15.93756580352783,-4.47052001953125,345.9227600097656,353.4664611816406,15,60961.776696,-0.9622039794921875,-0.277130126953125,-0.092010498046875,60961.76656500001,0.1780765273458924,-0.008363124771175831,-0.1313625512970305,60961.753045,17.04029846191406,15.982421875,-539.279541015625,60961.771631,-0.9789832219715866,-1.446303031069358,0.3038469329484503,0.1720654368400574,-0.02001180499792099,-0.1393218189477921,-0.0167694091796875,0.0261828601360321,0.01542609930038452,1,-0.2074170857667923,-0.630663275718689,-0.4368318021297455,0.6069760918617249,-0.9468078017234802,-0.2991931140422821,-0.1184839680790901,0,0,0,-1,60960.520141,1,2,1561238420.688327,1561238131.651496,42,2.082445,0,0,35.15249,0,0,1561238417.130974,60958.48601,0,-0.486084,74.40098,2650659446,177292352,1,1,0.45,-160,-160,5
1561238421.956913,68,0,0,1561238421.876052,4.60288497542118,-74.06487768421911,2643.672,3.115964,-1,76.84079742431641,200,-9999,1561238421.947115,-20.68805313110352,15.54485130310059,-4.4351806640625,345.697265625,353.240966796875,15,60961.79696000001,-0.971649169921875,-0.2794189453125,-0.066131591796875,60961.786828,0.1648667157068814,-0.02259079657881516,-0.1384657345564898,60961.77318700001,16.94190979003906,15.96757507324219,-539.528564453125,60961.791894,-0.9758934526809397,-1.447748132968552,0.307051598147065,0.1646586507558823,-0.04081269353628159,-0.1438116431236267,-0.01921898126602173,0.02690461277961731,0.040444016456604,1,-0.2056336998939514,-0.6318355202674866,-0.4365851283073425,0.6065409779548645,-0.9460214972496033,-0.3022494614124298,-0.1169973164796829,0,0,0,-1,60960.520141,1,2,1561238420.688327,1561238131.651496,42,2.082445,0,0,35.15249,0,0,1561238417.130974,60958.48601,0,-0.486084,74.40098,2650659446,177292352,1,1,0.45,-160,-160,5
1561238421.977329,69,0,0,1561238421.876052,4.60288497542118,-74.06487768421911,2643.672,3.115964,-1,76.84079742431641,200,-9999,1561238421.971346,-20.77246284484863,15.50021457672119,-4.5245361328125,345.4527587890625,352.9964599609375,15,60961.81722400001,-0.978424072265625,-0.2872772216796875,-0.037933349609375,60961.807092,0.20374034550655,-0.05533888955519252,-0.1728423505394507,60961.793298,17.02781677246094,15.75599670410156,-539.4207153320312,60961.812158,-0.9723731924853608,-1.449930226878382,0.3107715153992547,0.2095534205436707,-0.07994198054075241,-0.1897506415843964,-0.02872490882873535,0.01808881759643555,0.06253504753112793,1,-0.203691378235817,-0.6333337426185608,-0.4362708330154419,0.6058596968650818,-0.9451519846916199,-0.305793285369873,-0.1147963851690292,0,0,0,-1,60960.520141,1,2,1561238420.688327,1561238131.651496,42,2.082445,0,0,35.15249,0,0,1561238417.130974,60958.48601,0,-0.486084,74.40098,2650659446,177292352,1,1,0.45,-160,-160,5
1561238421.997616,70,0,0,1561238421.876052,4.60288497542118,-74.06487768421911,2643.672,3.115964,-1,76.84079742431641,200,-9999,1561238421.971346,-20.77246284484863,15.50021457672119,-4.5245361328125,345.4527587890625,352.9964599609375,15,60961.837487,-0.9925689697265625,-0.2744903564453125,0.0035858154296875,60961.827356,0.244510678634573,-0.1441358708333775,-0.2151647739507719,60961.81344000001,16.90652465820312,15.82099914550781,-539.31591796875,60961.83242200001,-0.9680286276732719,-1.45381793107538,0.3154843035763751,0.2439066022634506,-0.1670819371938705,-0.2249816060066223,-0.04021042585372925,0.02771466970443726,0.08676642179489136,1,-0.2015071511268616,-0.6355462670326233,-0.4358009994029999,0.6046100258827209,-0.9441493153572083,-0.3102768957614899,-0.1109516173601151,0,0,0,-1,60960.520141,1,2,1561238420.688327,1561238131.651496,42,2.082445,0,0,35.15249,0,0,1561238417.130974,60958.48601,0,-0.486084,74.40098,2650659446,177292352,1,1,0.45,-160,-160,5
1561238422.017709,71,0,0,1561238421.876052,4.60288497542118,-74.06487768421911,2643.672,3.115964,-1,76.84079742431641,200,-9999,1561238421.997624,-20.91964149475098,15.30308532714844,-4.54437255859375,345.1392822265625,352.6829833984375,15,60961.857751,-1.00433349609375,-0.252716064453125,0.046356201171875,60961.847619,0.2342742863526355,-0.1989232197268146,-0.2615850033313981,60961.83358100001,16.5889892578125,15.630859375,-539.243896484375,60961.85268500001,-0.9636267240925217,-1.45911863069425,0.3209747073601543,0.2275092452764511,-0.2285141497850418,-0.2874063551425934,-0.05614370107650757,0.05580234527587891,0.1350356340408325,1,-0.1993337124586105,-0.638270378112793,-0.4353880882263184,0.6027555465698242,-0.9430170655250549,-0.315491646528244,-0.1057539880275726,0,0,0,-1,60960.520141,1,2,1561238420.688327,1561238131.651496,42,2.082445,0,0,35.15249,0,0,1561238417.130974,60959.434383,0,-0.5390625,74.40148,2650659446,177292352,1,1,0.45,-160,-160,5
1561238422.038031,72,0,0,1561238421.876052,4.60288497542118,-74.06487768421911,2643.672,3.115964,-1,76.84079742431641,200,-9999,1561238422.021944,-20.75956726074219,15.42350673675537,-4.5584716796875,344.8330688476562,352.3767700195312,15,60961.878015,-1.007080078125,-0.2376556396484375,0.0882720947265625,60961.86788300001,0.2697422657503107,-0.2984450170308577,-0.378107355770071,60961.853723,16.62667846679688,15.26734924316406,-539.2628173828125,60961.872949,-0.9591007007120089,-1.466277457472369,0.3284545069185292,0.2924259305000305,-0.3611622154712677,-0.429063081741333,-0.06825166940689087,0.07117673754692078,0.1630825400352478,1,-0.1968212723731995,-0.6417831778526306,-0.4352958202362061,0.599911093711853,-0.9413766264915466,-0.3225805461406708,-0.09875147789716721,0,0,0,-1,60960.520141,1,2,1561238420.688327,1561238131.651496,42,2.082445,0,0,35.15249,0,0,1561238417.130974,60959.434383,0,-0.5390625,74.40148,2650659446,177292352,1,1,0.45,-160,-160,5
1561238422.060634,73,0,0,1561238421.876052,4.60288497542118,-74.06487768421911,2643.672,3.115964,-1,76.84079742431641,200,-9999,1561238422.049045,-21.12768173217773,14.99554920196533,-4.434814453125,344.4437866210938,351.9874877929688,15,60961.898278,-0.9850006103515625,-0.234527587890625,0.1485748291015625,60961.88814700001,0.3579477589503892,-0.5631898609956348,-0.5615253853143353,60961.87383400001,16.41217041015625,15.54913330078125,-539.4196166992188,60961.893213,-0.9530475850946947,-1.47842104152984,0.3395707676263112,0.3665635585784912,-0.6401607990264893,-0.6076679825782776,-0.06023740768432617,0.1033003330230713,0.1992813348770142,1,-0.1936217695474625,-0.6473193168640137,-0.4352548122406006,0.5950139164924622,-0.9388776421546936,-0.3330824077129364,-0.08697662502527237,0,0,0,-1,60960.520141,1,2,1561238420.688327,1561238131.651496,42,2.082445,0,0,35.15249,0,0,1561238417.130974,60959.434383,0,-0.5390625,74.40148,2650659446,177292352,1,1,0.45,-160,-160,5
1561238422.082084,74,0,0,1561238421.876052,4.60288497542118,-74.06487768421911,2643.672,3.115964,-1,76.84079742431641,200,-9999,1561238422.072747,-21.36202812194824,14.68508338928223,-4.14849853515625,343.92333984375,351.467041015625,15,60961.91854200001,-0.96923828125,-0.20501708984375,0.2102508544921875,60961.90841,0.4291889160066629,-0.8129323195916686,-0.7130475334310477,60961.89397600001,16.18234252929688,15.01431274414062,-539.3096313476562,60961.913476,-0.9455744899989547,-1.496421599309508,0.3539261005391034,0.4536379873752594,-0.8877264261245728,-0.7538313269615173,-0.04431045055389404,0.1365154683589935,0.2529281377792358,1,-0.1900944411754608,-0.6549914479255676,-0.4351591765880585,0.5877811312675476,-0.9354259371757507,-0.346583217382431,-0.06970061361789703,0,0,0,-1,60960.520141,1,2,1561238420.688327,1561238131.651496,42,2.082445,0,0,35.15249,0,0,1561238417.130974,60959.434383,0,-0.5390625,74.40148,2650659446,177292352,1,1,0.45,-160,-160,5
1561238422.098813,75,0,0,1561238421.876052,4.60288497542118,-74.06487768421911,2643.672,3.115964,-1,76.84079742431641,200,-9999,1561238422.072747,-21.36202812194824,14.68508338928223,-4.14849853515625,343.92333984375,351.467041015625,15,60961.93880600001,-0.927490234375,-0.1675262451171875,0.2783660888671875,60961.928674,0.5340138659893807,-1.00013336946439,-0.8587994104138852,60961.914117,15.90145874023438,14.78895568847656,-539.0986328125,60961.933709,-0.9357804788106212,-1.519564146786713,0.3712742056613061,0.5388240218162537,-1.028596758842468,-0.8881931304931641,-0.01949107646942139,0.1763406991958618,0.2890841960906982,1,-0.1858674734830856,-0.6645246148109436,-0.4348176717758179,0.578613817691803,-0.9306432008743286,-0.3628031015396118,-0.04772063717246056,0,0,0,-1,60960.520141,1,2,1561238420.688327,1561238131.651496,42,2.082445,0,0,35.15249,0,0,1561238417.130974,60959.434383,0,-0.5390625,74.40148,2650659446,177292352,1,1,0.45,-160,-160,5
1561238422.119028,76,0,0,1561238421.876052,4.60288497542118,-74.06487768421911,2643.672,3.115964,-1,76.84079742431641,200,-9999,1561238422.098981,-21.66616821289062,14.19984340667725,-3.95806884765625,343.2073364257812,350.7510375976562,15,60961.95907,-0.863983154296875,-0.1200103759765625,0.33203125,60961.948938,0.5431415843095183,-1.049378680129373,-0.9760349573924814,60961.934259,15.52561950683594,14.41427612304688,-538.518798828125,60961.953973,-0.924778140656647,-1.544945193109959,0.3909039327921514,0.5279026627540588,-1.061977028846741,-0.9996535778045654,0.0235908031463623,0.2400636076927185,0.3273804187774658,1,-0.1809158474206924,-0.6747742295265198,-0.4347067475318909,0.5683125853538513,-0.9242560267448425,-0.3810243010520935,-0.02389839105308056,0,0,0,-1,60960.520141,1,2,1561238420.688327,1561238131.651496,42,2.082445,0,0,35.15249,0,0,1561238417.130974,60959.434383,0,-0.5390625,74.40148,2650659446,177292352,1,1,0.45,-160,-160,5
1561238422.139258,77,0,0,1561238421.876052,4.60288497542118,-74.06487768421911,2643.672,3.115964,-1,76.84079742431641,200,-9999,1561238422.123262,-22.24975204467773,13.88832950592041,-3.8438720703125,342.4339294433594,349.9776306152344,15,60961.979303,-0.7863922119140625,-0.0966796875,0.358123779296875,60961.96920100001,0.4143860014035664,-1.054214714352848,-1.022318832925295,60961.95437000001,15.32844543457031,13.75155639648438,-538.5167846679688,60961.974237,-0.9150692742271831,-1.570260556697466,0.4116759917107276,0.3648615181446075,-1.047707796096802,-1.026265859603882,0.09499460458755493,0.2909844517707825,0.3499935865402222,1,-0.1759864836931229,-0.6846774816513062,-0.4354677498340607,0.5573270916938782,-0.9164515137672424,-0.4001458585262299,-0.0004910073475912213,0,0,0,-1,60960.520141,1,2,1561238420.688327,1561238131.651496,42,2.082445,0,0,35.15249,0,0,1561238417.130974,60959.434383,0,-0.5390625,74.40148,2650659446,177292352,1,1,0.45,-160,-160,5
1561238422.162262,78,0,0,1561238421.876052,4.60288497542118,-74.06487768421911,2643.672,3.115964,-1,76.84079742431641,200,-9999,1561238422.150128,-22.81289100646973,12.75096321105957,-3.13134765625,341.8723449707031,349.4160461425781,15,60961.99956600001,-0.730316162109375,-0.06689453125,0.387908935546875,60961.989434,0.2770590345291944,-0.9359069787193854,-1.000515799396926,60961.974511,15.06585693359375,13.43586730957031,-538.212646484375,60961.9945,-0.9081490186468232,-1.59294586597297,0.43213869373493,0.2468619048595428,-0.9146783947944641,-0.9804245233535767,0.1505709290504456,0.3359891176223755,0.3520958423614502,1,-0.1715641915798187,-0.6932687759399414,-0.4373099505901337,0.5465383529663086,-0.9078494310379028,-0.4188138544559479,0.02011173591017723,0,0,0,-1,60960.520141,1,2,1561238420.688327,1561238131.651496,42,2.082445,0,0,35.15249,0,0,1561238417.130974,60959.434383,0,-0.5390625,74.40148,2650659446,177292352,1,1,0.45,-160,-160,5
1561238422.179879,79,0,0,1561238421.876052,4.60288497542118,-74.06487768421911,2643.672,3.115964,-1,76.84079742431641,200,-9999,1561238422.173964,-22.91628265380859,12.34541702270508,-2.67779541015625,341.4924926757812,349.0361938476562,15,60962.01983,-0.6871185302734375,-0.0244293212890625,0.386016845703125,60962.009698,0.177323651705727,-0.8421312177832972,-0.9023708563764536,60961.994653,14.75944519042969,12.97509765625,-537.8328857421875,60962.01476400001,-0.9030593763108818,-1.61278878441341,0.4508180023180374,0.1644243001937866,-0.8362453579902649,-0.8796166777610779,0.1888939142227173,0.3948389291763306,0.3447824716567993,1,-0.1677968502044678,-0.7005263566970825,-0.4395125806331635,0.5365962982177734,-0.8992973566055298,-0.4357019662857056,0.03778591752052307,0,0,0,-1,60960.520141,1,2,1561238420.688327,1561238131.651496,42,2.082445,0,0,35.15249,0,0,1561238417.130974,60959.434383,0,-0.5390625,74.40148,2650659446,177292352,1,1,0.45,-160,-160,5
1561238422.200668,80,0,0,1561238421.876052,4.60288497542118,-74.06487768421911,2643.672,3.115964,-1,76.84079742431641,200,-9999,1561238422.173964,-22.91628265380859,12.34541702270508,-2.67779541015625,341.4924926757812,349.0361938476562,15,60962.040094,-0.608673095703125,-0.03662109375,0.408966064453125,60962.029962,0.1476914572047423,-0.8561943062355697,-0.7815123450509137,60962.014795,14.54623413085938,12.37969970703125,-537.6047973632812,60962.03502800001,-0.8986895799467244,-1.631996055583063,0.4672047749695361,0.129790410399437,-0.8800559639930725,-0.733755350112915,0.2434694170951843,0.4264666438102722,0.3471112251281738,1,-0.1649542152881622,-0.7071729302406311,-0.4414021670818329,0.5271248817443848,-0.8911591768264771,-0.4503923952579498,0.05460689216852188,0,0,0,-1,60960.520141,1,2,1561238420.688327,1561238131.651496,42,2.082445,0,0,35.15249,0,0,1561238417.130974,60959.434383,0,-0.5390625,74.40148,2650659446,177292352,1,1,0.45,-160,-160,5
1561238422.220301,81,0,0,1561238421.876052,4.60288497542118,-74.06487768421911,2643.672,3.115964,-1,76.84079742431641,200,-9999,1561238422.201378,-23.20101547241211,11.78066921234131,-2.28814697265625,341.1889038085938,348.7326049804688,15,60962.060357,-0.55364990234375,-0.037353515625,0.452117919921875,60962.05022600001,0.08286452363392451,-0.9263691335913756,-0.556878435528256,60962.034936,14.20590209960938,12.1295166015625,-536.9872436523438,60962.055291,-0.895537810863655,-1.651992895808365,0.4796022642132584,0.05509514361619949,-0.9775340557098389,-0.4981268346309662,0.3078091144561768,0.4218908250331879,0.3533819913864136,1,-0.1640917658805847,-0.7134789824485779,-0.442477822303772,0.5179141759872437,-0.8842557072639465,-0.4614263474941254,0.07195673137903214,0,0,0,-1,60960.520141,1,2,1561238420.688327,1561238131.651496,42,2.082445,0,0,35.15249,0,0,1561238417.130974,60959.434383,0,-0.5390625,74.40148,2650659446,177292352,1,1,0.45,-160,-160,5
1561238422.24066,82,0,0,1561238421.876052,4.60288497542118,-74.06487768421911,2643.672,3.115964,-1,76.84079742431641,200,-9999,1561238422.233134,-23.44977951049805,11.21049404144287,-1.671875,341.0237426757812,348.5674438476562,15,60962.080621,-0.5295867919921875,-0.0471343994140625,0.4710235595703125,60962.07048900001,-0.05414526075461901,-1.199092009233703,-0.3333481399613272,60962.055047,14.03143310546875,11.74772644042969,-536.6619262695312,60962.075555,-0.895124939743426,-1.674966912941727,0.4874717143298796,-0.1065978854894638,-1.299072980880737,-0.3047488629817963,0.3425214290618896,0.4138739109039307,0.3724392652511597,1,-0.1664069890975952,-0.7198916077613831,-0.4427444040775299,0.5079785585403442,-0.8787305355072021,-0.4683935940265656,0.09187042713165283,0,0,0,-1,60960.520141,1,2,1561238420.688327,1561238131.651496,42,2.082445,0,0,35.15249,0,0,1561238417.130974,60959.434383,0,-0.5390625,74.40148,2650659446,177292352,1,1,0.45,-160,-160,5
1561238422.261106,83,0,0,1561238421.876052,4.60288497542118,-74.06487768421911,2643.672,3.115964,-1,76.84079742431641,200,-9999,1561238422.233134,-23.44977951049805,11.21049404144287,-1.671875,341.0237426757812,348.5674438476562,15,60962.10088500001,-0.5298004150390625,-0.0112152099609375,0.478851318359375,60962.090753,-0.2168944970787784,-1.525811008609605,-0.196312256594101,60962.075189,13.85337829589844,11.52188110351562,-535.94140625,60962.095819,-0.8987290656314799,-1.702716430718644,0.4926855463251225,-0.2537311315536499,-1.578067064285278,-0.1297328472137451,0.3478062748908997,0.4496935606002808,0.3530548810958862,1,-0.1721355766057968,-0.7268535494804382,-0.4428220093250275,0.4959456026554108,-0.8734104633331299,-0.4729937314987183,0.1158934757113457,0,0,0,-1,60960.520141,1,2,1561238420.688327,1561238131.651496,42,2.082445,0,0,35.15249,0,0,1561238417.130974,60959.434383,0,-0.5390625,74.40148,2650659446,177292352,1,1,0.45,-160,-160,5
1561238422.281134,84,0,0,1561238421.876052,4.60288497542118,-74.06487768421911,2643.672,3.115964,-1,76.84079742431641,200,-9999,1561238422.276485,-23.71133422851562,10.85940170288086,-0.16143798828125,341.7818603515625,349.3255615234375,15,60962.12114800001,-0.5800018310546875,-0.002227783203125,0.4445037841796875,60962.111017,-0.4845288708262914,-1.564541360342627,0.1203690223171834,60962.09533,14.07012939453125,11.13963317871094,-535.38134765625,60962.116082,-0.9080348237594552,-1.730327757168675,0.4931938038849982,-0.5964357852935791,-1.507071137428284,0.2007321566343307,0.3210868835449219,0.466208815574646,0.3375844955444336,1,-0.1814797073602676,-0.7328213453292847,-0.4428102970123291,0.4836909770965576,-0.8696402907371521,-0.473441481590271,0.139924019575119,0,0,0,-1,60960.520141,1,2,1561238420.688327,1561238131.651496,42,2.082445,0,0,35.15249,0,0,1561238417.130974,60959.434383,0,-0.5390625,74.40148,2650659446,177292352,1,1,0.45,-160,-160,5
1561238422.301941,85,0,0,1561238421.876052,4.60288497542118,-74.06487768421911,2643.672,3.115964,-1,76.84079742431641,200,-9999,1561238422.276485,-23.71133422851562,10.85940170288086,-0.16143798828125,341.7818603515625,349.3255615234375,15,60962.141412,-0.617828369140625,0.0290069580078125,0.4439239501953125,60962.13128,-0.8442337834639149,-1.240166209042104,0.4261885987225796,60962.115472,14.04537963867188,11.21391296386719,-534.3287353515625,60962.13634600001,-0.9268611991472642,-1.748548289970602,0.4888957000380277,-0.9188470840454102,-1.206769347190857,0.474790632724762,0.2584983706474304,0.4740915298461914,0.2746825218200684,1,-0.1938127130270004,-0.7351791858673096,-0.4443284571170807,0.4738358557224274,-0.8689415454864502,-0.4696512520313263,0.1561036109924316,0,0,0,-1,60960.520141,1,2,1561238420.688327,1561238131.651496,42,2.082445,0,0,35.15249,0,0,1561238417.130974,60959.434383,0,-0.5390625,74.40148,2650659446,177292352,1,1,0.45,-160,-160,5
1561238422.322207,86,0,0,1561238421.876052,4.60288497542118,-74.06487768421911,2643.672,3.115964,-1,76.84079742431641,200,-9999,1561238422.301735,-23.51053619384766,10.94855880737305,0.5660400390625,343.2002563476562,350.7439575195312,15,60962.161676,-0.5901947021484375,0.0825653076171875,0.4247894287109375,60962.151544,-1.133306603986566,-1.630672177583148,0.6070936694622451,60962.135583,14.10256958007812,11.35028076171875,-533.7941284179688,60962.15661000001,-0.9531623852481692,-1.765972559604441,0.4817130663686742,-1.158045887947083,-1.938459038734436,0.6538647413253784,0.2755963206291199,0.5219680070877075,0.2719932794570923,1,-0.209653303027153,-0.7361931204795837,-0.4465893507003784,0.4632744491100311,-0.8693767786026001,-0.4632979929447174,0.1718696355819702,0,0,0,-1,60962.14492200001,1,2,1561238422.313108,1561238131.651496,42,2.082445,0,0,35.15249,0,0,1561238417.130974,60959.434383,0,-0.5390625,74.40148,2650659446,177292352,1,1,0.45,-160,-160,5
1561238422.344251,87,0,0,1561238421.876052,4.60288497542118,-74.06487768421911,2643.672,3.115964,-1,76.84079742431641,200,-9999,1561238422.3269,-23.23710060119629,11.35385799407959,2.23876953125,345.1864318847656,352.7301330566406,15,60962.181939,-0.6527099609375,0.1107940673828125,0.4132537841796875,60962.17180800001,-1.000203943233277,-2.860789480884056,0.8935283626090635,60962.155725,14.232666015625,11.60957336425781,-532.7294311523438,60962.176873,-0.9808201749327919,-1.805078338219688,0.4702906172917605,-0.9272661209106445,-3.098852872848511,0.9900102615356445,0.2487515211105347,0.5736898183822632,0.2116367816925049,1,-0.2321591824293137,-0.7413320541381836,-0.4451187252998352,0.4454189240932465,-0.8670834302902222,-0.4531453847885132,0.2069422006607056,0,0,0,-1,60962.14492200001,1,2,1561238422.313108,1561238131.651496,42,2.082445,0,0,35.15249,0,0,1561238417.130974,60959.434383,0,-0.5390625,74.40148,2650659446,177292352,1,1,0.45,-160,-160,5
1561238422.36227,88,0,0,1561238421.876052,4.60288497542118,-74.06487768421911,2643.672,3.115964,-1,76.84079742431641,200,-9999,1561238422.352388,-22.99701690673828,11.50874900817871,3.8148193359375,347.0431213378906,354.5868225097656,15,60962.202203,-0.771331787109375,0.0568695068359375,0.5035247802734375,60962.192071,-0.8656562512725122,-3.099010039339971,1.220877465898878,60962.17586600001,14.49899291992188,11.58277893066406,-531.6005249023438,60962.19710700001,-1.0067811231098,-1.857006577273169,0.4524458925688823,-0.9879207015037537,-2.88120698928833,1.273780941963196,0.1431439518928528,0.5016350746154785,0.1779423952102661,1,-0.2587313652038574,-0.7483408451080322,-0.4389316141605377,0.4247151911258698,-0.8627942204475403,-0.4371666312217712,0.2539118826389313,0,0,0,-1,60962.14492200001,1,2,1561238422.313108,1561238131.651496,42,2.082445,0,0,35.15249,0,0,1561238417.130974,60959.434383,0,-0.5390625,74.40148,2650659446,177292352,1,1,0.45,-160,-160,5
1561238422.398059,89,0,0,1561238421.876052,4.60288497542118,-74.06487768421911,2643.672,3.115964,-1,76.84079742431641,200,-9999,1561238422.376736,-22.22583770751953,11.95871639251709,5.45794677734375,349.8270263671875,357.3707275390625,15,60962.22246700001,-0.8167724609375,0.0660858154296875,0.4886627197265625,60962.212335,-1.806623768695266,-2.013505845339783,1.441123284893412,60962.19600800001,15.14578247070312,12.0032958984375,-529.862548828125,60962.21737000001,-1.048440491823312,-1.886064202562714,0.4349604350214183,-2.13284707069397,-1.713104724884033,1.458696246147156,0.06719106435775757,0.485308825969696,0.2358142137527466,1,-0.2858526408672333,-0.7475880980491638,-0.438240647315979,0.4090787172317505,-0.8621892333030701,-0.4213745296001434,0.2811993956565857,0,0,0,-1,60962.14492200001,1,2,1561238422.313108,1561238131.651496,42,2.082445,0,0,35.15249,0,0,1561238417.130974,60959.434383,0,-0.5390625,74.40148,2650659446,177292352,1,1,0.45,-160,-160,5
1561238422.402905,90,0,0,1561238421.876052,4.60288497542118,-74.06487768421911,2643.672,3.115964,-1,76.84079742431641,200,-9999,1561238422.376736,-22.22583770751953,11.95871639251709,5.45794677734375,349.8270263671875,357.3707275390625,15,60962.24273000001,-0.785675048828125,0.012176513671875,0.40496826171875,60962.232599,-2.846444896304563,-0.9919438827962878,1.428523869776247,60962.216119,15.58099365234375,12.60627746582031,-528.6719360351562,60962.237634,-1.113928202206846,-1.883691802218484,0.4237246217603934,-2.987797975540161,-0.8723911046981812,1.429910659790039,0.07366383075714111,0.4555158317089081,0.1867228746414185,1,-0.3128909468650818,-0.7364751696586609,-0.4483701586723328,0.3983311951160431,-0.8673039674758911,-0.4111585319042206,0.2805928289890289,0,0,0,-1,60962.14492200001,1,2,1561238422.313108,1561238131.651496,42,2.082445,0,0,35.15249,0,0,1561238417.130974,60959.434383,0,-0.5390625,74.40148,2650659446,177292352,1,1,0.45,-160,-160,5
1561238422.423027,91,0,0,1561238421.876052,4.60288497542118,-74.06487768421911,2643.672,3.115964,-1,76.84079742431641,200,-9999,1561238422.403081,-21.97810745239258,12.17035484313965,6.52001953125,354.6434020996094,2.187103033065796,15,60962.262964,-0.7140045166015625,-0.0484161376953125,0.2921905517578125,60962.25283200001,-3.120737705409492,-0.9554141010719979,1.555357449323489,60962.23626100001,15.87954711914062,12.64030456542969,-527.7598876953125,60962.257898,-1.189389694146928,-1.87138323118621,0.413555328175288,-3.136755466461182,-1.158227443695068,1.608458518981934,0.102134108543396,0.3675962090492249,0.05784368515014648,1,-0.3405136466026306,-0.7208403348922729,-0.4621979892253876,0.3883463144302368,-0.8746408224105835,-0.4018674790859222,0.2711206674575806,0,0,0,-1,60962.14492200001,1,2,1561238422.313108,1561238131.651496,42,2.082445,0,0,35.15249,0,0,1561238417.130974,60959.434383,0,-0.5390625,74.40148,2650659446,177292352,1,1,0.45,-160,-160,5
1561238422.44415,92,0,0,1561238421.876052,4.60288497542118,-74.06487768421911,2643.672,3.115964,-1,76.84079742431641,200,-9999,1561238422.427708,-20.89128494262695,12.3492956161499,8.4892578125,0.1080193519592285,7.651707172393799,15,60962.28322700001,-0.764801025390625,0.05035400390625,0.15618896484375,60962.273095,-3.094933006027169,-1.793214219974499,1.779084286178866,60962.25640200001,16.5736083984375,12.66122436523438,-526.7470092773438,60962.278161,-1.266263426233459,-1.873068529355872,0.3989343873197282,-3.039546728134155,-1.901405453681946,1.85685396194458,0.1848127841949463,0.3882382810115814,-0.05322957038879395,1,-0.3724873065948486,-0.7059817910194397,-0.4723368585109711,0.3738192021846771,-0.8796980977058411,-0.3884366154670715,0.2743141651153564,0,0,0,-1,60962.14492200001,1,2,1561238422.313108,1561238131.651496,42,2.082445,0,0,35.15249,0,0,1561238417.130974,60959.434383,0,-0.5390625,74.40148,2650659446,177292352,1,1,0.45,-160,-160,5
1561238422.478617,93,0,0,1561238421.876052,4.60288497542118,-74.06487768421911,2643.672,3.115964,-1,76.84079742431641,200,-9999,1561238422.453759,-20.22627258300781,12.38875484466553,9.68658447265625,5.515800476074219,13.05948829650879,15,60962.30349100001,-0.9500732421875,0.1311187744140625,0.09429931640625,60962.293359,-2.884465781923188,-1.822868252396423,2.05904243787072,60962.276544,17.13766479492188,12.57453918457031,-525.724853515625,60962.298425,-1.340778653201024,-1.882645258550937,0.3784248376583892,-2.870516061782837,-1.651215791702271,2.099432468414307,0.02842521667480469,0.4660758674144745,-0.1670076847076416,1,-0.4064843058586121,-0.6908877491950989,-0.4783709049224854,0.3586165308952332,-0.884428083896637,-0.3694572150707245,0.285110741853714,0,0,0,-1,60962.14492200001,1,2,1561238422.313108,1561238131.651496,42,2.082445,0,0,35.15249,0,0,1561238417.130974,60959.434383,0,-0.5390625,74.40148,2650659446,177292352,1,1,0.45,-160,-160,5
1561238422.483777,94,0,0,1561238421.876052,4.60288497542118,-74.06487768421911,2643.672,3.115964,-1,76.84079742431641,200,-9999,1561238422.478277,-19.64033317565918,12.54998016357422,10.87139892578125,10.92129707336426,18.46498489379883,15,60962.323755,-1.150497436523438,0.0883026123046875,0.023712158203125,60962.313623,-3.073149946206975,-0.8181270816139771,2.129236972618593,60962.296685,17.85545349121094,12.82855224609375,-524.0611572265625,60962.31868900001,-1.416732186197662,-1.878043150273655,0.3561012612617311,-3.223581552505493,-0.5902507901191711,2.090291738510132,-0.1793829202651978,0.4783987402915955,-0.1983481645584106,1,-0.4372820556163788,-0.6712043285369873,-0.4866932928562164,0.3484233319759369,-0.8933709859848022,-0.348622739315033,0.2834616899490356,0,0,0,-1,60962.14492200001,1,2,1561238422.313108,1561238131.651496,42,2.082445,0,0,35.15249,0,0,1561238417.130974,60959.434383,0,-0.5390625,74.40148,2650659446,177292352,1,1,0.45,-160,-160,5
1561238422.504775,95,0,0,1561238421.876052,4.60288497542118,-74.06487768421911,2643.672,3.115964,-1,76.84079742431641,200,-9999,1561238422.478277,-19.64033317565918,12.54998016357422,10.87139892578125,10.92129707336426,18.46498489379883,15,60962.344018,-1.18133544921875,0.0314483642578125,-0.1781463623046875,60962.333886,-3.494662034055375,-0.3510224748517471,1.764234766256693,60962.316827,18.33744812011719,12.82516479492188,-523.263671875,60962.33895200001,-1.499057566227869,-1.858476692221926,0.3399232156592012,-3.441821098327637,-0.3625278770923615,1.62029230594635,-0.2680522203445435,0.3732706606388092,-0.3576122522354126,1,-0.4638670086860657,-0.646973192691803,-0.5010383725166321,0.3394314348697662,-0.9040364027023315,-0.3334147036075592,0.2674938142299652,0,0,0,-1,60962.14492200001,1,2,1561238422.313108,1561238131.651496,42,2.082445,0,0,35.15249,0,0,1561238417.130974,60959.434383,0,-0.5390625,74.40148,2650659446,177292352,1,1,0.45,-160,-160,5
1561238422.524248,96,0,0,1561238421.876052,4.60288497542118,-74.06487768421911,2643.672,3.115964,-1,76.84079742431641,200,-9999,1561238422.504783,-19.22591781616211,12.32240581512451,11.8729248046875,16.76799583435059,24.31168365478516,15,60962.364282,-1.196060180664062,0.14874267578125,-0.29229736328125,60962.35415000001,-2.864810587813967,-0.5916204372127758,1.508556387906982,60962.336969,18.83610534667969,12.62409973144531,-522.3394775390625,60962.359216,-1.571553832730218,-1.844976078974794,0.3274482396611076,-2.609220027923584,-0.7245721220970154,1.599089026451111,-0.28355473279953,0.4011719822883606,-0.4965901374816895,1,-0.4867440760135651,-0.6255123615264893,-0.513262927532196,0.3292045295238495,-0.9114983677864075,-0.3216279149055481,0.256371021270752,0,0,0,-1,60962.14492200001,1,2,1561238422.313108,1561238131.651496,42,2.082445,0,0,35.15249,0,0,1561238417.130974,60959.434383,0,-0.5390625,74.40148,2650659446,177292352,1,1,0.45,-160,-160,5
1561238422.560063,97,0,0,1561238421.876052,4.60288497542118,-74.06487768421911,2643.672,3.115964,-1,76.84079742431641,200,-9999,1561238422.55496,-17.57768440246582,11.9809684753418,14.1962890625,24.95966911315918,32.50335693359375,15,60962.384546,-1.310287475585938,0.11114501953125,-0.389129638671875,60962.37441400001,-1.896055381261217,-0.9215362951612088,2.152844031469383,60962.35711,19.35832214355469,12.3641357421875,-521.717041015625,60962.37948,-1.626575622718729,-1.845466872098231,0.3010518452814095,-1.732928514480591,-0.8947153687477112,2.349268198013306,-0.3011876344680786,0.4791725873947144,-0.5959606170654297,1,-0.5104972720146179,-0.6073781251907349,-0.5157654881477356,0.3232186138629913,-0.9192255735397339,-0.2965249121189117,0.2590312957763672,0,0,0,-1,60962.14492200001,1,2,1561238422.313108,1561238131.651496,42,2.082445,0,0,35.15249,0,0,1561238417.130974,60959.434383,0,-0.5390625,74.40148,2650659446,177292352,1,1,0.45,-160,-160,5
1561238422.564958,98,0,0,1561238421.876052,4.60288497542118,-74.06487768421911,2643.672,3.115964,-1,76.84079742431641,200,-9999,1561238422.55496,-17.57768440246582,11.9809684753418,14.1962890625,24.95966911315918,32.50335693359375,15,60962.40480900001,-1.5704345703125,-0.13519287109375,-0.4466094970703125,60962.394677,-1.55635054209398,-0.4747396232913781,2.588159283247664,60962.377221,19.81489562988281,12.35121154785156,-521.016845703125,60962.399743,-1.673542360964812,-1.845237046582336,0.2606688446567923,-1.585727453231812,-0.2992194890975952,2.51512598991394,-0.4959818124771118,0.2394773364067078,-0.6910220384597778,1,-0.5343164801597595,-0.587735116481781,-0.5138639211654663,0.3240634500980377,-0.9300588369369507,-0.2577268481254578,0.2618533372879028,0,0,0,-1,60962.14492200001,1,2,1561238422.313108,1561238131.651496,42,2.082445,0,0,35.15249,0,0,1561238417.130974,60959.434383,0,-0.5390625,74.40148,2650659446,177292352,1,1,0.45,-160,-160,5
1561238422.585107,99,0,0,1561238421.876052,4.60288497542118,-74.06487768421911,2643.672,3.115964,-1,76.84079742431641,200,-9999,1561238422.579709,-16.90452766418457,12.47186660766602,14.68170166015625,28.18444633483887,35.72813415527344,15,60962.42507300001,-1.769989013671875,-0.3375396728515625,-0.456695556640625,60962.414941,-1.646517453436902,0.1740519583065646,1.946169681389892,60962.397363,20.56295776367188,12.81536865234375,-520.4725341796875,60962.420007,-1.718304152954171,-1.834151924511879,0.2274735454059926,-1.625236749649048,0.2307610362768173,1.705974698066711,-0.7578219175338745,-0.03165474534034729,-0.7020411491394043,1,-0.5521971583366394,-0.5673501491546631,-0.5164029002189636,0.3263740539550781,-0.940649151802063,-0.2255168706178665,0.2536157965660095,0,0,0,-1,60962.14492200001,1,2,1561238422.313108,1561238131.651496,42,2.082445,0,0,35.15249,0,0,1561238417.130974,60959.434383,0,-0.5390625,74.40148,2650659446,177292352,1,1,0.45,-160,-160,5
1561238422.605145,100,0,0,1561238421.876052,4.60288497542118,-74.06487768421911,2643.672,3.115964,-1,76.84079742431641,200,-9999,1561238422.579709,-16.90452766418457,12.47186660766602,14.68170166015625,28.18444633483887,35.72813415527344,15,60962.445337,-1.856964111328125,-0.2817230224609375,-0.501312255859375,60962.435205,-1.300474290875276,0.0639520851527268,1.118164668976702,60962.417505,21.03271484375,12.5916748046875,-519.835205078125,60962.44027100001,-1.753750074433754,-1.823790286620858,0.2092281526945107,-1.133601903915405,-0.1182312667369843,0.9835062026977539,-0.8594349026679993,-0.1305976510047913,-0.7187067270278931,1,-0.5636075735092163,-0.5520588755607605,-0.5208935141563416,0.325956255197525,-0.9470531344413757,-0.207704946398735,0.2448450028896332,0,0,0,-1,60962.14492200001,1,2,1561238422.313108,1561238131.651496,42,2.082445,0,0,35.15249,0,0,1561238417.130974,60959.434383,0,-0.5390625,74.40148,2650659446,177292352,1,1,0.45,-160,-160,5
1561238422.636473,101,0,0,1561238421.876052,4.60288497542118,-74.06487768421911,2643.672,3.115964,-1,76.84079742431641,200,-9999,1561238422.62989,-15.88177680969238,12.28954124450684,15.76849365234375,31.53717994689941,39.08086776733398,15,60962.4656,-1.9837646484375,-0.229583740234375,-0.5704803466796875,60962.455468,-0.5434289393911379,-0.6563765306985975,0.7802958130649655,60962.43764600001,20.97817993164062,12.68051147460938,-519.7438354492188,60962.46053400001,-1.773061984179673,-1.829681731852351,0.1965675190007559,-0.3638777136802673,-0.7968310713768005,0.7332270741462708,-0.9758135080337524,-0.03423383831977844,-0.7970633506774902,1,-0.5732746720314026,-0.5448787212371826,-0.5194867849349976,0.3234143257141113,-0.9480603933334351,-0.1953041106462479,0.2510733306407928,0,0,0,-1,60962.14492200001,1,2,1561238422.313108,1561238131.651496,42,2.082445,0,0,35.15249,0,0,1561238417.130974,60959.434383,0,-0.5390625,74.40148,2650659446,177292352,1,1,0.45,-160,-160,5
1561238422.645982,102,0,0,1561238421.876052,4.60288497542118,-74.06487768421911,2643.672,3.115964,-1,76.84079742431641,200,-9999,1561238422.62989,-15.88177680969238,12.28954124450684,15.76849365234375,31.53717994689941,39.08086776733398,15,60962.485864,-2.035842895507812,-0.344573974609375,-0.6149444580078125,60962.47573200001,0.05789419262112355,-1.01739438175363,0.5565940099238356,60962.45778800001,21.64590454101562,12.6800537109375,-519.244873046875,60962.480768,-1.777991058757784,-1.848008372957155,0.1849380863392547,0.1611445248126984,-1.008556604385376,0.451291561126709,-1.071272373199463,-0.09719648957252502,-0.8686940670013428,1,-0.5819004774093628,-0.5439632534980774,-0.5123432278633118,0.3209364116191864,-0.9454207420349121,-0.1838856786489487,0.2690083682537079,0,0,0,-1,60962.14492200001,1,2,1561238422.313108,1561238131.651496,42,2.082445,0,0,35.15249,0,0,1561238417.130974,60959.434383,0,-0.5390625,74.40148,2650659446,177292352,1,1,0.45,-160,-160,5
1561238422.666266,103,0,0,1561238421.876052,4.60288497542118,-74.06487768421911,2643.672,3.115964,-1,76.84079742431641,200,-9999,1561238422.65635,-15.65412521362305,12.43703937530518,15.9664306640625,31.38397789001465,38.92766571044922,15,60962.506128,-2.073516845703125,-0.4393463134765625,-0.5540313720703125,60962.49599600001,0.471876991435652,-0.5783568297197451,0.000807470442512025,60962.477899,21.82908630371094,12.76034545898438,-518.8726196289062,60962.50103100001,-1.771676437067485,-1.864219301323986,0.1798283585836155,0.5665450692176819,-0.3812336027622223,-0.1966102719306946,-1.118998408317566,-0.2151059806346893,-0.8757379055023193,1,-0.5854097604751587,-0.5473378300666809,-0.5054231286048889,0.3197877109050751,-0.9418230652809143,-0.1788607090711594,0.2845665812492371,0,0,0,-1,60962.14492200001,1,2,1561238422.313108,1561238131.651496,42,2.082445,0,0,35.15249,0,0,1561238417.130974,60959.434383,0,-0.5390625,74.40148,2650659446,177292352,1,1,0.45,-160,-160,5
1561238422.686413,104,0,0,1561238421.876052,4.60288497542118,-74.06487768421911,2643.672,3.115964,-1,76.84079742431641,200,-9999,1561238422.68102,-15.45132827758789,12.56012439727783,16.0240478515625,30.14811897277832,37.69180679321289,15,60962.526361,-2.021041870117188,-0.4122161865234375,-0.4769134521484375,60962.516259,0.8492695547691457,0.09248732360070781,-0.9021263781883844,60962.49804000001,21.9986572265625,12.49995422363281,-518.804931640625,60962.52129500001,-1.752837760474841,-1.868976158527581,0.1881869733061926,0.9536070227622986,0.149552509188652,-1.162624597549438,-1.132917642593384,-0.2504523396492004,-0.8045244216918945,1,-0.5796017646789551,-0.5553007125854492,-0.5029736757278442,0.3205003142356873,-0.9389969706535339,-0.1870781928300858,0.2885941863059998,0,0,0,-1,60962.14492200001,1,2,1561238422.313108,1561238131.651496,42,2.082445,0,0,35.15249,0,0,1561238417.130974,60959.434383,0,-0.5390625,74.40148,2650659446,177292352,1,1,0.45,-160,-160,5
1561238422.712091,105,0,0,1561238421.876052,4.60288497542118,-74.06487768421911,2643.672,3.115964,-1,76.84079742431641,200,-9999,1561238422.707295,-15.67143249511719,12.1510763168335,15.7103271484375,27.45022773742676,34.99391555786133,15,60962.546624,-1.846221923828125,-0.4195556640625,-0.32879638671875,60962.53649300001,1.449291466272794,0.1553339305849427,-1.848206365955763,60962.51818200001,22.05567932128906,12.56156921386719,-518.9517822265625,60962.541559,-1.717771628175709,-1.872843942552554,0.2120626806749248,1.652688384056091,0.09707625210285187,-2.036135673522949,-1.000144481658936,-0.204806387424469,-0.7163949012756348,1,-0.5654114484786987,-0.5707152485847473,-0.5018894076347351,0.3204702138900757,-0.9333425164222717,-0.210476815700531,0.2908120155334473,0,0,0,-1,60962.14492200001,1,2,1561238422.313108,1561238131.651496,42,2.082445,0,0,35.15249,0,0,1561238417.130974,60959.434383,0,-0.5390625,74.40148,2650659446,177292352,1,1,0.45,-160,-160,5
1561238422.727061,106,0,0,1561238421.876052,4.60288497542118,-74.06487768421911,2643.672,3.115964,-1,76.84079742431641,200,-9999,1561238422.707295,-15.67143249511719,12.1510763168335,15.7103271484375,27.45022773742676,34.99391555786133,15,60962.566888,-1.687179565429688,-0.3897857666015625,-0.1247406005859375,60962.55675600001,2.209920899951961,-0.2079358894878608,-2.493831449017602,60962.538324,21.44657897949219,12.61705017089844,-519.4985961914062,60962.561822,-1.662800955735188,-1.887430330409333,0.2449067577869153,2.309020519256592,-0.3561839163303375,-2.624941349029541,-0.8443945646286011,-0.1604882180690765,-0.5240480899810791,1,-0.5455228090286255,-0.5945116281509399,-0.496962308883667,0.3193577527999878,-0.9219323396682739,-0.2424658685922623,0.3020784258842468,0,0,0,-1,60962.14492200001,1,2,1561238422.313108,1561238131.651496,42,2.082445,0,0,35.15249,0,0,1561238417.130974,60959.434383,0,-0.5390625,74.40148,2650659446,177292352,1,1,0.45,-160,-160,5
1561238422.747098,107,0,0,1561238421.876052,4.60288497542118,-74.06487768421911,2643.672,3.115964,-1,76.84079742431641,200,-9999,1561238422.733643,-16.71319007873535,11.7698450088501,14.82525634765625,23.11728477478027,30.66097259521484,15,60962.587152,-1.456680297851562,-0.3697967529296875,-0.0029144287109375,60962.57702,2.385203238682142,-0.7098948833326119,-3.005039867644307,60962.55843500001,20.94525146484375,12.13299560546875,-519.8867797851562,60962.582086,-1.596152952906411,-1.917005104423771,0.284564161415039,2.354263544082642,-0.7895007133483887,-3.148096323013306,-0.6766164302825928,-0.1031719446182251,-0.3790321350097656,1,-0.5231224298477173,-0.6238481998443604,-0.4883749186992645,0.3140798807144165,-0.9028360843658447,-0.2807391583919525,0.3256873190402985,0,0,0,-1,60962.14492200001,1,2,1561238422.313108,1561238131.651496,42,2.082445,0,0,35.15249,0,0,1561238417.130974,60959.434383,0,-0.5390625,74.40148,2650659446,177292352,1,1,0.45,-160,-160,5
1561238422.767325,108,0,0,1561238421.876052,4.60288497542118,-74.06487768421911,2643.672,3.115964,-1,76.84079742431641,200,-9999,1561238422.757577,-17.24004173278809,11.3734130859375,14.55859375,18.11905479431152,25.66274261474609,15,60962.60741500001,-1.219497680664062,-0.306060791015625,0.013275146484375,60962.597284,2.251701902713669,-0.7545145495002354,-3.567308541218884,60962.57857600001,20.3792724609375,11.86822509765625,-520.318603515625,60962.60235,-1.524758362513872,-1.954430293419249,0.3329869536263167,2.226224422454834,-0.677406907081604,-3.68976092338562,-0.4601283669471741,-0.01955291628837585,-0.3367041349411011,1,-0.4975507855415344,-0.6552172899246216,-0.4803085923194885,0.3040349185466766,-0.8763737082481384,-0.3268673717975616,0.3537329733371735,0,0,0,-1,60962.14492200001,1,2,1561238422.313108,1561238131.651496,42,2.082445,0,0,35.15249,0,0,1561238417.130974,60959.434383,0,-0.5390625,74.40148,2650659446,177292352,1,1,0.45,-160,-160,5
1561238422.792108,109,0,0,1561238421.876052,4.60288497542118,-74.06487768421911,2643.672,3.115964,-1,76.84079742431641,200,-9999,1561238422.781689,-17.76584625244141,10.78900527954102,14.47674560546875,12.63123321533203,20.1749210357666,15,60962.627679,-0.9404449462890625,-0.21923828125,0.0218353271484375,60962.617547,2.299643329708948,-0.4149151715121652,-3.84696548939145,60962.598718,19.94448852539062,11.50070190429688,-520.460693359375,60962.62261300001,-1.44730990226231,-1.99200479885445,0.3859510733983382,2.367480278015137,-0.4069238007068634,-3.830909490585327,-0.2254571914672852,0.1080993413925171,-0.3656653165817261,1,-0.467277467250824,-0.6863276958465576,-0.4739151895046234,0.2932752370834351,-0.8454656004905701,-0.3764404058456421,0.3787878751754761,0,0,0,-1,60962.14492200001,1,2,1561238422.313108,1561238131.651496,42,2.082445,0,0,35.15249,0,0,1561238417.130974,60959.434383,0,-0.5390625,74.40148,2650659446,177292352,1,1,0.45,-160,-160,5
1561238422.808679,110,0,0,1561238421.876052,4.60288497542118,-74.06487768421911,2643.672,3.115964,-1,76.84079742431641,200,-9999,1561238422.781689,-17.76584625244141,10.78900527954102,14.47674560546875,12.63123321533203,20.1749210357666,15,60962.647943,-0.807861328125,-0.142913818359375,0.1418609619140625,60962.637811,2.697046086524971,-0.5306582830158809,-3.727604739862971,60962.61886,19.34947204589844,10.4373779296875,-520.8297119140625,60962.64287700001,-1.360169829096271,-2.036593396510015,0.4325112679873095,2.815272808074951,-0.6300537586212158,-3.753401517868042,-0.04699468612670898,0.2607506513595581,-0.3552714586257935,1,-0.4352682530879974,-0.7172377705574036,-0.4643612504005432,0.2836902439594269,-0.811190128326416,-0.4191521406173706,0.407776951789856,0,0,0,-1,60962.14492200001,1,2,1561238422.313108,1561238131.651496,42,2.082445,0,0,35.15249,0,0,1561238417.130974,60959.434383,0,-0.5390625,74.40148,2650659446,177292352,1,1,0.45,-160,-160,5
1561238422.82825,111,0,0,1561238421.876052,4.60288497542118,-74.06487768421911,2643.672,3.115964,-1,76.84079742431641,200,-9999,1561238422.809471,-18.28811264038086,9.850864410400391,13.99908447265625,6.262789726257324,13.80647754669189,15,60962.668206,-0.6785430908203125,-0.219940185546875,0.4410400390625,60962.65807500001,3.19520980950025,-1.161580053699392,-4.115712265526289,60962.659112,18.89390563964844,9.166427612304688,-521.0142211914062,60962.663141,-1.256606486083857,-2.101758703302763,0.4738343064392913,3.3172607421875,-1.390680313110352,-4.265964984893799,0.02816313505172729,0.2606532871723175,-0.1560955047607422,1,-0.4015197157859802,-0.7510455250740051,-0.44864621758461,0.2709779441356659,-0.7673141360282898,-0.4563014805316925,0.4505749344825745,0,0,0,-1,60962.14492200001,1,2,1561238422.313108,1561238131.651496,42,2.082445,0,0,35.15249,0,0,1561238417.130974,60959.434383,0,-0.5390625,74.40148,2650659446,177292352,1,1,0.45,-160,-160,5
1561238422.848343,112,0,0,1561238421.876052,4.60288497542118,-74.06487768421911,2643.672,3.115964,-1,76.84079742431641,200,-9999,1561238422.832403,-18.96234512329102,8.578421592712402,13.84613037109375,358.2691345214844,5.812808036804199,15,60962.68847,-0.605926513671875,-0.1729736328125,0.6962432861328125,60962.67833800001,3.54939904920421,-1.859612951220682,-4.806309617284079,60962.679254,18.30300903320312,8.589797973632812,-521.00830078125,60962.683404,-1.131535591436672,-2.196005683786054,0.5138353770883346,3.505816221237183,-1.927413821220398,-5.025411605834961,0.06039673089981079,0.2821398377418518,0.0600283145904541,1,-0.3639123737812042,-0.788931131362915,-0.4270726144313812,0.2505284547805786,-0.7061334252357483,-0.4915209412574768,0.5096890926361084,0,0,0,-1,60962.14492200001,1,2,1561238422.313108,1561238131.651496,42,2.082445,0,0,35.15249,0,0,1561238417.130974,60959.434383,0,-0.5390625,74.40148,2650659446,177292352,1,1,0.45,-160,-160,5
1561238422.871326,113,0,0,1561238421.876052,4.60288497542118,-74.06487768421911,2643.672,3.115964,-1,76.84079742431641,200,-9999,1561238422.860328,-19.35442352294922,7.77863597869873,14.08782958984375,348.5920104980469,356.1357116699219,15,60962.70874050001,-0.3665618896484375,-0.1700286865234375,0.78985595703125,60962.6986085,3.199596834763937,-1.905367390328788,-5.412820587099814,60962.6994015,18.05589294433594,7.335556030273438,-520.5314331054688,60962.7036745,-0.9923986017303422,-2.306077249588274,0.5552257385945261,3.084132194519043,-1.896193742752075,-5.454548358917236,0.1771087646484375,0.3493397235870361,0.1904838085174561,1,-0.3207030296325684,-0.8259323835372925,-0.4060406982898712,0.223866268992424,-0.6302337646484375,-0.5271351337432861,0.5700294971466064,0,0,0,-1,60962.14492200001,1,2,1561238422.313108,1561238131.651496,42,2.082445,0,0,35.15249,0,0,1561238417.130974,60959.434383,0,-0.5390625,74.40148,2650659446,177292352,1,1,0.45,-160,-160,5
1561238422.888929,114,0,0,1561238422.876933,4.602874644935173,-74.06488235705113,2643.386,3.043554,-1,71.37221527099609,200,-9999,1561238422.884794,-19.50210189819336,6.567341327667236,14.43939208984375,6.438984870910645,13.98267269134521,15,60962.7290035,-0.1330108642578125,0.0103302001953125,0.8068389892578125,60962.7188725,2.809577692070159,-2.034186090152575,-5.301984083588461,60962.7195435,18.23768615722656,5.987060546875,-519.816162109375,60962.72393850001,-0.8511556401415848,-2.422917973226823,0.5898177127457211,2.711668729782104,-2.070140838623047,-5.193198680877686,0.2489150762557983,0.5089225769042969,0.1914627552032471,1,-0.2767016291618347,-0.8580152988433838,-0.3867301940917969,0.1941284239292145,-0.5471480488777161,-0.5562095642089844,0.6255080699920654,0,0,0,-1,60962.14492200001,1,2,1561238422.313108,1561238131.651496,42,2.082445,0,0,35.15249,0,0,1561238417.130974,60959.434383,0,-0.5390625,74.40148,2650659446,177292352,1,1,0.45,-160,-160,5
1561238422.91004,115,0,0,1561238422.876933,4.602874644935173,-74.06488235705113,2643.386,3.043554,-1,71.37221527099609,200,-9999,1561238422.884794,-19.50210189819336,6.567341327667236,14.43939208984375,6.438984870910645,13.98267269134521,15,60962.7492675,0.1883087158203125,0.0524444580078125,0.9629058837890625,60962.73913550001,2.872689549898966,-1.249842804862907,-4.843312110101857,60962.7396855,18.35475158691406,4.736663818359375,-519.5283203125,60962.7441715,-0.7134221698799579,-2.533270903791669,0.6072132708656701,2.973408937454224,-0.7955836057662964,-4.802215099334717,0.498094916343689,0.6084839701652527,0.1224387884140015,1,-0.234027087688446,-0.8844150900840759,-0.3670831918716431,0.1682000309228897,-0.4693320989608765,-0.5705810785293579,0.6739174723625183,0,0,0,-1,60962.14492200001,1,2,1561238422.313108,1561238131.651496,42,2.082445,0,0,35.15249,0,0,1561238417.130974,60959.434383,0,-0.5390625,74.40148,2650659446,177292352,1,1,0.45,-160,-160,5
1561238422.929577,116,0,0,1561238422.876933,4.602874644935173,-74.06488235705113,2643.386,3.043554,-1,71.37221527099609,200,-9999,1561238422.909465,-19.45698738098145,4.121315479278564,15.29388427734375,16.33774375915527,23.88143157958984,15,60962.7695315,0.48065185546875,0.253631591796875,1.242568969726562,60962.75939950001,3.076354794262776,-0.1085227491562929,-4.677320475150526,60962.75982650001,17.99423217773438,3.945404052734375,-519.5445556640625,60962.7644345,-0.574845526378847,-2.618698525893278,0.6064091900793488,3.02322793006897,-0.1357804238796234,-4.673728942871094,0.7466062903404236,0.6791887879371643,0.3808560371398926,1,-0.1873457431793213,-0.9060091972351074,-0.3465328216552734,0.1548027545213699,-0.4103483259677887,-0.5699205994606018,0.7119022011756897,0,0,0,-1,60962.14492200001,1,2,1561238422.313108,1561238131.651496,42,2.082445,0,0,35.15249,0,0,1561238417.130974,60959.434383,0,-0.5390625,74.40148,2650659446,177292352,1,1,0.45,-160,-160,5
1561238422.961869,117,0,0,1561238422.876933,4.602874644935173,-74.06488235705113,2643.386,3.043554,-1,71.37221527099609,200,-9999,1561238422.933629,-19.71619987487793,3.202355861663818,15.251953125,26.10197257995605,33.64566040039062,15,60962.7897945,0.95562744140625,0.73248291015625,1.379928588867188,60962.7796635,2.286198094629574,-0.47759266776718,-4.282261566409883,60962.7799375,17.87641906738281,2.83038330078125,-519.634033203125,60962.78469850001,-0.4487364176987364,-2.697416018713642,0.6023633980965982,1.855761766433716,-0.5361150503158569,-3.908617258071899,1.065967917442322,1.048067331314087,0.626883864402771,1,-0.1435527056455612,-0.9227207899093628,-0.3289115130901337,0.1406991630792618,-0.3540843725204468,-0.5665915012359619,0.7440420985221863,0,0,0,-1,60962.14492200001,1,2,1561238422.313108,1561238131.651496,42,2.082445,0,0,35.15249,0,0,1561238417.130974,60959.434383,0,-0.5390625,74.40148,2650659446,177292352,1,1,0.45,-160,-160,5
1561238422.969914,118,0,0,1561238422.876933,4.602874644935173,-74.06488235705113,2643.386,3.043554,-1,71.37221527099609,200,-9999,1561238422.960836,-19.78639984130859,2.061648368835449,15.370849609375,32.89657592773438,40.44026184082031,15,60962.8100285,1.686691284179688,1.20196533203125,1.273483276367188,60962.7998965,0.4298006441090541,-0.08165544849902853,-1.888410244719927,60962.8000795,17.91737365722656,1.7030029296875,-519.20751953125,60962.80496250001,-0.3810173404022851,-2.741376542021861,0.6070616481662482,0.01161495596170425,0.2156306058168411,-0.8792527318000793,1.600734710693359,1.533698201179504,0.5560456514358521,1,-0.1187590360641479,-0.929574191570282,-0.3235466480255127,0.130788579583168,-0.3200035393238068,-0.5704565644264221,0.7564237713813782,0,0,0,-1,60962.14492200001,1,2,1561238422.313108,1561238131.651496,42,2.082445,0,0,35.15249,0,0,1561238417.130974,60960.382753,0,-0.5390625,74.40148,2650659446,177292352,1,1,0.45,-160,-160,5
1561238422.990759,119,0,0,1561238422.876933,4.602874644935173,-74.06488235705113,2643.386,3.043554,-1,71.37221527099609,200,-9999,1561238422.984268,-19.73651504516602,1.252907037734985,15.21905517578125,30.9478588104248,38.49154663085938,15,60962.8302915,2.272216796875,1.65338134765625,1.246612548828125,60962.82015950001,-0.7937141502173297,0.5556917309465167,2.956575662127045,60962.82022150001,18.11724853515625,2.113327026367188,-519.8709106445312,60962.8252255,-0.4234175093834192,-2.707410551125365,0.6036341512872799,-0.9822239875793457,0.4772416949272156,4.276463508605957,2.368040561676025,2.03145956993103,0.5300267934799194,1,-0.1333268880844116,-0.9250236749649048,-0.3270117342472076,0.1400657445192337,-0.3463271856307983,-0.5676381587982178,0.7468897104263306,0,0,0,-1,60962.14492200001,1,2,1561238422.313108,1561238131.651496,42,2.082445,0,0,35.15249,0,0,1561238417.130974,60960.382753,0,-0.5390625,74.40148,2650659446,177292352,1,1,0.45,-160,-160,5
1561238423.010593,120,0,0,1561238422.876933,4.602874644935173,-74.06488235705113,2643.386,3.043554,-1,71.37221527099609,200,-9999,1561238422.984268,-19.73651504516602,1.252907037734985,15.21905517578125,30.9478588104248,38.49154663085938,15,60962.8505555,2.135009765625,1.839141845703125,1.2410888671875,60962.84042350001,-1.316385879440172,0.3771584714736758,7.991816199352624,60962.84036250001,18.32254028320312,3.806137084960938,-520.230712890625,60962.8454895,-0.5824278175645068,-2.611537468251648,0.5618811359696769,-1.375758528709412,0.1721888482570648,9.101346015930176,2.773263216018677,2.30031156539917,0.4705071449279785,1,-0.1966609358787537,-0.9090598225593567,-0.3285702466964722,0.1642445176839828,-0.4278500378131866,-0.5327790379524231,0.7301305532455444,0,0,0,-1,60962.14492200001,1,2,1561238422.313108,1561238131.651496,42,2.082445,0,0,35.15249,0,0,1561238417.130974,60960.382753,0,-0.5390625,74.40148,2650659446,177292352,1,1,0.45,-160,-160,5
1561238423.031069,121,0,0,1561238422.876933,4.602874644935173,-74.06488235705113,2643.386,3.043554,-1,71.37221527099609,200,-9999,1561238423.010592,-18.9032039642334,4.532315731048584,14.610595703125,18.78241539001465,26.32610321044922,15,60962.87081950001,0.9306640625,1.796554565429688,1.516189575195312,60962.8606875,-1.957529128703516,-0.7964225850459403,11.9256257739949,60962.8605045,19.97642517089844,7.126373291015625,-520.18310546875,60962.8657535,-0.8183659705485991,-2.504348677369612,0.4677766370649961,-2.399662733078003,-0.9740164875984192,12.65644645690918,2.188429117202759,2.285543441772461,0.6612669229507446,1,-0.3009396195411682,-0.876431941986084,-0.3231663107872009,0.1920047402381897,-0.5310652852058411,-0.4509028792381287,0.7173951864242554,0,0,0,-1,60962.14492200001,1,2,1561238422.313108,1561238131.651496,42,2.082445,0,0,35.15249,0,0,1561238417.130974,60960.382753,0,-0.5390625,74.40148,2650659446,177292352,1,1,0.45,-160,-160,5
