loggingTime,loggingSample,identifierForVendor,deviceID,locationTimestamp_since1970,locationLatitude,locationLongitude,locationAltitude,locationSpeed,locationCourse,locationVerticalAccuracy,locationHorizontalAccuracy,locationFloor,locationHeadingTimestamp_since1970,locationHeadingX,locationHeadingY,locationHeadingZ,locationTrueHeading,locationMagneticHeading,locationHeadingAccuracy,accelerometerTimestamp_sinceReboot,accelerometerAccelerationX,accelerometerAccelerationY,accelerometerAccelerationZ,gyroTimestamp_sinceReboot,gyroRotationX,gyroRotationY,gyroRotationZ,magnetometerTimestamp_sinceReboot,magnetometerX,magnetometerY,magnetometerZ,motionTimestamp_sinceReboot,motionYaw,motionRoll,motionPitch,motionRotationRateX,motionRotationRateY,motionRotationRateZ,motionUserAccelerationX,motionUserAccelerationY,motionUserAccelerationZ,motionAttitudeReferenceFrame,motionQuaternionX,motionQuaternionY,motionQuaternionZ,motionQuaternionW,motionGravityX,motionGravityY,motionGravityZ,motionMagneticFieldX,motionMagneticFieldY,motionMagneticFieldZ,motionMagneticFieldCalibrationAccuracy,activityTimestamp_sinceReboot,activity,activityActivityConfidence,activityActivityStartDate,pedometerStartDate,pedometerNumberofSteps,pedometerAverageActivePace,pedometerCurrentPace,pedometerCurrentCadence,pedometerDistance,pedometerFloorAscended,pedometerFloorDescended,pedometerEndDate,altimeterTimestamp_sinceReboot,altimeterReset,altimeterRelativeAltitude,altimeterPressure,IP_en0,IP_pdp_ip0,deviceOrientation,batteryState,batteryLevel,avAudioRecorderPeakPower,avAudioRecorderAveragePower,label
1561827205.868469,1,0,0,1561827204.998153,4.634628561329688,-74.15107335902205,2552.889,0,31.640625,4,10,-9999,1561827205.821767,-17.46651458740234,-3.892887115478516,24.91546630859375,97.51508331298828,105.0082778930664,15,157143.196212375,-0.934478759765625,0.3193359375,-0.09521484375,157143.187087375,0.1131348115320921,-0.03180773079547039,0.05491225114856183,157143.177749375,-96.15603637695312,-31.83360290527344,-538.3582153320312,157143.187087375,0.1904780356997957,-1.467161469566352,-0.336380638978783,0.1107021048665047,-0.0379013679921627,0.05191588029265404,0.002611517906188965,-0.007166266441345215,0.002070605754852295,1,-0.0610060878098011,-0.6689188480377197,0.1812092065811157,0.7183237075805664,-0.938890814781189,0.3300727605819702,-0.09765166044235229,0,0,0,-1,157142.3416875417,3,2,1561827205.041744,1561827055.717469,23,1.28499,0,0,23.0045,0,0,1561827203.101918,157139.864485,0,0.7109375,75.36959,0,182478453,3,1,0.19,-21.34752,-23.75591,2
1561827205.897351,2,0,0,1561827204.998153,4.634628561329688,-74.15107335902205,2552.889,0,31.640625,4,10,-9999,1561827205.871629,-17.40432739257812,-3.413433074951172,25.13037109375,97.23390197753906,104.7270965576172,15,157143.216476375,-0.9325103759765625,0.317291259765625,-0.0967864990234375,157143.207351375,0.07445719038865335,-0.01893134692493727,0.05463421713075756,157143.197860375,-96.01994323730469,-32.09132385253906,-538.0623168945312,157143.207351375,0.1925612858624446,-1.467115466350989,-0.3372459936950238,0.07202448695898056,-0.02502498216927052,0.05163784697651863,0.005420207977294922,-0.01207232475280762,-0.001471042633056641,1,-0.06063352897763252,-0.6689476370811462,0.1822350174188614,0.7180689573287964,-0.9386019706726074,0.330889493227005,-0.09766526520252228,0,0,0,-1,157142.3416875417,3,2,1561827205.041744,1561827055.717469,23,1.28499,0,0,23.0045,0,0,1561827203.101918,157139.864485,0,0.7109375,75.36959,0,182478453,3,1,0.19,-21.1923,-22.15593,2
1561827205.908128,3,0,0,1561827204.998153,4.634628561329688,-74.15107335902205,2552.889,0,31.640625,4,10,-9999,1561827205.871629,-17.40432739257812,-3.413433074951172,25.13037109375,97.23390197753906,104.7270965576172,15,157143.236709375,-0.935150146484375,0.32171630859375,-0.09649658203125,157143.227615375,0.05391436468810914,0.002241316373410687,0.06550390911991597,157143.217971375,-96.21214294433594,-31.78585815429688,-537.8834838867188,157143.227615375,0.1939704776674155,-1.466945189142842,-0.3382511341345739,0.05148166418075562,-0.003852319438010454,0.06250753998756409,0.006323635578155518,-0.01208990812301636,0.002835094928741455,1,-0.06054951250553131,-0.668908417224884,0.1830598115921021,0.7179028391838074,-0.9382541179656982,0.3318378329277039,-0.09779056906700134,0,0,0,-1,157142.3416875417,3,2,1561827205.041744,1561827055.717469,23,1.28499,0,0,23.0045,0,0,1561827203.101918,157139.864485,0,0.7109375,75.36959,0,182478453,3,1,0.19,-20.58295,-20.58295,2
1561827205.928067,4,0,0,1561827204.998153,4.634628561329688,-74.15107335902205,2552.889,0,31.640625,4,10,-9999,1561827205.912808,-17.49403381347656,-3.707340240478516,25.09735107421875,97.01848602294922,104.5116806030273,15,157143.256972375,-0.941558837890625,0.326263427734375,-0.094635009765625,157143.247848375,0.03461390363608689,0.03360243505407479,0.07358633671219744,157143.238113375,-96.16751098632812,-31.85649108886719,-538.459228515625,157143.247848375,0.1949976618628926,-1.466384195640819,-0.3394830798970206,0.03218120336532593,0.02750879898667336,0.07058996707201004,-0.0005169510841369629,-0.008872509002685547,0.002723634243011475,1,-0.06071316450834274,-0.6687127947807312,0.1838085055351257,0.7178798913955688,-0.9377917647361755,0.3329997062683105,-0.09827421605587006,0,0,0,-1,157142.3416875417,3,2,1561827205.041744,1561827055.717469,23,1.28499,0,0,23.0045,0,0,1561827203.101918,157140.810899,0,0.7109375,75.36959,0,182478453,3,1,0.19,-20.58295,-20.58295,2
1561827205.948358,5,0,0,1561827204.998153,4.634628561329688,-74.15107335902205,2552.889,0,31.640625,4,10,-9999,1561827205.93699,-17.49085998535156,-3.418939590454102,25.0648193359375,96.96231079101562,104.4555053710938,15,157143.277236375,-0.9379425048828125,0.3207550048828125,-0.09716796875,157143.268111375,0.03230680718375124,0.02403316462520207,0.06369082904979002,157143.258224375,-96.049072265625,-31.68367004394531,-538.3156127929688,157143.268111375,0.1957638485407668,-1.465544703688539,-0.3407672187073243,0.02987410314381123,0.01793952845036983,0.06069445610046387,-0.002628028392791748,-0.01092234253883362,0.003053903579711914,1,-0.0610094740986824,-0.6684082746505737,0.1844715029001236,0.7179682850837708,-0.9372828602790833,0.3342103064060211,-0.09901644289493561,0,0,0,-1,157142.3416875417,3,2,1561827205.041744,1561827055.717469,23,1.28499,0,0,23.0045,0,0,1561827203.101918,157140.810899,0,0.7109375,75.36959,0,182478453,3,1,0.19,-19.76546,-20.76294,2
1561827205.977546,6,0,0,1561827204.998153,4.634628561329688,-74.15107335902205,2552.889,0,31.640625,4,10,-9999,1561827205.963125,-17.3609619140625,-3.278911590576172,24.8709716796875,96.88771057128906,104.3809051513672,15,157143.297500375,-0.942108154296875,0.317352294921875,-0.0982513427734375,157143.288375375,0.06147960639669723,-0.007163104383986127,0.05500785863169567,157143.278335375,-95.86824035644531,-32.02174377441406,-538.601318359375,157143.288375375,0.1968357559452696,-1.465198173107817,-0.3417896685203454,0.0590469054877758,-0.0132567398250103,0.05201148986816406,-0.001064717769622803,-0.01669234037399292,0.001923561096191406,1,-0.06106170266866684,-0.6682955026626587,0.1851747184991837,0.7178878784179688,-0.9369083046913147,0.3351737856864929,-0.09930518269538879,0,0,0,-1,157142.3416875417,3,2,1561827205.041744,1561827055.717469,23,1.28499,0,0,23.0045,0,0,1561827203.101918,157140.810899,0,0.7109375,75.36959,0,182478453,3,1,0.19,-19.76546,-22.61262,2
1561827205.988794,7,0,0,1561827204.998153,4.634628561329688,-74.15107335902205,2552.889,0,31.640625,4,10,-9999,1561827205.963125,-17.3609619140625,-3.278911590576172,24.8709716796875,96.88771057128906,104.3809051513672,15,157143.317763375,-0.944000244140625,0.3202667236328125,-0.0992889404296875,157143.308639375,0.08058831985023378,0.002316417516150921,0.04242282458441723,157143.298476375,-95.92857360839844,-31.63446044921875,-538.236328125,157143.308639375,0.1984859470799117,-1.464901982542482,-0.3425601593764204,0.07815561443567276,-0.003777218284085393,0.03942645341157913,-0.007378458976745605,-0.01816582679748535,-0.0008932948112487793,1,-0.06082300469279289,-0.6682236790657043,0.1860057860612869,0.7177601456642151,-0.9366217851638794,0.3358995914459229,-0.09955535084009171,0,0,0,-1,157142.3416875417,3,2,1561827205.041744,1561827055.717469,23,1.28499,0,0,23.0045,0,0,1561827203.101918,157140.810899,0,0.7109375,75.36959,0,182478453,3,1,0.19,-19.76546,-22.61262,2
1561827206.009142,8,0,0,1561827204.998153,4.634628561329688,-74.15107335902205,2552.889,0,31.640625,4,10,-9999,1561827205.989589,-17.35399627685547,-3.290136337280273,25.0323486328125,96.7669677734375,104.2601623535156,15,157143.338027375,-0.9411773681640625,0.3242340087890625,-0.0920867919921875,157143.328902375,0.07413734474173483,0.03897083517945651,0.02834349084949532,157143.318587375,-96.191650390625,-31.52113342285156,-538.2461547851562,157143.328902375,0.2002335240517338,-1.464017929198661,-0.3429687721088233,0.07170464098453522,0.03287719935178757,0.02534712105989456,-0.00685572624206543,-0.01430875062942505,0.005138576030731201,1,-0.06047290191054344,-0.6679511070251465,0.1867375373840332,0.7178533673286438,-0.9363967776298523,0.3362844288349152,-0.1003686934709549,0,0,0,-1,157143.315230375,3,2,1561827206.015286,1561827055.717469,23,1.28499,0,0,23.0045,0,0,1561827203.101918,157140.810899,0,0.7109375,75.36959,0,182478453,3,1,0.19,-19.76546,-19.76546,2
1561827206.029581,9,0,0,1561827204.998153,4.634628561329688,-74.15107335902205,2552.889,0,31.640625,4,10,-9999,1561827206.01414,-17.44730377197266,-3.33860969543457,24.95404052734375,96.65715789794922,104.1503524780273,15,157143.358291375,-0.9323883056640625,0.32208251953125,-0.0847625732421875,157143.349166375,0.0512378877925795,0.0507707693373796,0.03583043562203508,157143.338698375,-96.26765441894531,-31.60537719726562,-538.3838500976562,157143.349166375,0.201575130797249,-1.46271003057801,-0.3433569695337239,0.04880518838763237,0.04467713460326195,0.03283406421542168,-2.241134643554688e-05,-0.01284325122833252,0.01399374008178711,1,-0.06029108539223671,-0.6675143241882324,0.1873043477535248,0.7181271910667419,-0.9361348152160645,0.336650013923645,-0.1015792265534401,0,0,0,-1,157143.315230375,3,2,1561827206.015286,1561827055.717469,23,1.28499,0,0,23.0045,0,0,1561827203.101918,157140.810899,0,0.7109375,75.36959,0,182478453,3,1,0.19,-19.76546,-20.19893,2
1561827206.064698,10,0,0,1561827205.998141,4.634628561329688,-74.15107335902205,2552.889,0,31.640625,4,10,-9999,1561827206.01414,-17.44730377197266,-3.33860969543457,24.95404052734375,96.65715789794922,104.1503524780273,15,157143.378554375,-0.93377685546875,0.3222808837890625,-0.0849456787109375,157143.369430375,0.03279389934712673,0.02505182374215738,0.05154122184073953,157143.358810375,-96.26646423339844,-31.87039184570312,-538.3563232421875,157143.369430375,0.2025195501352147,-1.461739530564642,-0.3440565718147464,0.03036119602620602,0.01895818673074245,0.04854485020041466,0.00503075122833252,-0.01609593629837036,0.0160362720489502,1,-0.06032627820968628,-0.6671804189682007,0.1878386586904526,0.7182950973510742,-0.93580162525177,0.3373086750507355,-0.1024620607495308,0,0,0,-1,157143.315230375,3,2,1561827206.015286,1561827055.717469,23,1.28499,0,0,23.0045,0,0,1561827203.101918,157140.810899,0,0.7109375,75.36959,0,182478453,3,1,0.19,-19.76546,-20.39606,2
1561827206.069974,11,0,0,1561827205.998141,4.634628561329688,-74.15107335902205,2552.889,0,31.640625,4,10,-9999,1561827206.01414,-17.44730377197266,-3.33860969543457,24.95404052734375,96.65715789794922,104.1503524780273,15,157143.398818375,-0.9385223388671875,0.3190765380859375,-0.0873870849609375,157143.389693375,0.0217050292002548,0.006992395758112048,0.03175073914814269,157143.378921375,-96.32321166992188,-31.58511352539062,-538.6138916015625,157143.389693375,0.2031370064108808,-1.461316922981692,-0.3447606230616533,0.0192723274230957,0.0008987598121166229,0.02875436842441559,-0.003519296646118164,-0.01858967542648315,0.01709240674972534,1,-0.06042106822133064,-0.6670333743095398,0.1882734149694443,0.7183098196983337,-0.9355219006538391,0.3379713892936707,-0.1028315424919128,0,0,0,-1,157143.315230375,3,2,1561827206.015286,1561827055.717469,23,1.28499,0,0,23.0045,0,0,1561827203.101918,157140.810899,0,0.7109375,75.36959,0,182478453,3,1,0.19,-19.76546,-21.34289,2
1561827206.090151,12,0,0,1561827205.998141,4.634628561329688,-74.15107335902205,2552.889,0,31.640625,4,10,-9999,1561827206.088538,-17.56789398193359,-3.012086868286133,25.1812744140625,96.50487518310547,103.9980697631836,15,157143.419082375,-0.9451904296875,0.3240966796875,-0.0871124267578125,157143.409957375,0.03198776048515974,-0.01876969304676946,-0.001389371140694338,157143.399032375,-96.16444396972656,-31.40394592285156,-538.1148681640625,157143.409957375,0.2036113957759597,-1.461381904237403,-0.3449112122294363,0.02955505810678005,-0.02486332878470421,-0.004385741893202066,-0.004783928394317627,-0.01461154222488403,0.01533228158950806,1,-0.06031255424022675,-0.6670680642127991,0.1884940266609192,0.718228816986084,-0.9354779124259949,0.3381131291389465,-0.1027651876211166,0,0,0,-1,157143.315230375,3,2,1561827206.015286,1561827055.717469,23,1.28499,0,0,23.0045,0,0,1561827203.101918,157140.810899,0,0.7109375,75.36959,0,182478453,3,1,0.19,-19.76546,-21.34289,2
1561827206.111,13,0,0,1561827205.998141,4.634628561329688,-74.15107335902205,2552.889,0,31.640625,4,10,-9999,1561827206.088538,-17.56789398193359,-3.012086868286133,25.1812744140625,96.50487518310547,103.9980697631836,15,157143.439345375,-0.939178466796875,0.3257598876953125,-0.0859832763671875,157143.430221375,0.07763833631075301,0.002123338337120177,-0.0169795161620182,157143.419173375,-96.08869934082031,-31.31834411621094,-537.9562377929688,157143.430221375,0.2046892545285448,-1.461380782007659,-0.3444604269981748,0.07520563155412674,-0.003970297053456306,-0.01997588574886322,-0.008722007274627686,-0.0151028037071228,0.01835596561431885,1,-0.05978601425886154,-0.6671088337898254,0.1887365579605103,0.7181712985038757,-0.9356292486190796,0.3376888632774353,-0.1027828752994537,0,0,0,-1,157143.315230375,3,2,1561827206.015286,1561827055.717469,23,1.28499,0,0,23.0045,0,0,1561827203.101918,157140.810899,0,0.7109375,75.36959,0,182478453,3,1,0.19,-19.76546,-21.65491,2
1561827206.135079,14,0,0,1561827205.998141,4.634628561329688,-74.15107335902205,2552.889,0,31.640625,4,10,-9999,1561827206.115022,-17.60576629638672,-3.080667495727539,25.1407470703125,96.4088134765625,103.9020080566406,15,157143.459609375,-0.9380340576171875,0.3348846435546875,-0.084808349609375,157143.450484375,0.0526224652433117,0.009041698216928021,-0.0005952165036327097,157143.439284375,-96.05076599121094,-31.40145874023438,-538.4013671875,157143.450484375,0.2060455238303955,-1.461015498684119,-0.3440524846262588,0.05018976330757141,0.002948062028735876,-0.003591587301343679,-0.00351107120513916,-0.004907369613647461,0.01126658916473389,1,-0.05921688303351402,-0.6670258641242981,0.189081996679306,0.7182046175003052,-0.9357284307479858,0.3373048305511475,-0.1031397134065628,0,0,0,-1,157143.315230375,3,2,1561827206.015286,1561827055.717469,23,1.28499,0,0,23.0045,0,0,1561827203.101918,157140.810899,0,0.7109375,75.36959,0,182478453,3,1,0.19,-19.76546,-21.70904,2
1561827206.151011,15,0,0,1561827205.998141,4.634628561329688,-74.15107335902205,2552.889,0,31.640625,4,10,-9999,1561827206.139173,-17.57730865478516,-2.990272521972656,25.00311279296875,96.34525299072266,103.8384475708008,15,157143.479842375,-0.9333038330078125,0.3302764892578125,-0.085296630859375,157143.470718375,0.02679992268168539,0.01618536152495657,0.008189220351993657,157143.459396375,-96.19679260253906,-31.56575012207031,-538.324951171875,157143.470718375,0.2068369388494138,-1.460540679765031,-0.343953395432288,0.02436722069978714,0.01009172573685646,0.005192849319428205,0.0006386637687683105,-0.005058228969573975,0.02086979150772095,1,-0.05896113067865372,-0.6668806076049805,0.18932044506073,0.7182977199554443,-0.9357125163078308,0.337211549282074,-0.1035876795649529,0,0,0,-1,157143.315230375,3,2,1561827206.015286,1561827055.717469,23,1.28499,0,0,23.0045,0,0,1561827203.101918,157140.810899,0,0.7109375,75.36959,0,182478453,3,1,0.19,-19.76546,-21.80969,2
1561827206.171258,16,0,0,1561827205.998141,4.634628561329688,-74.15107335902205,2552.889,0,31.640625,4,10,-9999,1561827206.165546,-17.55889129638672,-2.963842391967773,25.093505859375,96.31118011474609,103.8043746948242,15,157143.500106375,-0.9346466064453125,0.33135986328125,-0.0860748291015625,157143.490981375,0.03310122813692187,-0.0123650569412379,0.0209220598397715,157143.479507375,-96.08718872070312,-31.46035766601562,-538.4635009765625,157143.490981375,0.2073279730023093,-1.460558833273445,-0.3441402111534996,0.03066852502524853,-0.01845869235694408,0.01792568899691105,0.002210557460784912,-0.005142569541931152,0.01782459020614624,1,-0.05886496976017952,-0.6668980717658997,0.1895571649074554,0.7182269096374512,-0.9356517195701599,0.3373874127864838,-0.1035637557506561,0,0,0,-1,157143.315230375,3,2,1561827206.015286,1561827055.717469,23,1.28499,0,0,23.0045,0,0,1561827203.101918,157140.810899,0,0.7109375,75.36959,0,182478453,3,1,0.19,-19.76546,-21.96358,2
1561827206.191458,17,0,0,1561827205.998141,4.634628561329688,-74.15107335902205,2552.889,0,31.640625,4,10,-9999,1561827206.190273,-17.37960815429688,-3.168735504150391,25.17919921875,96.22640228271484,103.719596862793,15,157143.520370375,-0.9391326904296875,0.331573486328125,-0.0882720947265625,157143.511245375,0.06321811795630096,0.0006463491965622311,0.008109591835400288,157143.499648375,-96.1153564453125,-31.74343872070312,-538.0033569335938,157143.511245375,0.2084013492235482,-1.460495024584819,-0.3442584145324992,0.06078541651368141,-0.005447286646813154,0.005113221239298582,-0.0007042884826660156,-0.007435828447341919,0.01568269729614258,1,-0.05855695903301239,-0.6669044494628906,0.1899785697460175,0.718134880065918,-0.9356055855751038,0.3374986946582794,-0.1036190763115883,0,0,0,-1,157143.315230375,3,2,1561827206.015286,1561827055.717469,23,1.28499,0,0,23.0045,0,0,1561827203.101918,157140.810899,0,0.7109375,75.36959,0,182478453,3,1,0.19,-19.76546,-22.52237,2
1561827206.218712,18,0,0,1561827205.998141,4.634628561329688,-74.15107335902205,2552.889,0,31.640625,4,10,-9999,1561827206.216367,-17.37075805664062,-2.864248275756836,25.15020751953125,96.12131500244141,103.6145095825195,15,157143.540633375,-0.9347076416015625,0.3295440673828125,-0.085418701171875,157143.531509375,0.07406570570841171,-0.01071176653651671,-0.007662979720594,157143.519759375,-96.16519165039062,-31.42738342285156,-538.2865600585938,157143.531509375,0.2098068459199007,-1.460198567301798,-0.3440049563184457,0.07161504775285721,-0.01682903990149498,-0.01065584551542997,-0.00266420841217041,-0.00632748007774353,0.01677817106246948,1,-0.05802247300744057,-0.6668436527252197,0.1903934627771378,0.7181248068809509,-0.9356597661972046,0.3372600972652435,-0.1039058715105057,0,0,0,-1,157143.315230375,3,2,1561827206.015286,1561827055.717469,23,1.28499,0,0,23.0045,0,0,1561827203.101918,157140.810899,0,0.7109375,75.36959,0,182478453,3,1,0.19,-19.76546,-19.85485,2
1561827206.232182,19,0,0,1561827205.998141,4.634628561329688,-74.15107335902205,2552.889,0,31.640625,4,10,-9999,1561827206.216367,-17.37075805664062,-2.864248275756836,25.15020751953125,96.12131500244141,103.6145095825195,15,157143.560897375,-0.934417724609375,0.3322601318359375,-0.0921630859375,157143.551772375,0.06481574829423949,-0.01065184541198993,0.007917311604696567,157143.539870375,-96.162109375,-31.32902526855469,-538.2509155273438,157143.551772375,0.2113388344371301,-1.460114948886088,-0.3437062720635045,0.0623650848865509,-0.01676911860704422,0.00492444634437561,0.004141032695770264,-0.006229370832443237,0.01808822154998779,1,-0.05740881711244583,-0.6668632626533508,0.1908455044031143,0.7180359363555908,-0.9357511401176453,0.3369789123535156,-0.1039952337741852,0,0,0,-1,157143.315230375,3,2,1561827206.015286,1561827055.717469,23,1.28499,0,0,23.0045,0,0,1561827203.101918,157140.810899,0,0.7109375,75.36959,0,182478453,3,1,0.19,-19.76546,-20.53845,2
1561827206.252883,20,0,0,1561827205.998141,4.634628561329688,-74.15107335902205,2552.889,0,31.640625,4,10,-9999,1561827206.240482,-17.57962036132812,-2.895162582397461,25.1341552734375,96.03616333007812,103.5293579101562,15,157143.581161375,-0.92694091796875,0.3330078125,-0.0938873291015625,157143.572036375,0.04019642191311098,0.04144544446435815,0.01409105164371826,157143.559981375,-96.15493774414062,-31.26614379882812,-538.22607421875,157143.572036375,0.2124116313559818,-1.459673093562627,-0.343825987515505,0.03774576634168625,0.03532817214727402,0.01109818555414677,0.003352940082550049,-0.004205882549285889,0.008868932723999023,1,-0.05713777989149094,-0.6667332053184509,0.1912563145160675,0.7180690169334412,-0.9356650114059448,0.3370916247367859,-0.1044042110443115,0,0,0,-1,157143.315230375,3,2,1561827206.015286,1561827055.717469,23,1.28499,0,0,23.0045,0,0,1561827203.101918,157140.810899,0,0.7109375,75.36959,0,182478453,3,1,0.19,-19.76546,-20.53845,2
1561827206.272633,21,0,0,1561827205.998141,4.634628561329688,-74.15107335902205,2552.889,0,31.640625,4,10,-9999,1561827206.267527,-17.5062255859375,-2.985073089599609,25.0721435546875,95.99571228027344,103.4889068603516,15,157143.601424375,-0.9190826416015625,0.3438568115234375,-0.08404541015625,157143.592300375,0.02386831495372617,0.06611909933172427,0.002250637437225964,157143.580093375,-95.92530822753906,-31.4681396484375,-538.1990966796875,157143.592300375,0.2130434308899281,-1.458428574800208,-0.3438266474393523,0.0214176569133997,0.06000182405114174,-0.00074222800321877,0.01397961378097534,5.069375038146973e-05,0.01508396863937378,1,-0.0570465475320816,-0.6663042902946472,0.1914478838443756,0.7184233069419861,-0.9355341792106628,0.3370922207832336,-0.105568565428257,0,0,0,-1,157143.315230375,3,2,1561827206.015286,1561827055.717469,23,1.28499,0,0,23.0045,0,0,1561827203.101918,157140.810899,0,0.7109375,75.36959,0,182478453,3,1,0.19,-19.76546,-20.2476,2
1561827206.301923,22,0,0,1561827205.998141,4.634628561329688,-74.15107335902205,2552.889,0,31.640625,4,10,-9999,1561827206.291266,-17.54360961914062,-2.881948471069336,25.170654296875,95.95070648193359,103.4439010620117,15,157143.6216775,-0.92108154296875,0.3468780517578125,-0.082061767578125,157143.612563375,0.03864220110094074,0.002613626293803764,0.01701573515284328,157143.600204375,-96.41122436523438,-31.24179077148438,-538.4281616210938,157143.612563375,0.213610693868783,-1.457618774596969,-0.3438612191618839,0.03619154542684555,-0.003503646934404969,0.01402286905795336,0.01582014560699463,0.01039412617683411,0.02572786808013916,1,-0.05694799870252609,-0.6660289168357849,0.1916396468877792,0.7186353206634521,-0.9354368448257446,0.337124764919281,-0.106324814260006,0,0,0,-1,157143.315230375,3,2,1561827206.015286,1561827055.717469,23,1.28499,0,0,23.0045,0,0,1561827203.101918,157140.810899,0,0.7109375,75.36959,0,182478453,3,1,0.19,-19.62885,-19.62885,2
1561827206.31339,23,0,0,1561827205.998141,4.634628561329688,-74.15107335902205,2552.889,0,31.640625,4,10,-9999,1561827206.291266,-17.54360961914062,-2.881948471069336,25.170654296875,95.95070648193359,103.4439010620117,15,157143.6419415,-0.93084716796875,0.3353118896484375,-0.086639404296875,157143.6328165,0.04635897667555434,-0.05746915211114691,0.02014175364037829,157143.6203345,-96.46385192871094,-31.41781616210938,-538.2164306640625,157143.6328165,0.2145085367122327,-1.458145629167274,-0.3441159274888839,0.04390832036733627,-0.06358642876148224,0.01714888960123062,0.01020586490631104,0.00476798415184021,0.02260088920593262,1,-0.05669301748275757,-0.6662392616271973,0.1920585334300995,0.7183485627174377,-0.935407280921936,0.3373645544052124,-0.1058222949504852,0,0,0,-1,157143.315230375,3,2,1561827206.015286,1561827055.717469,23,1.28499,0,0,23.0045,0,0,1561827203.101918,157140.810899,0,0.7109375,75.36959,0,182478453,3,1,0.19,-19.62885,-19.62885,2
1561827206.333358,24,0,0,1561827205.998141,4.634628561329688,-74.15107335902205,2552.889,0,31.640625,4,10,-9999,1561827206.317651,-17.63082885742188,-3.010713577270508,25.11773681640625,95.88983154296875,103.3830261230469,15,157143.6622045,-0.9343719482421875,0.327789306640625,-0.0976715087890625,157143.6530805,0.02559803808173263,-0.02650830654232171,-0.005275988435555979,157143.6404455,-96.08819580078125,-31.11099243164062,-538.1920776367188,157143.6530805,0.215259849966529,-1.459082403624445,-0.3441350917150549,0.02314737997949123,-0.03262557834386826,-0.008268853649497032,0.0001969337463378906,-0.006953537464141846,0.01168358325958252,1,-0.05635977163910866,-0.666596531867981,0.1923608928918839,0.7179624438285828,-0.9354997277259827,0.3373826146125793,-0.1049452796578407,0,0,0,-1,157143.315230375,3,2,1561827206.015286,1561827055.717469,23,1.28499,0,0,23.0045,0,0,1561827203.101918,157140.810899,0,0.7109375,75.36959,0,182478453,3,1,0.19,-19.44874,-20.41431,2
1561827206.353723,25,0,0,1561827205.998141,4.634628561329688,-74.15107335902205,2552.889,0,31.640625,4,10,-9999,1561827206.341842,-17.5675048828125,-2.625499725341797,25.07080078125,95.87100982666016,103.3642044067383,15,157143.6824685,-0.92034912109375,0.33197021484375,-0.096343994140625,157143.6733435,0.001155279280876374,0.03274676139583233,-0.006920224092570901,157143.6605565,-96.21952819824219,-30.97918701171875,-538.3269653320312,157143.6733435,0.2154594147773753,-1.459036788734353,-0.3438465052923214,-0.001295378780923784,0.026629488915205,-0.00991308968514204,0.008055567741394043,-0.007460057735443115,0.006396472454071045,1,-0.05619050189852715,-0.6665907502174377,0.1923390328884125,0.7179868817329407,-0.9355915784835815,0.3371109366416931,-0.1049987971782684,0,0,0,-1,157143.315230375,3,2,1561827206.015286,1561827055.717469,23,1.28499,0,0,23.0045,0,0,1561827203.101918,157140.810899,0,0.7109375,75.36959,0,182478453,3,1,0.19,-18.78918,-20.67888,2
1561827206.384482,26,0,0,1561827205.998141,4.634628561329688,-74.15107335902205,2552.889,0,31.640625,4,10,-9999,1561827206.368346,-17.59203338623047,-2.836091995239258,25.1561279296875,95.87123870849609,103.3644332885742,15,157143.7027015,-0.91748046875,0.337158203125,-0.0904693603515625,157143.6936075,0.01034877767993891,0.0315525999630408,0.01618136678332145,157143.6806675,-96.38015747070312,-31.20932006835938,-538.3302001953125,157143.6936075,0.2154429937013999,-1.458448307649415,-0.3439417619186834,0.007898119278252125,0.02543532475829124,0.01318850088864565,0.01902425289154053,-0.002834737300872803,0.01281803846359253,1,-0.05628793314099312,-0.6663773655891418,0.1923470348119736,0.7181751132011414,-0.9354976415634155,0.3372006118297577,-0.1055457517504692,0,0,0,-1,157143.315230375,3,2,1561827206.015286,1561827055.717469,23,1.28499,0,0,23.0045,0,0,1561827203.101918,157140.810899,0,0.7109375,75.36959,0,182478453,3,1,0.19,-18.78918,-21.23135,2
1561827206.395625,27,0,0,1561827205.998141,4.634628561329688,-74.15107335902205,2552.889,0,31.640625,4,10,-9999,1561827206.368346,-17.59203338623047,-2.836091995239258,25.1561279296875,95.87123870849609,103.3644332885742,15,157143.7229655,-0.920074462890625,0.3292388916015625,-0.09185791015625,157143.7138405,0.05033161407362554,-0.01574833679007457,0.009303220635973802,157143.7007795,-96.43702697753906,-31.09756469726562,-538.2291259765625,157143.7138405,0.2160610216964691,-1.45822756220023,-0.344149275472208,0.04788095504045486,-0.0218656100332737,0.006310354918241501,0.01589488983154297,-0.003731995820999146,0.01474100351333618,1,-0.05618033185601234,-0.6663119196891785,0.1926290392875671,0.7181686758995056,-0.9354047775268555,0.337395966053009,-0.1057443916797638,0,0,0,-1,157143.315230375,3,2,1561827206.015286,1561827055.717469,23,1.28499,0,0,23.0045,0,0,1561827203.101918,157140.810899,0,0.7109375,75.36959,0,182478453,3,1,0.19,-18.78918,-18.78918,2
1561827206.414549,28,0,0,1561827205.998141,4.634628561329688,-74.15107335902205,2552.889,0,31.640625,4,10,-9999,1561827206.392523,-17.70276641845703,-2.818376541137695,25.23284912109375,95.81548309326172,103.3086776733398,15,157143.7432295,-0.9303436279296875,0.334625244140625,-0.0922698974609375,157143.7341045,0.04681704038304797,-0.0218967767987405,0.007645935489617493,157143.7209205,-96.00086975097656,-30.98077392578125,-537.9676513671875,157143.7341045,0.2171337891206364,-1.458516063549565,-0.3441093419970774,0.04436638206243515,-0.02801404893398285,0.004653070122003555,0.01262754201889038,-0.006471514701843262,0.01366394758224487,1,-0.05578025057911873,-0.6664462089538574,0.1930095255374908,0.7179730534553528,-0.9354485869407654,0.3373583555221558,-0.1054760292172432,0,0,0,-1,157143.315230375,3,2,1561827206.015286,1561827055.717469,23,1.28499,0,0,23.0045,0,0,1561827203.101918,157140.810899,0,0.7109375,75.36959,0,182478453,3,1,0.19,-18.78918,-18.78918,2
1561827206.434627,29,0,0,1561827205.998141,4.634628561329688,-74.15107335902205,2552.889,0,31.640625,4,10,-9999,1561827206.419158,-17.50965118408203,-2.722318649291992,25.24658203125,95.75052642822266,103.2437210083008,15,157143.7634925,-0.9333648681640625,0.336669921875,-0.0939788818359375,157143.7543675,0.009109875140834051,0.004478638005186255,0.007525294292236903,157143.7410315,-96.11573791503906,-31.10513305664062,-538.4702758789062,157143.7543675,0.2177854751097884,-1.458578783128751,-0.3441449078582275,0.006659217178821564,-0.001638635061681271,0.004532428458333015,0.004046797752380371,-0.001683235168457031,0.01325291395187378,1,-0.05557024106383324,-0.6664862632751465,0.1932565569877625,0.7178857326507568,-0.9354433417320251,0.3373918533325195,-0.105416014790535,0,0,0,-1,157143.315230375,3,2,1561827206.015286,1561827055.717469,23,1.28499,0,0,23.0045,0,0,1561827203.101918,157140.810899,0,0.7109375,75.36959,0,182478453,3,1,0.19,-18.78918,-19.55648,2
1561827206.468845,30,0,0,1561827205.998141,4.634628561329688,-74.15107335902205,2552.889,0,31.640625,4,10,-9999,1561827206.454378,-17.57646942138672,-2.860145568847656,25.15411376953125,95.76579284667969,103.2589874267578,15,157143.7837565,-0.9287109375,0.3349761962890625,-0.097930908203125,157143.7746315,-0.04207608101048891,0.03219708494683998,0.01043426515093046,157143.7611425,-95.9132080078125,-31.26576232910156,-538.2293701171875,157143.7746315,0.217366259608935,-1.458502836701322,-0.3442999499496307,-0.04452674090862274,0.02607981115579605,0.007441399618983269,0.003086686134338379,-0.001829177141189575,0.009579718112945557,1,-0.05577485263347626,-0.666444718837738,0.1931534707546234,0.7179362177848816,-0.9353833794593811,0.3375377953052521,-0.1054812073707581,0,0,0,-1,157143.315230375,3,2,1561827206.015286,1561827055.717469,23,1.28499,0,0,23.0045,0,0,1561827203.101918,157140.810899,0,0.7109375,75.36959,0,182478453,3,1,0.19,-18.78918,-20.27518,2
1561827206.475332,31,0,0,1561827205.998141,4.634628561329688,-74.15107335902205,2552.889,0,31.640625,4,10,-9999,1561827206.454378,-17.57646942138672,-2.860145568847656,25.15411376953125,95.76579284667969,103.2589874267578,15,157143.8040205,-0.92889404296875,0.3318939208984375,-0.1033782958984375,157143.7948955,-0.06291957759810307,0.04134078223351803,0.02971288828201406,157143.7812845,-95.97607421875,-31.27252197265625,-538.3721313476562,157143.7948955,0.2161229160778478,-1.458282955428197,-0.3447712409614685,-0.06537023931741714,0.03522351011633873,0.02672002278268337,0.00757443904876709,-0.00523298978805542,0.005510330200195312,1,-0.05638536065816879,-0.6663228869438171,0.1928514540195465,0.7180827856063843,-0.9352020025253296,0.3379814028739929,-0.1056689992547035,0,0,0,-1,157143.315230375,3,2,1561827206.015286,1561827055.717469,23,1.28499,0,0,23.0045,0,0,1561827203.101918,157140.810899,0,0.7109375,75.36959,0,182478453,3,1,0.19,-18.78918,-20.27518,2
1561827206.495376,32,0,0,1561827205.998141,4.634628561329688,-74.15107335902205,2552.889,0,31.640625,4,10,-9999,1561827206.454378,-17.57646942138672,-2.860145568847656,25.15411376953125,95.76579284667969,103.2589874267578,15,157143.8242835,-0.9427337646484375,0.32904052734375,-0.1059112548828125,157143.8151585,-0.02645530963662914,0.04282149979960208,0.03415317676750317,157143.8013955,-96.15443420410156,-30.9959716796875,-538.2476196289062,157143.8151585,0.2151035942028522,-1.457952395445598,-0.3455367264696476,-0.02890596725046635,0.03670422732830048,0.03116031363606453,-0.0002862215042114258,-0.006929874420166016,0.002128124237060547,1,-0.05704107135534286,-0.6661620140075684,0.1927205175161362,0.7182154059410095,-0.9349097013473511,0.3387017250061035,-0.1059489771723747,0,0,0,-1,157143.315230375,3,2,1561827206.015286,1561827055.717469,23,1.28499,0,0,23.0045,0,0,1561827203.101918,157140.810899,0,0.7109375,75.36959,0,182478453,3,1,0.19,-18.78918,-20.41678,2
1561827206.515659,33,0,0,1561827205.998141,4.634628561329688,-74.15107335902205,2552.889,0,31.640625,4,10,-9999,1561827206.497445,-17.48078155517578,-2.704233169555664,25.025634765625,95.91146850585938,103.4046630859375,15,157143.8445475,-0.944488525390625,0.3224334716796875,-0.109222412109375,157143.8354225,0.01401461892043298,0.03636306784005092,0.0006809702907332612,157143.8215065,-96.14605712890625,-31.11940002441406,-538.4290771484375,157143.8354225,0.2149870710680376,-1.457346257657376,-0.3458696451924256,0.01156396046280861,0.03024579584598541,-0.00231189513579011,-0.01015204191207886,-0.01375859975814819,-0.002338111400604248,1,-0.05726195126771927,-0.6659351587295532,0.1927676349878311,0.7183955311775208,-0.9347332119941711,0.3390149474143982,-0.1065028682351112,0,0,0,-1,157143.315230375,3,2,1561827206.015286,1561827055.717469,23,1.28499,0,0,23.0045,0,0,1561827203.101918,157140.810899,0,0.7109375,75.36959,0,182478453,3,1,0.19,-18.78918,-20.87145,2
1561827206.536298,34,0,0,1561827205.998141,4.634628561329688,-74.15107335902205,2552.889,0,31.640625,4,10,-9999,1561827206.520329,-17.51609039306641,-2.667593002319336,24.918701171875,95.90243530273438,103.3956298828125,15,157143.8648115,-0.9498291015625,0.3254852294921875,-0.1083221435546875,157143.8556865,0.01473686820806247,0.04810680929897335,-0.004537760181386014,157143.8416175,-96.19230651855469,-31.20936584472656,-538.240966796875,157143.8556865,0.2152471395609437,-1.456655774280318,-0.345634433481821,0.01228621043264866,0.0419895350933075,-0.007530625909566879,-0.0118403434753418,-0.01576507091522217,-0.001439452171325684,1,-0.05715453252196312,-0.6656986474990845,0.1927662491798401,0.7186236381530762,-0.9347386360168457,0.3387936651706696,-0.1071573421359062,0,0,0,-1,157143.315230375,3,2,1561827206.015286,1561827055.717469,23,1.28499,0,0,23.0045,0,0,1561827203.101918,157140.810899,0,0.7109375,75.36959,0,182478453,3,1,0.19,-18.78918,-21.06621,2
1561827206.55623,35,0,0,1561827205.998141,4.634628561329688,-74.15107335902205,2552.889,0,31.640625,4,10,-9999,1561827206.544559,-17.54074096679688,-2.660835266113281,25.07366943359375,95.89336395263672,103.3865585327148,15,157143.8850745,-0.951324462890625,0.3240203857421875,-0.108551025390625,157143.8759495,0.008485630181319476,0.07107737264923379,0.0120052638779682,157143.8617595,-96.22674560546875,-31.16128540039062,-538.501708984375,157143.8759495,0.2154111256107006,-1.455514496461872,-0.3456620273667876,0.00603497214615345,0.06496009230613708,0.009012398310005665,-0.01542103290557861,-0.01148808002471924,-0.0002364516258239746,1,-0.05722023174166679,-0.6652926802635193,0.1928013563156128,0.718984842300415,-0.9346064329147339,0.3388196229934692,-0.1082229912281036,0,0,0,-1,157143.315230375,3,2,1561827206.015286,1561827055.717469,23,1.28499,0,0,23.0045,0,0,1561827203.101918,157140.810899,0,0.7109375,75.36959,0,182478453,3,1,0.19,-18.78918,-21.06621,2
1561827206.577085,36,0,0,1561827205.998141,4.634628561329688,-74.15107335902205,2552.889,0,31.640625,4,10,-9999,1561827206.570877,-17.71712493896484,-2.706998825073242,24.9920654296875,95.89073181152344,103.3839263916016,15,157143.9053385,-0.963226318359375,0.3181304931640625,-0.11090087890625,157143.8962135,0.001304948934138827,0.07939495736576928,0.006519418348513975,157143.8818705,-96.49130249023438,-31.04112243652344,-538.43115234375,157143.8962135,0.2154975378968016,-1.454070853144214,-0.3458440893491828,-0.00114570907317102,0.07327768206596375,0.003526552813127637,-0.01898133754730225,-0.01696941256523132,0.0006476640701293945,1,-0.05739838629961014,-0.6647728681564331,0.1928490996360779,0.7194384336471558,-0.9343878626823425,0.3389908969402313,-0.1095649152994156,0,0,0,-1,157143.315230375,3,2,1561827206.015286,1561827055.717469,23,1.28499,0,0,23.0045,0,0,1561827203.101918,157140.810899,0,0.7109375,75.36959,0,182478453,3,1,0.19,-18.78918,-21.20125,2
1561827206.597404,37,0,0,1561827205.998141,4.634628561329688,-74.15107335902205,2552.889,0,31.640625,4,10,-9999,1561827206.595369,-17.45574951171875,-2.801921844482422,24.86279296875,95.91896057128906,103.4121551513672,15,157143.9256025,-0.9944000244140625,0.3116912841796875,-0.11297607421875,157143.9164775,-0.01531397521628264,0.1100617899502497,-0.02081020707398817,157143.9019815,-96.1580810546875,-31.05137634277344,-538.3035888671875,157143.9164775,0.2152726754932789,-1.452513949329426,-0.345622316745131,-0.01776463352143764,0.1039445102214813,-0.02380307205021381,-0.04425537586212158,-0.02576345205307007,-0.002680063247680664,1,-0.05754061415791512,-0.6642099618911743,0.1926528215408325,0.719999372959137,-0.9342907667160034,0.3387822508811951,-0.1110284104943275,0,0,0,-1,157143.315230375,3,2,1561827206.015286,1561827055.717469,23,1.28499,0,0,23.0045,0,0,1561827203.101918,157140.810899,0,0.7109375,75.36959,0,182478453,3,1,0.19,-18.78918,-21.78002,2
1561827206.621225,38,0,0,1561827205.998141,4.634628561329688,-74.15107335902205,2552.889,0,31.640625,4,10,-9999,1561827206.595369,-17.45574951171875,-2.801921844482422,24.86279296875,95.91896057128906,103.4121551513672,15,157143.9458355,-1.021896362304688,0.306304931640625,-0.117950439453125,157143.9367105,-0.06157468124761306,0.2322833071216922,-0.02062059000437453,157143.9220925,-96.29621887207031,-31.30165100097656,-538.64013671875,157143.9367105,0.214391642213449,-1.449595291638695,-0.3451493029367495,-0.06402534246444702,0.2261660397052765,-0.0236134547740221,-0.07356870174407959,-0.02708840370178223,-0.00165855884552002,1,-0.05793751776218414,-0.663141131401062,0.1921007037162781,0.7210994362831116,-0.9341217279434204,0.3383371829986572,-0.1137741655111313,0,0,0,-1,157143.315230375,3,2,1561827206.015286,1561827055.717469,23,1.28499,0,0,23.0045,0,0,1561827203.101918,157140.810899,0,0.7109375,75.36959,0,182478453,3,1,0.19,-18.78918,-21.80422,2
1561827206.63718,39,0,0,1561827205.998141,4.634628561329688,-74.15107335902205,2552.889,0,31.640625,4,10,-9999,1561827206.621542,-17.73065185546875,-2.798051834106445,24.8031005859375,96.02584838867188,103.51904296875,15,157143.9660985,-1.05230712890625,0.2976837158203125,-0.13275146484375,157143.9569745,-0.1269062838450009,0.3679929362660591,0.005048288162354204,157143.9422345,-96.62049865722656,-31.23149108886719,-538.6666870117188,157143.9569745,0.2123226222480676,-1.444242905260034,-0.345221816864255,-0.1293569356203079,0.3618756532669067,0.002055422635748982,-0.1027645468711853,-0.03815823793411255,-0.003117978572845459,1,-0.05916249752044678,-0.661146879196167,0.1912200152873993,0.7230626344680786,-0.9334750771522522,0.3384054005146027,-0.1187692061066628,0,0,0,-1,157143.315230375,3,2,1561827206.015286,1561827055.717469,23,1.28499,0,0,23.0045,0,0,1561827203.101918,157140.810899,0,0.7109375,75.36959,0,182478453,3,1,0.19,-18.78918,-22.48129,2
1561827206.657462,40,0,0,1561827205.998141,4.634628561329688,-74.15107335902205,2552.889,0,31.640625,4,10,-9999,1561827206.646023,-18.1552734375,-3.068923950195312,24.55926513671875,96.25413513183594,103.7473297119141,15,157143.9863625,-1.104171752929688,0.29486083984375,-0.150482177734375,157143.9772375,-0.189156342745058,0.485153648418024,-0.005673332070195801,157143.9623455,-96.74638366699219,-31.40608215332031,-538.6734619140625,157143.9772375,0.2088716379698388,-1.436915629369492,-0.3456176945648774,-0.1916069984436035,0.4790363609790802,-0.008666197769343853,-0.1438776254653931,-0.04521405696868896,-0.01505237817764282,1,-0.06114711612462997,-0.6583821773529053,0.1898748874664307,0.7257695198059082,-0.9324468374252319,0.3387778997421265,-0.1255878806114197,0,0,0,-1,157143.315230375,3,2,1561827206.015286,1561827055.717469,23,1.28499,0,0,23.0045,0,0,1561827203.101918,157140.810899,0,0.7109375,75.36959,0,182478453,3,1,0.19,-18.78918,-22.50195,2
1561827206.677958,41,0,0,1561827205.998141,4.634628561329688,-74.15107335902205,2552.889,0,31.640625,4,10,-9999,1561827206.67228,-18.26943206787109,-2.914993286132812,24.31121826171875,96.55989074707031,104.0530853271484,15,157144.0066265,-1.19903564453125,0.3076019287109375,-0.183135986328125,157143.9975015,-0.1804272996401053,0.5088579126486013,-0.06982222482747945,157143.9824565,-96.9891357421875,-31.34547424316406,-538.883544921875,157143.9975015,0.2045667739407178,-1.428106055663077,-0.3454313054727959,-0.1828779578208923,0.5027406215667725,-0.07281509041786194,-0.2185049653053284,-0.03554773330688477,-0.02894389629364014,1,-0.06332287937402725,-0.6550473570823669,0.187976285815239,0.7290871739387512,-0.9313668608665466,0.3386025428771973,-0.1338063478469849,0,0,0,-1,157143.315230375,3,2,1561827206.015286,1561827055.717469,23,1.28499,0,0,23.0045,0,0,1561827203.101918,157140.810899,0,0.7109375,75.36959,0,182478453,3,1,0.19,-18.78918,-23.41245,2
1561827206.709531,42,0,0,1561827205.998141,4.634628561329688,-74.15107335902205,2552.889,0,31.640625,4,10,-9999,1561827206.696771,-18.53522491455078,-3.033231735229492,24.20513916015625,96.71807861328125,104.2112731933594,15,157144.0268895,-1.305694580078125,0.31036376953125,-0.2006988525390625,157144.0177655,-0.02576901302371572,0.4448688095567224,-0.2536019116477765,157144.0025675,-97.359130859375,-31.30392456054688,-539.0880126953125,157144.0177655,0.2016416160697045,-1.419698352063306,-0.3426940232822019,-0.02821967005729675,0.4387515187263489,-0.2565947771072388,-0.31787109375,-0.02618071436882019,-0.05259525775909424,1,-0.0640331357717514,-0.65193110704422,0.1857813894748688,0.7323735356330872,-0.931121826171875,0.3360256850719452,-0.1417711824178696,0,0,0,-1,157143.315230375,3,2,1561827206.015286,1561827055.717469,23,1.28499,0,0,23.0045,0,0,1561827203.101918,157140.810899,0,0.7109375,75.36959,0,182478453,3,1,0.19,-18.78918,-23.81853,2
1561827206.718375,43,0,0,1561827205.998141,4.634628561329688,-74.15107335902205,2552.889,0,31.640625,4,10,-9999,1561827206.696771,-18.53522491455078,-3.033231735229492,24.20513916015625,96.71807861328125,104.2112731933594,15,157144.0471535,-1.40655517578125,0.3450775146484375,-0.27166748046875,157144.0380285,0.1335415497009333,0.4440874380928931,-0.4857406091222775,157144.0227085,-97.43083190917969,-31.25570678710938,-539.2742919921875,157144.0380285,0.201364009603567,-1.410673047273004,-0.3350211551757781,0.1310908943414688,0.4379701614379883,-0.4887334704399109,-0.4174549579620361,-0.00452461838722229,-0.07653617858886719,1,-0.062054093927145,-0.6487383842468262,0.1829988956451416,0.7360701560974121,-0.9323222637176514,0.3287891447544098,-0.1505755931138992,0,0,0,-1,157143.315230375,3,2,1561827206.015286,1561827055.717469,23,1.28499,0,0,23.0045,0,0,1561827203.101918,157140.810899,0,0.7109375,75.36959,0,182478453,3,1,0.19,-18.78918,-23.81853,2
1561827206.738538,44,0,0,1561827205.998141,4.634628561329688,-74.15107335902205,2552.889,0,31.640625,4,10,-9999,1561827206.723255,-18.73467254638672,-3.097232818603516,24.236083984375,96.58309173583984,104.076286315918,15,157144.0674175,-1.496246337890625,0.3766021728515625,-0.31854248046875,157144.0582925,0.6326845170090345,0.1601617090090384,-0.5904960506005443,157144.0428205,-97.61087036132812,-31.32461547851562,-539.146240234375,157144.0582925,0.2067794661864738,-1.402522363106412,-0.3230052149005268,0.6302338838577271,0.154044434428215,-0.5934889316558838,-0.5318899154663086,0.03803569078445435,-0.1485379338264465,1,-0.05648104846477509,-0.6460649967193604,0.181018128991127,0.7393527626991272,-0.9348917007446289,0.3174178004264832,-0.1588198244571686,0,0,0,-1,157143.315230375,3,2,1561827206.015286,1561827055.717469,23,1.28499,0,0,23.0045,0,0,1561827203.101918,157140.810899,0,0.7109375,75.36959,0,182478453,3,1,0.19,-18.78918,-24.12792,2
1561827206.761582,45,0,0,1561827205.998141,4.634628561329688,-74.15107335902205,2552.889,0,31.640625,4,10,-9999,1561827206.747163,-18.88695526123047,-3.086368560791016,23.9847412109375,95.51530456542969,103.0084991455078,15,157144.0876805,-1.551223754882812,0.398162841796875,-0.3247833251953125,157144.0785565,1.321973724039376,-0.4009660663545481,-0.8562419768190821,157144.0629315,-97.42181396484375,-31.59100341796875,-539.339599609375,157144.0785565,0.2248362409173237,-1.39903998059369,-0.3055039868165533,1.319522976875305,-0.4070833623409271,-0.8592348098754883,-0.5757331252098083,0.09329962730407715,-0.1569166779518127,1,-0.04430241510272026,-0.6453973650932312,0.1821853667497635,0.7404782772064209,-0.9396629333496094,0.3007738590240479,-0.1629990786314011,0,0,0,-1,157143.315230375,3,2,1561827206.015286,1561827055.717469,23,1.28499,0,0,23.0045,0,0,1561827203.101918,157140.810899,0,0.7109375,75.36959,0,182478453,3,1,0.19,-18.78918,-25.07999,2
1561827206.788684,46,0,0,1561827205.998141,4.634628561329688,-74.15107335902205,2552.889,0,31.640625,4,10,-9999,1561827206.773602,-18.49510192871094,-2.660789489746094,24.37542724609375,93.49129486083984,100.984489440918,15,157144.1079445,-1.641250610351562,0.4284820556640625,-0.3260955810546875,157144.0988195,1.672117622047506,-0.6640174061821438,-1.205814094141172,157144.0830425,-97.62310791015625,-31.23333740234375,-539.26220703125,157144.0988195,0.2532964472328404,-1.40289934600413,-0.2793455562744812,1.669666886329651,-0.6701346635818481,-1.208806991577148,-0.6509742736816406,0.1335598826408386,-0.1630532145500183,1,-0.02478146180510521,-0.6473562717437744,0.184671550989151,0.739061713218689,-0.9477196335792542,0.2757266461849213,-0.1606314778327942,0,0,0,-1,157143.315230375,3,2,1561827206.015286,1561827055.717469,23,1.28499,0,0,23.0045,0,0,1561827203.101918,157140.810899,0,0.7109375,75.36959,0,182478453,3,1,0.19,-18.78918,-27.00384,2
1561827206.799348,47,0,0,1561827205.998141,4.634628561329688,-74.15107335902205,2552.889,0,31.640625,4,10,-9999,1561827206.773602,-18.49510192871094,-2.660789489746094,24.37542724609375,93.49129486083984,100.984489440918,15,157144.1282085,-1.6427001953125,0.4732513427734375,-0.3245086669921875,157144.1190835,1.472656443780496,-0.5066536142143427,-1.296009234991649,157144.1031535,-96.93505859375,-30.75421142578125,-538.7783813476562,157144.1190835,0.2818277569297637,-1.407221046007253,-0.2485286365258218,1.470205783843994,-0.5127708911895752,-1.299002051353455,-0.6951675415039062,0.2077115029096603,-0.168099582195282,1,-0.003406838281080127,-0.6488965153694153,0.1856617033481598,0.7378696203231812,-0.956337034702301,0.2459780722856522,-0.1578434109687805,0,0,0,-1,157143.315230375,3,2,1561827206.015286,1561827055.717469,23,1.28499,0,0,23.0045,0,0,1561827203.101918,157140.810899,0,0.7109375,75.36959,0,182478453,3,1,0.19,-18.78918,-27.00384,2
1561827206.819709,48,0,0,1561827205.998141,4.634628561329688,-74.15107335902205,2552.889,0,31.640625,4,10,-9999,1561827206.798255,-18.24578857421875,-2.317419052124023,24.5283203125,91.55657958984375,99.04977416992188,15,157144.1484715,-1.634368896484375,0.479278564453125,-0.30596923828125,157144.1393475,1.228612617285013,-0.2653730836659268,-1.238066572838686,157144.1232945,-96.60627746582031,-30.43693542480469,-538.6410522460938,157144.1393475,0.3051418767093361,-1.410624595716762,-0.21872230675169,1.226161956787109,-0.2714903652667999,-1.241059422492981,-0.6790198087692261,0.2562687993049622,-0.1688206791877747,1,0.01579820178449154,-0.6495432257652283,0.1849600225687027,0.73731529712677,-0.9636803865432739,0.2169825434684753,-0.1556880325078964,0,0,0,-1,157143.315230375,3,2,1561827206.015286,1561827055.717469,23,1.28499,0,0,23.0045,0,0,1561827203.101918,157140.810899,0,0.7109375,75.36959,0,182478453,3,1,0.19,-18.78918,-27.78607,2
1561827206.841802,49,0,0,1561827205.998141,4.634628561329688,-74.15107335902205,2552.889,0,31.640625,4,10,-9999,1561827206.82415,-17.98136138916016,-2.013322830200195,24.71563720703125,90.05520629882812,97.54840087890625,15,157144.1687055,-1.554595947265625,0.4774322509765625,-0.275726318359375,157144.1596105,1.06134399659099,0.2570392536667418,-1.174752314767033,157144.1434065,-96.41708374023438,-30.37179565429688,-538.6571044921875,157144.1596105,0.3244988062993153,-1.406232647929424,-0.1906703499308683,1.058893322944641,0.2509219646453857,-1.177745223045349,-0.6419529914855957,0.2849243879318237,-0.1307271122932434,1,0.03231533989310265,-0.6469383239746094,0.183408796787262,0.739450991153717,-0.9686121940612793,0.1895171403884888,-0.1608530431985855,0,0,0,-1,157143.315230375,3,2,1561827206.015286,1561827055.717469,23,1.28499,0,0,23.0045,0,0,1561827203.101918,157140.810899,0,0.7109375,75.36959,0,182478453,3,1,0.19,-18.78918,-28.16766,2
1561827206.870116,50,0,0,1561827205.998141,4.634628561329688,-74.15107335902205,2552.889,0,31.640625,4,10,-9999,1561827206.848462,-17.9107666015625,-1.821506500244141,24.596435546875,88.92896270751953,96.42215728759766,15,157144.1889685,-1.406295776367188,0.496673583984375,-0.2884368896484375,157144.1798435,0.7251851564151928,0.3469664805115564,-1.026584684359384,157144.1635175,-96.47579956054688,-30.22640991210938,-538.959228515625,157144.1798435,0.3390148689226496,-1.397577012519983,-0.1653241881447324,0.7227345108985901,0.3408491909503937,-1.029577493667603,-0.5014640092849731,0.3153320550918579,-0.1054015159606934,1,0.04584068059921265,-0.6425701975822449,0.1810709834098816,0.7431120872497559,-0.9716041684150696,0.1645721048116684,-0.1700043529272079,0,0,0,-1,157143.315230375,3,2,1561827206.015286,1561827055.717469,23,1.28499,0,0,23.0045,0,0,1561827203.101918,157141.757299,0,0.7822266,75.3689,0,182478453,3,1,0.19,-18.78918,-28.76712,2
1561827206.880576,51,0,0,1561827205.998141,4.634628561329688,-74.15107335902205,2552.889,0,31.640625,4,10,-9999,1561827206.874816,-18.02555847167969,-1.924386978149414,24.53485107421875,88.50894165039062,96.00213623046875,15,157144.2092325,-1.292617797851562,0.5181732177734375,-0.325836181640625,157144.2001075,0.1947846673928315,0.5316652242240398,-0.6952818521152381,157144.1836585,-96.69601440429688,-30.26165771484375,-538.7373657226562,157144.2001075,0.3452096628171614,-1.388085720463033,-0.1463478016066162,0.1923340111970901,0.5255479216575623,-0.6982747316360474,-0.433452844619751,0.3508476316928864,-0.1086834669113159,1,0.05420421063899994,-0.6381106376647949,0.1777334809303284,0.7471863627433777,-0.9728429317474365,0.1458259522914886,-0.1797534376382828,0,0,0,-1,157143.315230375,3,2,1561827206.015286,1561827055.717469,23,1.28499,0,0,23.0045,0,0,1561827203.101918,157141.757299,0,0.7822266,75.3689,0,182478453,3,1,0.19,-18.78918,-28.76712,2
1561827206.900716,52,0,0,1561827205.998141,4.634628561329688,-74.15107335902205,2552.889,0,31.640625,4,10,-9999,1561827206.899068,-18.35047912597656,-1.882484436035156,24.2933349609375,88.71974945068359,96.21294403076172,15,157144.2294965,-1.119369506835938,0.5232696533203125,-0.2584991455078125,157144.2203715,-0.1204933919400901,0.7893689365827564,-0.3392936470949292,157144.2037695,-97.16351318359375,-29.98109436035156,-538.8992919921875,157144.2203715,0.343432535941082,-1.374435813210605,-0.1360733811855586,-0.1229440495371819,0.7832516431808472,-0.3422865271568298,-0.2568596601486206,0.3842130899429321,-0.0982520580291748,1,0.05636972188949585,-0.6325927972793579,0.1742762476205826,0.7525134682655334,-0.9717170000076294,0.1356538534164429,-0.1932976096868515,0,0,0,-1,157143.315230375,3,2,1561827206.015286,1561827055.717469,23,1.28499,0,0,23.0045,0,0,1561827203.101918,157141.757299,0,0.7822266,75.3689,0,182478453,3,1,0.19,-18.78918,-29.14815,2
1561827206.921974,53,0,0,1561827205.998141,4.634628561329688,-74.15107335902205,2552.889,0,31.640625,4,10,-9999,1561827206.899068,-18.35047912597656,-1.882484436035156,24.2933349609375,88.71974945068359,96.21294403076172,15,157144.2497595,-0.845184326171875,0.46630859375,-0.2371368408203125,157144.2406355,-0.2018487021842667,0.8967542496374765,-0.1840316218594186,157144.2238805,-97.221923828125,-30.66412353515625,-539.2727661132812,157144.2406355,0.3387946516211183,-1.358369420199957,-0.1317211418567897,-0.2042993605136871,0.8906369805335999,-0.1870244890451431,-0.01371872425079346,0.3738016486167908,-0.02443772554397583,1,0.05519554018974304,-0.626458466053009,0.1716409474611282,0.7583156228065491,-0.969054102897644,0.1313405632972717,-0.2090064883232117,0,0,0,-1,157143.315230375,3,2,1561827206.015286,1561827055.717469,23,1.28499,0,0,23.0045,0,0,1561827203.101918,157141.757299,0,0.7822266,75.3689,0,182478453,3,1,0.19,-18.78918,-30.02862,2
1561827206.947466,54,0,0,1561827205.998141,4.634628561329688,-74.15107335902205,2552.889,0,31.640625,4,10,-9999,1561827206.925534,-19.1385498046875,-2.154537200927734,23.62884521484375,89.07572174072266,96.56891632080078,15,157144.2700235,-0.5832061767578125,0.37908935546875,-0.2531280517578125,157144.2608985,-0.237853841173811,1.104084003661235,-0.06975165105859235,157144.2439915,-97.78761291503906,-30.42735290527344,-539.5315551757812,157144.2608985,0.3338351588885185,-1.339049955751431,-0.1302942887647298,-0.2403044998645782,1.09796679019928,-0.07274451851844788,0.2429407238960266,0.30150106549263,-0.02582454681396484,1,0.05255485326051712,-0.6191709041595459,0.1698406338691711,0.7648657560348511,-0.9650171399116516,0.129925936460495,-0.2277307510375977,0,0,0,-1,157143.315230375,3,2,1561827206.015286,1561827055.717469,23,1.28499,0,0,23.0045,0,0,1561827203.101918,157141.757299,0,0.7822266,75.3689,0,182478453,3,1,0.19,-18.78918,-30.2847,2
1561827206.961652,55,0,0,1561827205.998141,4.634628561329688,-74.15107335902205,2552.889,0,31.640625,4,10,-9999,1561827206.949848,-19.71780395507812,-2.210893630981445,23.1417236328125,89.40993499755859,96.90312957763672,15,157144.2902875,-0.2819366455078125,0.27056884765625,-0.1576385498046875,157144.2811625,-0.09869515210168252,0.9802478119208777,-0.01283696908639994,157144.2641035,-98.35574340820312,-30.71968078613281,-540.0394287109375,157144.2811625,0.3295624948301239,-1.317330291222016,-0.1302114343939856,-0.1011458113789558,0.9741305112838745,-0.01582983322441578,0.5256040692329407,0.1902550905942917,0.02769064903259277,1,0.049434844404459,-0.6109314560890198,0.1687280833721161,0.7719129920005798,-0.9598539471626282,0.1298437863588333,-0.2486378997564316,0,0,0,-1,157143.315230375,3,2,1561827206.015286,1561827055.717469,23,1.28499,0,0,23.0045,0,0,1561827203.101918,157141.757299,0,0.7822266,75.3689,0,182478453,3,1,0.19,-18.78918,-30.57684,2
1561827206.981795,56,0,0,1561827205.998141,4.634628561329688,-74.15107335902205,2552.889,0,31.640625,4,10,-9999,1561827206.976122,-19.95761108398438,-2.402517318725586,22.7701416015625,89.15083312988281,96.64402770996094,15,157144.3105505,-0.056640625,0.1399383544921875,-0.0799102783203125,157144.3014265,0.4049144689866996,0.2528556939103363,0.2228157694464605,157144.2842445,-98.72206115722656,-30.77265930175781,-540.5267333984375,157144.3014265,0.3328553566536554,-1.304474974209111,-0.1312038568698398,0.4024638235569,0.2467384189367294,0.2198228985071182,0.8121360540390015,0.06855884194374084,0.159832775592804,1,0.04895556718111038,-0.6059226393699646,0.1706115752458572,0.7754693627357483,-0.9564536809921265,0.1308277398347855,-0.2609222233295441,0,0,0,-1,157143.315230375,3,2,1561827206.015286,1561827055.717469,23,1.28499,0,0,23.0045,0,0,1561827203.101918,157141.757299,0,0.7822266,75.3689,0,182478453,3,1,0.19,-18.78918,-31.21965,2
1561827207.01883,57,0,0,1561827205.998141,4.634628561329688,-74.15107335902205,2552.889,0,31.640625,4,10,-9999,1561827207.007458,-20.21690368652344,-2.033283233642578,22.46978759765625,88.25887298583984,95.75206756591797,15,157144.3308145,-0.0742340087890625,0.016326904296875,-0.0615234375,157144.3216895,0.5327403423561049,-0.09823149575589972,0.4603694723654196,157144.3043555,-99.0623779296875,-30.38847351074219,-540.6159057617188,157144.3216895,0.3452891412994849,-1.30246330531925,-0.1352546404174046,0.5302897095680237,-0.1043487638235092,0.4573765993118286,0.9217929244041443,-0.0521247386932373,0.1921159625053406,1,0.05094762891530991,-0.6050229668617249,0.17667056620121,0.7746863961219788,-0.9554080367088318,0.1348426342010498,-0.2627030909061432,0,0,0,-1,157143.315230375,3,2,1561827206.015286,1561827055.717469,23,1.28499,0,0,23.0045,0,0,1561827203.101918,157141.757299,0,0.7822266,75.3689,0,182478453,3,1,0.19,-18.78918,-31.34592,2
1561827207.022304,58,0,0,1561827205.998141,4.634628561329688,-74.15107335902205,2552.889,0,31.640625,4,10,-9999,1561827207.007458,-20.21690368652344,-2.033283233642578,22.46978759765625,88.25887298583984,95.75206756591797,15,157144.3510785,-0.1045074462890625,-0.0946502685546875,-0.024658203125,157144.3419535,0.09205855466520506,0.2265492549786426,0.4867515450720715,157144.3244665,-98.72630310058594,-29.99296569824219,-540.6490478515625,157144.3419535,0.3542588208093629,-1.300581658442494,-0.1429483643450666,0.08960789442062378,0.2204319834709167,0.4837586581707001,0.8796499967575073,-0.1261351108551025,0.2026922106742859,1,0.05045595392584801,-0.6044389009475708,0.1824430078268051,0.7738361358642578,-0.9538840055465698,0.1424620151519775,-0.2642156183719635,0,0,0,-1,157143.315230375,3,2,1561827206.015286,1561827055.717469,23,1.28499,0,0,23.0045,0,0,1561827203.101918,157141.757299,0,0.7822266,75.3689,0,182478453,3,1,0.19,-18.78918,-31.599,2
1561827207.042453,59,0,0,1561827205.998141,4.634628561329688,-74.15107335902205,2552.889,0,31.640625,4,10,-9999,1561827207.028441,-20.2020263671875,-1.302833557128906,22.55633544921875,87.93014526367188,95.42333984375,15,157144.3713415,-0.122772216796875,-0.1105194091796875,0.021820068359375,157144.3622175,-0.1304024817240569,0.1858686703793552,0.6550095301110598,157144.3445775,-98.88288879394531,-29.78842163085938,-540.8424072265625,157144.3622175,0.3559332021781142,-1.295295916647375,-0.153910991674414,-0.1328531354665756,0.1797513961791992,0.6520166397094727,0.8382583260536194,-0.2600697875022888,0.2675769329071045,1,0.0461440198123455,-0.6028800010681152,0.1864132136106491,0.7743749022483826,-0.9509139657020569,0.1533040553331375,-0.2688128650188446,0,0,0,-1,157143.315230375,3,2,1561827206.015286,1561827055.717469,23,1.28499,0,0,23.0045,0,0,1561827203.101918,157141.757299,0,0.7822266,75.3689,0,182478453,3,1,0.19,-18.78918,-31.599,2
1561827207.063552,60,0,0,1561827206.998129,4.634616323751057,-74.1510327906107,2552.91,0.17,14.4140625,4,10,-9999,1561827207.056083,-20.17901611328125,-1.347362518310547,22.56884765625,87.76785278320312,95.26104736328125,15,157144.3916055,-0.2102813720703125,-0.1439666748046875,0.0538330078125,157144.3824805,0.009872870793141753,0.0074781563409425,0.8327867181504273,157144.3647195,-98.87553405761719,-29.78157043457031,-540.9876708984375,157144.3824805,0.3589404610923692,-1.293546546933548,-0.1692098051355498,0.007422212511301041,0.001360883004963398,0.8297938704490662,0.7961589694023132,-0.2965468168258667,0.3101466298103333,1,0.04083314538002014,-0.6028527617454529,0.1920513212680817,0.773315966129303,-0.9480754733085632,0.1684034913778305,-0.2698023915290833,0,0,0,-1,157143.315230375,3,2,1561827206.015286,1561827055.717469,23,1.28499,0,0,23.0045,0,0,1561827203.101918,157141.757299,0,0.7822266,75.3689,0,182478453,3,1,0.19,-18.78918,-32.48335,2
1561827207.08397,61,0,0,1561827206.998129,4.634616323751057,-74.1510327906107,2552.91,0.17,14.4140625,4,10,-9999,1561827207.081526,-20.44395446777344,-0.8494911193847656,22.49658203125,87.48342895507812,94.97662353515625,15,157144.4118385,-0.3882598876953125,-0.164703369140625,0.0830841064453125,157144.4027135,-0.09388548317299941,-0.03466716685788847,0.7668388600767951,157144.3848305,-99.125732421875,-29.41030883789062,-540.7203369140625,157144.4027135,0.3631151997854474,-1.292836928333428,-0.1849795181184595,-0.09633614122867584,-0.04078444093465805,0.7638459801673889,0.6431187391281128,-0.3346222043037415,0.3309005498886108,1,0.03578054532408714,-0.6032108664512634,0.1982324421405792,0.771725594997406,-0.9452122449874878,0.1839264035224915,-0.2697128057479858,0,0,0,-1,157143.315230375,3,2,1561827206.015286,1561827055.717469,23,1.28499,0,0,23.0045,0,0,1561827203.101918,157141.757299,0,0.7822266,75.3689,0,182478453,3,1,0.19,-18.78918,-33.36542,2
1561827207.107715,62,0,0,1561827206.998129,4.634616323751057,-74.1510327906107,2552.91,0.17,14.4140625,4,10,-9999,1561827207.101676,-20.41127014160156,-0.5766124725341797,22.5462646484375,87.62155914306641,95.11475372314453,15,157144.4321025,-0.523712158203125,-0.13330078125,0.11334228515625,157144.4229775,-0.3362669645160541,-0.4612017102060693,0.6298551746669343,157144.4049415,-99.05880737304688,-29.05043029785156,-540.82080078125,157144.4229775,0.3627463882091403,-1.297547867565003,-0.1998520841059292,-0.3387176096439362,-0.46731898188591,0.6268622875213623,0.487785816192627,-0.3576430082321167,0.370690643787384,1,0.03025671280920506,-0.6056730151176453,0.2023018300533295,0.7689724564552307,-0.9437336921691895,0.1985243558883667,-0.264489471912384,0,0,0,-1,157143.315230375,3,2,1561827206.015286,1561827055.717469,23,1.28499,0,0,23.0045,0,0,1561827203.101918,157141.757299,0,0.7822266,75.3689,0,182478453,3,1,0.19,-18.78918,-34.19394,2
1561827207.123455,63,0,0,1561827206.998129,4.634616323751057,-74.1510327906107,2552.91,0.17,14.4140625,4,10,-9999,1561827207.101676,-20.41127014160156,-0.5766124725341797,22.5462646484375,87.62155914306641,95.11475372314453,15,157144.4523655,-0.725433349609375,-0.077911376953125,0.02801513671875,157144.4432415,-0.6165899692772496,-0.5581141422740528,0.4938201072373599,157144.4250525,-98.90971374511719,-28.82853698730469,-540.6762084960938,157144.4432415,0.3563471300045856,-1.310982884523809,-0.2132833575032864,-0.6190406084060669,-0.5642313957214355,0.4908272325992584,0.4208273887634277,-0.3449707925319672,0.3644214868545532,1,0.02437401749193668,-0.6114460825920105,0.2035555839538574,0.7642673850059509,-0.9445395469665527,0.211669996380806,-0.2510792016983032,0,0,0,-1,157143.315230375,3,2,1561827206.015286,1561827055.717469,23,1.28499,0,0,23.0045,0,0,1561827203.101918,157141.757299,0,0.7822266,75.3689,0,182478453,3,1,0.19,-18.78918,-34.95409,2
1561827207.146655,64,0,0,1561827206.998129,4.634616323751057,-74.1510327906107,2552.91,0.17,14.4140625,4,10,-9999,1561827207.12964,-20.18273162841797,-0.7456245422363281,22.78204345703125,88.34771728515625,95.84091186523438,15,157144.4726295,-0.8816375732421875,0.014068603515625,-0.084259033203125,157144.4635045,-0.9755531915512861,0.3621305197584676,0.3684531305024247,157144.4451945,-98.63461303710938,-28.95521545410156,-540.4708862304688,157144.4635045,0.342562937591771,-1.316964504746197,-0.2255494707685969,-0.9780037999153137,0.3560132384300232,0.3654602468013763,0.12950599193573,-0.2689300179481506,0.2154422998428345,1,0.01593116670846939,-0.6143036484718323,0.20180743932724,0.7626605033874512,-0.943440318107605,0.2236419469118118,-0.2447544485330582,0,0,0,-1,157143.315230375,3,2,1561827206.015286,1561827055.717469,23,1.28499,0,0,23.0045,0,0,1561827203.101918,157141.757299,0,0.7822266,75.3689,0,182478453,3,1,0.19,-18.78918,-35.16058,2
1561827207.179632,65,0,0,1561827206.998129,4.634616323751057,-74.1510327906107,2552.91,0.17,14.4140625,4,10,-9999,1561827207.152191,-20.09175109863281,-1.100799560546875,22.7183837890625,89.66388702392578,97.15708160400391,15,157144.4928935,-0.91546630859375,0.144317626953125,-0.1271820068359375,157144.4837685,-1.012396427335878,0.8197494793500534,0.3897666750224379,157144.4653055,-98.60507202148438,-29.12092590332031,-540.4853515625,157144.4837685,0.3234951606426791,-1.307392178432361,-0.2383742308920737,-1.014847159385681,0.8136321902275085,0.3867737948894501,0.02783781290054321,-0.1543512940406799,0.1306766271591187,1,0.004079804755747318,-0.6111302375793457,0.1983011513948441,0.7662765979766846,-0.9382076859474182,0.2361231446266174,-0.2530063688755035,0,0,0,-1,157143.315230375,3,2,1561827206.015286,1561827055.717469,23,1.28499,0,0,23.0045,0,0,1561827203.101918,157141.757299,0,0.7822266,75.3689,0,182478453,3,1,0.19,-18.78918,-33.01514,2
1561827207.184651,66,0,0,1561827206.998129,4.634616323751057,-74.1510327906107,2552.91,0.17,14.4140625,4,10,-9999,1561827207.179341,-20.33127593994141,-1.146772384643555,22.4486083984375,90.69596099853516,98.18915557861328,15,157144.5131565,-0.9499969482421875,0.2341461181640625,-0.1563873291015625,157144.5040325,-0.5984964528312513,0.3409714385816791,0.2402134018996212,157144.4854165,-98.94941711425781,-29.27778625488281,-540.9261474609375,157144.5040325,0.3088819987509701,-1.298725654611354,-0.2492016718482872,-0.6009470820426941,0.3348541557788849,0.2372205257415771,0.009039223194122314,-0.04902905225753784,0.1302679777145386,1,-0.005510696209967136,-0.6080763936042786,0.1958235055208206,0.769328236579895,-0.9334624409675598,0.2466303706169128,-0.260425478219986,0,0,0,-1,157143.315230375,3,2,1561827206.015286,1561827055.717469,23,1.28499,0,0,23.0045,0,0,1561827203.101918,157141.757299,0,0.7822266,75.3689,0,182478453,3,1,0.19,-18.78918,-33.77424,2
1561827207.205045,67,0,0,1561827206.998129,4.634616323751057,-74.1510327906107,2552.91,0.17,14.4140625,4,10,-9999,1561827207.202817,-20.45410919189453,-1.209737777709961,22.30126953125,91.32337188720703,98.81656646728516,15,157144.5334205,-1.021011352539062,0.268096923828125,-0.2330474853515625,157144.5242955,-0.3965452189450166,0.03956951379250633,-0.06968320781857731,157144.5055275,-99.25625610351562,-29.63227844238281,-540.9310302734375,157144.5242955,0.2999314450850261,-1.298058390483606,-0.2534149469880914,-0.3989958465099335,0.03345223888754845,-0.07267607748508453,-0.01771754026412964,-0.01656517386436462,0.1043787002563477,1,-0.009966336190700531,-0.607879638671875,0.1935934871435165,0.7700029611587524,-0.9322794079780579,0.2507112920284271,-0.2607660293579102,0,0,0,-1,157143.315230375,3,2,1561827206.015286,1561827055.717469,23,1.28499,0,0,23.0045,0,0,1561827203.101918,157141.757299,0,0.7822266,75.3689,0,182478453,3,1,0.19,-18.78918,-33.77424,2
1561827207.224765,68,0,0,1561827206.998129,4.634616323751057,-74.1510327906107,2552.91,0.17,14.4140625,4,10,-9999,1561827207.202817,-20.45410919189453,-1.209737777709961,22.30126953125,91.32337188720703,98.81656646728516,15,157144.5536845,-1.028717041015625,0.2777557373046875,-0.2681884765625,157144.5445595,-0.4384196986609865,0.08275826350643034,-0.2569849251805042,157144.5256695,-99.31129455566406,-29.89480590820312,-540.87939453125,157144.5445595,0.2904834115642584,-1.299385763237616,-0.252069183617559,-0.4408703446388245,0.07664099335670471,-0.259977787733078,-0.09584438800811768,0.02274748682975769,-0.001154184341430664,1,-0.01217842474579811,-0.6083111166954041,0.1895725280046463,0.7706305980682373,-0.9329489469528198,0.2494082897901535,-0.2596185505390167,0,0,0,-1,157143.315230375,3,2,1561827206.015286,1561827055.717469,23,1.28499,0,0,23.0045,0,0,1561827203.101918,157141.757299,0,0.7822266,75.3689,0,182478453,3,1,0.19,-18.78918,-34.46391,2
1561827207.259176,69,0,0,1561827206.998129,4.634616323751057,-74.1510327906107,2552.91,0.17,14.4140625,4,10,-9999,1561827207.253483,-20.61263275146484,-2.192228317260742,22.380126953125,92.790771484375,100.2839660644531,15,157144.5739475,-1.012603759765625,0.28790283203125,-0.308135986328125,157144.5648235,-0.46875283716088,0.0996221984771391,-0.2098541644210449,157144.5457805,-99.20668029785156,-30.37742614746094,-541.1663208007812,157144.5648235,0.2797559346002819,-1.300401831840311,-0.2497265239791319,-0.471203476190567,0.09350492060184479,-0.2128470242023468,-0.094471275806427,0.04477691650390625,-0.02912276983261108,1,-0.01441851072013378,-0.6085878610610962,0.1847638189792633,0.7715408802032471,-0.9337728023529053,0.2471389770507812,-0.2588258385658264,0,0,0,-1,157143.315230375,3,2,1561827206.015286,1561827055.717469,23,1.28499,0,0,23.0045,0,0,1561827203.101918,157141.757299,0,0.7822266,75.3689,0,182478453,3,1,0.19,-18.78918,-35.03758,2
1561827207.265436,70,0,0,1561827206.998129,4.634616323751057,-74.1510327906107,2552.91,0.17,14.4140625,4,10,-9999,1561827207.253483,-20.61263275146484,-2.192228317260742,22.380126953125,92.790771484375,100.2839660644531,15,157144.5942115,-0.9809722900390625,0.296875,-0.3350830078125,157144.5850865,-0.3737195315580564,0.1562037189969626,-0.1509439758440561,157144.5658915,-99.26760864257812,-30.5067138671875,-541.1102905273438,157144.5850865,0.2700131340702254,-1.30027470570514,-0.2485306472761597,-0.3761701881885529,0.15008644759655,-0.1539368480443954,-0.05972003936767578,0.04379963874816895,-0.06695020198822021,1,-0.01692046970129013,-0.6084423065185547,0.1806541681289673,0.7725772857666016,-0.934023916721344,0.2459800243377686,-0.2590233087539673,0,0,0,-1,157143.315230375,3,2,1561827206.015286,1561827055.717469,23,1.28499,0,0,23.0045,0,0,1561827203.101918,157141.757299,0,0.7822266,75.3689,0,182478453,3,1,0.19,-18.78918,-35.03758,2
1561827207.285626,71,0,0,1561827206.998129,4.634616323751057,-74.1510327906107,2552.91,0.17,14.4140625,4,10,-9999,1561827207.280884,-20.50425720214844,-2.455106735229492,22.2078857421875,93.24144744873047,100.7346420288086,15,157144.6144755,-0.9717559814453125,0.29693603515625,-0.319183349609375,157144.6053505,-0.1763199062908761,0.1982190799345977,-0.1157620199474553,157144.5860025,-99.33399963378906,-30.73197937011719,-541.1181030273438,157144.6053505,0.2636617972339385,-1.29840024518557,-0.2474565759364749,-0.1787705719470978,0.1921018064022064,-0.1187548860907555,-0.04283279180526733,0.05555252730846405,-0.0683789849281311,1,-0.01859351061284542,-0.6076446175575256,0.1778696328401566,0.7738118171691895,-0.9337907433509827,0.2449388056993484,-0.2608445882797241,0,0,0,-1,157143.315230375,3,2,1561827206.015286,1561827055.717469,23,1.28499,0,0,23.0045,0,0,1561827203.101918,157141.757299,0,0.7822266,75.3689,0,182478453,3,1,0.19,-19.34645,-35.30546,2
1561827207.305823,72,0,0,1561827206.998129,4.634616323751057,-74.1510327906107,2552.91,0.17,14.4140625,4,10,-9999,1561827207.304129,-20.73308563232422,-2.661375045776367,22.05731201171875,93.40605926513672,100.8992538452148,15,157144.634724375,-0.9523468017578125,0.274200439453125,-0.2959442138671875,157144.625630375,-0.0425128394292619,0.2099351245181833,-0.1471066270293609,157144.6061445,-99.54107666015625,-30.97502136230469,-541.4102172851562,157144.625630375,0.2607524296654205,-1.294975845232965,-0.2454384467560131,-0.04496349394321442,0.2038178592920303,-0.1500995010137558,-0.03051674365997314,0.04394461214542389,-0.04626530408859253,1,-0.01897833310067654,-0.6062610149383545,0.1761241406202316,0.775285542011261,-0.9333657026290894,0.2429816573858261,-0.2641748189926147,0,0,0,-1,157143.315230375,3,2,1561827206.015286,1561827055.717469,23,1.28499,0,0,23.0045,0,0,1561827203.101918,157141.757299,0,0.7822266,75.3689,0,182478453,3,1,0.19,-19.90373,-35.74768,2
1561827207.338898,73,0,0,1561827206.998129,4.634616323751057,-74.1510327906107,2552.91,0.17,14.4140625,4,10,-9999,1561827207.330596,-20.91262817382812,-2.51719856262207,21.8145751953125,93.38800811767578,100.8812026977539,15,157144.654988375,-0.9354400634765625,0.2547149658203125,-0.2637176513671875,157144.645863375,0.06222023149584827,0.1607188423090829,-0.1457406917062593,157144.626271375,-99.55654907226562,-31.05450439453125,-541.3847045898438,157144.645863375,0.260104264267783,-1.291370745694163,-0.2423849788045217,0.05976957082748413,0.1546015739440918,-0.1487335562705994,-0.00908362865447998,0.0260641872882843,-0.01155555248260498,1,-0.01827719435095787,-0.6048101186752319,0.1749530881643295,0.776699423789978,-0.9331160187721252,0.2400185614824295,-0.267741322517395,0,0,0,-1,157143.315230375,3,2,1561827206.015286,1561827055.717469,23,1.28499,0,0,23.0045,0,0,1561827203.101918,157141.757299,0,0.7822266,75.3689,0,182478453,3,1,0.19,-20.46101,-36.55266,2
1561827207.347625,74,0,0,1561827206.998129,4.634616323751057,-74.1510327906107,2552.91,0.17,14.4140625,4,10,-9999,1561827207.330596,-20.91262817382812,-2.51719856262207,21.8145751953125,93.38800811767578,100.8812026977539,15,157144.675251375,-0.947418212890625,0.2337799072265625,-0.2420654296875,157144.666127375,0.06563759980663794,0.1258756405031402,-0.09280823451206237,157144.646382375,-99.59573364257812,-31.12406921386719,-541.6112670898438,157144.666127375,0.2608970987950792,-1.288548995186356,-0.2395615529994733,0.06318693608045578,0.1197583675384521,-0.09580110013484955,-0.005655586719512939,0.004651382565498352,0.02292609214782715,1,-0.0171604361385107,-0.6036762595176697,0.1744183748960495,0.7777267098426819,-0.9330041408538818,0.2372767180204391,-0.2705609798431396,0,0,0,-1,157143.315230375,3,2,1561827206.015286,1561827055.717469,23,1.28499,0,0,23.0045,0,0,1561827203.101918,157141.757299,0,0.7822266,75.3689,0,182478453,3,1,0.19,-21.01829,-36.80133,2
1561827207.366703,75,0,0,1561827206.998129,4.634616323751057,-74.1510327906107,2552.91,0.17,14.4140625,4,10,-9999,1561827207.354784,-20.88951110839844,-2.767057418823242,21.94415283203125,93.35608673095703,100.8492813110352,15,157144.695515375,-0.962493896484375,0.21673583984375,-0.2235260009765625,157144.686390375,0.02897758950504318,0.1305276502952906,-0.06173473722912682,157144.666493375,-99.7972412109375,-30.81582641601562,-541.6122436523438,157144.686390375,0.2612152295183412,-1.286017498448545,-0.2379646631860149,0.02652693167328835,0.1244103759527206,-0.06472760438919067,-0.02030915021896362,-0.01120731234550476,0.03671520948410034,1,-0.01664884574711323,-0.6026680469512939,0.1740589737892151,0.7785996794700623,-0.9326785206794739,0.2357251346111298,-0.2730280756950378,0,0,0,-1,157143.315230375,3,2,1561827206.015286,1561827055.717469,23,1.28499,0,0,23.0045,0,0,1561827203.101918,157141.757299,0,0.7822266,75.3689,0,182478453,3,1,0.19,-21.01829,-36.80133,2
1561827207.386866,76,0,0,1561827206.998129,4.634616323751057,-74.1510327906107,2552.91,0.17,14.4140625,4,10,-9999,1561827207.381229,-21.14708709716797,-2.988559722900391,21.60040283203125,93.3375244140625,100.8307189941406,15,157144.715779375,-0.95947265625,0.1949462890625,-0.21661376953125,157144.706654375,0.05963536734181735,0.1359301388826254,-0.1278058996612297,157144.686634375,-99.905029296875,-31.43948364257812,-541.9217529296875,157144.706654375,0.2615070595254145,-1.283143313347325,-0.2359862394252459,0.05718471109867096,0.1298128664493561,-0.1307987719774246,-0.03394269943237305,-0.02741162478923798,0.05919516086578369,1,-0.01602183468639851,-0.6015177369117737,0.1735779792070389,0.7796091437339783,-0.932335376739502,0.233802005648613,-0.2758394181728363,0,0,0,-1,157143.315230375,3,2,1561827206.015286,1561827055.717469,23,1.28499,0,0,23.0045,0,0,1561827203.101918,157141.757299,0,0.7822266,75.3689,0,182478453,3,1,0.19,-21.57557,-35.23708,2
1561827207.418844,77,0,0,1561827206.998129,4.634616323751057,-74.1510327906107,2552.91,0.17,14.4140625,4,10,-9999,1561827207.40556,-21.33143615722656,-2.945045471191406,21.76031494140625,93.3153076171875,100.8085021972656,15,157144.736042375,-0.9493408203125,0.179534912109375,-0.222991943359375,157144.726918375,0.06948959600732856,0.09901925880634517,-0.1655868344656388,157144.726857375,-99.66340637207031,-31.36297607421875,-541.709716796875,157144.726918375,0.2618906880423026,-1.280696777823345,-0.2325882124856211,0.06703893840312958,0.09290198981761932,-0.1685796976089478,-0.01730871200561523,-0.04899352788925171,0.06720936298370361,1,-0.0147619666531682,-0.6005076766014099,0.1727291941642761,0.7806005477905273,-0.9324135780334473,0.230496808886528,-0.2783452272415161,0,0,0,-1,157143.315230375,3,2,1561827206.015286,1561827055.717469,23,1.28499,0,0,23.0045,0,0,1561827203.101918,157141.757299,0,0.7822266,75.3689,0,182478453,3,1,0.19,-22.69013,-36.81829,2
1561827207.430364,78,0,0,1561827206.998129,4.634616323751057,-74.1510327906107,2552.91,0.17,14.4140625,4,10,-9999,1561827207.40556,-21.33143615722656,-2.945045471191406,21.76031494140625,93.3153076171875,100.8085021972656,15,157144.756306375,-0.966949462890625,0.1796722412109375,-0.247955322265625,157144.747181375,0.01017513957686575,0.1508363841360169,-0.05211859516506871,157144.746998375,-99.79644775390625,-31.14276123046875,-541.6056518554688,157144.747181375,0.262008009439971,-1.278629079948643,-0.2300632646535845,0.007724481634795666,0.1447191089391708,-0.05511146038770676,-0.02537322044372559,-0.04626116156578064,0.04614061117172241,1,-0.01389625482261181,-0.5996559262275696,0.1720331311225891,0.7814245223999023,-0.9323904514312744,0.2280391156673431,-0.2804393172264099,0,0,0,-1,157143.315230375,3,2,1561827206.015286,1561827055.717469,23,1.28499,0,0,23.0045,0,0,1561827203.101918,157141.757299,0,0.7822266,75.3689,0,182478453,3,1,0.19,-22.69013,-36.81829,2
1561827207.447593,79,0,0,1561827206.998129,4.634616323751057,-74.1510327906107,2552.91,0.17,14.4140625,4,10,-9999,1561827207.431888,-21.42125701904297,-3.025972366333008,21.537109375,93.34973907470703,100.8429336547852,15,157144.776570375,-0.9654998779296875,0.1876373291015625,-0.2718963623046875,157144.767445375,-0.1228345768543787,0.2896259590810604,-0.001056209688325426,157144.767109375,-100.2065582275391,-31.48333740234375,-541.8046875,157144.767445375,0.2607389568664155,-1.27455925935578,-0.2300481956831438,-0.1252852380275726,0.2835086584091187,-0.004049074836075306,-0.03999245166778564,-0.04726883769035339,0.02124744653701782,1,-0.01461975183337927,-0.5980551242828369,0.1715035289525986,0.7827534079551697,-0.9312446713447571,0.2280244529247284,-0.2842326760292053,0,0,0,-1,157143.315230375,3,2,1561827206.015286,1561827055.717469,23,1.28499,0,0,23.0045,0,0,1561827203.101918,157141.757299,0,0.7822266,75.3689,0,182478453,3,1,0.19,-23.24741,-37.50843,2
1561827207.467908,80,0,0,1561827206.998129,4.634616323751057,-74.1510327906107,2552.91,0.17,14.4140625,4,10,-9999,1561827207.456074,-21.56568145751953,-2.990451812744141,21.5487060546875,93.54143524169922,101.0346298217773,15,157144.796833375,-0.93756103515625,0.2166290283203125,-0.269683837890625,157144.787709375,-0.1068641324293916,0.2869875653891188,-0.04834090115879131,157144.787220375,-100.3308410644531,-31.49504089355469,-541.7536010742188,157144.787709375,0.2578581162878451,-1.269368452246832,-0.2303659320447545,-0.1093147918581963,0.2808702886104584,-0.05133376643061638,-0.0243072509765625,-0.02668890357017517,0.01929628849029541,1,-0.01605074852705002,-0.596004843711853,0.1704260110855103,0.784522533416748,-0.9296875,0.2283338010311127,-0.2890411913394928,0,0,0,-1,157143.315230375,3,2,1561827206.015286,1561827055.717469,23,1.28499,0,0,23.0045,0,0,1561827203.101918,157141.757299,0,0.7822266,75.3689,0,182478453,3,1,0.19,-23.80469,-37.79564,2
1561827207.501867,81,0,0,1561827206.998129,4.634616323751057,-74.1510327906107,2552.91,0.17,14.4140625,4,10,-9999,1561827207.485899,-21.69110107421875,-3.17896842956543,21.37969970703125,93.63964080810547,101.1328353881836,15,157144.817097375,-0.908935546875,0.240203857421875,-0.27801513671875,157144.807972375,0.02998373176487512,0.1415355603450242,-0.1180507405882694,157144.807331375,-100.4111938476562,-31.64051818847656,-542.0464477539062,157144.807972375,0.2564831237311879,-1.265531348385445,-0.2288839164312566,0.02753307297825813,0.1354182958602905,-0.1210436075925827,-0.00866776704788208,-0.0102616548538208,0.02302384376525879,1,-0.01619123667478561,-0.5944610834121704,0.1694317311048508,0.7859050035476685,-0.9288932681083679,0.2268906831741333,-0.2927077412605286,0,0,0,-1,157143.315230375,3,2,1561827206.015286,1561827055.717469,23,1.28499,0,0,23.0045,0,0,1561827203.101918,157141.757299,0,0.7822266,75.3689,0,182478453,3,1,0.19,-24.36197,-35.41524,2
1561827207.508394,82,0,0,1561827206.998129,4.634616323751057,-74.1510327906107,2552.91,0.17,14.4140625,4,10,-9999,1561827207.506729,-21.71751403808594,-3.197551727294922,21.236328125,93.63288879394531,101.1260833740234,15,157144.837361375,-0.9124298095703125,0.247650146484375,-0.2993927001953125,157144.828236375,0.04619519226851446,0.1050888692467448,-0.1109171972923832,157144.827473375,-100.3868103027344,-31.45808410644531,-542.0418701171875,157144.828236375,0.2566110191525613,-1.263655112206804,-0.2259384291528607,0.0437445342540741,0.09897159039974213,-0.1139100641012192,0.02065032720565796,0.02158442139625549,0.006076574325561523,1,-0.0151285408064723,-0.5936713814735413,0.1686268895864487,0.7866958975791931,-0.928975522518158,0.2240210324525833,-0.2946508228778839,0,0,0,-1,157143.315230375,3,2,1561827206.015286,1561827055.717469,23,1.28499,0,0,23.0045,0,0,1561827203.101918,157141.757299,0,0.7822266,75.3689,0,182478453,3,1,0.19,-24.36197,-35.41524,2
1561827207.530455,83,0,0,1561827206.998129,4.634616323751057,-74.1510327906107,2552.91,0.17,14.4140625,4,10,-9999,1561827207.506729,-21.71751403808594,-3.197551727294922,21.236328125,93.63288879394531,101.1260833740234,15,157144.857624375,-0.9181976318359375,0.252288818359375,-0.30169677734375,157144.848500375,-0.04275279024347804,0.1198153511265559,-0.01616378992012693,157144.847584375,-100.2589263916016,-31.68728637695312,-542.139892578125,157144.848500375,0.2561927800247832,-1.261592715358221,-0.2245388723947251,-0.04520344734191895,0.1136980801820755,-0.01915665529668331,0.01418900489807129,0.02705325186252594,-0.007110774517059326,1,-0.01486353110522032,-0.5928308963775635,0.1680479347705841,0.7874581813812256,-0.9286634922027588,0.2226568311452866,-0.2966611981391907,0,0,0,-1,157143.315230375,3,2,1561827206.015286,1561827055.717469,23,1.28499,0,0,23.0045,0,0,1561827203.101918,157141.757299,0,0.7822266,75.3689,0,182478453,3,1,0.19,-24.91924,-35.7182,2
1561827207.548945,84,0,0,1561827206.998129,4.634616323751057,-74.1510327906107,2552.91,0.17,14.4140625,4,10,-9999,1561827207.533325,-21.78562927246094,-2.976333618164062,21.32110595703125,93.71158599853516,101.2047805786133,15,157144.877858375,-0.9296875,0.245513916015625,-0.2940521240234375,157144.868733375,-0.09623385862223129,0.1242497806576469,0.004487959069001532,157144.867695375,-100.3663482666016,-31.68670654296875,-542.09375,157144.868733375,0.2546577624969223,-1.259661139939086,-0.2249531831389248,-0.09868451952934265,0.1181325018405914,0.001495093805715442,0.005729258060455322,0.0249708890914917,0.002695620059967041,1,-0.01564699411392212,-0.5920659303665161,0.1675464957952499,0.788125216960907,-0.9280009865760803,0.2230607271194458,-0.2984262108802795,0,0,0,-1,157143.315230375,3,2,1561827206.015286,1561827055.717469,23,1.28499,0,0,23.0045,0,0,1561827203.101918,157141.757299,0,0.7822266,75.3689,0,182478453,3,1,0.19,-25.47652,-36.44222,2
1561827207.582242,85,0,0,1561827206.998129,4.634616323751057,-74.1510327906107,2552.91,0.17,14.4140625,4,10,-9999,1561827207.557517,-21.69563293457031,-3.288589477539062,21.04583740234375,93.84592437744141,101.3391189575195,15,157144.898121375,-0.9329681396484375,0.2406463623046875,-0.28619384765625,157144.888996375,-0.05060645229812172,0.1053474621885915,-0.04836779908580111,157144.887837375,-100.4368438720703,-31.46125793457031,-542.2650146484375,157144.888996375,0.2528190990047559,-1.257863339740444,-0.2250073561937109,-0.05305711179971695,0.09923018515110016,-0.05136066302657127,-0.005532026290893555,0.0200657844543457,0.009425640106201172,1,-0.01636304333806038,-0.5913434624671936,0.1668226718902588,0.7888062000274658,-0.9274513125419617,0.2231135368347168,-0.3000903129577637,0,0,0,-1,157143.315230375,3,2,1561827206.015286,1561827055.717469,23,1.28499,0,0,23.0045,0,0,1561827203.101918,157141.757299,0,0.7822266,75.3689,0,182478453,3,1,0.19,-26.59108,-37.37254,2
1561827207.589418,86,0,0,1561827206.998129,4.634616323751057,-74.1510327906107,2552.91,0.17,14.4140625,4,10,-9999,1561827207.584035,-21.67633056640625,-3.296514511108398,21.18048095703125,93.89968872070312,101.3928833007812,15,157144.918385375,-0.9275360107421875,0.227783203125,-0.27789306640625,157144.909260375,0.02703934086368351,0.05829393310074445,-0.1007162250529437,157144.907948375,-100.5096740722656,-31.699951171875,-542.2904663085938,157144.909260375,0.2520982560514847,-1.256549867566479,-0.2236225602438991,0.0245886817574501,0.05217665806412697,-0.1037090942263603,-0.001712441444396973,0.01548022031784058,0.01986360549926758,1,-0.01612759195268154,-0.5907945036888123,0.1661341041326523,0.78936767578125,-0.9273495078086853,0.2217634320259094,-0.3014035224914551,0,0,0,-1,157143.315230375,3,2,1561827206.015286,1561827055.717469,23,1.28499,0,0,23.0045,0,0,1561827203.101918,157141.757299,0,0.7822266,75.3689,0,182478453,3,1,0.19,-26.59108,-37.37254,2
1561827207.613874,87,0,0,1561827206.998129,4.634616323751057,-74.1510327906107,2552.91,0.17,14.4140625,4,10,-9999,1561827207.608384,-21.66925048828125,-3.309787750244141,21.16143798828125,93.92486572265625,101.4180603027344,15,157144.938649375,-0.9349822998046875,0.21502685546875,-0.273895263671875,157144.929524375,0.01471929134486795,0.05215081941425866,-0.0991212578760952,157144.928059375,-100.2646636962891,-31.68644714355469,-542.020263671875,157144.929524375,0.2519190302529303,-1.255655850266346,-0.2214287819187303,0.01226863358169794,0.04603354632854462,-0.102114126086235,3.933906555175781e-06,0.008159458637237549,0.02448946237564087,1,-0.01537053659558296,-0.5904002785682678,0.165433257818222,0.7898247838020325,-0.9275399446487427,0.2196237444877625,-0.3023825287818909,0,0,0,-1,157143.315230375,3,2,1561827206.015286,1561827055.717469,23,1.28499,0,0,23.0045,0,0,1561827203.101918,157141.757299,0,0.7822266,75.3689,0,182478453,3,1,0.19,-27.14836,-38.0214,2
1561827207.630577,88,0,0,1561827206.998129,4.634616323751057,-74.1510327906107,2552.91,0.17,14.4140625,4,10,-9999,1561827207.608384,-21.66925048828125,-3.309787750244141,21.16143798828125,93.92486572265625,101.4180603027344,15,157144.958912375,-0.9331207275390625,0.21258544921875,-0.272216796875,157144.949787375,-0.03944008416352848,0.06228254946535612,-0.04576455912024865,157144.948201375,-100.3439788818359,-31.81210327148438,-542.0960083007812,157144.949787375,0.2510651110722736,-1.254777375459683,-0.2201083966334724,-0.04189074039459229,0.05616527423262596,-0.04875742271542549,-0.006380677223205566,-0.004681840538978577,0.0314822793006897,1,-0.01516274455934763,-0.5900225043296814,0.1647143512964249,0.7902612090110779,-0.9275487661361694,0.2183354049921036,-0.3032870590686798,0,0,0,-1,157143.315230375,3,2,1561827206.015286,1561827055.717469,23,1.28499,0,0,23.0045,0,0,1561827203.101918,157141.757299,0,0.7822266,75.3689,0,182478453,3,1,0.19,-27.70564,-38.19086,2
1561827207.658147,89,0,0,1561827206.998129,4.634616323751057,-74.1510327906107,2552.91,0.17,14.4140625,4,10,-9999,1561827207.63449,-21.77374267578125,-3.377731323242188,21.31951904296875,94.01198577880859,101.5051803588867,15,157144.979176375,-0.9423065185546875,0.2100372314453125,-0.277618408203125,157144.970051375,-0.09655929690743897,0.08895677094358977,0.01442714257328626,157144.968312375,-100.6349945068359,-31.72390747070312,-542.3939208984375,157144.970051375,0.2495841719244739,-1.253827429225703,-0.2203335767017572,-0.09900995343923569,0.08283950388431549,0.01143427658826113,-0.007478952407836914,-0.007312476634979248,0.0306389331817627,1,-0.01576841063797474,-0.5896397233009338,0.1641856133937836,0.7906449437141418,-0.9272134304046631,0.2185551524162292,-0.3041526973247528,0,0,0,-1,157143.315230375,3,2,1561827206.015286,1561827055.717469,23,1.28499,0,0,23.0045,0,0,1561827203.101918,157141.757299,0,0.7822266,75.3689,0,182478453,3,1,0.19,-28.26292,-38.48337,2
1561827207.670444,90,0,0,1561827206.998129,4.634616323751057,-74.1510327906107,2552.91,0.17,14.4140625,4,10,-9999,1561827207.659043,-21.78141784667969,-3.444833755493164,21.11541748046875,94.16044616699219,101.6536407470703,15,157144.999440375,-0.9446258544921875,0.20208740234375,-0.2799224853515625,157144.990315375,-0.1193450368780479,0.127212281054251,0.0008972189712476953,157144.988423375,-100.5936737060547,-31.63235473632812,-542.1929931640625,157144.990315375,0.2473824497812082,-1.252173694774472,-0.2212972897866883,-0.1217956990003586,0.1210950165987015,-0.002095646457746625,-0.02078741788864136,-0.01174704730510712,0.02746701240539551,1,-0.01694150269031525,-0.5889849066734314,0.163574680685997,0.7912351489067078,-0.9265087246894836,0.2194954603910446,-0.3056195378303528,0,0,0,-1,157143.315230375,3,2,1561827206.015286,1561827055.717469,23,1.28499,0,0,23.0045,0,0,1561827203.101918,157141.757299,0,0.7822266,75.3689,0,182478453,3,1,0.19,-28.26292,-38.48337,2
1561827207.690728,91,0,0,1561827206.998129,4.634616323751057,-74.1510327906107,2552.91,0.17,14.4140625,4,10,-9999,1561827207.685146,-21.65920257568359,-3.475086212158203,21.06048583984375,94.31240844726562,101.8056030273438,15,157145.019703375,-0.934173583984375,0.2059173583984375,-0.2882080078125,157145.010578375,-0.06818704391817079,0.08851788199594471,-0.03077415797641064,157145.008534375,-100.5807189941406,-31.70735168457031,-542.1356811523438,157145.010578375,0.2452227157332355,-1.250611501572847,-0.2216191004372801,-0.07063770294189453,0.0824006050825119,-0.03376702219247818,-0.01416152715682983,-0.01932418346405029,0.02230000495910645,1,-0.01783456839621067,-0.5883534550666809,0.1627975255250931,0.7918453216552734,-0.9259630441665649,0.2198094129562378,-0.3070442676544189,0,0,0,-1,157143.315230375,3,2,1561827206.015286,1561827055.717469,23,1.28499,0,0,23.0045,0,0,1561827203.101918,157141.757299,0,0.7822266,75.3689,0,182478453,3,1,0.19,-28.8202,-39.07578,2
1561827207.713469,92,0,0,1561827206.998129,4.634616323751057,-74.1510327906107,2552.91,0.17,14.4140625,4,10,-9999,1561827207.685146,-21.65920257568359,-3.475086212158203,21.06048583984375,94.31240844726562,101.8056030273438,15,157145.039967375,-0.9229583740234375,0.212371826171875,-0.2996978759765625,157145.030842375,-0.0147142313387968,0.07473362650980359,-0.03922969443741222,157145.028675375,-100.4761199951172,-31.67483520507812,-542.2833862304688,157145.030842375,0.2441650349250523,-1.249501897185759,-0.221061866627073,-0.01716488972306252,0.0686163455247879,-0.04222255945205688,-0.001462340354919434,-0.008862331509590149,0.01459211111068726,1,-0.01801068522036076,-0.5878949761390686,0.1622109115123749,0.7923022508621216,-0.9257379770278931,0.2192657738924026,-0.308110237121582,0,0,0,-1,157143.315230375,3,2,1561827206.015286,1561827055.717469,23,1.28499,0,0,23.0045,0,0,1561827203.101918,157141.757299,0,0.7822266,75.3689,0,182478453,3,1,0.19,-29.37748,-39.77628,2
1561827207.738922,93,0,0,1561827206.998129,4.634616323751057,-74.1510327906107,2552.91,0.17,14.4140625,4,10,-9999,1561827207.736516,-21.87207794189453,-3.503643035888672,21.01800537109375,94.42776489257812,101.9209594726562,15,157145.060231375,-0.9118499755859375,0.2211151123046875,-0.3060302734375,157145.051106375,-0.03190919723300241,0.07969722614949326,0.01103853640226943,157145.048786375,-100.6447296142578,-31.73735046386719,-542.431396484375,157145.051106375,0.2435507766205534,-1.248239714137301,-0.2207660896115787,-0.03435985743999481,0.07357995212078094,0.008045670576393604,0.01053857803344727,-0.002485483884811401,0.004657208919525146,1,-0.01817390322685242,-0.5873842239379883,0.1618724018335342,0.7927464246749878,-0.9254097938537598,0.2189771831035614,-0.30929896235466,0,0,0,-1,157143.315230375,3,2,1561827206.015286,1561827055.717469,23,1.28499,0,0,23.0045,0,0,1561827203.101918,157141.757299,0,0.7822266,75.3689,0,182478453,3,1,0.19,-29.93476,-39.79159,2
1561827207.752043,94,0,0,1561827206.998129,4.634616323751057,-74.1510327906107,2552.91,0.17,14.4140625,4,10,-9999,1561827207.736516,-21.87207794189453,-3.503643035888672,21.01800537109375,94.42776489257812,101.9209594726562,15,157145.080494375,-0.9166412353515625,0.2220458984375,-0.2991943359375,157145.071370375,-0.07007495881492797,0.07537864412582078,0.05455059387252907,157145.068898375,-100.3686981201172,-31.93914794921875,-542.3132934570312,157145.071370375,0.2426942769357683,-1.247057527339191,-0.2217725610142257,-0.07252562046051025,0.06926137208938599,0.05155772715806961,0.01234316825866699,0.003811031579971313,0.006611526012420654,1,-0.01892790198326111,-0.5869246125221252,0.1618064194917679,0.7930825352668762,-0.9248340129852295,0.2199591100215912,-0.3103224635124207,0,0,0,-1,157143.315230375,3,2,1561827206.015286,1561827055.717469,23,1.28499,0,0,23.0045,0,0,1561827203.101918,157141.757299,0,0.7822266,75.3689,0,182478453,3,1,0.19,-30.49203,-40.37,2
1561827207.771819,95,0,0,1561827206.998129,4.634616323751057,-74.1510327906107,2552.91,0.17,14.4140625,4,10,-9999,1561827207.762545,-21.86287689208984,-3.408266067504883,21.0233154296875,94.5194091796875,102.0126037597656,15,157145.100758375,-0.9241943359375,0.2156829833984375,-0.3023529052734375,157145.091633375,-0.08384962692114481,0.04440714591263527,0.02902792324964568,157145.089039375,-100.8038482666016,-31.72042846679688,-542.4816284179688,157145.091633375,0.241295367415279,-1.246282863723689,-0.2230899821589613,-0.08630028367042542,0.0382898710668087,0.02603505924344063,0.002900660037994385,-0.001212343573570251,0.01283520460128784,1,-0.01993375644087791,-0.5866255760192871,0.1616162657737732,0.7933179140090942,-0.9243178963661194,0.2212440818548203,-0.3109461665153503,0,0,0,-1,157143.315230375,3,2,1561827206.015286,1561827055.717469,23,1.28499,0,0,23.0045,0,0,1561827203.101918,157141.757299,0,0.7822266,75.3689,0,182478453,3,1,0.19,-31.04931,-41.04184,2
1561827207.792019,96,0,0,1561827206.998129,4.634616323751057,-74.1510327906107,2552.91,0.17,14.4140625,4,10,-9999,1561827207.786421,-22.00880432128906,-3.371541976928711,21.0123291015625,94.60120391845703,102.0943984985352,15,157145.120991375,-0.920562744140625,0.2106781005859375,-0.3043212890625,157145.111866375,-0.03060930830493473,0.002883138196119783,-0.01338025394877611,157145.109150375,-100.5153045654297,-31.69017028808594,-542.4229125976562,157145.111866375,0.2401534837890838,-1.246281807469292,-0.2235083192771491,-0.03305996581912041,-0.003234134986996651,-0.01637311838567257,0.001530885696411133,-0.008593559265136719,0.00685572624206543,1,-0.02043798379600048,-0.5866203904151917,0.1612814515829086,0.7933771014213562,-0.9242298603057861,0.2216520309448242,-0.3109176158905029,0,0,0,-1,157143.315230375,3,2,1561827206.015286,1561827055.717469,23,1.28499,0,0,23.0045,0,0,1561827203.101918,157141.757299,0,0.7822266,75.3689,0,182478453,3,1,0.19,-31.60659,-41.58294,2
1561827207.819628,97,0,0,1561827206.998129,4.634616323751057,-74.1510327906107,2552.91,0.17,14.4140625,4,10,-9999,1561827207.814721,-21.96597290039062,-3.222011566162109,21.17388916015625,94.62867736816406,102.1218719482422,15,157145.141255375,-0.9194183349609375,0.2061767578125,-0.298309326171875,157145.132130375,-0.006050435680551022,-0.0007435545763501233,-0.0006165217923533436,157145.129261375,-100.5146789550781,-31.58587646484375,-542.3870239257812,157145.132130375,0.2396492973060291,-1.246544746483044,-0.2233456657839222,-0.008501093834638596,-0.006860827561467886,-0.003609387204051018,0.003492951393127441,-0.0138365626335144,0.007799029350280762,1,-0.02049889229238033,-0.5867169499397278,0.1610382050275803,0.7933534383773804,-0.9243456125259399,0.2214934229850769,-0.3106860220432281,0,0,0,-1,157143.315230375,3,2,1561827206.015286,1561827055.717469,23,1.28499,0,0,23.0045,0,0,1561827203.101918,157142.703757,0,0.8562012,75.3682,0,182478453,3,1,0.19,-32.16387,-40.47504,2
1561827207.832619,98,0,0,1561827206.998129,4.634616323751057,-74.1510327906107,2552.91,0.17,14.4140625,4,10,-9999,1561827207.814721,-21.96597290039062,-3.222011566162109,21.17388916015625,94.62867736816406,102.1218719482422,15,157145.161518375,-0.923828125,0.206878662109375,-0.295166015625,157145.152394375,-0.01268357100761138,0.008231031981107901,0.03652765119541782,157145.149403375,-100.3675537109375,-31.83197021484375,-542.3690795898438,157145.152394375,0.239544514437946,-1.246626433967445,-0.2236968374439874,-0.01513422932475805,0.002113758586347103,0.03353478759527206,0.002681732177734375,-0.01570487022399902,0.01508408784866333,1,-0.02066509239375591,-0.5867538452148438,0.1610966920852661,0.7933100461959839,-0.9242972731590271,0.2218358516693115,-0.3105857670307159,0,0,0,-1,157143.315230375,3,2,1561827206.015286,1561827055.717469,23,1.28499,0,0,23.0045,0,0,1561827203.101918,157142.703757,0,0.8562012,75.3682,0,182478453,3,1,0.19,-32.16387,-40.47504,2
1561827207.852802,99,0,0,1561827206.998129,4.634616323751057,-74.1510327906107,2552.91,0.17,14.4140625,4,10,-9999,1561827207.837255,-21.92878723144531,-3.373006820678711,20.99383544921875,94.63584136962891,102.129035949707,15,157145.181782375,-0.9178924560546875,0.2085113525390625,-0.2978973388671875,157145.172657375,-0.02782603864969292,0.03586532303231511,0.05215880889752891,157145.169514375,-100.9308471679688,-31.80296325683594,-542.2571411132812,157145.172657375,0.2393950308862373,-1.246305240975022,-0.2246999358648267,-0.03027669712901115,0.02974804863333702,0.04916594550013542,0.00337749719619751,-0.01651501655578613,0.01733922958374023,1,-0.02114054001867771,-0.5866407155990601,0.1613174229860306,0.7933362722396851,-0.92398601770401,0.2228138446807861,-0.3108114898204803,0,0,0,-1,157143.315230375,3,2,1561827206.015286,1561827055.717469,23,1.28499,0,0,23.0045,0,0,1561827203.101918,157142.703757,0,0.8562012,75.3682,0,182478453,3,1,0.19,-32.72115,-41.20401,2
1561827207.873118,100,0,0,1561827206.998129,4.634616323751057,-74.1510327906107,2552.91,0.17,14.4140625,4,10,-9999,1561827207.862356,-22.05277252197266,-3.59288215637207,21.16259765625,94.65037536621094,102.1435699462891,15,157145.202046375,-0.910003662109375,0.213531494140625,-0.296112060546875,157145.192921375,-0.004013117446640404,0.01709270050834657,0.04417838037499746,157145.189656375,-100.5773315429688,-31.96112060546875,-542.3705444335938,157145.192921375,0.2392557227402539,-1.245916439255363,-0.2257173249679884,-0.006463775411248207,0.0109754279255867,0.04118551686406136,0.009999334812164307,-0.01151001453399658,0.01323139667510986,1,-0.02162432111799717,-0.586500883102417,0.1615453064441681,0.7933802604675293,-0.9236498475074768,0.2238055467605591,-0.3110982179641724,0,0,0,-1,157143.315230375,3,2,1561827206.015286,1561827055.717469,23,1.28499,0,0,23.0045,0,0,1561827203.101918,157142.703757,0,0.8562012,75.3682,0,182478453,3,1,0.19,-33.27843,-41.66863,2
1561827207.901387,101,0,0,1561827206.998129,4.634616323751057,-74.1510327906107,2552.91,0.17,14.4140625,4,10,-9999,1561827207.887881,-21.89652252197266,-3.618671417236328,20.82794189453125,94.62178039550781,102.1149749755859,15,157145.222309375,-0.9125518798828125,0.214019775390625,-0.29638671875,157145.213185375,0.02390266973178819,0.01018632485344408,0.03288817524971554,157145.209767375,-100.8492431640625,-32.02548217773438,-542.2655029296875,157145.213185375,0.239681354947679,-1.245738766289957,-0.2262853367229827,0.02145201154053211,0.004069051705300808,0.02989530935883522,0.01368391513824463,-0.01003415882587433,0.0140109658241272,1,-0.02174366265535355,-0.5864438414573669,0.1618725657463074,0.793352484703064,-0.9234739542007446,0.2243591099977493,-0.3112216591835022,0,0,0,-1,157143.315230375,3,2,1561827206.015286,1561827055.717469,23,1.28499,0,0,23.0045,0,0,1561827203.101918,157142.703757,0,0.8562012,75.3682,0,182478453,3,1,0.19,-33.83571,-42.13088,2
1561827207.914969,102,0,0,1561827206.998129,4.634616323751057,-74.1510327906107,2552.91,0.17,14.4140625,4,10,-9999,1561827207.887881,-21.89652252197266,-3.618671417236328,20.82794189453125,94.62178039550781,102.1149749755859,15,157145.242573375,-0.9203643798828125,0.222503662109375,-0.2916717529296875,157145.233448375,0.01057328215983259,0.0141429832849748,0.02733548437690032,157145.229878375,-100.6537322998047,-31.97848510742188,-542.436279296875,157145.233448375,0.2402285565509056,-1.24549167586959,-0.2266586101461879,0.008122623898088932,0.008025710470974445,0.0243426188826561,0.006493210792541504,-0.01077936589717865,0.01647061109542847,1,-0.02175425365567207,-0.586357593536377,0.1621922850608826,0.7933506369590759,-0.9233176112174988,0.2247228622436523,-0.3114230632781982,0,0,0,-1,157143.315230375,3,2,1561827206.015286,1561827055.717469,23,1.28499,0,0,23.0045,0,0,1561827203.101918,157142.703757,0,0.8562012,75.3682,0,182478453,3,1,0.19,-34.39299,-42.21075,2
1561827207.933926,103,0,0,1561827206.998129,4.634616323751057,-74.1510327906107,2552.91,0.17,14.4140625,4,10,-9999,1561827207.916711,-22.07817840576172,-3.51695442199707,20.98785400390625,94.59477233886719,102.0879669189453,15,157145.262837375,-0.9196929931640625,0.2379913330078125,-0.287506103515625,157145.253712375,-0.01368092483584605,-0.01350595515222785,0.01327878751124409,157145.250019375,-100.7831268310547,-31.89949035644531,-542.384521484375,157145.253712375,0.2401955591773905,-1.245626976146421,-0.2269931227363612,-0.01613158360123634,-0.01962322741746902,0.01028592139482498,0.002542495727539062,0.007067888975143433,0.02242517471313477,1,-0.02188827842473984,-0.5864161252975464,0.1622750759124756,0.7932866811752319,-0.9232883453369141,0.2250487953424454,-0.3112740516662598,0,0,0,-1,157143.315230375,3,2,1561827206.015286,1561827055.717469,23,1.28499,0,0,23.0045,0,0,1561827203.101918,157142.703757,0,0.8562012,75.3682,0,182478453,3,1,0.19,-34.95026,-42.53602,2
1561827207.954156,104,0,0,1561827206.998129,4.634616323751057,-74.1510327906107,2552.91,0.17,14.4140625,4,10,-9999,1561827207.938916,-21.95341491699219,-3.481698989868164,20.91827392578125,94.60820007324219,102.1013946533203,15,157145.283100375,-0.9242706298828125,0.2440948486328125,-0.28973388671875,157145.273976375,-0.008224906710600719,-0.01634808066756041,0.02800074201720212,157145.270130375,-100.6206359863281,-31.69601440429688,-542.6273193359375,157145.273976375,0.2400384246240648,-1.246196023856712,-0.227319894966867,-0.01067556440830231,-0.02246535383164883,0.02500787749886513,0.003702759742736816,0.01262414455413818,0.02321910858154297,1,-0.02202038466930389,-0.5866451263427734,0.1623112112283707,0.7931064367294312,-0.9233957529067993,0.2253671735525131,-0.3107251822948456,0,0,0,-1,157143.315230375,3,2,1561827206.015286,1561827055.717469,23,1.28499,0,0,23.0045,0,0,1561827203.101918,157142.703757,0,0.8562012,75.3682,0,182478453,3,1,0.19,-35.50755,-42.99023,2
1561827207.981958,105,0,0,1561827206.998129,4.634616323751057,-74.1510327906107,2552.91,0.17,14.4140625,4,10,-9999,1561827207.962579,-21.81636047363281,-3.559257507324219,20.76373291015625,94.61804962158203,102.1112442016602,15,157145.303364375,-0.9441070556640625,0.23614501953125,-0.287567138671875,157145.294239375,-0.02150236264129977,-0.01542289850486688,0.01996358816345199,157145.290272375,-100.7120819091797,-31.83119201660156,-542.5009155273438,157145.294239375,0.2399014089717402,-1.246653495376441,-0.2278590376426096,-0.02395302057266235,-0.02154017239809036,0.01697072386741638,-0.008416533470153809,0.01672232151031494,0.021445631980896,1,-0.0222414955496788,-0.5868332982063293,0.162414163351059,0.7929399609565735,-0.9234224557876587,0.2258924245834351,-0.310263991355896,0,0,0,-1,157143.315230375,3,2,1561827206.015286,1561827055.717469,23,1.28499,0,0,23.0045,0,0,1561827203.101918,157142.703757,0,0.8562012,75.3682,0,182478453,3,1,0.19,-36.06482,-43.69535,2
1561827207.997698,106,0,0,1561827206.998129,4.634616323751057,-74.1510327906107,2552.91,0.17,14.4140625,4,10,-9999,1561827207.989043,-22.03215789794922,-3.381359100341797,20.7415771484375,94.68714904785156,102.1803436279297,15,157145.323628375,-0.9627532958984375,0.2190399169921875,-0.3004150390625,157145.314503375,-0.07814380428565004,-0.02914536865371817,0.009580988337669067,157145.310383375,-100.5830688476562,-31.57232666015625,-542.6511840820312,157145.314503375,0.2389776096515437,-1.247495061546139,-0.2283603192108265,-0.08059446513652802,-0.03526264429092407,0.006588122807443142,-0.03212803602218628,0.001631379127502441,0.01585632562637329,1,-0.02264701947569847,-0.5871641635894775,0.162199005484581,0.7927274703979492,-0.9235756993293762,0.2263807207345963,-0.3094507157802582,0,0,0,-1,157143.315230375,3,2,1561827206.015286,1561827055.717469,23,1.28499,0,0,23.0045,0,0,1561827203.101918,157142.703757,0,0.8562012,75.3682,0,182478453,3,1,0.19,-36.6221,-44.28954,2
1561827208.015126,107,0,0,1561827206.998129,4.634616323751057,-74.1510327906107,2552.91,0.17,14.4140625,4,10,-9999,1561827207.989043,-22.03215789794922,-3.381359100341797,20.7415771484375,94.68714904785156,102.1803436279297,15,157145.343861375,-0.9529571533203125,0.2010650634765625,-0.3081512451171875,157145.334767375,-0.104188987114407,-0.009696835845087515,-0.02086213871524472,157145.330494375,-100.8168792724609,-32.19532775878906,-542.4572143554688,157145.334767375,0.2369253230852024,-1.248536767562828,-0.2288917277555312,-0.1066396459937096,-0.01581410877406597,-0.02385500259697437,-0.03576570749282837,-0.01940929889678955,0.003182947635650635,1,-0.0233802292495966,-0.5875612497329712,0.1615478694438934,0.7925448417663574,-0.9237832427024841,0.2268982976675034,-0.3084502816200256,0,0,0,-1,157143.315230375,3,2,1561827206.015286,1561827055.717469,23,1.28499,0,0,23.0045,0,0,1561827203.101918,157142.703757,0,0.8562012,75.3682,0,182478453,3,1,0.19,-36.6221,-44.28954,2
1561827208.035182,108,0,0,1561827206.998129,4.634616323751057,-74.1510327906107,2552.91,0.17,14.4140625,4,10,-9999,1561827208.018072,-21.83119201660156,-3.553861618041992,20.899658203125,94.84468841552734,102.3378829956055,15,157145.364125375,-0.9374237060546875,0.2105255126953125,-0.3173065185546875,157145.355000375,-0.06461654384470157,-0.01291207022914018,-0.04672995501540238,157145.350636375,-100.5844421386719,-31.66006469726562,-542.4903564453125,157145.355000375,0.2348555525831305,-1.249300849578229,-0.2287391699349642,-0.06706720590591431,-0.01902934350073338,-0.049722820520401,-0.02200871706008911,-0.024189293384552,-0.00570601224899292,1,-0.0238652266561985,-0.5878373980522156,0.1606935560703278,0.792499303817749,-0.9240514636039734,0.2267497181892395,-0.3077552914619446,0,0,0,-1,157143.315230375,3,2,1561827206.015286,1561827055.717469,23,1.28499,0,0,23.0045,0,0,1561827203.101918,157142.703757,0,0.8562012,75.3682,0,182478453,3,1,0.19,-37.17938,-44.44202,2
1561827208.057261,109,0,0,1561827207.998117,4.634617287669922,-74.1510277614688,2552.915,-1,-1,4,10,-9999,1561827208.018072,-21.83119201660156,-3.553861618041992,20.899658203125,94.84468841552734,102.3378829956055,15,157145.384388375,-0.9208831787109375,0.2226715087890625,-0.3124847412109375,157145.375264375,0.02101207468461618,-0.04016899135388317,-0.04226782860897461,157145.370747375,-100.6337585449219,-32.00729370117188,-542.323974609375,157145.375264375,0.2340238702489489,-1.250200923613498,-0.228000710925173,0.01856141723692417,-0.04628626257181168,-0.04526069387793541,-0.004483401775360107,-0.007860273122787476,-0.008224666118621826,1,-0.02373921498656273,-0.5881737470626831,0.1601655930280685,0.7923605442047119,-0.9244869351387024,0.2260304242372513,-0.3069761991500854,0,0,0,-1,157143.315230375,3,2,1561827206.015286,1561827055.717469,23,1.28499,0,0,23.0045,0,0,1561827203.101918,157142.703757,0,0.8562012,75.3682,0,182478453,3,1,0.19,-37.73666,-44.77935,2
1561827208.075679,110,0,0,1561827207.998117,4.634617287669922,-74.1510277614688,2552.915,-1,-1,4,10,-9999,1561827208.048339,-21.91548919677734,-3.560304641723633,20.88720703125,94.95556640625,102.4487609863281,15,157145.404652375,-0.9123687744140625,0.2225189208984375,-0.294708251953125,157145.395527375,0.07934728678225686,-0.0499305420134596,-0.03895751937400612,157145.390858375,-100.6580657958984,-31.67591857910156,-542.3073120117188,157145.395527375,0.2347746245943365,-1.251178491772284,-0.2268386982836571,0.07689662277698517,-0.05604781582951546,-0.04195038229227066,0.01040804386138916,-0.0009603500366210938,0.001131355762481689,1,-0.02297074161469936,-0.5885533690452576,0.1601450741291046,0.7921052575111389,-0.9250351190567017,0.2248983383178711,-0.3061545491218567,0,0,0,-1,157143.315230375,3,2,1561827206.015286,1561827055.717469,23,1.28499,0,0,23.0045,0,0,1561827203.101918,157142.703757,0,0.8562012,75.3682,0,182478453,3,1,0.19,-38.29394,-43.7029,2
1561827208.096785,111,0,0,1561827207.998117,4.634617287669922,-74.1510277614688,2552.915,-1,-1,4,10,-9999,1561827208.090326,-21.92460632324219,-3.431198120117188,20.8406982421875,94.83469390869141,102.3278884887695,15,157145.424916375,-0.911468505859375,0.2247314453125,-0.2820281982421875,157145.415791375,0.08253588955540872,-0.03308498285427239,-0.0389636446445133,157145.411000375,-100.4058685302734,-31.95985412597656,-542.374267578125,157145.415791375,0.2360916015457127,-1.251928633386912,-0.2254685140629653,0.08008522540330887,-0.0392022542655468,-0.04195651039481163,0.01483553647994995,-0.0002506673336029053,0.01773035526275635,1,-0.02196978218853474,-0.5888453722000122,0.1602864116430283,0.7918881177902222,-0.9255564212799072,0.2235630452632904,-0.3055569231510162,0,0,0,-1,157143.315230375,3,2,1561827206.015286,1561827055.717469,23,1.28499,0,0,23.0045,0,0,1561827203.101918,157142.703757,0,0.8562012,75.3682,0,182478453,3,1,0.19,-38.85122,-44.2262,2
1561827208.116264,112,0,0,1561827207.998117,4.634617287669922,-74.1510277614688,2552.915,-1,-1,4,10,-9999,1561827208.114753,-21.67835998535156,-3.732440948486328,21.14434814453125,94.79182434082031,102.2850189208984,15,157145.445179375,-0.9040374755859375,0.2207183837890625,-0.279083251953125,157145.436055375,0.03560646377435941,0.01716913323163184,-0.03737320484151798,157145.431111375,-100.3866882324219,-31.98956298828125,-542.3599853515625,157145.436055375,0.2369830152387426,-1.251997993445484,-0.2242061973735812,0.03315580636262894,0.01105185970664024,-0.04036606848239899,0.01860308647155762,0.001132473349571228,0.02750474214553833,1,-0.02119217254221439,-0.5888636708259583,0.1602819859981537,0.791896641254425,-0.9258449077606201,0.2223324924707413,-0.3055809438228607,0,0,0,-1,157143.315230375,3,2,1561827206.015286,1561827055.717469,23,1.28499,0,0,23.0045,0,0,1561827203.101918,157142.703757,0,0.8562012,75.3682,0,182478453,3,1,0.19,-39.4085,-44.94292,2
1561827208.136599,113,0,0,1561827207.998117,4.634617287669922,-74.1510277614688,2552.915,-1,-1,4,10,-9999,1561827208.114753,-21.67835998535156,-3.732440948486328,21.14434814453125,94.79182434082031,102.2850189208984,15,157145.465443375,-0.899871826171875,0.223297119140625,-0.2737274169921875,157145.456318375,-0.0154671069789622,0.04992841148458754,0.003547596888094553,157145.451222375,-100.6206359863281,-32.14035034179688,-542.5090942382812,157145.456318375,0.2370025528116073,-1.251376818750702,-0.2237183539278245,-0.01791776530444622,0.0438111387193203,0.000554731348529458,0.02416157722473145,-0.002557530999183655,0.02951759099960327,1,-0.02103921212255955,-0.5886105298995972,0.1601447910070419,0.7921165823936462,-0.9257577061653137,0.2218568325042725,-0.3061899840831757,0,0,0,-1,157143.315230375,3,2,1561827206.015286,1561827055.717469,23,1.28499,0,0,23.0045,0,0,1561827203.101918,157142.703757,0,0.8562012,75.3682,0,182478453,3,1,0.19,-39.96577,-45.71941,2
1561827208.156659,114,0,0,1561827207.998117,4.634617287669922,-74.1510277614688,2552.915,-1,-1,4,10,-9999,1561827208.140963,-21.74817657470703,-3.7218017578125,20.82080078125,94.81808471679688,102.311279296875,15,157145.485707375,-0.9106292724609375,0.2232818603515625,-0.27996826171875,157145.476582375,-0.05058275016442001,0.06265858781127531,0.04345959319678507,157145.471363375,-100.3837280273438,-32.22935485839844,-542.4180297851562,157145.476582375,0.2363659010872679,-1.250502241812904,-0.2243720623813609,-0.05303341150283813,0.0565413124859333,0.04046672955155373,0.02052080631256104,0.002130433917045593,0.0316394567489624,1,-0.02156054601073265,-0.5882671475410461,0.160068616271019,0.7923730611801147,-0.9253517389297485,0.2224942147731781,-0.3069538176059723,0,0,0,-1,157143.315230375,3,2,1561827206.015286,1561827055.717469,23,1.28499,0,0,23.0045,0,0,1561827203.101918,157142.703757,0,0.8562012,75.3682,0,182478453,3,1,0.19,-39.96577,-45.71941,2
1561827208.179676,115,0,0,1561827207.998117,4.634617287669922,-74.1510277614688,2552.915,-1,-1,4,10,-9999,1561827208.165326,-21.75361633300781,-3.850254058837891,20.7840576171875,94.8682861328125,102.3614807128906,15,157145.505970375,-0.9178619384765625,0.21563720703125,-0.290313720703125,157145.496846375,-0.04014768606516253,0.08289035629649827,0.05896984338540655,157145.491474375,-100.4109802246094,-32.09477233886719,-542.4362182617188,157145.496846375,0.2357531440374367,-1.249293722718385,-0.2257103165586896,-0.04259834438562393,0.07677307724952698,0.0559769794344902,0.01095461845397949,-0.004514649510383606,0.02298909425735474,1,-0.0223781019449234,-0.5878013968467712,0.1601916700601578,0.7926709651947021,-0.9246966242790222,0.2237987220287323,-0.3079774677753448,0,0,0,-1,157143.315230375,3,2,1561827206.015286,1561827055.717469,23,1.28499,0,0,23.0045,0,0,1561827203.101918,157142.703757,0,0.8562012,75.3682,0,182478453,3,1,0.19,-40.52305,-46.55203,2
1561827208.197388,116,0,0,1561827207.998117,4.634617287669922,-74.1510277614688,2552.915,-1,-1,4,10,-9999,1561827208.191635,-21.79254150390625,-3.528055191040039,20.86865234375,94.90969085693359,102.4028854370117,15,157145.526234375,-0.9215087890625,0.21099853515625,-0.302337646484375,157145.517109375,-0.04432512055106082,0.1086242155938249,0.04451420498845645,157145.511616375,-100.6204223632812,-32.22160339355469,-542.3753051757812,157145.517109375,0.2352075638826158,-1.247718045662692,-0.2269304093470426,-0.04677578061819077,0.1025069355964661,0.0415213406085968,0.001694202423095703,-0.0119750052690506,0.01306730508804321,1,-0.02315777353942394,-0.5871883034706116,0.1603026986122131,0.7930805087089539,-0.9239506721496582,0.2249877005815506,-0.3093472421169281,0,0,0,-1,157143.315230375,3,2,1561827206.015286,1561827055.717469,23,1.28499,0,0,23.0045,0,0,1561827203.101918,157142.703757,0,0.8562012,75.3682,0,182478453,3,1,0.19,-41.08033,-46.41716,2
1561827208.217755,117,0,0,1561827207.998117,4.634617287669922,-74.1510277614688,2552.915,-1,-1,4,10,-9999,1561827208.215845,-21.90050506591797,-3.415851593017578,21.0279541015625,94.95538330078125,102.4485778808594,15,157145.546498375,-0.9186553955078125,0.20672607421875,-0.307708740234375,157145.537373375,-0.040701090939681,0.1287188312829088,0.05327840181979822,157145.531727375,-100.5882720947266,-32.03469848632812,-542.5091552734375,157145.537373375,0.2345487528980418,-1.245578849751682,-0.2280736148230763,-0.0431535467505455,0.1225991770625114,0.05028588697314262,0.003761529922485352,-0.01775793731212616,0.004462718963623047,1,-0.02398491278290749,-0.5863483548164368,0.1603391915559769,0.7936698198318481,-0.9230425357818604,0.2261014431715012,-0.3112406730651855,0,0,0,-1,157143.315230375,3,2,1561827206.015286,1561827055.717469,23,1.28499,0,0,23.0045,0,0,1561827203.101918,157142.703757,0,0.8562012,75.3682,0,182478453,3,1,0.19,-41.32593,-45.28714,2
1561827208.23777,118,0,0,1561827207.998117,4.634617287669922,-74.1510277614688,2552.915,-1,-1,4,10,-9999,1561827208.215845,-21.90050506591797,-3.415851593017578,21.0279541015625,94.95538330078125,102.4485778808594,15,157145.566761375,-0.9167633056640625,0.2081451416015625,-0.3125762939453125,157145.557637375,-0.04251976364809611,0.1183303725027277,0.06941635907735137,157145.551838375,-100.6327972412109,-32.10403442382812,-542.4462280273438,157145.557637375,0.2341054793390072,-1.243341332652624,-0.2295276515485754,-0.04497221857309341,0.1122107282280922,0.06642384082078934,0.005924344062805176,-0.02054736018180847,0.002896428108215332,1,-0.02488279528915882,-0.5854752659797668,0.1605460941791534,0.794244647026062,-0.9220315217971802,0.2275175899267197,-0.3131991326808929,0,0,0,-1,157143.315230375,3,2,1561827206.015286,1561827055.717469,23,1.28499,0,0,23.0045,0,0,1561827203.101918,157142.703757,0,0.8562012,75.3682,0,182478453,3,1,0.19,-40.73975,-43.44378,2
1561827208.257971,119,0,0,1561827207.998117,4.634617287669922,-74.1510277614688,2552.915,-1,-1,4,10,-9999,1561827208.24223,-22.02536010742188,-3.606107711791992,20.7757568359375,94.98938751220703,102.4825820922852,15,157145.586995375,-0.9147186279296875,0.215606689453125,-0.314910888671875,157145.577870375,-0.04479623374789584,0.1074247278388532,0.06873672036716315,157145.571980375,-100.8242492675781,-32.10641479492188,-542.7106323242188,157145.577870375,0.2335941571810261,-1.241362487930091,-0.2311341021282298,-0.04724868759512901,0.1013050824403763,0.06574419885873795,0.004284262657165527,-0.01817463338375092,0.001824557781219482,1,-0.02584201656281948,-0.5847050547599792,0.1607703417539597,0.7947357892990112,-0.9210628271102905,0.2290816158056259,-0.3149043917655945,0,0,0,-1,157143.315230375,3,2,1561827206.015286,1561827055.717469,23,1.28499,0,0,23.0045,0,0,1561827203.101918,157142.703757,0,0.8562012,75.3682,0,182478453,3,1,0.19,-40.73975,-43.76822,2
1561827208.279471,120,0,0,1561827207.998117,4.634617287669922,-74.1510277614688,2552.915,-1,-1,4,10,-9999,1561827208.266439,-21.9559326171875,-3.638454437255859,20.52215576171875,95.01264953613281,102.5058441162109,15,157145.607258375,-0.916839599609375,0.2219085693359375,-0.3189544677734375,157145.598133375,-0.002637861059723485,0.0808812675701425,0.04291204727666478,157145.592091375,-100.6894989013672,-32.00556945800781,-542.624267578125,157145.598133375,0.2334083764422807,-1.239651505161157,-0.2323337116139338,-0.005090317223221064,0.07476162165403366,0.03991953283548355,0.002812325954437256,-0.008584737777709961,-0.0003210902214050293,1,-0.02652015723288059,-0.5840389728546143,0.1610114425420761,0.7951544523239136,-0.9202622771263123,0.2302491515874863,-0.3163903057575226,0,0,0,-1,157143.315230375,3,2,1561827206.015286,1561827055.717469,23,1.28499,0,0,23.0045,0,0,1561827203.101918,157142.703757,0,0.8562012,75.3682,0,182478453,3,1,0.19,-40.73975,-44.55479,2
1561827208.299069,121,0,0,1561827207.998117,4.634617287669922,-74.1510277614688,2552.915,-1,-1,4,10,-9999,1561827208.293124,-22.11625671386719,-3.567205429077148,20.71881103515625,94.98298645019531,102.4761810302734,15,157145.6275295,-0.91986083984375,0.2243194580078125,-0.317352294921875,157145.618397375,0.03881743710066795,0.05413700495523976,-0.003392600912651941,157145.6122095,-100.669677734375,-31.99710083007812,-542.700927734375,157145.618397375,0.2338776916536158,-1.238343549624787,-0.2325271152606556,0.03636498004198074,0.04801735654473305,-0.006385115906596184,0.001195847988128662,-0.008086293935775757,-0.001421093940734863,1,-0.02656695619225502,-0.5835277438163757,0.161235049366951,0.7954827547073364,-0.9198054671287537,0.2304373532533646,-0.3175791501998901,0,0,0,-1,157143.315230375,3,2,1561827206.015286,1561827055.717469,23,1.28499,0,0,23.0045,0,0,1561827203.101918,157142.703757,0,0.8562012,75.3682,0,182478453,3,1,0.19,-40.73975,-44.75566,2
1561827208.318949,122,0,0,1561827207.998117,4.634617287669922,-74.1510277614688,2552.915,-1,-1,4,10,-9999,1561827208.317137,-22.14799499511719,-3.686622619628906,20.60260009765625,94.94110107421875,102.4342956542969,15,157145.6477935,-0.917724609375,0.2277679443359375,-0.31494140625,157145.6386685,0.04652489161146627,0.02698261553246483,-0.03832368703456726,157145.6323515,-100.7918395996094,-32.02670288085938,-542.9635009765625,157145.6386685,0.234489806953483,-1.23750653081749,-0.2316495016346823,0.04407243430614471,0.02086296677589417,-0.0413162000477314,-0.001030921936035156,-0.003814250230789185,0.001642584800720215,1,-0.02609989047050476,-0.5831906199455261,0.1612212061882019,0.7957482933998108,-0.9197301864624023,0.229583278298378,-0.3184149861335754,0,0,0,-1,157143.315230375,3,2,1561827206.015286,1561827055.717469,23,1.28499,0,0,23.0045,0,0,1561827203.101918,157142.703757,0,0.8562012,75.3682,0,182478453,3,1,0.19,-40.73975,-44.75566,2
