loggingTime,loggingSample,identifierForVendor,deviceID,locationTimestamp_since1970,locationLatitude,locationLongitude,locationAltitude,locationSpeed,locationCourse,locationVerticalAccuracy,locationHorizontalAccuracy,locationFloor,locationHeadingTimestamp_since1970,locationHeadingX,locationHeadingY,locationHeadingZ,locationTrueHeading,locationMagneticHeading,locationHeadingAccuracy,accelerometerTimestamp_sinceReboot,accelerometerAccelerationX,accelerometerAccelerationY,accelerometerAccelerationZ,gyroTimestamp_sinceReboot,gyroRotationX,gyroRotationY,gyroRotationZ,magnetometerTimestamp_sinceReboot,magnetometerX,magnetometerY,magnetometerZ,motionTimestamp_sinceReboot,motionYaw,motionRoll,motionPitch,motionRotationRateX,motionRotationRateY,motionRotationRateZ,motionUserAccelerationX,motionUserAccelerationY,motionUserAccelerationZ,motionAttitudeReferenceFrame,motionQuaternionX,motionQuaternionY,motionQuaternionZ,motionQuaternionW,motionGravityX,motionGravityY,motionGravityZ,motionMagneticFieldX,motionMagneticFieldY,motionMagneticFieldZ,motionMagneticFieldCalibrationAccuracy,activityTimestamp_sinceReboot,activity,activityActivityConfidence,activityActivityStartDate,pedometerStartDate,pedometerNumberofSteps,pedometerAverageActivePace,pedometerCurrentPace,pedometerCurrentCadence,pedometerDistance,pedometerFloorAscended,pedometerFloorDescended,pedometerEndDate,altimeterTimestamp_sinceReboot,altimeterReset,altimeterRelativeAltitude,altimeterPressure,IP_en0,IP_pdp_ip0,deviceOrientation,batteryState,batteryLevel,avAudioRecorderPeakPower,avAudioRecorderAveragePower,label
1561827148.799194,1,0,0,1561827147.998842,4.634686396461571,-74.15107117972723,2552.814,-1,-1,4,10,-9999,1561827148.776965,-27.02253723144531,-1.573110580444336,15.76171875,99.64457702636719,107.1377716064453,15,157086.100367625,-0.6979217529296875,0.5478668212890625,-0.4131317138671875,157086.091242625,0.09374966195740538,-0.1028494170860971,0.1407744289054795,157086.080500625,-106.0387878417969,-29.85098266601562,-547.3278198242188,157086.091242625,0.1134796227735407,-1.037710847302582,-0.5652889670637372,0.09139924496412277,-0.1088365316390991,0.1377619057893753,0.02973788976669312,0.01022332906723022,0.01757544279098511,1,-0.2147945612668991,-0.4891784489154816,0.1853699684143066,0.8247458934783936,-0.7272629141807556,0.5356598496437073,-0.4291354715824127,0,0,0,-1,157085.941309625,3,2,1561827148.641366,1561827055.717469,12,1.562096,0,0,11.78992,0,0,1561827143.457785,157083.071394,0,0.420166,75.37234,0,182478453,5,1,0.19,-34.09401,-38.46943,2
1561827148.80173,2,0,0,1561827147.998842,4.634686396461571,-74.15107117972723,2552.814,-1,-1,4,10,-9999,1561827148.800982,-27.07065582275391,-1.518167495727539,16.092529296875,99.34182739257812,106.8350219726562,15,157086.120630625,-0.6993255615234375,0.5465240478515625,-0.4093780517578125,157086.111505625,0.1134770277321673,-0.1233847859355891,0.1581270539362178,157086.100641625,-105.6567687988281,-29.88577270507812,-547.576416015625,157086.111505625,0.1173987119911548,-1.038090328597524,-0.5668790980274809,0.111126609146595,-0.1293719112873077,0.1551145315170288,0.02692300081253052,0.008606612682342529,0.01711046695709229,1,-0.2144683003425598,-0.4896837472915649,0.1873930394649506,0.8240734934806824,-0.7266910672187805,0.53700190782547,-0.4284263551235199,0,0,0,-1,157085.941309625,3,2,1561827148.641366,1561827055.717469,12,1.562096,0,0,11.78992,0,0,1561827143.457785,157083.071394,0,0.420166,75.37234,0,182478453,5,1,0.19,-34.09401,-38.46943,2
1561827148.813249,3,0,0,1561827147.998842,4.634686396461571,-74.15107117972723,2552.814,-1,-1,4,10,-9999,1561827148.800982,-27.07065582275391,-1.518167495727539,16.092529296875,99.34182739257812,106.8350219726562,15,157086.140863625,-0.701629638671875,0.5481414794921875,-0.4116363525390625,157086.131769625,0.1167292800553721,-0.140957121756259,0.158637049284968,157086.120752625,-105.6255798339844,-29.47726440429688,-547.4476318359375,157086.131769625,0.1216709198037293,-1.03856090937866,-0.5684468188825538,0.1143788620829582,-0.1469442397356033,0.1556245237588882,0.02554363012313843,0.01042807102203369,0.01759189367294312,1,-0.2140360027551651,-0.4902655482292175,0.1895643025636673,0.8233429789543152,-0.7261662483215332,0.5383237600326538,-0.4276565611362457,0,0,0,-1,157085.941309625,3,2,1561827148.641366,1561827055.717469,12,1.562096,0,0,11.78992,0,0,1561827143.457785,157083.071394,0,0.420166,75.37234,0,182478453,5,1,0.19,-34.65129,-38.47532,2
1561827148.833624,4,0,0,1561827147.998842,4.634686396461571,-74.15107117972723,2552.814,-1,-1,4,10,-9999,1561827148.828891,-26.85565948486328,-1.180065155029297,16.009521484375,99.0423583984375,106.5355529785156,15,157086.161127625,-0.7000274658203125,0.5523834228515625,-0.4112548828125,157086.152002625,0.1018323558657959,-0.1559730892465617,0.1733616669520161,157086.140894625,-105.4300994873047,-29.76113891601562,-547.3847045898438,157086.152002625,0.1258643278755157,-1.039439241198048,-0.5702163224663974,0.09948193281888962,-0.1619602143764496,0.1703491359949112,0.02576804161071777,0.009654819965362549,0.01569235324859619,1,-0.2136668860912323,-0.4909977912902832,0.1917910277843475,0.822486400604248,-0.7257192134857178,0.5398141741752625,-0.4265352487564087,0,0,0,-1,157085.941309625,3,2,1561827148.641366,1561827055.717469,12,1.562096,0,0,11.78992,0,0,1561827143.457785,157083.071394,0,0.420166,75.37234,0,182478453,5,1,0.19,-35.20857,-39.08973,2
1561827148.860058,5,0,0,1561827147.998842,4.634686396461571,-74.15107117972723,2552.814,-1,-1,4,10,-9999,1561827148.851488,-26.87491607666016,-1.056953430175781,16.0576171875,98.73062896728516,106.2238235473633,15,157086.181391625,-0.70074462890625,0.558258056640625,-0.4176788330078125,157086.172266625,0.09685703831730982,-0.1611870260287189,0.2071803506866053,157086.161005625,-105.6481323242188,-29.356689453125,-547.1864013671875,157086.172266625,0.1301254333010038,-1.040454177887722,-0.5725637595651278,0.09450662136077881,-0.1671741455793381,0.204167827963829,0.02386945486068726,0.01308190822601318,0.009690046310424805,1,-0.2135078459978104,-0.491768479347229,0.1941907554864883,0.8215035796165466,-0.7250566482543945,0.5417886972427368,-0.4251563251018524,0,0,0,-1,157085.941309625,3,2,1561827148.641366,1561827055.717469,12,1.562096,0,0,11.78992,0,0,1561827143.457785,157083.071394,0,0.420166,75.37234,0,182478453,5,1,0.19,-35.76585,-39.65064,2
1561827148.875934,6,0,0,1561827147.998842,4.634686396461571,-74.15107117972723,2552.814,-1,-1,4,10,-9999,1561827148.851488,-26.87491607666016,-1.056953430175781,16.0576171875,98.73062896728516,106.2238235473633,15,157086.201654625,-0.7006072998046875,0.5628204345703125,-0.419677734375,157086.192530625,0.1149862411219152,-0.1647620534760412,0.2358617966784317,157086.181147625,-105.6780853271484,-29.40621948242188,-546.8887939453125,157086.192530625,0.134908260282852,-1.04126432662563,-0.5753746282458576,0.1126358211040497,-0.1707491725683212,0.2328492701053619,0.02309489250183105,0.01700806617736816,0.005371332168579102,1,-0.2134317755699158,-0.4924915730953217,0.1968864649534225,0.8204478621482849,-0.7240836620330811,0.5441491603851318,-0.4237978458404541,0,0,0,-1,157085.941309625,3,2,1561827148.641366,1561827055.717469,12,1.562096,0,0,11.78992,0,0,1561827143.457785,157083.071394,0,0.420166,75.37234,0,182478453,5,1,0.19,-35.76585,-39.65064,2
1561827148.894006,7,0,0,1561827147.998842,4.634686396461571,-74.15107117972723,2552.814,-1,-1,4,10,-9999,1561827148.878811,-26.997802734375,-1.075153350830078,16.26885986328125,98.35552215576172,105.8487167358398,15,157086.221918625,-0.7012481689453125,0.5598907470703125,-0.4193115234375,157086.212793625,0.1514238774724884,-0.1620389712614352,0.2633743812678223,157086.201258625,-105.5508422851562,-29.19630432128906,-547.1139526367188,157086.212793625,0.1406633308032093,-1.041453670382114,-0.5783877777725639,0.149073451757431,-0.1680260896682739,0.2603618800640106,0.02210766077041626,0.01405531167984009,0.002436041831970215,1,-0.2132596522569656,-0.4930566549301147,0.1999572366476059,0.819409966468811,-0.7227454781532288,0.5466746687889099,-0.4228309094905853,0,0,0,-1,157085.941309625,3,2,1561827148.641366,1561827055.717469,12,1.562096,0,0,11.78992,0,0,1561827143.457785,157083.071394,0,0.420166,75.37234,0,182478453,5,1,0.19,-36.32313,-40.12245,2
1561827148.914066,8,0,0,1561827147.998842,4.634686396461571,-74.15107117972723,2552.814,-1,-1,4,10,-9999,1561827148.902267,-26.76275634765625,-0.8902664184570312,16.25714111328125,97.88304901123047,105.3762435913086,15,157086.242182625,-0.703338623046875,0.5565338134765625,-0.4144134521484375,157086.233057625,0.1930410958271566,-0.1796467271246031,0.276740520462821,157086.221399625,-105.5543212890625,-29.07174682617188,-547.09814453125,157086.233057625,0.1475005849001395,-1.041276506607862,-0.5813554692542715,0.1906906813383102,-0.1856338530778885,0.2737280130386353,0.02098017930984497,0.01059615612030029,0.006289780139923096,1,-0.2128365039825439,-0.493590772151947,0.2034168839454651,0.8183460831642151,-0.72126704454422,0.5491572618484497,-0.4221375584602356,0,0,0,-1,157085.941309625,3,2,1561827148.641366,1561827055.717469,12,1.562096,0,0,11.78992,0,0,1561827143.457785,157083.071394,0,0.420166,75.37234,0,182478453,5,1,0.19,-36.26852,-40.34938,2
1561827148.938832,9,0,0,1561827147.998842,4.634686396461571,-74.15107117972723,2552.814,-1,-1,4,10,-9999,1561827148.92853,-26.79508972167969,-0.3513946533203125,16.40496826171875,97.32400512695312,104.8171997070312,15,157086.262445625,-0.7232513427734375,0.552215576171875,-0.4015960693359375,157086.253321625,0.2298667547485543,-0.1841519967406902,0.2777442658776719,157086.241510625,-105.3976440429688,-28.65840148925781,-546.690673828125,157086.253321625,0.1553361284992733,-1.040860948727657,-0.5840966201008365,0.2275163382291794,-0.19013911485672,0.2747317552566528,0.008287966251373291,0.002432763576507568,0.01157951354980469,1,-0.212094783782959,-0.4941441416740417,0.2072019129991531,0.817254364490509,-0.7197900414466858,0.5514460206031799,-0.4216747283935547,0,0,0,-1,157085.941309625,3,2,1561827148.641366,1561827055.717469,12,1.562096,0,0,11.78992,0,0,1561827143.457785,157083.071394,0,0.420166,75.37234,0,182478453,5,1,0.19,-36.26852,-40.98851,2
1561827148.954519,10,0,0,1561827147.998842,4.634686396461571,-74.15107117972723,2552.814,-1,-1,4,10,-9999,1561827148.952787,-26.49810028076172,-0.03223037719726562,16.529296875,96.80223083496094,104.2954254150391,15,157086.282709625,-0.7236785888671875,0.5374908447265625,-0.3958740234375,157086.273584625,0.1961364879621557,-0.1735283808362551,0.2418744154715036,157086.261652625,-105.4004211425781,-28.43473815917969,-546.9389038085938,157086.273584625,0.1630818413055326,-1.040343482854055,-0.5865110845316852,0.1937860697507858,-0.1795154958963394,0.2388618886470795,-0.00687485933303833,-0.012381911277771,0.02148520946502686,1,-0.2112476527690887,-0.4946597516536713,0.2108590602874756,0.8162258267402649,-0.7184211611747742,0.553458571434021,-0.4213723242282867,0,0,0,-1,157085.941309625,3,2,1561827148.641366,1561827055.717469,12,1.562096,0,0,11.78992,0,0,1561827143.457785,157083.071394,0,0.420166,75.37234,0,182478453,5,1,0.19,-36.26852,-41.56947,2
1561827148.976035,11,0,0,1561827147.998842,4.634686396461571,-74.15107117972723,2552.814,-1,-1,4,10,-9999,1561827148.952787,-26.49810028076172,-0.03223037719726562,16.529296875,96.80223083496094,104.2954254150391,15,157086.302973625,-0.72711181640625,0.5378875732421875,-0.397491455078125,157086.293848625,0.1181844312749914,-0.154232447158086,0.197524261206196,157086.281763625,-104.8153991699219,-28.17095947265625,-546.669677734375,157086.293848625,0.1690008329666835,-1.040615637155765,-0.5887135314644826,0.1158340126276016,-0.1602195650339127,0.194511741399765,-0.007447242736816406,-0.01938766241073608,0.02468538284301758,1,-0.2106784284114838,-0.4953129291534424,0.2138010412454605,0.8152109980583191,-0.7174825668334961,0.5552915930747986,-0.4205594062805176,0,0,0,-1,157085.941309625,3,2,1561827148.641366,1561827055.717469,12,1.562096,0,0,11.78992,0,0,1561827143.457785,157083.071394,0,0.420166,75.37234,0,182478453,5,1,0.19,-36.26852,-42.31791,2
1561827148.995162,12,0,0,1561827147.998842,4.634686396461571,-74.15107117972723,2552.814,-1,-1,4,10,-9999,1561827148.97952,-26.54985809326172,0.1413154602050781,16.70086669921875,96.45545196533203,103.9486465454102,15,157086.323236625,-0.7265167236328125,0.543243408203125,-0.40216064453125,157086.314112625,0.05103655281416952,-0.102710666393304,0.1725416796523807,157086.301905625,-105.0904998779297,-28.025634765625,-546.686767578125,157086.314112625,0.1729379395635732,-1.041162287817252,-0.5911393049045334,0.04868612810969353,-0.1086977794766426,0.1695291548967361,-0.01140326261520386,-0.01578819751739502,0.01872849464416504,1,-0.2106622457504272,-0.4958616197109222,0.2160113751888275,0.8142983913421631,-0.7165477275848389,0.5573073625564575,-0.419485330581665,0,0,0,-1,157085.941309625,3,2,1561827148.641366,1561827055.717469,12,1.562096,0,0,11.78992,0,0,1561827143.457785,157083.071394,0,0.420166,75.37234,0,182478453,5,1,0.19,-36.26852,-42.58521,2
1561827149.017891,13,0,0,1561827147.998842,4.634686396461571,-74.15107117972723,2552.814,-1,-1,4,10,-9999,1561827149.003875,-26.58673095703125,0.1465415954589844,16.71636962890625,96.23835754394531,103.7315521240234,15,157086.343500625,-0.7238616943359375,0.5477142333984375,-0.4102020263671875,157086.334375625,0.05525366840030999,-0.0771573694178847,0.1477282088277854,157086.322046625,-105.0751037597656,-28.09161376953125,-546.6846313476562,157086.334375625,0.1758498352947848,-1.041382638213012,-0.5934153419337044,0.05290324613451958,-0.08314448595046997,0.1447156816720963,-0.009996652603149414,-0.01309895515441895,0.01260358095169067,1,-0.210871234536171,-0.4961758255958557,0.2177339643239975,0.8135938048362732,-0.7155435085296631,0.5591956973075867,-0.4186857342720032,0,0,0,-1,157085.941309625,3,2,1561827148.641366,1561827055.717469,12,1.562096,0,0,11.78992,0,0,1561827143.457785,157083.071394,0,0.420166,75.37234,0,182478453,5,1,0.19,-36.26852,-42.90109,2
1561827149.035534,14,0,0,1561827147.998842,4.634686396461571,-74.15107117972723,2552.814,-1,-1,4,10,-9999,1561827149.030196,-26.51505279541016,0.2968082427978516,16.70831298828125,96.00464630126953,103.4978408813477,15,157086.363733625,-0.7220458984375,0.5537109375,-0.4068603515625,157086.354608625,0.09483117167608655,-0.06153739699235195,0.1361314738610354,157086.342157625,-105.3674163818359,-28.1392822265625,-546.6489868164062,157086.354608625,0.179087378311701,-1.041163993093855,-0.5950163602894788,0.09248074889183044,-0.06752451509237289,0.1331189423799515,-0.009549617767333984,-0.009023904800415039,0.008767068386077881,1,-0.2107635140419006,-0.496370941400528,0.2193887978792191,0.8130578398704529,-0.7146782875061035,0.5605223178863525,-0.4183892607688904,0,0,0,-1,157085.941309625,3,2,1561827148.641366,1561827055.717469,12,1.562096,0,0,11.78992,0,0,1561827143.457785,157083.071394,0,0.420166,75.37234,0,182478453,5,1,0.19,-36.26852,-42.90109,2
1561827149.055757,15,0,0,1561827148.998829,4.634679355662907,-74.15107696324041,2552.743,-1,-1,4,10,-9999,1561827149.030196,-26.51505279541016,0.2968082427978516,16.70831298828125,96.00464630126953,103.4978408813477,15,157086.383997625,-0.71734619140625,0.5548248291015625,-0.4022674560546875,157086.374872625,0.1008975863231781,-0.06286791227295553,0.1484445991610167,157086.362299625,-105.2573394775391,-27.93348693847656,-546.3359375,157086.374872625,0.1829133358865322,-1.040290277581355,-0.5963811161997054,0.09853736311197281,-0.06886755675077438,0.1454340070486069,-0.00839388370513916,-0.007941067218780518,0.01176577806472778,1,-0.2104828655719757,-0.4963707327842712,0.221159040927887,0.8126510381698608,-0.7136520147323608,0.5616520047187805,-0.4186261296272278,0,0,0,-1,157085.941309625,3,2,1561827148.641366,1561827055.717469,12,1.562096,0,0,11.78992,0,0,1561827143.457785,157083.071394,0,0.420166,75.37234,0,182478453,5,1,0.19,-36.26852,-43.25307,2
1561827149.076279,16,0,0,1561827148.998829,4.634679355662907,-74.15107696324041,2552.743,-1,-1,4,10,-9999,1561827149.063666,-26.59803009033203,0.4192485809326172,16.86846923828125,95.72954559326172,103.2227401733398,15,157086.404261625,-0.7135467529296875,0.55889892578125,-0.4000396728515625,157086.395136625,0.09359013860810964,-0.08747152600365257,0.1581456960638484,157086.382410625,-105.2357025146484,-27.79280090332031,-546.3701171875,157086.395136625,0.1866589083422123,-1.039827452675584,-0.5979524009008784,0.09122991561889648,-0.09347116947174072,0.1551351100206375,-0.002071261405944824,-0.005624055862426758,0.01927793025970459,1,-0.2102639526128769,-0.4965225160121918,0.2229848355054855,0.8121157884597778,-0.7126961946487427,0.5629513263702393,-0.418508917093277,0,0,0,-1,157085.941309625,3,2,1561827148.641366,1561827055.717469,12,1.562096,0,0,11.78992,0,0,1561827143.457785,157083.071394,0,0.420166,75.37234,0,182478453,5,1,0.19,-36.26852,-43.54587,2
1561827149.097136,17,0,0,1561827148.998829,4.634679355662907,-74.15107696324041,2552.743,-1,-1,4,10,-9999,1561827149.063666,-26.59803009033203,0.4192485809326172,16.86846923828125,95.72954559326172,103.2227401733398,15,157086.424524625,-0.7102813720703125,0.568939208984375,-0.404815673828125,157086.415400625,0.1209482598542756,-0.1374665165154921,0.17954286384209,157086.402552625,-105.1134338378906,-27.94320678710938,-546.3511352539062,157086.415400625,0.1908340051783588,-1.039910363728012,-0.599719062486092,0.118588037788868,-0.1434661746025085,0.1765322834253311,0.0005380511283874512,-0.0008424520492553711,0.0157088041305542,1,-0.2099591493606567,-0.4969348907470703,0.2250841856002808,0.8113631010055542,-0.7118722796440125,0.5644105672836304,-0.4179457426071167,0,0,0,-1,157085.941309625,3,2,1561827148.641366,1561827055.717469,12,1.562096,0,0,11.78992,0,0,1561827143.457785,157083.071394,0,0.420166,75.37234,0,182478453,5,1,0.19,-36.26852,-44.17897,2
1561827149.11655,18,0,0,1561827148.998829,4.634679355662907,-74.15107696324041,2552.743,-1,-1,4,10,-9999,1561827149.104732,-26.54187774658203,0.7660770416259766,16.85931396484375,95.08812713623047,102.5813217163086,15,157086.444788625,-0.7053680419921875,0.57183837890625,-0.4046630859375,157086.435663625,0.1729302348554233,-0.1619425648299744,0.2062831317153576,157086.422693625,-105.3334350585938,-27.79472351074219,-546.7115478515625,157086.435663625,0.1962032290025056,-1.040118141852183,-0.6015289578130943,0.1705700159072876,-0.1679422110319138,0.2032725512981415,0.002824902534484863,0.005644738674163818,0.01113688945770264,1,-0.2093602865934372,-0.4975220859050751,0.2276880145072937,0.8104308843612671,-0.7110768556594849,0.5659037232398987,-0.4172800779342651,0,0,0,-1,157085.941309625,3,2,1561827148.641366,1561827055.717469,12,1.562096,0,0,11.78992,0,0,1561827143.457785,157084.018002,0,0.4755859,75.37182,0,182478453,5,1,0.19,-36.26852,-44.45331,2
1561827149.136849,19,0,0,1561827148.998829,4.634679355662907,-74.15107696324041,2552.743,-1,-1,4,10,-9999,1561827149.131174,-26.31443023681641,1.051382064819336,17.03289794921875,94.61459350585938,102.1077880859375,15,157086.465052625,-0.708984375,0.5679168701171875,-0.403411865234375,157086.455927625,0.1972683314254394,-0.1824859231627366,0.2302326730823312,157086.442804625,-105.0285186767578,-27.39881896972656,-546.398193359375,157086.455927625,0.2028008455340644,-1.040064453108893,-0.6033757001509256,0.1949081122875214,-0.1884855777025223,0.2272220849990845,0.003929376602172852,0.004001021385192871,0.01281207799911499,1,-0.2084991782903671,-0.4981303215026855,0.2307665199041367,0.8094078302383423,-0.7101519107818604,0.5674253106117249,-0.4167885482311249,0,0,0,-1,157085.941309625,3,2,1561827148.641366,1561827055.717469,12,1.562096,0,0,11.78992,0,0,1561827143.457785,157084.018002,0,0.4755859,75.37182,0,182478453,5,1,0.19,-36.26852,-44.99112,2
1561827149.160069,20,0,0,1561827148.998829,4.634679355662907,-74.15107696324041,2552.743,-1,-1,4,10,-9999,1561827149.155397,-26.24842071533203,1.258871078491211,17.04425048828125,94.12537384033203,101.6185684204102,15,157086.485315625,-0.7131195068359375,0.557525634765625,-0.3968963623046875,157086.476191625,0.1914200296716254,-0.1678254876779594,0.2241593342164055,157086.462946625,-105.0858764648438,-27.21800231933594,-546.4462280273438,157086.476191625,0.2097576595182708,-1.039832613550768,-0.6053405008004662,0.1890598088502884,-0.1738251447677612,0.221148744225502,-0.002073884010314941,-0.007045626640319824,0.01778250932693481,1,-0.2076169848442078,-0.4986995756626129,0.2339934259653091,0.8083569407463074,-0.7090924978256226,0.5690420866012573,-0.4163878560066223,0,0,0,-1,157085.941309625,3,2,1561827148.641366,1561827055.717469,12,1.562096,0,0,11.78992,0,0,1561827143.457785,157084.018002,0,0.4755859,75.37182,0,182478453,5,1,0.19,-36.26852,-45.55452,2
1561827149.182959,21,0,0,1561827148.998829,4.634679355662907,-74.15107696324041,2552.743,-1,-1,4,10,-9999,1561827149.155397,-26.24842071533203,1.258871078491211,17.04425048828125,94.12537384033203,101.6185684204102,15,157086.505579625,-0.7151336669921875,0.5543060302734375,-0.3914794921875,157086.496454625,0.1626887825674146,-0.1432548971447793,0.1910397302679621,157086.483057625,-104.9284362792969,-27.15931701660156,-546.2291870117188,157086.496454625,0.2160451466184617,-1.039539651802718,-0.6071022475010992,0.1603285521268845,-0.1492545455694199,0.1880291402339935,-0.005548536777496338,-0.01647382974624634,0.02256286144256592,1,-0.2068223357200623,-0.4991803467273712,0.236893892288208,0.8074185252189636,-0.7081050276756287,0.5704899430274963,-0.4160870015621185,0,0,0,-1,157085.941309625,3,2,1561827148.641366,1561827055.717469,12,1.562096,0,0,11.78992,0,0,1561827143.457785,157084.018002,0,0.4755859,75.37182,0,182478453,5,1,0.19,-36.26852,-41.79773,2
1561827149.197586,22,0,0,1561827148.998829,4.634679355662907,-74.15107696324041,2552.743,-1,-1,4,10,-9999,1561827149.184293,-26.21862030029297,1.392267227172852,17.3140869140625,93.71988677978516,101.2130813598633,15,157086.525843625,-0.71405029296875,0.5554046630859375,-0.3908233642578125,157086.516718625,0.118876853158412,-0.1300661244783799,0.1712508454720193,157086.503199625,-104.7828521728516,-27.09114074707031,-545.7728271484375,157086.516718625,0.2211398268661102,-1.039545987105342,-0.6087799733523933,0.1165166273713112,-0.1360657811164856,0.1682402640581131,-0.007958948612213135,-0.01739317178726196,0.02509415149688721,1,-0.2062535434961319,-0.4996608197689056,0.2393215894699097,0.8065505027770996,-0.7072815299034119,0.571867048740387,-0.4155970811843872,0,0,0,-1,157085.941309625,3,2,1561827148.641366,1561827055.717469,12,1.562096,0,0,11.78992,0,0,1561827143.457785,157084.018002,0,0.4755859,75.37182,0,182478453,5,1,0.19,-36.26852,-41.79773,2
1561827149.217879,23,0,0,1561827148.998829,4.634679355662907,-74.15107696324041,2552.743,-1,-1,4,10,-9999,1561827149.205862,-25.95307159423828,1.588977813720703,17.46392822265625,93.40546417236328,100.8986587524414,15,157086.546106625,-0.712127685546875,0.559722900390625,-0.3949737548828125,157086.536982625,0.1051229577086978,-0.1107885666117323,0.1563885423766141,157086.523310625,-104.7301483154297,-26.83439636230469,-545.9175415039062,157086.536982625,0.2254348910800448,-1.039655543138238,-0.6104815798508589,0.1027627289295197,-0.1167882159352303,0.1533779501914978,-0.006449460983276367,-0.01508033275604248,0.02275317907333374,1,-0.2058809995651245,-0.5000999569892883,0.2414400279521942,0.8057417273521423,-0.7064869999885559,0.573262095451355,-0.4150260984897614,0,0,0,-1,157085.941309625,3,2,1561827148.641366,1561827055.717469,12,1.562096,0,0,11.78992,0,0,1561827143.457785,157084.018002,0,0.4755859,75.37182,0,182478453,5,1,0.19,-36.26852,-42.0996,2
1561827149.238087,24,0,0,1561827148.998829,4.634679355662907,-74.15107696324041,2552.743,-1,-1,4,10,-9999,1561827149.232467,-25.86933135986328,1.663406372070312,17.47607421875,93.11856079101562,100.6117553710938,15,157086.566370625,-0.705963134765625,0.5663299560546875,-0.397491455078125,157086.557245625,0.106777846010073,-0.103617472744476,0.1406021223829514,157086.543451625,-104.7360687255859,-26.6356201171875,-546.0487670898438,157086.557245625,0.2294499021545487,-1.039652964993711,-0.6119348418102187,0.104417622089386,-0.1096171215176582,0.137591540813446,-0.002668201923370361,-0.01181495189666748,0.01798379421234131,1,-0.205486848950386,-0.5004721879959106,0.2433770447969437,0.8050281405448914,-0.7057667970657349,0.57445228099823,-0.4146054983139038,0,0,0,-1,157085.941309625,3,2,1561827148.641366,1561827055.717469,12,1.562096,0,0,11.78992,0,0,1561827143.457785,157084.018002,0,0.4755859,75.37182,0,182478453,5,1,0.19,-36.26852,-42.74265,2
1561827149.258511,25,0,0,1561827148.998829,4.634679355662907,-74.15107696324041,2552.743,-1,-1,4,10,-9999,1561827149.257107,-26.25112152099609,1.749919891357422,17.5374755859375,92.82054901123047,100.3137435913086,15,157086.586592375,-0.705596923828125,0.5753021240234375,-0.3975677490234375,157086.577467375,0.1162594984390821,-0.09980622290846358,0.1462765197175832,157086.563582375,-104.7471008300781,-26.5941162109375,-545.872314453125,157086.577467375,0.2334614641090552,-1.039554010671754,-0.6132258134894009,0.1138992756605148,-0.105805866420269,0.1432659327983856,-0.0008010268211364746,-0.006218314170837402,0.01668578386306763,1,-0.2050365060567856,-0.5008097290992737,0.2452650666236877,0.8043597936630249,-0.705085813999176,0.5755085349082947,-0.4142992794513702,0,0,0,-1,157085.941309625,3,2,1561827148.641366,1561827055.717469,12,1.562096,0,0,11.78992,0,0,1561827143.457785,157084.018002,0,0.4755859,75.37182,0,182478453,5,1,0.19,-36.26852,-43.38018,2
1561827149.278618,26,0,0,1561827148.998829,4.634679355662907,-74.15107696324041,2552.743,-1,-1,4,10,-9999,1561827149.257107,-26.25112152099609,1.749919891357422,17.5374755859375,92.82054901123047,100.3137435913086,15,157086.606856375,-0.7068634033203125,0.5772247314453125,-0.3935089111328125,157086.597731375,0.1449401454825815,-0.1116013633764245,0.1626480362027364,157086.583693375,-104.76513671875,-26.17559814453125,-545.6782836914062,157086.597731375,0.238083016059393,-1.039157362360768,-0.6145218421782801,0.1425799131393433,-0.1176010072231293,0.159637451171875,-0.0006476640701293945,0.0004432201385498047,0.01901304721832275,1,-0.2044716626405716,-0.5010899305343628,0.2473670393228531,0.8036850690841675,-0.7042778730392456,0.5765678882598877,-0.4142004549503326,0,0,0,-1,157085.941309625,3,2,1561827148.641366,1561827055.717469,12,1.562096,0,0,11.78992,0,0,1561827143.457785,157084.018002,0,0.4755859,75.37182,0,182478453,5,1,0.19,-36.26852,-43.06401,2
1561827149.298848,27,0,0,1561827148.998829,4.634679355662907,-74.15107696324041,2552.743,-1,-1,4,10,-9999,1561827149.28312,-26.18755340576172,2.039545059204102,17.59185791015625,92.46524047851562,99.95843505859375,15,157086.627119375,-0.71630859375,0.571746826171875,-0.3899078369140625,157086.617995375,0.1529048613546815,-0.1152853141123311,0.1484113096473907,157086.603835375,-104.5655975341797,-26.39036560058594,-546.1092529296875,157086.617995375,0.2431881181060862,-1.038712584844693,-0.6156851021035223,0.1505446285009384,-0.1212849617004395,0.1454007178544998,-0.008353054523468018,-0.001803874969482422,0.0232124924659729,1,-0.2037356942892075,-0.5014032125473022,0.2496269941329956,0.8029776215553284,-0.7035152316093445,0.5775179862976074,-0.4141731560230255,0,0,0,-1,157085.941309625,3,2,1561827148.641366,1561827055.717469,12,1.562096,0,0,11.78992,0,0,1561827143.457785,157084.018002,0,0.4755859,75.37182,0,182478453,5,1,0.19,-36.26852,-43.72573,2
1561827149.319196,28,0,0,1561827148.998829,4.634679355662907,-74.15107696324041,2552.743,-1,-1,4,10,-9999,1561827149.307536,-25.79877471923828,2.25828742980957,17.60430908203125,92.130615234375,99.62380981445312,15,157086.647383375,-0.7190704345703125,0.571044921875,-0.3873291015625,157086.638258375,0.1316411179470528,-0.09459255244241545,0.0984661202479357,157086.623946375,-104.6708984375,-26.22216796875,-545.7698974609375,157086.638258375,0.2476798679330909,-1.038453734150463,-0.6162821273149995,0.1292808949947357,-0.1005921959877014,0.09545553475618362,-0.01504427194595337,-0.00920337438583374,0.02604228258132935,1,-0.2028922587633133,-0.5017416477203369,0.2515339553356171,0.8023843169212341,-0.7031106948852539,0.5780052542686462,-0.4141800999641418,0,0,0,-1,157085.941309625,3,2,1561827148.641366,1561827055.717469,12,1.562096,0,0,11.78992,0,0,1561827143.457785,157084.018002,0,0.4755859,75.37182,0,182478453,5,1,0.19,-36.26852,-43.72573,2
1561827149.339498,29,0,0,1561827148.998829,4.634679355662907,-74.15107696324041,2552.743,-1,-1,4,10,-9999,1561827149.333934,-25.83138275146484,2.208591461181641,17.8260498046875,91.85006713867188,99.34326171875,15,157086.667647375,-0.731170654296875,0.5807647705078125,-0.3828277587890625,157086.658522375,0.140085202815367,-0.09265643432992784,0.1239352613329085,157086.644087375,-104.5316162109375,-26.32492065429688,-545.5682373046875,157086.658522375,0.2514731698893706,-1.038229462604947,-0.6166703075071032,0.137724980711937,-0.09865608066320419,0.120924673974514,-0.02091521024703979,-0.002211153507232666,0.02626907825469971,1,-0.2021316140890121,-0.5020267963409424,0.2531173229217529,0.8018998503684998,-0.7028244137763977,0.5783219933509827,-0.4142238199710846,0,0,0,-1,157085.941309625,3,2,1561827148.641366,1561827055.717469,12,1.562096,0,0,11.78992,0,0,1561827143.457785,157084.018002,0,0.4755859,75.37182,0,182478453,5,1,0.19,-36.26852,-43.96841,2
1561827149.359806,30,0,0,1561827148.998829,4.634679355662907,-74.15107696324041,2552.743,-1,-1,4,10,-9999,1561827149.357989,-25.57530212402344,2.422590255737305,17.789794921875,90.99840545654297,98.49160003662109,15,157086.687910375,-0.780029296875,0.587860107421875,-0.3386383056640625,157086.678786375,0.4791972223239528,-0.250794939858833,0.3407040572082351,157086.664229375,-104.3333129882812,-25.83110046386719,-545.4986572265625,157086.678786375,0.2599375757789088,-1.036613479131319,-0.6175771402777157,0.4768369793891907,-0.2567946016788483,0.337693452835083,-0.04501688480377197,0.003122329711914062,0.0489267110824585,1,-0.2005932629108429,-0.5022115111351013,0.2565438449382782,0.8010812401771545,-0.7017025351524353,0.5790615677833557,-0.415091872215271,0,0,0,-1,157085.941309625,3,2,1561827148.641366,1561827055.717469,12,1.562096,0,0,11.78992,0,0,1561827143.457785,157084.018002,0,0.4755859,75.37182,0,182478453,5,1,0.19,-36.26852,-44.31227,2
1561827149.380003,31,0,0,1561827148.998829,4.634679355662907,-74.15107696324041,2552.743,-1,-1,4,10,-9999,1561827149.357989,-25.57530212402344,2.422590255737305,17.789794921875,90.99840545654297,98.49160003662109,15,157086.708174375,-0.8470001220703125,0.6110076904296875,-0.274932861328125,157086.699049375,1.133499683165597,-0.6364078825290743,0.6023660258951364,157086.684340375,-104.3688201904297,-25.62651062011719,-545.790283203125,157086.699049375,0.282946839700874,-1.032304022059027,-0.6176823235445494,1.131139397621155,-0.6424074769020081,0.5993554592132568,-0.115818977355957,0.020172119140625,0.1102957129478455,1,-0.1954187601804733,-0.5027635097503662,0.2653449773788452,0.7991447448730469,-0.699854850769043,0.5791472792625427,-0.4180807173252106,0,0,0,-1,157085.941309625,3,2,1561827148.641366,1561827055.717469,12,1.562096,0,0,11.78992,0,0,1561827143.457785,157084.018002,0,0.4755859,75.37182,0,182478453,5,1,0.19,-36.26852,-44.80985,2
1561827149.401327,32,0,0,1561827148.998829,4.634679355662907,-74.15107696324041,2552.743,-1,-1,4,10,-9999,1561827149.38438,-25.57785797119141,3.056690216064453,17.717529296875,88.73169708251953,96.22489166259766,15,157086.728438375,-0.9163970947265625,0.620269775390625,-0.2701568603515625,157086.719313375,1.57783932261372,-0.9759270993683332,0.7165064470548426,157086.704482375,-103.9487762451172,-24.99494934082031,-545.5231323242188,157086.719313375,0.3212154620400061,-1.026787516628374,-0.6146974131130045,1.575479030609131,-0.9819267392158508,0.7134958505630493,-0.1823336482048035,0.03533393144607544,0.1613686084747314,1,-0.1852783262729645,-0.5042399764060974,0.2794466316699982,0.7958163022994995,-0.6990140080451965,0.5767113566398621,-0.4228279888629913,0,0,0,-1,157085.941309625,3,2,1561827148.641366,1561827055.717469,12,1.562096,0,0,11.78992,0,0,1561827143.457785,157084.018002,0,0.4755859,75.37182,0,182478453,5,1,0.19,-36.26852,-44.14677,2
1561827149.420543,33,0,0,1561827148.998829,4.634679355662907,-74.15107696324041,2552.743,-1,-1,4,10,-9999,1561827149.411528,-24.86604309082031,4.436347961425781,18.3116455078125,85.78897094726562,93.28216552734375,15,157086.748702375,-0.9915924072265625,0.5959014892578125,-0.31842041015625,157086.739577375,1.349325187382817,-0.9733824489467625,0.6859842241175534,157086.724593375,-103.6200714111328,-24.18901062011719,-545.3379516601562,157086.739577375,0.361884896585301,-1.023249716185503,-0.6110900956626624,1.346964955329895,-0.9793820381164551,0.6829736232757568,-0.2407779693603516,0.03161656856536865,0.1337302923202515,1,-0.1739868223667145,-0.5064970850944519,0.2945176362991333,0.7914851307868958,-0.6992854475975037,0.5737606287002563,-0.4263785779476166,0,0,0,-1,157085.941309625,3,2,1561827148.641366,1561827055.717469,12,1.562096,0,0,11.78992,0,0,1561827143.457785,157084.018002,0,0.4755859,75.37182,0,182478453,5,1,0.19,-36.26852,-44.73451,2
1561827149.441154,34,0,0,1561827148.998829,4.634679355662907,-74.15107696324041,2552.743,-1,-1,4,10,-9999,1561827149.43501,-24.27165985107422,5.024362564086914,18.61846923828125,83.67578887939453,91.16898345947266,15,157086.768965375,-1.052352905273438,0.58343505859375,-0.4532470703125,157086.759840375,0.7169171064949328,-0.7671579067753865,0.5403319493594847,157086.744734375,-103.3482971191406,-23.4859619140625,-544.903076171875,157086.759840375,0.3918866447849257,-1.024497202843188,-0.6109118169472588,0.714556872844696,-0.77315753698349,0.5373213887214661,-0.3257458209991455,0.01662588119506836,0.03334712982177734,1,-0.1661032736301422,-0.5095391869544983,0.3064244091510773,0.7866916060447693,-0.699904203414917,0.5736145973205566,-0.4255590438842773,0,0,0,-1,157085.941309625,3,2,1561827148.641366,1561827055.717469,12,1.562096,0,0,11.78992,0,0,1561827143.457785,157084.018002,0,0.4755859,75.37182,0,182478453,5,1,0.19,-36.26852,-41.95131,2
1561827149.461102,35,0,0,1561827148.998829,4.634679355662907,-74.15107696324041,2552.743,-1,-1,4,10,-9999,1561827149.459442,-24.10051727294922,5.432292938232422,18.97430419921875,82.70866394042969,90.20185852050781,15,157086.789229375,-1.140960693359375,0.64617919921875,-0.607208251953125,157086.780104375,0.3505534921837842,-0.4336861961394797,0.3082494445839845,157086.764845375,-103.0135040283203,-23.03193664550781,-544.5228271484375,157086.780104375,0.4075168698864512,-1.027518559590954,-0.6130075550436334,0.3481932580471039,-0.4396858513355255,0.3052388429641724,-0.3946009874343872,0.03442645072937012,-0.1003122925758362,1,-0.1625273525714874,-0.5120301246643066,0.3132329285144806,0.7831315994262695,-0.7001560926437378,0.5753300189971924,-0.4228200316429138,0,0,0,-1,157085.941309625,3,2,1561827148.641366,1561827055.717469,12,1.562096,0,0,11.78992,0,0,1561827143.457785,157084.018002,0,0.4755859,75.37182,0,182478453,5,1,0.19,-36.26852,-42.6179,2
1561827149.49456,36,0,0,1561827148.998829,4.634679355662907,-74.15107696324041,2552.743,-1,-1,4,10,-9999,1561827149.486026,-23.93299102783203,5.934185028076172,19.14019775390625,81.69931030273438,89.1925048828125,15,157086.809462375,-1.184371948242188,0.7142181396484375,-0.7671051025390625,157086.800337375,0.646111642592996,-0.2137011006156643,0.008363923719502855,157086.784987375,-102.6457214355469,-22.51560974121094,-544.2512817382812,157086.800337375,0.4191429355033595,-1.027456821779849,-0.6112543956749793,0.6437514424324036,-0.2197007536888123,0.005353338085114956,-0.4622767567634583,0.1087830066680908,-0.2631393671035767,1,-0.1588189601898193,-0.5129176378250122,0.3174211382865906,0.7816238403320312,-0.7009923458099365,0.5738951563835144,-0.4233840703964233,0,0,0,-1,157085.941309625,3,2,1561827148.641366,1561827055.717469,12,1.562096,0,0,11.78992,0,0,1561827143.457785,157084.018002,0,0.4755859,75.37182,0,182478453,5,1,0.19,-36.26852,-43.12609,2
1561827149.501503,37,0,0,1561827148.998829,4.634679355662907,-74.15107696324041,2552.743,-1,-1,4,10,-9999,1561827149.486026,-23.93299102783203,5.934185028076172,19.14019775390625,81.69931030273438,89.1925048828125,15,157086.829726375,-1.194900512695312,0.76513671875,-0.9073333740234375,157086.820601375,1.229930882024603,0.1163734817337375,-0.410539331525056,157086.805098375,-102.4007263183594,-22.42041015625,-544.1549682617188,157086.820601375,0.4364076023971943,-1.019088586083422,-0.5979420064387857,1.227570652961731,0.1103738322854042,-0.4135499000549316,-0.4927860498428345,0.1779935359954834,-0.4108231663703918,1,-0.1501155197620392,-0.5107490420341492,0.320856124162674,0.7833594679832458,-0.7038692235946655,0.5629427433013916,-0.4332014918327332,0,0,0,-1,157085.941309625,3,2,1561827148.641366,1561827055.717469,12,1.562096,0,0,11.78992,0,0,1561827143.457785,157084.018002,0,0.4755859,75.37182,0,182478453,5,1,0.19,-36.26852,-43.12609,2
1561827149.521754,38,0,0,1561827148.998829,4.634679355662907,-74.15107696324041,2552.743,-1,-1,4,10,-9999,1561827149.510341,-23.77297973632812,6.343679428100586,18.76739501953125,80.22686767578125,87.72006225585938,15,157086.849989375,-1.177093505859375,0.84967041015625,-1.027236938476562,157086.840865375,1.567554727116052,0.4918027627116248,-0.8016996387459323,157086.825240375,-102.2774810791016,-21.85736083984375,-544.4317016601562,157086.840865375,0.4576303780087213,-1.001181700111231,-0.5719604144691498,1.565194487571716,0.485803097486496,-0.8047102093696594,-0.4812357425689697,0.2607662677764893,-0.5149879455566406,1,-0.1365925371646881,-0.5045853853225708,0.3227727115154266,0.7890207767486572,-0.708079993724823,0.5412814617156982,-0.4534721374511719,0,0,0,-1,157085.941309625,3,2,1561827148.641366,1561827055.717469,12,1.562096,0,0,11.78992,0,0,1561827143.457785,157084.018002,0,0.4755859,75.37182,0,182478453,5,1,0.19,-36.26852,-43.65014,2
1561827149.542092,39,0,0,1561827148.998829,4.634679355662907,-74.15107696324041,2552.743,-1,-1,4,10,-9999,1561827149.536321,-24.26020050048828,6.459844589233398,18.210205078125,78.71833038330078,86.21152496337891,15,157086.870253375,-1.152084350585938,0.971771240234375,-1.098342895507812,157086.861128375,1.758571820514748,1.001274533991489,-0.973804293663431,157086.845351375,-102.6702575683594,-21.87905883789062,-544.841552734375,157086.861128375,0.4788657305299773,-0.9755048869203201,-0.5380195530242251,1.756211638450623,0.9952749609947205,-0.976814866065979,-0.4514791965484619,0.3972163796424866,-0.5878209471702576,1,-0.120944507420063,-0.4945779144763947,0.3229633569717407,0.7977842688560486,-0.7110116481781006,0.5124363303184509,-0.4815302193164825,0,0,0,-1,157085.941309625,3,2,1561827148.641366,1561827055.717469,12,1.562096,0,0,11.78992,0,0,1561827143.457785,157084.018002,0,0.4755859,75.37182,0,182478453,5,1,0.19,-36.26852,-42.27522,2
1561827149.577112,40,0,0,1561827148.998829,4.634679355662907,-74.15107696324041,2552.743,-1,-1,4,10,-9999,1561827149.536321,-24.26020050048828,6.459844589233398,18.210205078125,78.71833038330078,86.21152496337891,15,157086.890517375,-1.062881469726562,1.01025390625,-1.11480712890625,157086.881392375,1.963258120840495,1.739499592368146,-0.9178038748934628,157086.865492375,-103.0850982666016,-21.69320678710938,-545.7595825195312,157086.881392375,0.5013045080714812,-0.9370527425860011,-0.5005591006195331,1.960897922515869,1.733499884605408,-0.9208144545555115,-0.4160926342010498,0.5264773368835449,-0.5993658304214478,1,-0.1055621951818466,-0.4786428213119507,0.3227590322494507,0.8096815943717957,-0.7069542407989502,0.479916125535965,-0.519515335559845,0,0,0,-1,157085.941309625,3,2,1561827148.641366,1561827055.717469,12,1.562096,0,0,11.78992,0,0,1561827143.457785,157084.018002,0,0.4755859,75.37182,0,182478453,5,1,0.19,-36.26852,-42.77304,2
1561827149.582503,41,0,0,1561827148.998829,4.634679355662907,-74.15107696324041,2552.743,-1,-1,4,10,-9999,1561827149.536321,-24.26020050048828,6.459844589233398,18.210205078125,78.71833038330078,86.21152496337891,15,157086.910780375,-0.9173126220703125,0.9713287353515625,-1.061172485351562,157086.901656375,2.101700419579392,2.595876591454495,-0.7985062422828183,157086.885603375,-103.9018707275391,-21.33146667480469,-546.8699951171875,157086.901656375,0.5260884803176968,-0.8816684555876927,-0.4611522987056477,2.099339962005615,2.589876890182495,-0.8015168309211731,-0.3717026710510254,0.5652735829353333,-0.5453649759292603,1,-0.09156651049852371,-0.4548565745353699,0.323100358247757,0.8248195052146912,-0.6911787986755371,0.4449803233146667,-0.5694421529769897,0,0,0,-1,157085.941309625,3,2,1561827148.641366,1561827055.717469,12,1.562096,0,0,11.78992,0,0,1561827143.457785,157084.018002,0,0.4755859,75.37182,0,182478453,5,1,0.19,-36.26852,-42.77304,2
1561827149.602854,42,0,0,1561827148.998829,4.634679355662907,-74.15107696324041,2552.743,-1,-1,4,10,-9999,1561827149.581555,-24.64913177490234,6.807077407836914,17.366455078125,77.07218170166016,84.56537628173828,15,157086.931044375,-0.72161865234375,0.873321533203125,-0.9799957275390625,157086.921919375,2.032782870574212,3.099580222129357,-0.5061798378564176,157086.905745375,-104.9905090332031,-21.1572265625,-548.2218017578125,157086.921919375,0.5510408443758642,-0.8126254669544261,-0.4231926336211378,2.030422449111938,3.093580722808838,-0.5091903805732727,-0.1624680161476135,0.5207381844520569,-0.4010937809944153,1,-0.08052358031272888,-0.4243202209472656,0.3242001235485077,0.8416428565979004,-0.662040650844574,0.4106735289096832,-0.6269366145133972,0,0,0,-1,157085.941309625,3,2,1561827148.641366,1561827055.717469,12,1.562096,0,0,11.78992,0,0,1561827143.457785,157084.018002,0,0.4755859,75.37182,0,182478453,5,1,0.19,-36.26852,-42.79026,2
1561827149.623307,43,0,0,1561827148.998829,4.634679355662907,-74.15107696324041,2552.743,-1,-1,4,10,-9999,1561827149.612034,-27.31901550292969,7.672237396240234,12.51177978515625,73.53022766113281,81.02342224121094,15,157086.951308375,-0.4961090087890625,0.76092529296875,-0.835052490234375,157086.942183375,1.925483044990484,3.227333124884894,-0.2177429802020776,157086.925856375,-105.6934509277344,-20.52854919433594,-550.1571655273438,157086.942183375,0.5758978688939074,-0.738107191969427,-0.3894689945034523,1.923122763633728,3.221333503723145,-0.2207535654306412,0.0192253589630127,0.4416833817958832,-0.2285885810852051,1,-0.07253970205783844,-0.390596479177475,0.3267890214920044,0.8575438261032104,-0.6224968433380127,0.3796972334384918,-0.6843447685241699,0,0,0,-1,157085.941309625,3,2,1561827148.641366,1561827055.717469,12,1.562096,0,0,11.78992,0,0,1561827143.457785,157084.018002,0,0.4755859,75.37182,0,182478453,5,1,0.19,-36.26852,-43.17196,2
1561827149.655534,44,0,0,1561827148.998829,4.634679355662907,-74.15107696324041,2552.743,-1,-1,4,10,-9999,1561827149.637619,-28.08866119384766,7.942554473876953,10.50830078125,71.71187591552734,79.20507049560547,15,157086.971571375,-0.3024444580078125,0.647705078125,-0.65716552734375,157086.962447375,1.842322377843342,2.512396078660435,0.1000344558138834,157086.945998375,-106.7733001708984,-20.48005676269531,-552.1494140625,157086.962447375,0.6013234753761463,-0.6686920021084086,-0.3597477183763444,1.839962124824524,2.506396532058716,0.0970238670706749,0.1857120990753174,0.3489659130573273,-0.01770031452178955,1,-0.06580254435539246,-0.3584233522415161,0.3313139677047729,0.870306670665741,-0.5802738666534424,0.3520381152629852,-0.7344054579734802,0,0,0,-1,157085.941309625,3,2,1561827148.641366,1561827055.717469,12,1.562096,0,0,11.78992,0,0,1561827143.457785,157084.018002,0,0.4755859,75.37182,0,182478453,5,1,0.19,-36.26852,-43.75526,2
1561827149.663639,45,0,0,1561827148.998829,4.634679355662907,-74.15107696324041,2552.743,-1,-1,4,10,-9999,1561827149.661909,-28.47142791748047,8.451150894165039,9.02825927734375,69.73495483398438,77.2281494140625,15,157086.991835375,-0.1441497802734375,0.5078277587890625,-0.4848480224609375,157086.982710375,1.934533797955118,1.059372724752113,0.2461959269723752,157086.966109375,-107.0334777832031,-19.91862487792969,-554.042724609375,157086.982710375,0.6286805661434339,-0.6240551987790453,-0.3315153685892311,1.932173609733582,1.053372979164124,0.2431853413581848,0.3329095840454102,0.2425169050693512,0.2098793387413025,1,-0.05572117492556572,-0.3364978432655334,0.3383972346782684,0.8770129084587097,-0.5525141358375549,0.3254762589931488,-0.767328679561615,0,0,0,-1,157085.941309625,3,2,1561827148.641366,1561827055.717469,12,1.562096,0,0,11.78992,0,0,1561827143.457785,157084.018002,0,0.4755859,75.37182,0,182478453,5,1,0.19,-36.26852,-43.75526,2
1561827149.683762,46,0,0,1561827148.998829,4.634679355662907,-74.15107696324041,2552.743,-1,-1,4,10,-9999,1561827149.661909,-28.47142791748047,8.451150894165039,9.02825927734375,69.73495483398438,77.2281494140625,15,157087.012099375,-0.053802490234375,0.40887451171875,-0.42529296875,157087.002974375,1.598687080259078,0.3778610133692387,0.4065986520600657,157086.986220375,-106.9561309814453,-19.7723388671875,-555.0534057617188,157087.002974375,0.6563965815986172,-0.6021609989905383,-0.3051420861755479,1.59632682800293,0.3718613684177399,0.4035880565643311,0.4457911252975464,0.160325676202774,0.320665180683136,1,-0.04291651770472527,-0.3242478668689728,0.3469265103340149,0.8790128231048584,-0.5402582883834839,0.3004286885261536,-0.7860429883003235,0,0,0,-1,157085.941309625,3,2,1561827148.641366,1561827055.717469,12,1.562096,0,0,11.78992,0,0,1561827143.457785,157084.018002,0,0.4755859,75.37182,0,182478453,5,1,0.19,-35.72703,-36.19525,2
1561827149.704044,47,0,0,1561827148.998829,4.634679355662907,-74.15107696324041,2552.743,-1,-1,4,10,-9999,1561827149.688228,-28.18927764892578,9.377655029296875,7.549560546875,67.84172058105469,75.33491516113281,15,157087.032332375,-0.00091552734375,0.36932373046875,-0.382080078125,157087.023207375,1.007259189593115,-0.03678864098224559,0.7631519798636894,157087.006361375,-106.7075500488281,-19.19308471679688,-555.7872314453125,157087.023207375,0.6820976106414507,-0.5912644279991243,-0.2896954733555027,1.004898905754089,-0.04278828948736191,0.7601414322853088,0.4976091384887695,0.09933409094810486,0.4227165579795837,1,-0.03369992226362228,-0.317873626947403,0.3562459051609039,0.8780145645141602,-0.534184455871582,0.2856604158878326,-0.7956413626670837,0,0,0,-1,157085.941309625,3,2,1561827148.641366,1561827055.717469,12,1.562096,0,0,11.78992,0,0,1561827143.457785,157084.018002,0,0.4755859,75.37182,0,182478453,5,1,0.19,-35.72703,-36.77208,2
1561827149.735687,48,0,0,1561827148.998829,4.634679355662907,-74.15107696324041,2552.743,-1,-1,4,10,-9999,1561827149.71258,-28.08277893066406,9.918157577514648,7.3883056640625,66.13461303710938,73.6278076171875,15,157087.052596375,0.0125885009765625,0.2603607177734375,-0.436920166015625,157087.043471375,0.3074960363116011,0.04733129678954227,0.9732471603633864,157087.026472375,-107.0299835205078,-18.49967956542969,-556.0817260742188,157087.043471375,0.7051115364985572,-0.5853418029831792,-0.2885097727964325,0.3051358163356781,0.04133164882659912,0.970236599445343,0.5604570508003235,0.02690798044204712,0.3980719447135925,1,-0.03058901242911816,-0.3154803514480591,0.3661041855812073,0.8749310374259949,-0.529649555683136,0.2845239043235779,-0.7990729212760925,0,0,0,-1,157085.941309625,3,2,1561827148.641366,1561827055.717469,12,1.562096,0,0,11.78992,0,0,1561827143.457785,157084.018002,0,0.4755859,75.37182,0,182478453,5,1,0.19,-35.5462,-37.51024,2
1561827149.744782,49,0,0,1561827148.998829,4.634679355662907,-74.15107696324041,2552.743,-1,-1,4,10,-9999,1561827149.738994,-27.98263549804688,10.46872520446777,7.40496826171875,64.78249359130859,72.27568817138672,15,157087.072859375,-0.0195159912109375,0.21343994140625,-0.4816741943359375,157087.063734375,-0.1434349268344687,0.1422498201493834,1.103176132045627,157087.046614375,-106.6727142333984,-17.87406921386719,-555.90283203125,157087.063734375,0.7239204192123525,-0.5785576888156571,-0.2997982931391164,-0.145795151591301,0.1362501680850983,1.100165486335754,0.5126458406448364,-0.05051547288894653,0.3156239986419678,1,-0.03397845104336739,-0.3144705593585968,0.3754290640354156,0.8712099194526672,-0.5224267244338989,0.2953275144100189,-0.7999074459075928,0,0,0,-1,157085.941309625,3,2,1561827148.641366,1561827055.717469,12,1.562096,0,0,11.78992,0,0,1561827143.457785,157084.018002,0,0.4755859,75.37182,0,182478453,5,1,0.19,-33.75612,-38.37081,2
1561827149.764913,50,0,0,1561827148.998829,4.634679355662907,-74.15107696324041,2552.743,-1,-1,4,10,-9999,1561827149.763221,-27.71592712402344,10.98677062988281,7.46258544921875,63.19197845458984,70.68517303466797,15,157087.093123375,-0.073455810546875,0.1434173583984375,-0.3602447509765625,157087.083998375,0.3030131372486707,-0.02232554573424326,1.151347123526872,157087.066725375,-106.2810363769531,-17.54627990722656,-555.75927734375,157087.083998375,0.7443241791229785,-0.5699347516483113,-0.3115918348344565,0.3006529211997986,-0.02832519263029099,1.14833652973175,0.4755851030349731,-0.1337378919124603,0.3794124126434326,1,-0.03772702068090439,-0.3128570914268494,0.3853740692138672,0.8672853708267212,-0.5135947465896606,0.3065741956233978,-0.8013942241668701,0,0,0,-1,157085.941309625,3,2,1561827148.641366,1561827055.717469,12,1.562096,0,0,11.78992,0,0,1561827143.457785,157084.018002,0,0.4755859,75.37182,0,182478453,5,1,0.19,-33.75612,-38.87588,2
1561827149.785901,51,0,0,1561827148.998829,4.634679355662907,-74.15107696324041,2552.743,-1,-1,4,10,-9999,1561827149.763221,-27.71592712402344,10.98677062988281,7.46258544921875,63.19197845458984,70.68517303466797,15,157087.113387375,-0.199859619140625,0.0655670166015625,-0.2967529296875,157087.104262375,0.3658642716067587,-0.4305609766002716,1.166084524367152,157087.086836375,-106.2615203857422,-17.15524291992188,-555.9271850585938,157087.104262375,0.7697840968555517,-0.5669629513927789,-0.3173230032943409,0.3635040521621704,-0.4365606307983398,1.163073897361755,0.3858538866043091,-0.2055027484893799,0.4692378640174866,1,-0.03689595684409142,-0.3129342496395111,0.3969044387340546,0.862077534198761,-0.5102588534355164,0.31202432513237,-0.8014217019081116,0,0,0,-1,157085.941309625,3,2,1561827148.641366,1561827055.717469,12,1.562096,0,0,11.78992,0,0,1561827143.457785,157084.018002,0,0.4755859,75.37182,0,182478453,5,1,0.19,-33.75612,-39.41504,2
1561827149.822878,52,0,0,1561827148.998829,4.634679355662907,-74.15107696324041,2552.743,-1,-1,4,10,-9999,1561827149.81419,-26.21406555175781,12.63826560974121,8.30340576171875,60.06088256835938,67.5540771484375,15,157087.133650375,-0.3244476318359375,0.0166778564453125,-0.154937744140625,157087.124525375,0.1767116572872268,-1.360738164234352,1.15500630686464,157087.106978375,-105.7082214355469,-16.15493774414062,-556.1843872070312,157087.124525375,0.7941321242890725,-0.5757996179679867,-0.3250750458307637,0.1743514239788055,-1.366737842559814,1.151995658874512,0.2589843273162842,-0.2889080941677094,0.6038497686386108,1,-0.03473474085330963,-0.3184008896350861,0.4082839488983154,0.8548207879066467,-0.5159881114959717,0.3193798959255219,-0.7948287129402161,0,0,0,-1,157085.941309625,3,2,1561827148.641366,1561827055.717469,12,1.562096,0,0,11.78992,0,0,1561827143.457785,157084.018002,0,0.4755859,75.37182,0,182478453,5,1,0.19,-29.86895,-31.5379,2
1561827149.82644,53,0,0,1561827148.998829,4.634679355662907,-74.15107696324041,2552.743,-1,-1,4,10,-9999,1561827149.81419,-26.21406555175781,12.63826560974121,8.30340576171875,60.06088256835938,67.5540771484375,15,157087.153914375,-0.9285736083984375,-0.282928466796875,0.2210540771484375,157087.144789375,-0.178567880567012,-4.969266846489373,0.2398554730491145,157087.127089375,-105.4067840576172,-15.53385925292969,-555.5342407226562,157087.144789375,0.8093759700926365,-0.6313824754102322,-0.3350347391809933,-0.180928111076355,-4.975266456604004,0.2368448823690414,-0.05324512720108032,-0.4177454710006714,0.7266095876693726,1,-0.02516068890690804,-0.343804806470871,0.416620671749115,0.8411852121353149,-0.5574421286582947,0.3288019895553589,-0.7623304128646851,0,0,0,-1,157085.941309625,3,2,1561827148.641366,1561827055.717469,12,1.562096,0,0,11.78992,0,0,1561827143.457785,157084.018002,0,0.4755859,75.37182,0,182478453,5,1,0.19,-29.86895,-31.5379,2
1561827149.845932,54,0,0,1561827148.998829,4.634679355662907,-74.15107696324041,2552.743,-1,-1,4,10,-9999,1561827149.840668,-25.39867401123047,12.82205486297607,10.70928955078125,61.08681488037109,68.58000946044922,15,157087.174178375,-1.25469970703125,-0.2054443359375,0.06182861328125,157087.165053375,-0.5421085441226766,-3.826010140038053,-1.025637664275752,157087.147231375,-104.4312286376953,-15.36074829101562,-553.43115234375,157087.165053375,0.7947648038440228,-0.7372813714606649,-0.3324712000066953,-0.5444687604904175,-3.832009792327881,-1.028648257255554,-0.4753006100654602,-0.7138768434524536,0.9767367243766785,1,-0.004792301449924707,-0.387424111366272,0.4110104441642761,0.8251968622207642,-0.6354629397392273,0.3263798952102661,-0.6997591853141785,0,0,0,-1,157085.941309625,3,2,1561827148.641366,1561827055.717469,12,1.562096,0,0,11.78992,0,0,1561827143.457785,157084.018002,0,0.4755859,75.37182,0,182478453,5,1,0.19,-28.41185,-32.18507,2
1561827149.866335,55,0,0,1561827148.998829,4.634679355662907,-74.15107696324041,2552.743,-1,-1,4,10,-9999,1561827149.864674,-25.22132873535156,12.35921478271484,12.290771484375,62.58925628662109,70.08245086669922,15,157087.194441375,-0.884033203125,0.049957275390625,-0.13214111328125,157087.185316375,-0.9329641857148478,-0.8034722387674891,-0.3699503596672673,157087.167342375,-103.9200439453125,-15.85420227050781,-551.4384765625,157087.185316375,0.7719189706755154,-0.78889449918048,-0.3339507512171267,-0.9353244304656982,-0.8094718456268311,-0.3729609251022339,-0.4663751721382141,-0.3462259471416473,0.5494154691696167,1,0.0005056052468717098,-0.4088378548622131,0.4018788933753967,0.8193562626838684,-0.6703740954399109,0.3277780711650848,-0.6657027006149292,0,0,0,-1,157085.941309625,3,2,1561827148.641366,1561827055.717469,12,1.562096,0,0,11.78992,0,0,1561827143.457785,157084.018002,0,0.4755859,75.37182,0,182478453,5,1,0.19,-28.41185,-33.03154,2
1561827149.906396,56,0,0,1561827148.998829,4.634679355662907,-74.15107696324041,2552.743,-1,-1,4,10,-9999,1561827149.893064,-24.98020172119141,11.9758129119873,12.87213134765625,63.14305877685547,70.63625335693359,15,157087.214705375,-0.683380126953125,0.278564453125,-0.174346923828125,157087.205580375,-0.6845863308613708,0.7689257131069812,0.1875925345529635,157087.187483375,-103.6005554199219,-16.33285522460938,-550.1525268554688,157087.205580375,0.7579744093017786,-0.7926225781566251,-0.344649816263916,-0.6869465708732605,0.7629261016845703,0.1845819503068924,-0.08580362796783447,-0.1816476285457611,0.5266812443733215,1,-0.006254344712942839,-0.4118389189243317,0.397742748260498,0.8198477029800415,-0.670315146446228,0.3378671109676361,-0.660699188709259,0,0,0,-1,157085.941309625,3,2,1561827148.641366,1561827055.717469,12,1.562096,0,0,11.78992,0,0,1561827143.457785,157084.018002,0,0.4755859,75.37182,0,182478453,5,1,0.19,-28.41185,-34.12231,2
1561827149.910336,57,0,0,1561827148.998829,4.634679355662907,-74.15107696324041,2552.743,-1,-1,4,10,-9999,1561827149.893064,-24.98020172119141,11.9758129119873,12.87213134765625,63.14305877685547,70.63625335693359,15,157087.234969375,-0.614044189453125,0.3825531005859375,-0.47406005859375,157087.225844375,-0.4267204319922684,1.551317700265948,0.2990953609690551,157087.207594375,-103.6207733154297,-16.4598388671875,-550.3928833007812,157087.225844375,0.7546233654717547,-0.7688808640034727,-0.3564805645121066,-0.4290806651115417,1.545318007469177,0.2960847616195679,-0.001124083995819092,-0.0009710192680358887,0.3844891786575317,1,-0.01681129820644855,-0.4036885499954224,0.3979367017745972,0.8236499428749084,-0.6516164541244507,0.3489782214164734,-0.6735058426856995,0,0,0,-1,157085.941309625,3,2,1561827148.641366,1561827055.717469,12,1.562096,0,0,11.78992,0,0,1561827143.457785,157084.018002,0,0.4755859,75.37182,0,182478453,5,1,0.19,-28.41185,-34.12231,2
1561827149.927174,58,0,0,1561827148.998829,4.634679355662907,-74.15107696324041,2552.743,-1,-1,4,10,-9999,1561827149.915404,-25.3092041015625,11.79560470581055,12.19677734375,63.44380187988281,70.93699645996094,15,157087.255202375,-0.4868927001953125,0.43292236328125,-0.73358154296875,157087.246077375,-0.5866959860411102,1.62113646298401,-0.0781792243281481,157087.227705375,-104.1253051757812,-16.40733337402344,-550.84375,157087.246077375,0.7490017796534807,-0.7379690666531687,-0.3652348504824611,-0.5890561938285828,1.615136742591858,-0.08118981122970581,0.07787257432937622,0.04468679428100586,0.06248152256011963,1,-0.02789974212646484,-0.3920499980449677,0.3964728116989136,0.8296552300453186,-0.6284096837043762,0.3571686744689941,-0.6910368204116821,0,0,0,-1,157085.941309625,3,2,1561827148.641366,1561827055.717469,12,1.562096,0,0,11.78992,0,0,1561827143.457785,157084.018002,0,0.4755859,75.37182,0,182478453,5,1,0.19,-28.41185,-34.84195,2
1561827149.947272,59,0,0,1561827148.998829,4.634679355662907,-74.15107696324041,2552.743,-1,-1,4,10,-9999,1561827149.94167,-25.79627227783203,11.72008514404297,11.590576171875,64.23287963867188,71.72607421875,15,157087.275465375,-0.4286956787109375,0.5109710693359375,-0.8834075927734375,157087.266341375,-0.6880356571052414,1.175848738187819,-0.05524674418147578,157087.247847375,-104.3418731689453,-16.47537231445312,-551.6591186523438,157087.266341375,0.7376988993994948,-0.7132951321792408,-0.3739955130271225,-0.6903958916664124,1.169849038124084,-0.0582573302090168,0.1626570224761963,0.1181065440177917,-0.1162687540054321,1,-0.0388106070458889,-0.3827861845493317,0.3925066590309143,0.8354083299636841,-0.6090986728668213,0.3653376698493958,-0.7039369344711304,0,0,0,-1,157085.941309625,3,2,1561827148.641366,1561827055.717469,12,1.562096,0,0,11.78992,0,0,1561827143.457785,157084.018002,0,0.4755859,75.37182,0,182478453,5,1,0.19,-28.41185,-35.54285,2
1561827149.983027,60,0,0,1561827148.998829,4.634679355662907,-74.15107696324041,2552.743,-1,-1,4,10,-9999,1561827149.966183,-25.97019195556641,11.72101020812988,11.1600341796875,64.67838287353516,72.17157745361328,15,157087.295729375,-0.5154876708984375,0.4734649658203125,-0.9106597900390625,157087.286604375,-0.3821023637212989,0.6060409218833368,0.04304653691171378,157087.267958375,-104.5473175048828,-16.654052734375,-552.169189453125,157087.286604375,0.7299737122425385,-0.6982445780618668,-0.3825808063724518,-0.3844625949859619,0.6000412702560425,0.04003595188260078,0.1428752541542053,0.1269587278366089,-0.1953189373016357,1,-0.04701642692089081,-0.3774808049201965,0.3900392055511475,0.8385506272315979,-0.5963970422744751,0.3733159303665161,-0.7105953693389893,0,0,0,-1,157085.941309625,3,2,1561827148.641366,1561827055.717469,12,1.562096,0,0,11.78992,0,0,1561827143.457785,157084.018002,0,0.4755859,75.37182,0,182478453,5,1,0.19,-28.41185,-36.3349,2
1561827149.988297,61,0,0,1561827148.998829,4.634679355662907,-74.15107696324041,2552.743,-1,-1,4,10,-9999,1561827149.966183,-25.97019195556641,11.72101020812988,11.1600341796875,64.67838287353516,72.17157745361328,15,157087.315993375,-0.6347808837890625,0.416748046875,-0.83526611328125,157087.306868375,-0.1606336211542004,-0.01602530554344281,-0.03261094018023829,157087.288100375,-104.7704925537109,-16.79237365722656,-552.50341796875,157087.306868375,0.7264815288362639,-0.6937164266500687,-0.3868168433699987,-0.162993848323822,-0.02202495187520981,-0.035621527582407,0.008447051048278809,0.06509464979171753,-0.1755983829498291,1,-0.05043158307671547,-0.3760631084442139,0.3889908194541931,0.8394756317138672,-0.5921567678451538,0.3772423565387726,-0.7120664119720459,0,0,0,-1,157085.941309625,3,2,1561827148.641366,1561827055.717469,12,1.562096,0,0,11.78992,0,0,1561827143.457785,157084.018002,0,0.4755859,75.37182,0,182478453,5,1,0.19,-28.41185,-36.3349,2
1561827150.008251,62,0,0,1561827148.998829,4.634679355662907,-74.15107696324041,2552.743,-1,-1,4,10,-9999,1561827149.992537,-26.13433837890625,11.38017654418945,11.12255859375,64.88118743896484,72.37438201904297,15,157087.336256375,-0.6979217529296875,0.398223876953125,-0.706787109375,157087.327132375,-0.002154231005765096,-0.3284942625585489,-0.07142384990705311,157087.308211375,-104.7218017578125,-16.88580322265625,-552.2591552734375,157087.327132375,0.7243043472170445,-0.6985834496037652,-0.3872535633309236,-0.004514455795288086,-0.3344939053058624,-0.07443443685770035,-0.08521568775177002,0.0282217264175415,-0.06110715866088867,1,-0.0500897616147995,-0.3781086802482605,0.388253927230835,0.838918149471283,-0.5955093502998352,0.3776467740535736,-0.7090497016906738,0,0,0,-1,157085.941309625,3,2,1561827148.641366,1561827055.717469,12,1.562096,0,0,11.78992,0,0,1561827143.457785,157084.018002,0,0.4755859,75.37182,0,182478453,5,1,0.19,-28.41185,-36.77188,2
1561827150.028396,63,0,0,1561827148.998829,4.634679355662907,-74.15107696324041,2552.743,-1,-1,4,10,-9999,1561827150.0166,-26.19567108154297,11.38649940490723,11.106689453125,64.94297027587891,72.43616485595703,15,157087.356520375,-0.6652984619140625,0.40460205078125,-0.6523895263671875,157087.347395375,0.06766133591898915,-0.3662704036729958,-0.02609844605055852,157087.328352375,-104.88134765625,-16.64535522460938,-552.3690795898438,157087.347395375,0.723875251438662,-0.7064289246983645,-0.3858261871925675,0.06530111283063889,-0.3722700476646423,-0.02910903096199036,-0.08463203907012939,0.02116674184799194,0.0379103422164917,1,-0.04801683500409126,-0.3811978101730347,0.3880866765975952,0.8377180099487305,-0.6014031767845154,0.3763247132301331,-0.7047652006149292,0,0,0,-1,157085.941309625,3,2,1561827148.641366,1561827055.717469,12,1.562096,0,0,11.78992,0,0,1561827143.457785,157084.018002,0,0.4755859,75.37182,0,182478453,5,1,0.19,-28.41185,-37.50738,2
1561827150.071179,64,0,0,1561827148.998829,4.634679355662907,-74.15107696324041,2552.743,-1,-1,4,10,-9999,1561827150.0166,-26.19567108154297,11.38649940490723,11.106689453125,64.94297027587891,72.43616485595703,15,157087.376784375,-0.6102294921875,0.3990325927734375,-0.64031982421875,157087.367659375,0.01369104484798836,-0.1343940275658677,0.03404771558833604,157087.348463375,-104.9273986816406,-16.92050170898438,-552.0380859375,157087.367659375,0.7246701166287656,-0.7116385349016006,-0.385167927024751,0.01133438665419817,-0.1403890997171402,0.03103642538189888,-0.03303170204162598,0.0259423553943634,0.05631750822067261,1,-0.04656248539686203,-0.383310467004776,0.3884586691856384,0.8366630077362061,-0.6052281856536865,0.3757147789001465,-0.7018100619316101,0,0,0,-1,157085.941309625,3,2,1561827148.641366,1561827055.717469,12,1.562096,0,0,11.78992,0,0,1561827143.457785,157084.018002,0,0.4755859,75.37182,0,182478453,5,1,0.19,-28.41185,-38.89471,2
1561827150.076437,65,0,0,1561827148.998829,4.634679355662907,-74.15107696324041,2552.743,-1,-1,4,10,-9999,1561827150.0166,-26.19567108154297,11.38649940490723,11.106689453125,64.94297027587891,72.43616485595703,15,157087.397047375,-0.5770263671875,0.3893890380859375,-0.649749755859375,157087.387923375,-0.1540644016933019,0.1398431214722788,0.03965233810240779,157087.368605375,-104.7455139160156,-17.13365173339844,-551.72509765625,157087.387923375,0.7243832046043596,-0.7115131903293771,-0.3867494014389928,-0.1564210653305054,0.1338480412960052,0.03664104640483856,0.01185590028762817,0.01812955737113953,0.06200015544891357,1,-0.04734076932072639,-0.383459746837616,0.3885381519794464,0.836513876914978,-0.6047514081001282,0.377179890871048,-0.7014349699020386,0,0,0,-1,157085.941309625,3,2,1561827148.641366,1561827055.717469,12,1.562096,0,0,11.78992,0,0,1561827143.457785,157084.964646,0,0.480957,75.37175,0,182478453,5,1,0.19,-28.41185,-38.89471,2
1561827150.089247,66,0,0,1561827149.998817,4.634673739787782,-74.15108157328716,2552.743,-1,-1,4,10,-9999,1561827150.084601,-25.99298858642578,11.26148796081543,11.63043212890625,64.89336395263672,72.38655853271484,15,157087.417311375,-0.5592498779296875,0.38690185546875,-0.691925048828125,157087.408186375,-0.2236999389283668,0.1873334089788988,0.01141297685153458,157087.388716375,-104.5178527832031,-16.99665832519531,-552.0133056640625,157087.408186375,0.7217539704824496,-0.7088861932718711,-0.390231762807857,-0.2260566055774689,0.1813383251428604,0.008401687256991863,0.03835773468017578,0.007185757160186768,0.03254055976867676,1,-0.04989391192793846,-0.3827540278434753,0.3878183960914612,0.8370225429534912,-0.6020479202270508,0.3804027736186981,-0.7020199298858643,0,0,0,-1,157085.941309625,3,2,1561827148.641366,1561827055.717469,12,1.562096,0,0,11.78992,0,0,1561827143.457785,157084.964646,0,0.480957,75.37175,0,182478453,5,1,0.19,-28.41185,-39.71426,2
1561827150.109646,67,0,0,1561827149.998817,4.634673739787782,-74.15108157328716,2552.743,-1,-1,4,10,-9999,1561827150.084601,-25.99298858642578,11.26148796081543,11.63043212890625,64.89336395263672,72.38655853271484,15,157087.437575375,-0.5671234130859375,0.3697052001953125,-0.7101593017578125,157087.428450375,-0.08257690223619595,0.04753822440624143,-0.0245820421258674,157087.408858375,-104.6725769042969,-16.95246887207031,-551.8191528320312,157087.428450375,0.7192167011940233,-0.7074219314107617,-0.3926740568190853,-0.0849335566163063,0.0415431410074234,-0.02759332954883575,0.04220151901245117,-0.00267067551612854,-0.003938436508178711,1,-0.05174336954951286,-0.3823955357074738,0.3870291411876678,0.8374394774436951,-0.6004138588905334,0.382660299539566,-0.7021925449371338,0,0,0,-1,157085.941309625,3,2,1561827148.641366,1561827055.717469,12,1.562096,0,0,11.78992,0,0,1561827143.457785,157084.964646,0,0.480957,75.37175,0,182478453,5,1,0.19,-28.41185,-39.978,2
1561827150.138159,68,0,0,1561827149.998817,4.634673739787782,-74.15108157328716,2552.743,-1,-1,4,10,-9999,1561827150.117771,-25.89982604980469,11.26259994506836,11.5137939453125,65.25208282470703,72.74527740478516,15,157087.457838375,-0.6007080078125,0.3460235595703125,-0.709136962890625,157087.448714375,0.05569175839962802,-0.1092348784317801,-0.03087242862063456,157087.428969375,-104.5883941650391,-17.03970336914062,-551.941650390625,157087.448714375,0.718575072808133,-0.7086507901038801,-0.3923835683479097,0.05333510041236877,-0.1152299642562866,-0.0338837169110775,0.01550257205963135,-0.02500054240226746,-0.01010090112686157,1,-0.05149983242154121,-0.3828557431697845,0.3867553770542145,0.8373705148696899,-0.6013485193252563,0.3823919296264648,-0.7015385031700134,0,0,0,-1,157085.941309625,3,2,1561827148.641366,1561827055.717469,12,1.562096,0,0,11.78992,0,0,1561827143.457785,157084.964646,0,0.480957,75.37175,0,182478453,5,1,0.19,-28.41185,-40.26051,2
1561827150.149919,69,0,0,1561827149.998817,4.634673739787782,-74.15108157328716,2552.743,-1,-1,4,10,-9999,1561827150.144359,-26.20381927490234,11.37061882019043,11.531494140625,65.21542358398438,72.7086181640625,15,157087.478072375,-0.6077728271484375,0.3416748046875,-0.6902313232421875,157087.468947375,0.09781977105137347,-0.1592631584572456,-0.03003832656722174,157087.449110375,-104.9052734375,-17.194580078125,-551.8131713867188,157087.468947375,0.7191251313386741,-0.7115600874780219,-0.3907346618597277,0.0954631119966507,-0.1652582436800003,-0.03304961696267128,-0.00344085693359375,-0.04119187593460083,0.000387728214263916,1,-0.05010232329368591,-0.3838729560375214,0.3868492245674133,0.8369461894035339,-0.6037979125976562,0.3808678090572357,-0.7002626061439514,0,0,0,-1,157085.941309625,3,2,1561827148.641366,1561827055.717469,12,1.562096,0,0,11.78992,0,0,1561827143.457785,157084.964646,0,0.480957,75.37175,0,182478453,5,1,0.19,-28.41185,-40.26051,2
1561827150.170193,70,0,0,1561827149.998817,4.634673739787782,-74.15108157328716,2552.743,-1,-1,4,10,-9999,1561827150.168427,-26.00758361816406,11.34497261047363,11.465576171875,65.18761444091797,72.68080902099609,15,157087.498335375,-0.590850830078125,0.3648223876953125,-0.6669464111328125,157087.489211375,0.02954058175948593,-0.06126895035447196,-0.006072273601489671,157087.469222375,-104.5379028320312,-16.98934936523438,-551.67236328125,157087.489211375,0.7197010213390415,-0.7140306498586368,-0.3895410139175517,0.02718392387032509,-0.06726403534412384,-0.009083562530577183,0.006305575370788574,-0.02545475959777832,0.01699817180633545,1,-0.04898589104413986,-0.3847654759883881,0.386998325586319,0.8365333676338196,-0.6058233976364136,0.3797638416290283,-0.6991118192672729,0,0,0,-1,157085.941309625,3,2,1561827148.641366,1561827055.717469,12,1.562096,0,0,11.78992,0,0,1561827143.457785,157084.964646,0,0.480957,75.37175,0,182478453,5,1,0.19,-28.41185,-40.93898,2
1561827150.19185,71,0,0,1561827149.998817,4.634673739787782,-74.15108157328716,2552.743,-1,-1,4,10,-9999,1561827150.168427,-26.00758361816406,11.34497261047363,11.465576171875,65.18761444091797,72.68080902099609,15,157087.518599375,-0.603240966796875,0.378204345703125,-0.6548614501953125,157087.509474375,-0.03673244828324491,0.1061844937192034,0.01028965550373915,157087.489363375,-104.7588195800781,-17.152587890625,-551.7189331054688,157087.509474375,0.7196690304264173,-0.7134029688904276,-0.3896667458518667,-0.03908910229802132,0.1001894026994705,0.007278366014361382,0.007956326007843018,-0.005276888608932495,0.0439993143081665,1,-0.04916908591985703,-0.3845185041427612,0.3869856894016266,0.8366420269012451,-0.6053532361984253,0.3798801600933075,-0.6994558572769165,0,0,0,-1,157085.941309625,3,2,1561827148.641366,1561827055.717469,12,1.562096,0,0,11.78992,0,0,1561827143.457785,157084.964646,0,0.480957,75.37175,0,182478453,5,1,0.19,-28.41185,-41.76091,2
1561827150.220088,72,0,0,1561827149.998817,4.634673739787782,-74.15108157328716,2552.743,-1,-1,4,10,-9999,1561827150.194897,-25.84952545166016,11.26073265075684,11.63800048828125,65.21537017822266,72.70856475830078,15,157087.538863375,-0.6007232666015625,0.3893280029296875,-0.663543701171875,157087.529738375,-0.04500103083572293,0.1622735957534712,0.02192633788684038,157087.529616375,-104.7305908203125,-17.09219360351562,-551.79638671875,157087.529738375,0.7191971660033141,-0.7107229792839798,-0.3905865694479082,-0.04735768586397171,0.156278520822525,0.01891504973173141,0.0001294612884521484,-0.0002071857452392578,0.04448431730270386,1,-0.0501849427819252,-0.38350510597229,0.3868394196033478,0.8371145129203796,-0.6032483577728271,0.3807308673858643,-0.7008106112480164,0,0,0,-1,157085.941309625,3,2,1561827148.641366,1561827055.717469,12,1.562096,0,0,11.78992,0,0,1561827143.457785,157084.964646,0,0.480957,75.37175,0,182478453,5,1,0.19,-28.41185,-42.37296,2
1561827150.230754,73,0,0,1561827149.998817,4.634673739787782,-74.15108157328716,2552.743,-1,-1,4,10,-9999,1561827150.22184,-25.90333557128906,11.36117553710938,11.53369140625,65.21806335449219,72.71125793457031,15,157087.559126375,-0.606903076171875,0.3974151611328125,-0.6828155517578125,157087.550002375,0.03770530102945086,0.1115283927625564,0.02525688714609348,157087.549727375,-104.8126220703125,-17.01971435546875,-551.9367065429688,157087.550002375,0.71941832313186,-0.7078758320064923,-0.3909829279147429,0.03534864634275436,0.1055333018302917,0.02224559709429741,-0.002347946166992188,0.01308295130729675,0.02756011486053467,1,-0.0508686825633049,-0.3823703527450562,0.3869105875492096,0.8375592827796936,-0.6011524200439453,0.3810973465442657,-0.7024105787277222,0,0,0,-1,157085.941309625,3,2,1561827148.641366,1561827055.717469,12,1.562096,0,0,11.78992,0,0,1561827143.457785,157084.964646,0,0.480957,75.37175,0,182478453,5,1,0.19,-28.41185,-42.59427,2
1561827150.251658,74,0,0,1561827149.998817,4.634673739787782,-74.15108157328716,2552.743,-1,-1,4,10,-9999,1561827150.245641,-26.12245941162109,11.21340942382812,11.3321533203125,65.13663482666016,72.62982940673828,15,157087.5794116667,-0.60955810546875,0.3973846435546875,-0.6999359130859375,157087.570265375,0.08609413908786359,0.04554564727864414,0.008397745865346862,157087.5698896667,-104.8965911865234,-17.19032287597656,-552.1283569335938,157087.570265375,0.7206058326763196,-0.7060528776134549,-0.3900581979905904,0.08373748511075974,0.03955056518316269,0.005386456847190857,-0.01058793067932129,0.01686775684356689,0.0120311975479126,1,-0.05058549717068672,-0.3815161287784576,0.3872444629669189,0.8378115296363831,-0.6000993251800537,0.3802422285079956,-0.7037730813026428,0,0,0,-1,157085.941309625,3,2,1561827148.641366,1561827055.717469,12,1.562096,0,0,11.78992,0,0,1561827143.457785,157084.964646,0,0.480957,75.37175,0,182478453,5,1,0.19,-28.41185,-43.20309,2
1561827150.271438,75,0,0,1561827149.998817,4.634673739787782,-74.15108157328716,2552.743,-1,-1,4,10,-9999,1561827150.269805,-25.99708557128906,11.51010894775391,11.26727294921875,65.05401611328125,72.54721069335938,15,157087.5996756667,-0.5970611572265625,0.3990020751953125,-0.70330810546875,157087.5905506667,0.07209523281786208,0.01601092447355638,0.01693850348123098,157087.5900316667,-104.7770538330078,-17.0382080078125,-552.23974609375,157087.5905506667,0.7218050999523182,-0.7051611255495829,-0.3890152034451442,0.06973857432603836,0.01001584157347679,0.01392721477895975,-0.004245162010192871,0.01888546347618103,-0.0003921985626220703,1,-0.05006808042526245,-0.3810359239578247,0.3875924050807953,0.8379003405570984,-0.5997282266616821,0.379277378320694,-0.7046096324920654,0,0,0,-1,157085.941309625,3,2,1561827148.641366,1561827055.717469,12,1.562096,0,0,11.78992,0,0,1561827143.457785,157084.964646,0,0.480957,75.37175,0,182478453,5,1,0.19,-28.41185,-43.20309,2
1561827150.302578,76,0,0,1561827149.998817,4.634673739787782,-74.15108157328716,2552.743,-1,-1,4,10,-9999,1561827150.296843,-26.09926605224609,11.4161262512207,11.2679443359375,64.98679351806641,72.47998809814453,15,157087.6199386667,-0.5880279541015625,0.4008331298828125,-0.691741943359375,157087.6108146667,0.07177352295818051,0.005422994927728353,0.007568703818005195,157087.6101426667,-104.9303894042969,-16.96463012695312,-552.102294921875,157087.6108146667,0.7228993695392699,-0.7048123865237829,-0.3880896097938236,0.06941686570644379,-0.0005720886401832104,0.004557414911687374,0.008507907390594482,0.02268698811531067,0.005836606025695801,1,-0.04951772093772888,-0.3807953000068665,0.3879251182079315,0.8378885388374329,-0.599709689617157,0.3784207999706268,-0.7050858736038208,0,0,0,-1,157085.941309625,3,2,1561827148.641366,1561827055.717469,12,1.562096,0,0,11.78992,0,0,1561827143.457785,157084.964646,0,0.480957,75.37175,0,182478453,5,1,0.19,-28.41185,-43.31541,2
1561827150.312407,77,0,0,1561827149.998817,4.634673739787782,-74.15108157328716,2552.743,-1,-1,4,10,-9999,1561827150.296843,-26.09926605224609,11.4161262512207,11.2679443359375,64.98679351806641,72.47998809814453,15,157087.6402026667,-0.5887603759765625,0.3973388671875,-0.6745452880859375,157087.6310776667,0.04553605989871985,0.03302932278748973,0.007888283148814703,157087.6302846667,-104.9001159667969,-16.65678405761719,-552.2412719726562,157087.6310776667,0.7237890839405781,-0.7043271629565013,-0.3872744999753719,0.04317940399050713,0.02703423798084259,0.004876993596553802,0.0137057900428772,0.021381676197052,0.02285706996917725,1,-0.04908185452222824,-0.3805064857006073,0.3881829380989075,0.837925910949707,-0.5995669960975647,0.377666175365448,-0.7056115865707397,0,0,0,-1,157085.941309625,3,2,1561827148.641366,1561827055.717469,12,1.562096,0,0,11.78992,0,0,1561827143.457785,157084.964646,0,0.480957,75.37175,0,182478453,5,1,0.19,-28.41185,-43.31541,2
1561827150.33232,78,0,0,1561827149.998817,4.634673739787782,-74.15108157328716,2552.743,-1,-1,4,10,-9999,1561827150.320572,-26.00054931640625,11.56410980224609,11.14068603515625,64.94640350341797,72.43959808349609,15,157087.6604666667,-0.5938568115234375,0.392303466796875,-0.66754150390625,157087.6513416667,0.01961018668679847,0.07452243783536031,0.008025702261062792,157087.6503956667,-104.8104095458984,-16.95240783691406,-551.9249267578125,157087.6513416667,0.7242728339558931,-0.703216538945527,-0.3869263646560938,0.01725352928042412,0.06852735579013824,0.00501441303640604,0.007940769195556641,0.0162261426448822,0.03842377662658691,1,-0.04905141517519951,-0.3800070285797119,0.3883144855499268,0.8380932807922363,-0.5988679528236389,0.3773438036441803,-0.7063772082328796,0,0,0,-1,157085.941309625,3,2,1561827148.641366,1561827055.717469,12,1.562096,0,0,11.78992,0,0,1561827143.457785,157084.964646,0,0.480957,75.37175,0,182478453,5,1,0.19,-28.41185,-43.99711,2
1561827150.352512,79,0,0,1561827149.998817,4.634673739787782,-74.15108157328716,2552.743,-1,-1,4,10,-9999,1561827150.346988,-26.19891357421875,11.46601867675781,11.16162109375,64.93497467041016,72.42816925048828,15,157087.6806996667,-0.593536376953125,0.3932647705078125,-0.6753387451171875,157087.6716056667,0.006094644154646336,0.102710133761086,0.009445699754293041,157087.6705366667,-104.3727874755859,-17.05412292480469,-552.0308837890625,157087.6716056667,0.7244484656843968,-0.701433108365367,-0.3869077641388718,0.003737986786291003,0.096715047955513,0.006434410810470581,0.003068268299102783,0.01627391576766968,0.03638327121734619,1,-0.04935614764690399,-0.3792613744735718,0.3883418440818787,0.8384005427360535,-0.5976117849349976,0.3773265779018402,-0.7074495553970337,0,0,0,-1,157085.941309625,3,2,1561827148.641366,1561827055.717469,12,1.562096,0,0,11.78992,0,0,1561827143.457785,157084.964646,0,0.480957,75.37175,0,182478453,5,1,0.19,-28.41185,-44.70023,2
1561827150.383307,80,0,0,1561827149.998817,4.634673739787782,-74.15108157328716,2552.743,-1,-1,4,10,-9999,1561827150.371346,-26.02149200439453,11.63605690002441,11.18634033203125,64.90433502197266,72.39752960205078,15,157087.7009626667,-0.5935516357421875,0.387298583984375,-0.685943603515625,157087.6918386667,0.01636272805355585,0.1101065310565631,0.02325498895468091,157087.6906486667,-104.9179229736328,-16.95724487304688,-552.1583251953125,157087.6918386667,0.7247692362564548,-0.6992524887957896,-0.386995638852559,0.01400607079267502,0.104111447930336,0.02024370059370995,0.002921879291534424,0.01311025023460388,0.0267646312713623,1,-0.04975774511694908,-0.3783666789531708,0.3884333372116089,0.8387385606765747,-0.5960463285446167,0.3774079382419586,-0.70872563123703,0,0,0,-1,157085.941309625,3,2,1561827148.641366,1561827055.717469,12,1.562096,0,0,11.78992,0,0,1561827143.457785,157084.964646,0,0.480957,75.37175,0,182478453,5,1,0.19,-28.41185,-44.84541,2
1561827150.393114,81,0,0,1561827149.998817,4.634673739787782,-74.15108157328716,2552.743,-1,-1,4,10,-9999,1561827150.371346,-26.02149200439453,11.63605690002441,11.18634033203125,64.90433502197266,72.39752960205078,15,157087.7212266667,-0.592987060546875,0.3785552978515625,-0.6832427978515625,157087.7121016667,0.0313342207536543,0.1138967419199638,0.03302373014920057,157087.7107896667,-105.0771484375,-16.51478576660156,-552.0479736328125,157087.7121016667,0.7254980266083979,-0.6968428870915487,-0.387056443487321,0.02897756360471249,0.1079016625881195,0.03001243993639946,3.802776336669922e-05,0.004982054233551025,0.02415287494659424,1,-0.05011511221528053,-0.3773822486400604,0.3886864483356476,0.8390434980392456,-0.5943220853805542,0.3774642646312714,-0.7101422548294067,0,0,0,-1,157085.941309625,3,2,1561827148.641366,1561827055.717469,12,1.562096,0,0,11.78992,0,0,1561827143.457785,157084.964646,0,0.480957,75.37175,0,182478453,5,1,0.19,-28.41185,-45.20966,2
1561827150.413359,82,0,0,1561827149.998817,4.634673739787782,-74.15108157328716,2552.743,-1,-1,4,10,-9999,1561827150.397583,-26.16358184814453,11.54388236999512,11.20758056640625,64.84614562988281,72.33934020996094,15,157087.7414906667,-0.587738037109375,0.3834381103515625,-0.683624267578125,157087.7323656667,0.02925003088455829,0.1172081164193683,0.0336194792850513,157087.7309316667,-105.1717224121094,-16.95735168457031,-552.558837890625,157087.7323656667,0.7264046739245993,-0.6943563308426408,-0.3870245871977698,0.02689337357878685,0.1112130284309387,0.03060818836092949,0.0009788870811462402,0.004050225019454956,0.02960497140884399,1,-0.0504135861992836,-0.3763574659824371,0.3890004456043243,0.8393402695655823,-0.5925621390342712,0.3774347603321075,-0.7116270661354065,0,0,0,-1,157085.941309625,3,2,1561827148.641366,1561827055.717469,12,1.562096,0,0,11.78992,0,0,1561827143.457785,157084.964646,0,0.480957,75.37175,0,182478453,5,1,0.19,-28.41185,-46.03551,2
1561827150.433574,83,0,0,1561827149.998817,4.634673739787782,-74.15108157328716,2552.743,-1,-1,4,10,-9999,1561827150.422379,-26.50144195556641,11.42360687255859,10.9522705078125,64.7900390625,72.28323364257812,15,157087.7617546667,-0.5810546875,0.38604736328125,-0.6904754638671875,157087.7526296667,0.02068157639333735,0.1217533334518066,0.02930808779632202,157087.7510426667,-104.9804229736328,-16.64726257324219,-552.3963623046875,157087.7526296667,0.7271654271187475,-0.6917759333104709,-0.3870843982002531,0.01832491904497147,0.1157582551240921,0.02629679813981056,0.007716953754425049,0.006665140390396118,0.02421736717224121,1,-0.05079920217394829,-0.3753015398979187,0.3892618417739868,0.8396686911582947,-0.5907095074653625,0.3774901330471039,-0.7131363749504089,0,0,0,-1,157085.941309625,3,2,1561827148.641366,1561827055.717469,12,1.562096,0,0,11.78992,0,0,1561827143.457785,157084.964646,0,0.480957,75.37175,0,182478453,5,1,0.19,-28.41185,-46.03551,2
1561827150.469519,84,0,0,1561827149.998817,4.634673739787782,-74.15108157328716,2552.743,-1,-1,4,10,-9999,1561827150.448363,-26.42169189453125,11.62778282165527,10.92706298828125,64.75881958007812,72.25201416015625,15,157087.7820176667,-0.583404541015625,0.3917694091796875,-0.7038421630859375,157087.7728926667,-0.002079396179133869,0.1149950295535125,0.01482954621399723,157087.7711836667,-104.9228515625,-17.02874755859375,-552.444580078125,157087.7728926667,0.7276595425903255,-0.6892800146913657,-0.3872184760012741,-0.004436053801327944,0.1089999377727509,0.01181825716048479,0.007413625717163086,0.01105755567550659,0.01937901973724365,1,-0.05125189572572708,-0.3742839992046356,0.3894221484661102,0.8400209546089172,-0.5888955593109131,0.377614289522171,-0.7145694494247437,0,0,0,-1,157085.941309625,3,2,1561827148.641366,1561827055.717469,12,1.562096,0,0,11.78992,0,0,1561827143.457785,157084.964646,0,0.480957,75.37175,0,182478453,5,1,0.19,-28.41185,-45.35067,2
1561827150.474245,85,0,0,1561827149.998817,4.634673739787782,-74.15108157328716,2552.743,-1,-1,4,10,-9999,1561827150.472576,-26.26110076904297,11.48761749267578,10.92877197265625,64.80242919921875,72.29562377929688,15,157087.8022816667,-0.5905609130859375,0.39764404296875,-0.7169952392578125,157087.7931566667,-0.03296860271463593,0.07243159006353909,-0.012603676174909,157087.7912956667,-104.8341979980469,-16.8582763671875,-552.3177490234375,157087.7931566667,0.7272429657021351,-0.6876150181907495,-0.3876174594831844,-0.03532525897026062,0.06643649935722351,-0.01561496499925852,0.0003595352172851562,0.017661452293396,0.004662811756134033,1,-0.0518307276070118,-0.3736272752285004,0.3892531394958496,0.8403559923171997,-0.5876092910766602,0.3779837191104889,-0.7154324650764465,0,0,0,-1,157085.941309625,3,2,1561827148.641366,1561827055.717469,12,1.562096,0,0,11.78992,0,0,1561827143.457785,157084.964646,0,0.480957,75.37175,0,182478453,5,1,0.19,-28.41185,-45.35067,2
1561827150.49434,86,0,0,1561827149.998817,4.634673739787782,-74.15108157328716,2552.743,-1,-1,4,10,-9999,1561827150.472576,-26.26110076904297,11.48761749267578,10.92877197265625,64.80242919921875,72.29562377929688,15,157087.8225456667,-0.598358154296875,0.3988189697265625,-0.7137451171875,157087.8134206667,-0.0005661880477508461,0.005732986878613576,-0.04050428333512414,157087.8114366667,-104.7224426269531,-17.05508422851562,-552.4353637695312,157087.8134206667,0.7264412649252149,-0.6873026600254585,-0.3876053793433928,-0.002922845538705587,-0.0002620969898998737,-0.04351557418704033,-0.006620705127716064,0.02357777953147888,-0.003344118595123291,1,-0.0520358718931675,-0.373473584651947,0.3889066576957703,0.8405719995498657,-0.5873886942863464,0.3779725134372711,-0.7156195044517517,0,0,0,-1,157085.941309625,3,2,1561827148.641366,1561827055.717469,12,1.562096,0,0,11.78992,0,0,1561827143.457785,157084.964646,0,0.480957,75.37175,0,182478453,5,1,0.19,-28.41185,-42.35575,2
1561827150.515089,87,0,0,1561827149.998817,4.634673739787782,-74.15108157328716,2552.743,-1,-1,4,10,-9999,1561827150.499444,-26.20570373535156,11.33011436462402,10.76641845703125,64.86434936523438,72.3575439453125,15,157087.8428086667,-0.6024627685546875,0.3928680419921875,-0.6894683837890625,157087.8336836667,0.0160553992637607,-0.01591265382933246,-0.0521553467881118,157087.8315476667,-104.7484741210938,-16.66883850097656,-552.353515625,157087.8336836667,0.7256634570481734,-0.688045402400232,-0.3868677780466782,0.01369874179363251,-0.02190773747861385,-0.05516663566231728,-0.01206177473068237,0.0182335376739502,0.01230370998382568,1,-0.05170980095863342,-0.3736669421195984,0.3885086476802826,0.8406903147697449,-0.5880969762802124,0.3772895336151123,-0.7153982520103455,0,0,0,-1,157085.941309625,3,2,1561827148.641366,1561827055.717469,12,1.562096,0,0,11.78992,0,0,1561827143.457785,157084.964646,0,0.480957,75.37175,0,182478453,5,1,0.19,-28.41185,-42.62971,2
1561827150.550524,88,0,0,1561827149.998817,4.634673739787782,-74.15108157328716,2552.743,-1,-1,4,10,-9999,1561827150.499444,-26.20570373535156,11.33011436462402,10.76641845703125,64.86434936523438,72.3575439453125,15,157087.8630726667,-0.5965576171875,0.3891143798828125,-0.6812286376953125,157087.8539476667,-0.01010563107241468,0.01546284592121807,-0.05982072335368687,157087.8516586667,-104.9490051269531,-16.84385681152344,-552.548828125,157087.8539476667,0.7246808310865857,-0.6886417718197975,-0.38614850544075,-0.01246228907257318,0.009467761963605881,-0.06283201277256012,-0.01178336143493652,0.01420006155967712,0.03259372711181641,1,-0.05145871639251709,-0.373796284198761,0.3880226910114288,0.8408725261688232,-0.588695764541626,0.3766233325004578,-0.7152566909790039,0,0,0,-1,157085.941309625,3,2,1561827148.641366,1561827055.717469,12,1.562096,0,0,11.78992,0,0,1561827143.457785,157084.964646,0,0.480957,75.37175,0,182478453,5,1,0.19,-28.41185,-43.01777,2
1561827150.55496,89,0,0,1561827149.998817,4.634673739787782,-74.15108157328716,2552.743,-1,-1,4,10,-9999,1561827150.499444,-26.20570373535156,11.33011436462402,10.76641845703125,64.86434936523438,72.3575439453125,15,157087.8833366667,-0.58245849609375,0.3858184814453125,-0.6797943115234375,157087.8742116667,-0.03735429639777842,0.08062134304775076,-0.05300675938861013,157087.8718006667,-104.6897735595703,-16.75297546386719,-552.267333984375,157087.8742116667,0.7233230836136455,-0.6883731123457381,-0.3858108527904732,-0.03971095383167267,0.07462625205516815,-0.05601805076003075,-0.003517687320709229,0.01155266165733337,0.03349095582962036,1,-0.05161479115486145,-0.3736032545566559,0.3874032497406006,0.8412344455718994,-0.5885843634605408,0.3763104975223541,-0.7155130505561829,0,0,0,-1,157085.941309625,3,2,1561827148.641366,1561827055.717469,12,1.562096,0,0,11.78992,0,0,1561827143.457785,157084.964646,0,0.480957,75.37175,0,182478453,5,1,0.19,-28.41185,-43.31581,2
1561827150.575997,90,0,0,1561827149.998817,4.634673739787782,-74.15108157328716,2552.743,-1,-1,4,10,-9999,1561827150.55559,-26.16738128662109,11.68594169616699,11.0570068359375,64.93054962158203,72.42374420166016,15,157087.9035696667,-0.5700225830078125,0.384674072265625,-0.6853790283203125,157087.8944746667,-0.06474996821531454,0.1195511655464201,-0.03543708672903038,157087.8919116667,-105.0780334472656,-16.79191589355469,-552.4005126953125,157087.8944746667,0.7217616268419205,-0.6870194467832799,-0.3860485233858383,-0.06710662692785263,0.1135560870170593,-0.03844837471842766,0.01205801963806152,0.008463799953460693,0.03308868408203125,1,-0.05227364972233772,-0.3730247914791107,0.3867403268814087,0.8417552709579468,-0.5875585079193115,0.3765307068824768,-0.7162399291992188,0,0,0,-1,157085.941309625,3,2,1561827148.641366,1561827055.717469,12,1.562096,0,0,11.78992,0,0,1561827143.457785,157084.964646,0,0.480957,75.37175,0,182478453,5,1,0.19,-28.41185,-43.75957,2
1561827150.595633,91,0,0,1561827149.998817,4.634673739787782,-74.15108157328716,2552.743,-1,-1,4,10,-9999,1561827150.55559,-26.16738128662109,11.68594169616699,11.0570068359375,64.93054962158203,72.42374420166016,15,157087.9238326667,-0.57421875,0.3797454833984375,-0.6999359130859375,157087.9147086667,-0.07509235430863725,0.1073131413891789,-0.0242121290504554,157087.9120226667,-105.1825714111328,-17.19793701171875,-552.5120849609375,157087.9147086667,0.7201809970554957,-0.6853521330767054,-0.3868482437290113,-0.0774490088224411,0.1013180613517761,-0.02722341939806938,0.01709616184234619,0.004625529050827026,0.02701330184936523,1,-0.05324525386095047,-0.3723873496055603,0.3861289322376251,0.8422570824623108,-0.5861726999282837,0.377271443605423,-0.7169852256774902,0,0,0,-1,157085.941309625,3,2,1561827148.641366,1561827055.717469,12,1.562096,0,0,11.78992,0,0,1561827143.457785,157084.964646,0,0.480957,75.37175,0,182478453,5,1,0.19,-28.41185,-43.75957,2
1561827150.621135,92,0,0,1561827149.998817,4.634673739787782,-74.15108157328716,2552.743,-1,-1,4,10,-9999,1561827150.600263,-26.45769500732422,11.21626853942871,10.87481689453125,65.25270843505859,72.74590301513672,15,157087.9440966667,-0.58465576171875,0.379058837890625,-0.7149505615234375,157087.9349716667,-0.04712197232786204,0.08078539377089965,-0.0144923900199932,157087.9321646667,-105.1480407714844,-17.03764343261719,-552.673583984375,157087.9349716667,0.7188662694498085,-0.6841026632971892,-0.3875732917329601,-0.04947862774133682,0.07479031383991241,-0.01750367879867554,0.005391418933868408,-0.0005471706390380859,0.01106870174407959,1,-0.05405285954475403,-0.3719218373298645,0.3856302797794342,0.842639684677124,-0.5851033329963684,0.3779428005218506,-0.7175048589706421,0,0,0,-1,157085.941309625,3,2,1561827148.641366,1561827055.717469,12,1.562096,0,0,11.78992,0,0,1561827143.457785,157084.964646,0,0.480957,75.37175,0,182478453,5,1,0.19,-28.41185,-43.31558,2
1561827150.635917,93,0,0,1561827149.998817,4.634673739787782,-74.15108157328716,2552.743,-1,-1,4,10,-9999,1561827150.624553,-26.38052368164062,11.35676002502441,10.70513916015625,65.30811309814453,72.80130767822266,15,157087.9643606667,-0.5901031494140625,0.377685546875,-0.7143707275390625,157087.9552356667,-0.004522580163172562,0.04268487963568102,0.003081810013439695,157087.9522756667,-105.1115417480469,-17.09756469726562,-552.45166015625,157087.9552356667,0.7183034246081637,-0.6832248344710919,-0.3879563672898122,-0.006879237480461597,0.03668979555368423,7.05209095031023e-05,-0.004027605056762695,0.0008529424667358398,-0.000462651252746582,1,-0.05449681729078293,-0.371587336063385,0.3854160308837891,0.8428567051887512,-0.5843818783760071,0.3782974481582642,-0.7179058790206909,0,0,0,-1,157085.941309625,3,2,1561827148.641366,1561827055.717469,12,1.562096,0,0,11.78992,0,0,1561827143.457785,157084.964646,0,0.480957,75.37175,0,182478453,5,1,0.19,-28.41185,-43.31558,2
1561827150.656397,94,0,0,1561827149.998817,4.634673739787782,-74.15108157328716,2552.743,-1,-1,4,10,-9999,1561827150.650901,-26.55644989013672,11.33506965637207,10.61688232421875,65.30161285400391,72.79480743408203,15,157087.9846236667,-0.5894012451171875,0.38031005859375,-0.6930694580078125,157087.9754996667,0.02293700752052545,0.006058691479930267,0.004746818326957235,157087.9723866667,-105.0369262695312,-17.23983764648438,-552.635009765625,157087.9754996667,0.7184229661720896,-0.6829063625241655,-0.3878487697858208,0.0205803494900465,6.360793486237526e-05,0.001735529396682978,-0.007114410400390625,-0.0004207491874694824,0.01486122608184814,1,-0.05448820069432259,-0.3714421391487122,0.3854446113109589,0.8429082036018372,-0.5841788649559021,0.3781978487968445,-0.7181235551834106,0,0,0,-1,157085.941309625,3,2,1561827148.641366,1561827055.717469,12,1.562096,0,0,11.78992,0,0,1561827143.457785,157084.964646,0,0.480957,75.37175,0,182478453,5,1,0.19,-28.41185,-44.13489,2
1561827150.676826,95,0,0,1561827149.998817,4.634673739787782,-74.15108157328716,2552.743,-1,-1,4,10,-9999,1561827150.650901,-26.55644989013672,11.33506965637207,10.61688232421875,65.30161285400391,72.79480743408203,15,157088.0048876667,-0.5870513916015625,0.3820037841796875,-0.6849822998046875,157087.9957626667,0.02764574264389456,0.01474805348464081,0.01860218021420348,157087.9925276667,-105.2220153808594,-16.94094848632812,-552.8115844726562,157087.9957626667,0.7189118997963281,-0.6827523586318675,-0.3875522694922761,0.02528908476233482,0.008752970024943352,0.01559089031070471,-0.003354907035827637,0.002096801996231079,0.0319143533706665,1,-0.05429539456963539,-0.3713513016700745,0.3856103718280792,0.8428847789764404,-0.5841389894485474,0.3779233396053314,-0.718300461769104,0,0,0,-1,157085.941309625,3,2,1561827148.641366,1561827055.717469,12,1.562096,0,0,11.78992,0,0,1561827143.457785,157084.964646,0,0.480957,75.37175,0,182478453,5,1,0.19,-28.41185,-44.94589,2
1561827150.702484,96,0,0,1561827149.998817,4.634673739787782,-74.15108157328716,2552.743,-1,-1,4,10,-9999,1561827150.675336,-26.40316772460938,11.49145126342773,10.69781494140625,65.26692199707031,72.76011657714844,15,157088.0251516667,-0.5879974365234375,0.382293701171875,-0.697021484375,157088.0160266667,0.008256332011463655,0.03945020417567078,0.0250893743135275,157088.0126396667,-105.1001281738281,-16.66143798828125,-552.5997314453125,157088.0160266667,0.7194228736571455,-0.6821686972323958,-0.3875994851532535,0.005899674259126186,0.03345511853694916,0.02207808569073677,-0.006150603294372559,0.00360947847366333,0.0265955924987793,1,-0.05433407798409462,-0.3711254596710205,0.3858156204223633,0.842887818813324,-0.5837084054946899,0.3779670596122742,-0.718627393245697,0,0,0,-1,157085.941309625,3,2,1561827148.641366,1561827055.717469,12,1.562096,0,0,11.78992,0,0,1561827143.457785,157084.964646,0,0.480957,75.37175,0,182478453,5,1,0.19,-28.41185,-44.08266,2
1561827150.717364,97,0,0,1561827149.998817,4.634673739787782,-74.15108157328716,2552.743,-1,-1,4,10,-9999,1561827150.701608,-26.27635192871094,11.38909530639648,10.67413330078125,65.23531341552734,72.72850799560547,15,157088.0454146667,-0.57977294921875,0.387237548828125,-0.7040252685546875,157088.0362906667,0.001401355365599695,0.04315066651033588,0.02672988154501631,157088.0327806667,-104.7301940917969,-16.92178344726562,-552.468994140625,157088.0362906667,0.7198679892862327,-0.6812235227368653,-0.3878834374352947,-0.000955302151851356,0.03715558350086212,0.02371859177947044,-0.0006416440010070801,0.00560489296913147,0.01989191770553589,1,-0.05456001684069633,-0.370776891708374,0.3860119879245758,0.8429367542266846,-0.5829613208770752,0.378229945898056,-0.7190954089164734,0,0,0,-1,157085.941309625,3,2,1561827148.641366,1561827055.717469,12,1.562096,0,0,11.78992,0,0,1561827143.457785,157084.964646,0,0.480957,75.37175,0,182478453,5,1,0.19,-28.41185,-44.142,2
1561827150.737509,98,0,0,1561827149.998817,4.634673739787782,-74.15108157328716,2552.743,-1,-1,4,10,-9999,1561827150.72599,-26.39996337890625,11.32216262817383,10.67864990234375,65.21231079101562,72.70550537109375,15,157088.0656786667,-0.576629638671875,0.3894195556640625,-0.708343505859375,157088.0565536667,0.0006317018105667954,0.03417714521731389,0.01690787712869507,157088.0528916667,-105.1483917236328,-17.18266296386719,-552.9345092773438,157088.0565536667,0.7201511660261949,-0.6805225169563783,-0.3881409369027267,-0.001724955742247403,0.02818205952644348,0.01389658730477095,0.004148662090301514,0.01180577278137207,0.009741902351379395,1,-0.05475722998380661,-0.3705233633518219,0.3861434161663055,0.8429752588272095,-0.5823957920074463,0.3784683048725128,-0.7194281816482544,0,0,0,-1,157085.941309625,3,2,1561827148.641366,1561827055.717469,12,1.562096,0,0,11.78992,0,0,1561827143.457785,157084.964646,0,0.480957,75.37175,0,182478453,5,1,0.19,-28.41185,-44.58847,2
1561827150.757887,99,0,0,1561827149.998817,4.634673739787782,-74.15108157328716,2552.743,-1,-1,4,10,-9999,1561827150.752144,-26.63242340087891,11.35752296447754,10.61187744140625,65.21230316162109,72.70549774169922,15,157088.0859426667,-0.577545166015625,0.3912811279296875,-0.705963134765625,157088.0768176667,-0.01010403317576063,0.02905828328607258,0.001955825504554193,157088.0730026667,-105.3031768798828,-17.15142822265625,-552.6006469726562,157088.0768176667,0.7201810326373659,-0.6800269555942359,-0.3883009948598782,-0.01246069092303514,0.02306319959461689,-0.001055463450029492,0.005905508995056152,0.01368701457977295,0.01427102088928223,1,-0.05491847544908524,-0.3703365623950958,0.3861618041992188,0.8430384397506714,-0.5820010900497437,0.3786164522171021,-0.7196695804595947,0,0,0,-1,157085.941309625,3,2,1561827148.641366,1561827055.717469,12,1.562096,0,0,11.78992,0,0,1561827143.457785,157084.964646,0,0.480957,75.37175,0,182478453,5,1,0.19,-28.41185,-44.58847,2
1561827150.785482,100,0,0,1561827149.998817,4.634673739787782,-74.15108157328716,2552.743,-1,-1,4,10,-9999,1561827150.777094,-26.26631927490234,11.24772834777832,10.5850830078125,65.25083923339844,72.74403381347656,15,157088.1062056667,-0.57958984375,0.389495849609375,-0.7065277099609375,157088.0970816667,-0.01419757808732143,0.01534460156881855,-0.01710441841714291,157088.0931446667,-105.0278625488281,-17.0302734375,-552.8494262695312,157088.0970816667,0.7197656822056111,-0.6799107747538036,-0.3884111410352805,-0.01655423454940319,0.009349517524242401,-0.02011570706963539,0.002560794353485107,0.01225757598876953,0.01162064075469971,1,-0.05506674200296402,-0.3702907860279083,0.3859968483448029,0.8431244492530823,-0.5818912386894226,0.378718376159668,-0.7197047472000122,0,0,0,-1,157085.941309625,3,2,1561827148.641366,1561827055.717469,12,1.562096,0,0,11.78992,0,0,1561827143.457785,157084.964646,0,0.480957,75.37175,0,182478453,5,1,0.19,-29.52641,-45.46889,2
1561827150.798265,101,0,0,1561827149.998817,4.634673739787782,-74.15108157328716,2552.743,-1,-1,4,10,-9999,1561827150.777094,-26.26631927490234,11.24772834777832,10.5850830078125,65.25083923339844,72.74403381347656,15,157088.1264396667,-0.5801544189453125,0.3860321044921875,-0.697479248046875,157088.1173446667,-0.007657653398413841,0.001900698069989552,-0.02032657702002979,157088.1132556667,-105.2709655761719,-17.01847839355469,-552.8397216796875,157088.1173446667,0.7191887240484879,-0.6800890651012669,-0.3883059970498301,-0.01001431047916412,-0.004094385541975498,-0.02333786711096764,0.002271652221679688,0.008341819047927856,0.01858216524124146,1,-0.0550924576818943,-0.37033611536026,0.3857457935810089,0.8432177305221558,-0.5820446014404297,0.3786210715770721,-0.7196319699287415,0,0,0,-1,157085.941309625,3,2,1561827148.641366,1561827055.717469,12,1.562096,0,0,11.78992,0,0,1561827143.457785,157084.964646,0,0.480957,75.37175,0,182478453,5,1,0.19,-29.52641,-45.46889,2
1561827150.818469,102,0,0,1561827149.998817,4.634673739787782,-74.15108157328716,2552.743,-1,-1,4,10,-9999,1561827150.802784,-26.38195037841797,11.22549629211426,10.4727783203125,65.29332733154297,72.78652191162109,15,157088.1467026667,-0.585235595703125,0.3800048828125,-0.6962432861328125,157088.1375776667,-0.01351554253215213,0.01066835701074842,-0.01261992145755849,157088.1333976667,-105.0737915039062,-16.94384765625,-552.5345458984375,157088.1375776667,0.7186468880879897,-0.6803061085853235,-0.3882997514221659,-0.01587219908833504,0.004673273302614689,-0.01563121005892754,1.847743988037109e-05,0.005463689565658569,0.02340149879455566,1,-0.05514818802475929,-0.3704118430614471,0.3855225443840027,0.8432829976081848,-0.5822022557258606,0.3786152899265289,-0.7195075154304504,0,0,0,-1,157085.941309625,3,2,1561827148.641366,1561827055.717469,12,1.562096,0,0,11.78992,0,0,1561827143.457785,157084.964646,0,0.480957,75.37175,0,182478453,5,1,0.19,-30.08369,-45.55951,2
1561827150.839333,103,0,0,1561827149.998817,4.634673739787782,-74.15108157328716,2552.743,-1,-1,4,10,-9999,1561827150.82707,-26.49887084960938,11.21293067932129,10.61700439453125,65.33449554443359,72.82769012451172,15,157088.1669666667,-0.58575439453125,0.3819427490234375,-0.6993865966796875,157088.1578416667,-0.02553758432498783,0.02149810158355564,-0.01314323261175906,157088.1535086667,-105.1615753173828,-17.41276550292969,-552.6473999023438,157088.1578416667,0.7180645681990044,-0.6802484346677306,-0.3884735843651624,-0.02789424173533916,0.01550301723182201,-0.01615452021360397,-0.004382729530334473,0.0002521276473999023,0.02323126792907715,1,-0.055344358086586,-0.3703944981098175,0.3852965235710144,0.8433809280395508,-0.582119345664978,0.3787761628627777,-0.7194898128509521,0,0,0,-1,157085.941309625,3,2,1561827148.641366,1561827055.717469,12,1.562096,0,0,11.78992,0,0,1561827143.457785,157084.964646,0,0.480957,75.37175,0,182478453,5,1,0.19,-30.64097,-45.73128,2
1561827150.872134,104,0,0,1561827149.998817,4.634673739787782,-74.15108157328716,2552.743,-1,-1,4,10,-9999,1561827150.855663,-26.31973266601562,11.06355094909668,10.554443359375,65.38274383544922,72.87593841552734,15,157088.1872306667,-0.579986572265625,0.383575439453125,-0.7062225341796875,157088.1781056667,-0.01949034443774491,0.004707669858933069,-0.0126239161991936,157088.1736196667,-105.0654754638672,-17.06594848632812,-552.8079833984375,157088.1781056667,0.717418353244658,-0.6803165651095838,-0.3886885609143732,-0.02184700220823288,-0.001287413761019707,-0.01563520543277264,0.0003911256790161133,0.005912542343139648,0.01806247234344482,1,-0.05554646253585815,-0.3704337179660797,0.3850519359111786,0.8434622287750244,-0.5821171402931213,0.378975123167038,-0.719386875629425,0,0,0,-1,157085.941309625,3,2,1561827148.641366,1561827055.717469,12,1.562096,0,0,11.78992,0,0,1561827143.457785,157084.964646,0,0.480957,75.37175,0,182478453,5,1,0.19,-31.19825,-46.04351,2
1561827150.879288,105,0,0,1561827149.998817,4.634673739787782,-74.15108157328716,2552.743,-1,-1,4,10,-9999,1561827150.855663,-26.31973266601562,11.06355094909668,10.554443359375,65.38274383544922,72.87593841552734,15,157088.2074936667,-0.582733154296875,0.385009765625,-0.7111968994140625,157088.1983686667,-0.0133901076448094,-0.01744903146219917,-0.01864905184938888,157088.1937606667,-105.3526611328125,-17.14509582519531,-552.709228515625,157088.1983686667,0.7168460133555588,-0.6807819329577915,-0.3888052257558304,-0.01574676483869553,-0.02344411425292492,-0.02166033908724785,0.0001485943794250488,0.006231874227523804,0.008784890174865723,1,-0.05561474710702896,-0.3706295192241669,0.3848376870155334,0.8434693813323975,-0.582423985004425,0.3790830969810486,-0.7190815210342407,0,0,0,-1,157085.941309625,3,2,1561827148.641366,1561827055.717469,12,1.562096,0,0,11.78992,0,0,1561827143.457785,157084.964646,0,0.480957,75.37175,0,182478453,5,1,0.19,-31.75553,-46.38328,2
1561827150.899602,106,0,0,1561827149.998817,4.634673739787782,-74.15108157328716,2552.743,-1,-1,4,10,-9999,1561827150.878472,-26.47540283203125,11.01933097839355,10.6536865234375,65.42654418945312,72.91973876953125,15,157088.2277576667,-0.5796661376953125,0.3824462890625,-0.7005462646484375,157088.2186326667,0.009901632932914607,-0.02658686979447905,-0.0176080221792769,157088.2138716667,-105.1052703857422,-17.18963623046875,-552.7772216796875,157088.2186326667,0.7163896769512259,-0.6816094913368127,-0.3886136541992206,0.00754497479647398,-0.03258195519447327,-0.02061931043863297,0.001124978065490723,0.006195515394210815,0.01044952869415283,1,-0.0554550476372242,-0.3709405362606049,0.3846448957920074,0.8434312343597412,-0.5830646753311157,0.3789058029651642,-0.7186557054519653,0,0,0,-1,157085.941309625,3,2,1561827148.641366,1561827055.717469,12,1.562096,0,0,11.78992,0,0,1561827143.457785,157084.964646,0,0.480957,75.37175,0,182478453,5,1,0.19,-32.31281,-46.55545,2
1561827150.923167,107,0,0,1561827149.998817,4.634673739787782,-74.15108157328716,2552.743,-1,-1,4,10,-9999,1561827150.904127,-26.43674468994141,11.18692588806152,10.57666015625,65.44515991210938,72.9383544921875,15,157088.2480216667,-0.5742645263671875,0.37603759765625,-0.6871185302734375,157088.2388966667,0.01455950167946319,-0.009357282806102412,-0.005145493542142096,157088.2339836667,-105.218994140625,-17.13179016113281,-552.664306640625,157088.2388966667,0.716313142144186,-0.6822421864551983,-0.3882468881518147,0.01220284402370453,-0.01535236649215221,-0.008156782016158104,0.0081062912940979,-0.000331491231918335,0.02503502368927002,1,-0.05518458783626556,-0.3711569011211395,0.3845854997634888,0.8433807492256165,-0.5836067795753479,0.3785663545131683,-0.7183944582939148,0,0,0,-1,157085.941309625,3,2,1561827148.641366,1561827055.717469,12,1.562096,0,0,11.78992,0,0,1561827143.457785,157084.964646,0,0.480957,75.37175,0,182478453,5,1,0.19,-32.87009,-47.20423,2
1561827150.948997,108,0,0,1561827149.998817,4.634673739787782,-74.15108157328716,2552.743,-1,-1,4,10,-9999,1561827150.931495,-26.52256011962891,11.30282783508301,10.592041015625,65.45237731933594,72.94557189941406,15,157088.2682846667,-0.5753021240234375,0.3746490478515625,-0.6877899169921875,157088.2591606667,-0.02268533879751297,0.04033890103143022,0.006297843345819383,157088.2541246667,-105.3543090820312,-17.19044494628906,-552.774658203125,157088.2591606667,0.7161982015415613,-0.6820943718268025,-0.3882668854750517,-0.02504199557006359,0.03434381633996964,0.003286554012447596,0.008407354354858398,-0.003691673278808594,0.0346064567565918,1,-0.05524323135614395,-0.3710940182209015,0.3845353722572327,0.8434274792671204,-0.5834958553314209,0.3785848617553711,-0.718474805355072,0,0,0,-1,157085.941309625,3,2,1561827148.641366,1561827055.717469,12,1.562096,0,0,11.78992,0,0,1561827143.457785,157084.964646,0,0.480957,75.37175,0,182478453,5,1,0.19,-33.42736,-46.89109,2
1561827150.960766,109,0,0,1561827149.998817,4.634673739787782,-74.15108157328716,2552.743,-1,-1,4,10,-9999,1561827150.954791,-26.65316009521484,11.18537139892578,10.576416015625,65.48471069335938,72.9779052734375,15,157088.2885486667,-0.57513427734375,0.3858184814453125,-0.6976776123046875,157088.2794236667,-0.05389252676717049,0.07236021734632496,0.01757073792401579,157088.2742356667,-105.2794342041016,-17.07937622070312,-552.6535034179688,157088.2794236667,0.7157735032666473,-0.6811758359868306,-0.3891010081135969,-0.05624918267130852,0.06636513769626617,0.01455944869667292,0.008707761764526367,-0.0008930563926696777,0.02772492170333862,1,-0.05586925521492958,-0.3708047270774841,0.3844322264194489,0.8435605764389038,-0.5826365947723389,0.3793567717075348,-0.7187649607658386,0,0,0,-1,157085.941309625,3,2,1561827148.641366,1561827055.717469,12,1.562096,0,0,11.78992,0,0,1561827143.457785,157084.964646,0,0.480957,75.37175,0,182478453,5,1,0.19,-33.42736,-46.89109,2
1561827150.981192,110,0,0,1561827149.998817,4.634673739787782,-74.15108157328716,2552.743,-1,-1,4,10,-9999,1561827150.979046,-26.28316497802734,11.25725936889648,10.55328369140625,65.53005981445312,73.02325439453125,15,157088.3088126667,-0.579742431640625,0.3966217041015625,-0.7096405029296875,157088.2996876667,-0.04771186250931459,0.0594686534575784,0.01062814327828822,157088.2943466667,-105.1424560546875,-17.16796875,-552.9653930664062,157088.2996876667,0.7151591226460857,-0.6801193301154462,-0.3901402085763583,-0.05006851628422737,0.0534735694527626,0.007616854272782803,0.005349993705749512,0.01224476099014282,0.01561254262924194,1,-0.05664801597595215,-0.3704786002635956,0.3842695355415344,0.8437260389328003,-0.581628680229187,0.3803181052207947,-0.7190732359886169,0,0,0,-1,157085.941309625,3,2,1561827148.641366,1561827055.717469,12,1.562096,0,0,11.78992,0,0,1561827143.457785,157084.964646,0,0.480957,75.37175,0,182478453,5,1,0.19,-33.98464,-47.00641,2
1561827151.001739,111,0,0,1561827149.998817,4.634673739787782,-74.15108157328716,2552.743,-1,-1,4,10,-9999,1561827150.979046,-26.28316497802734,11.25725936889648,10.55328369140625,65.53005981445312,73.02325439453125,15,157088.3290756667,-0.588775634765625,0.400177001953125,-0.7128448486328125,157088.3199516667,-0.02092685352973364,0.02885561672711755,0.003790743495618788,157088.3144886667,-105.2882537841797,-17.22531127929688,-552.7988891601562,157088.3199516667,0.7146843946707978,-0.6795367964786404,-0.3908000247891235,-0.02328351140022278,0.02286053262650967,0.0007794543635100126,-0.003603935241699219,0.01895883679389954,0.007317662239074707,1,-0.05714112147688866,-0.370306134223938,0.3841326832771301,0.8438307046890259,-0.5810518264770508,0.380928248167038,-0.719216525554657,0,0,0,-1,157085.941309625,3,2,1561827148.641366,1561827055.717469,12,1.562096,0,0,11.78992,0,0,1561827143.457785,157084.964646,0,0.480957,75.37175,0,182478453,5,1,0.19,-34.54192,-47.17033,2
1561827151.033494,112,0,0,1561827149.998817,4.634673739787782,-74.15108157328716,2552.743,-1,-1,4,10,-9999,1561827150.979046,-26.28316497802734,11.25725936889648,10.55328369140625,65.53005981445312,73.02325439453125,15,157088.3493086667,-0.5904541015625,0.3936767578125,-0.70465087890625,157088.3402146667,0.003591006413862845,0.0206799784966833,-0.01026675231836447,157088.3345996667,-105.2062835693359,-17.40568542480469,-552.6949462890625,157088.3402146667,0.7144214011966085,-0.679334151557812,-0.3908621654725989,0.001234348863363266,0.0146848950535059,-0.0132780410349369,-0.0106615424156189,0.01601746678352356,0.008958160877227783,1,-0.05725634470582008,-0.3702212870121002,0.3840234577655792,0.8439098000526428,-0.5808911919593811,0.3809857070446014,-0.7193158268928528,0,0,0,-1,157085.941309625,3,2,1561827148.641366,1561827055.717469,12,1.562096,0,0,11.78992,0,0,1561827143.457785,157085.911322,0,0.7319336,75.36939,0,182478453,5,1,0.19,-35.0992,-47.68393,2
1561827151.041411,113,0,0,1561827149.998817,4.634673739787782,-74.15108157328716,2552.743,-1,-1,4,10,-9999,1561827150.979046,-26.28316497802734,11.25725936889648,10.55328369140625,65.53005981445312,73.02325439453125,15,157088.3695726667,-0.584075927734375,0.389251708984375,-0.6925811767578125,157088.3604476667,-0.005919408154919123,0.03690582007020907,-0.01478214194659382,157088.3547106667,-105.3176727294922,-17.06094360351562,-552.49267578125,157088.3604476667,0.714107483741233,-0.6790864292453334,-0.3906807209993336,-0.008276065811514854,0.03091073781251907,-0.0177934318780899,-0.007012128829956055,0.0102342963218689,0.02238523960113525,1,-0.05728134512901306,-0.3700838983058929,0.3838618993759155,0.8440419435501099,-0.5807564258575439,0.3808179199695587,-0.7195135354995728,0,0,0,-1,157085.941309625,3,2,1561827148.641366,1561827055.717469,12,1.562096,0,0,11.78992,0,0,1561827143.457785,157085.911322,0,0.7319336,75.36939,0,182478453,5,1,0.19,-35.65648,-47.79911,2
1561827151.061566,114,0,0,1561827149.998817,4.634673739787782,-74.15108157328716,2552.743,-1,-1,4,10,-9999,1561827151.039803,-26.52098083496094,11.05075073242188,10.5546875,65.55795288085938,73.0511474609375,15,157088.3898366667,-0.5790557861328125,0.3841094970703125,-0.69219970703125,157088.3807116667,-0.02959757340681363,0.0706267657927924,-0.01083826668829548,157088.3748216667,-105.3415222167969,-17.30807495117188,-552.6539306640625,157088.3807116667,0.7135904783704861,-0.6783037152184084,-0.3908022140487185,-0.03196493163704872,0.06461796909570694,-0.01384744700044394,-0.003911852836608887,0.008321434259414673,0.02735066413879395,1,-0.05758117511868477,-0.3697546422481537,0.3836359083652496,0.8442685604095459,-0.5801640152931213,0.3809302747249603,-0.7199318408966064,0,0,0,-1,157085.941309625,3,2,1561827148.641366,1561827055.717469,12,1.562096,0,0,11.78992,0,0,1561827143.457785,157085.911322,0,0.7319336,75.36939,0,182478453,5,1,0.19,-35.65648,-47.79911,2
1561827151.101607,115,0,0,1561827150.998806,4.63466921356007,-74.15108517750552,2552.744,-1,-1,4,10,-9999,1561827151.080218,-26.39092254638672,10.89920997619629,10.67034912109375,65.67073059082031,73.16392517089844,15,157088.4100996667,-0.5716400146484375,0.3802490234375,-0.6949615478515625,157088.4009756667,-0.03658357757830949,0.091922200817393,-0.005277320016101018,157088.3949636667,-105.2419738769531,-17.10440063476562,-552.55078125,157088.4009756667,0.7128882116355677,-0.6770306160485139,-0.3913172879976833,-0.03895093500614166,0.08591340482234955,-0.008286500349640846,0.003287851810455322,0.001268714666366577,0.02766096591949463,1,-0.05818410590291023,-0.3692644238471985,0.3833647966384888,0.8445647954940796,-0.5791239738464355,0.3814064562320709,-0.7205168008804321,0,0,0,-1,157085.941309625,3,2,1561827148.641366,1561827055.717469,12,1.562096,0,0,11.78992,0,0,1561827143.457785,157085.911322,0,0.7319336,75.36939,0,182478453,5,1,0.19,-36.77104,-48.51228,2
1561827151.103951,116,0,0,1561827150.998806,4.63466921356007,-74.15108517750552,2552.744,-1,-1,4,10,-9999,1561827151.080218,-26.39092254638672,10.89920997619629,10.67034912109375,65.67073059082031,73.16392517089844,15,157088.4303636667,-0.5671844482421875,0.380035400390625,-0.70361328125,157088.4212386667,-0.02564331182026398,0.09189743341925527,0.0008474178588632136,157088.4150746667,-105.0657196044922,-17.3760986328125,-553.02099609375,157088.4212386667,0.7123076056997433,-0.6754809526609472,-0.3918184992489139,-0.02801067009568214,0.08588863909244537,-0.002161762909963727,0.009024262428283691,-0.002505719661712646,0.02299141883850098,1,-0.05881115794181824,-0.3686586320400238,0.3831346035003662,0.8448904752731323,-0.5778871774673462,0.3818697333335876,-0.721264123916626,0,0,0,-1,157085.941309625,3,2,1561827148.641366,1561827055.717469,12,1.562096,0,0,11.78992,0,0,1561827143.457785,157085.911322,0,0.7319336,75.36939,0,182478453,5,1,0.19,-36.77104,-48.51228,2
1561827151.12241,117,0,0,1561827150.998806,4.63466921356007,-74.15108517750552,2552.744,-1,-1,4,10,-9999,1561827151.106614,-26.55772399902344,10.98542404174805,10.42431640625,65.70582580566406,73.19902038574219,15,157088.4506276667,-0.5705413818359375,0.3816070556640625,-0.720428466796875,157088.4415026667,-0.02104323366937011,0.06225964627998144,-0.002984072001433786,157088.4351856667,-105.2139587402344,-17.14614868164062,-552.943603515625,157088.4415026667,0.7118887478736847,-0.6742231424752491,-0.392209553496618,-0.02341059222817421,0.05625085160136223,-0.005993252620100975,0.009701728820800781,-0.00219571590423584,0.01826047897338867,1,-0.05930323153734207,-0.3681660890579224,0.382967472076416,0.8451465964317322,-0.5768862366676331,0.3822311162948608,-0.7218737006187439,0,0,0,-1,157085.941309625,3,2,1561827148.641366,1561827055.717469,12,1.562096,0,0,11.78992,0,0,1561827143.457785,157085.911322,0,0.7319336,75.36939,0,182478453,5,1,0.19,-37.32832,-47.82782,2
1561827151.143734,118,0,0,1561827150.998806,4.63466921356007,-74.15108517750552,2552.744,-1,-1,4,10,-9999,1561827151.130898,-26.34449768066406,11.11358642578125,10.22784423828125,65.74131774902344,73.23451232910156,15,157088.4708906667,-0.574493408203125,0.390350341796875,-0.7275848388671875,157088.4617666667,-0.008632370357382842,0.0206565426790906,-0.01285028489185034,157088.4552966667,-105.0951080322266,-17.41999816894531,-552.8602294921875,157088.4617666667,0.7113849875822178,-0.6737286586284196,-0.3923999238480241,-0.01099972892552614,0.01464774925261736,-0.01585946604609489,0.003089010715484619,0.004449039697647095,-0.004536807537078857,1,-0.05957531929016113,-0.3679670989513397,0.3827627301216125,0.8453068137168884,-0.5764837861061096,0.3824070394039154,-0.7221019864082336,0,0,0,-1,157085.941309625,3,2,1561827148.641366,1561827055.717469,12,1.562096,0,0,11.78992,0,0,1561827143.457785,157085.911322,0,0.7319336,75.36939,0,182478453,5,1,0.19,-37.8856,-44.53917,2
1561827151.181274,119,0,0,1561827150.998806,4.63466921356007,-74.15108517750552,2552.744,-1,-1,4,10,-9999,1561827151.15993,-26.35714721679688,10.98939895629883,10.43353271484375,65.75796508789062,73.25115966796875,15,157088.4911546667,-0.573760986328125,0.3874359130859375,-0.70916748046875,157088.4820296667,0.03036110169133935,-0.03597424632089936,-0.0188349404934764,157088.4754076667,-105.2471618652344,-17.15985107421875,-552.9853515625,157088.4820296667,0.711201739122056,-0.6741624856651001,-0.3920178760132727,0.02799374237656593,-0.04198303818702698,-0.02184412255883217,0.004500448703765869,0.007945388555526733,0.001537442207336426,1,-0.05935597792267799,-0.3680949807167053,0.3826523423194885,0.8453165292739868,-0.5768881440162659,0.3820540010929108,-0.7219659090042114,0,0,0,-1,157085.941309625,3,2,1561827148.641366,1561827055.717469,12,1.562096,0,0,11.78992,0,0,1561827143.457785,157085.911322,0,0.7319336,75.36939,0,182478453,5,1,0.19,-39.00015,-45.75446,2
1561827151.183651,120,0,0,1561827150.998806,4.63466921356007,-74.15108517750552,2552.744,-1,-1,4,10,-9999,1561827151.18279,-26.47317504882812,11.15505790710449,10.47430419921875,65.74532318115234,73.23851776123047,15,157088.5114186667,-0.5792236328125,0.38262939453125,-0.6949310302734375,157088.5022936667,0.03720356148007994,-0.0373702753643189,-0.01096982684614539,157088.4955496667,-105.2006378173828,-17.0711669921875,-552.9509887695312,157088.5022936667,0.7113691861725616,-0.6750775427399088,-0.3912655870638636,0.03483620285987854,-0.04337906837463379,-0.01397900748997927,0.0006711483001708984,0.003574788570404053,0.02148187160491943,1,-0.05881527438759804,-0.3683881163597107,0.3826597034931183,0.8452233672142029,-0.5777280330657959,0.3813586533069611,-0.7216619253158569,0,0,0,-1,157085.941309625,3,2,1561827148.641366,1561827055.717469,12,1.562096,0,0,11.78992,0,0,1561827143.457785,157085.911322,0,0.7319336,75.36939,0,182478453,5,1,0.19,-39.00015,-45.75446,2
1561827151.203266,121,0,0,1561827150.998806,4.63466921356007,-74.15108517750552,2552.744,-1,-1,4,10,-9999,1561827151.18279,-26.47317504882812,11.15505790710449,10.47430419921875,65.74532318115234,73.23851776123047,15,157088.5316816667,-0.5791168212890625,0.3813629150390625,-0.6899871826171875,157088.5225576667,0.01648177135428239,0.0097064232250118,-0.008629440880183756,157088.5156606667,-105.1763153076172,-16.95388793945312,-552.9402465820312,157088.5225576667,0.7114948450980023,-0.6754735319866261,-0.3907117276127637,0.01411441341042519,0.00369762908667326,-0.01163862179964781,-0.002344429492950439,-0.0004450082778930664,0.02938282489776611,1,-0.05846986919641495,-0.368486613035202,0.3826577663421631,0.8452051877975464,-0.5781456828117371,0.3808465898036957,-0.7215977907180786,0,0,0,-1,157085.941309625,3,2,1561827148.641366,1561827055.717469,12,1.562096,0,0,11.78992,0,0,1561827143.457785,157085.911322,0,0.7319336,75.36939,0,182478453,5,1,0.19,-39.55743,-46.38,2
1561827151.228092,122,0,0,1561827150.998806,4.63466921356007,-74.15108517750552,2552.744,-1,-1,4,10,-9999,1561827151.211771,-26.43268585205078,11.06271743774414,10.42926025390625,65.74834442138672,73.24153900146484,15,157088.5519456667,-0.572052001953125,0.39117431640625,-0.7015380859375,157088.5428206667,-0.007442203666226431,0.03939587568943316,-0.007585481732872694,157088.5357716667,-105.2914581298828,-17.18199157714844,-553.1421508789062,157088.5428206667,0.7113522478197202,-0.675058780939791,-0.3905390100346824,-0.009809562936425209,0.03338708356022835,-0.01059466227889061,0.003043174743652344,0.005970805883407593,0.02947556972503662,1,-0.05849863216280937,-0.3682844936847687,0.3825645446777344,0.8453335762023926,-0.5778874754905701,0.3806869089603424,-0.7218888998031616,0,0,0,-1,157085.941309625,3,2,1561827148.641366,1561827055.717469,12,1.562096,0,0,11.78992,0,0,1561827143.457785,157085.911322,0,0.7319336,75.36939,0,182478453,5,1,0.19,-40.11471,-46.80957,2
