loggingTime,loggingSample,identifierForVendor,deviceID,locationTimestamp_since1970,locationLatitude,locationLongitude,locationAltitude,locationSpeed,locationCourse,locationVerticalAccuracy,locationHorizontalAccuracy,locationFloor,locationHeadingTimestamp_since1970,locationHeadingX,locationHeadingY,locationHeadingZ,locationTrueHeading,locationMagneticHeading,locationHeadingAccuracy,accelerometerTimestamp_sinceReboot,accelerometerAccelerationX,accelerometerAccelerationY,accelerometerAccelerationZ,gyroTimestamp_sinceReboot,gyroRotationX,gyroRotationY,gyroRotationZ,magnetometerTimestamp_sinceReboot,magnetometerX,magnetometerY,magnetometerZ,motionTimestamp_sinceReboot,motionYaw,motionRoll,motionPitch,motionRotationRateX,motionRotationRateY,motionRotationRateZ,motionUserAccelerationX,motionUserAccelerationY,motionUserAccelerationZ,motionAttitudeReferenceFrame,motionQuaternionX,motionQuaternionY,motionQuaternionZ,motionQuaternionW,motionGravityX,motionGravityY,motionGravityZ,motionMagneticFieldX,motionMagneticFieldY,motionMagneticFieldZ,motionMagneticFieldCalibrationAccuracy,activityTimestamp_sinceReboot,activity,activityActivityConfidence,activityActivityStartDate,pedometerStartDate,pedometerNumberofSteps,pedometerAverageActivePace,pedometerCurrentPace,pedometerCurrentCadence,pedometerDistance,pedometerFloorAscended,pedometerFloorDescended,pedometerEndDate,altimeterTimestamp_sinceReboot,altimeterReset,altimeterRelativeAltitude,altimeterPressure,IP_en0,IP_pdp_ip0,deviceOrientation,batteryState,batteryLevel,avAudioRecorderPeakPower,avAudioRecorderAveragePower,label
1561914342.773375,1,0,0,1561914342.018983,4.634661125023509,-74.15104636929384,2552.718,0.78,177.890625,4,30,-9999,1561914342.762189,-21.90293121337891,19.95051193237305,2.72509765625,356.3775939941406,3.871066570281982,15,197057.93702025,-0.9451141357421875,-0.3343505859375,0.0089874267578125,197057.91977825,0.01939473695461106,-0.0124321686007079,0.02098624202204241,197057.92398925,-97.77897644042969,-9.690460205078125,-560.8905029296875,197057.91977825,1.149322608507567,-1.599241873494952,0.3406693692209281,0.01676217652857304,-0.0189865306019783,0.01773926056921482,-0.001636624336242676,0.003322780132293701,-0.02012383937835693,1,-0.4833041727542877,0.5289807915687561,-0.271329402923584,-0.6426327228546143,-0.9421499967575073,-0.3341180682182312,0.02680720202624798,0,0,0,-1,197051.031864625,3,2,1561914335.869401,1561913957.287787,16,1.221493,0,0,13.06835,0,0,1561914226.950748,197055.356326,0,1.3396,75.29253,3232235528,177845136,1,1,0.54,-16.59022,-40.00952,4
1561914342.783049,2,0,0,1561914342.018983,4.634661125023509,-74.15104636929384,2552.718,0.78,177.890625,4,30,-9999,1561914342.762189,-21.90293121337891,19.95051193237305,2.72509765625,356.3775939941406,3.871066570281982,15,197057.95728425,-0.9479827880859375,-0.333526611328125,0.010772705078125,197057.94004125,0.02308934033487799,-0.00781051884498439,0.01344763192435511,197057.94410025,-97.50532531738281,-9.22283935546875,-560.8232421875,197057.94004125,1.149640097966351,-1.599667163671613,0.3403625832951548,0.02045677974820137,-0.01436488144099712,0.01020065043121576,-0.00287330150604248,-0.0005216598510742188,-0.01822340488433838,1,-0.4833675920963287,0.5291135907173157,-0.2714294493198395,-0.6424333453178406,-0.942240834236145,-0.3338288962841034,0.02721084281802177,0,0,0,-1,197051.031864625,3,2,1561914335.869401,1561913957.287787,16,1.221493,0,0,13.06835,0,0,1561914226.950748,197055.356326,0,1.3396,75.29253,3232235528,177845136,1,1,0.54,-16.59022,-40.00952,4
1561914342.816457,3,0,0,1561914342.018983,4.634661125023509,-74.15104636929384,2552.718,0.78,177.890625,4,30,-9999,1561914342.809282,-21.88102722167969,19.72453117370605,2.82867431640625,356.31494140625,3.808411598205566,15,197057.97754725,-0.9424285888671875,-0.326751708984375,0.009185791015625,197057.96030525,0.0255567590848364,0.009847038130567982,0.004853344770560404,197057.96418125,-97.68435668945312,-9.418228149414062,-560.8283081054688,197057.96030525,1.150121427004058,-1.599954266456327,0.3402589884663222,0.02292419783771038,0.003292675595730543,0.001606362871825695,-0.005715310573577881,0.0002046525478363037,-0.01670968532562256,1,-0.4835074841976166,0.5291140675544739,-0.2715486884117126,-0.6422772407531738,-0.9422674775123596,-0.3337312340736389,0.02748236805200577,0,0,0,-1,197051.031864625,3,2,1561914335.869401,1561913957.287787,16,1.221493,0,0,13.06835,0,0,1561914226.950748,197055.356326,0,1.3396,75.29253,3232235528,177845136,1,1,0.54,-17.1475,-40.56059,4
1561914342.824397,4,0,0,1561914342.018983,4.634661125023509,-74.15104636929384,2552.718,0.78,177.890625,4,30,-9999,1561914342.809282,-21.88102722167969,19.72453117370605,2.82867431640625,356.31494140625,3.808411598205566,15,197057.99781125,-0.93841552734375,-0.3252105712890625,0.01141357421875,197057.98056925,0.02733255489970124,0.02332050271749686,0.01063773065821251,197057.98429225,-97.8427734375,-9.462005615234375,-560.8368530273438,197057.98056925,1.150584477200157,-1.59985130256482,0.3401546331659318,0.02469999529421329,0.01676613837480545,0.007390748709440231,-0.0001232624053955078,0.006881147623062134,-0.01820051670074463,1,-0.4835893213748932,0.5289939045906067,-0.2717566192150116,-0.6422268152236938,-0.942305326461792,-0.3336328566074371,0.02738636545836926,0,0,0,-1,197051.031864625,3,2,1561914335.869401,1561913957.287787,16,1.221493,0,0,13.06835,0,0,1561914226.950748,197055.356326,0,1.3396,75.29253,3232235528,177845136,1,1,0.54,-17.70478,-41.17319,4
1561914342.843421,5,0,0,1561914342.018983,4.634661125023509,-74.15104636929384,2552.718,0.78,177.890625,4,30,-9999,1561914342.833432,-21.81197357177734,19.86264801025391,2.65789794921875,356.2784423828125,3.771921634674072,15,197058.01804425,-0.9412689208984375,-0.3255462646484375,0.0087127685546875,197058.00083225,0.02460388004680605,0.04127393689015704,0.01378185864116006,197058.00440325,-97.73432922363281,-9.515396118164062,-560.94384765625,197058.00083225,1.151123510993454,-1.599452977374894,0.3399608427021408,0.02197131887078285,0.03471957519650459,0.01053487695753574,0.003965139389038086,0.008239626884460449,-0.01559925079345703,1,-0.4836283028125763,0.5287817120552063,-0.2720896899700165,-0.6422311067581177,-0.9423806667327881,-0.3334501683712006,0.02701286785304546,0,0,0,-1,197051.031864625,3,2,1561914335.869401,1561913957.287787,16,1.221493,0,0,13.06835,0,0,1561914226.950748,197055.356326,0,1.3396,75.29253,3232235528,177845136,1,1,0.54,-18.26206,-41.68692,4
1561914342.863513,6,0,0,1561914342.018983,4.634661125023509,-74.15104636929384,2552.718,0.78,177.890625,4,30,-9999,1561914342.860318,-22.05925750732422,19.97570037841797,2.73345947265625,356.2333068847656,3.726760387420654,15,197058.03830825,-0.93804931640625,-0.3249053955078125,0.0110015869140625,197058.02109625,0.03086417282125532,0.05986226866669211,0.02722203371446295,197058.02451425,-97.72413635253906,-9.448638916015625,-560.7890625,197058.02109625,1.151617818728552,-1.5986606825848,0.3396483589114189,0.02823161147534847,0.05330790579319,0.02397505193948746,0.001236975193023682,0.007609307765960693,-0.01755630970001221,1,-0.4835713505744934,0.5284820795059204,-0.2725426554679871,-0.6423285603523254,-0.9425058960914612,-0.3331555724143982,0.02626911923289299,0,0,0,-1,197051.031864625,3,2,1561914335.869401,1561913957.287787,16,1.221493,0,0,13.06835,0,0,1561914226.950748,197055.356326,0,1.3396,75.29253,3232235528,177845136,1,1,0.54,-18.26206,-41.68692,4
1561914342.89651,7,0,0,1561914342.018983,4.634661125023509,-74.15104636929384,2552.718,0.78,177.890625,4,30,-9999,1561914342.884134,-22.0498046875,19.98383712768555,2.7413330078125,356.1558227539062,3.649297475814819,15,197058.05857225,-0.9448089599609375,-0.3243865966796875,0.0184173583984375,197058.04136025,0.05253191776624901,0.05187012223536432,0.04693688263210154,197058.04459525,-97.68180847167969,-9.316055297851562,-560.7252807617188,197058.04136025,1.152426957717909,-1.597888425820051,0.3389333091878828,0.04989935457706451,0.04531576111912727,0.04368989914655685,0.004714429378509521,0.007575869560241699,-0.01454615592956543,1,-0.4834972321987152,0.5282085537910461,-0.2732239663600922,-0.6423198580741882,-0.9427637457847595,-0.3324812650680542,0.0255477000027895,0,0,0,-1,197051.031864625,3,2,1561914335.869401,1561913957.287787,16,1.221493,0,0,13.06835,0,0,1561914226.950748,197055.356326,0,1.3396,75.29253,3232235528,177845136,1,1,0.54,-19.37662,-42.22568,4
1561914342.907392,8,0,0,1561914342.018983,4.634661125023509,-74.15104636929384,2552.718,0.78,177.890625,4,30,-9999,1561914342.884134,-22.0498046875,19.98383712768555,2.7413330078125,356.1558227539062,3.649297475814819,15,197058.07883525,-0.947479248046875,-0.326568603515625,0.02825927734375,197058.06162325,0.06591270434724313,0.03093820869955952,0.05890992226087977,197058.06470625,-97.58309936523438,-9.405044555664062,-560.6617431640625,197058.06162325,1.153557455298652,-1.597506587656155,0.3378675398370631,0.0632801428437233,0.02438384480774403,0.05566294118762016,-0.001681804656982422,0.007089376449584961,-0.006779789924621582,1,-0.4834713935852051,0.5280662775039673,-0.2740289568901062,-0.6421133279800415,-0.9431270956993103,-0.3314759433269501,0.02519716322422028,0,0,0,-1,197051.031864625,3,2,1561914335.869401,1561913957.287787,16,1.221493,0,0,13.06835,0,0,1561914226.950748,197055.356326,0,1.3396,75.29253,3232235528,177845136,1,1,0.54,-19.37662,-42.22568,4
1561914342.924538,9,0,0,1561914342.018983,4.634661125023509,-74.15104636929384,2552.718,0.78,177.890625,4,30,-9999,1561914342.910483,-21.84588623046875,19.87874603271484,2.51776123046875,356.0437622070312,3.537227630615234,15,197058.09909925,-0.9491119384765625,-0.328460693359375,0.0366363525390625,197058.08185725,0.08722704781558331,-0.01264841728122233,0.05049673006121045,197058.08481725,-97.81851196289062,-9.588134765625,-561.01904296875,197058.08185725,1.155130290917979,-1.597963537298519,0.3367632072511814,0.0845944881439209,-0.01920277997851372,0.04724974930286407,-0.003998398780822754,0.003865242004394531,0.002621293067932129,1,-0.4836674332618713,0.5280954837799072,-0.2747853994369507,-0.6416182518005371,-0.943480908870697,-0.3304338455200195,0.02563805133104324,0,0,0,-1,197051.031864625,3,2,1561914335.869401,1561913957.287787,16,1.221493,0,0,13.06835,0,0,1561914226.950748,197055.356326,0,1.3396,75.29253,3232235528,177845136,1,1,0.54,-19.9339,-41.3325,4
1561914342.944441,10,0,0,1561914342.018983,4.634661125023509,-74.15104636929384,2552.718,0.78,177.890625,4,30,-9999,1561914342.934696,-21.84813690185547,19.91673278808594,2.393798828125,355.9312438964844,3.424720287322998,15,197058.11936325,-0.94842529296875,-0.330841064453125,0.0443572998046875,197058.10212025,0.0750870279864571,-0.02607740707794689,0.03767440836080594,197058.10492825,-97.72750854492188,-9.273590087890625,-560.8788452148438,197058.10212025,1.156783295213932,-1.599046352737447,0.3358232605746131,0.07245446741580963,-0.0326317697763443,0.03442742675542831,-0.005349159240722656,0.001085847616195679,0.009967923164367676,1,-0.4840130805969238,0.5282665491104126,-0.2753616571426392,-0.6409695148468018,-0.9437627792358398,-0.3295465409755707,0.02666841819882393,0,0,0,-1,197051.031864625,3,2,1561914335.869401,1561913957.287787,16,1.221493,0,0,13.06835,0,0,1561914226.950748,197055.356326,0,1.3396,75.29253,3232235528,177845136,1,1,0.54,-20.49117,-41.82971,4
1561914342.976907,11,0,0,1561914342.018983,4.634661125023509,-74.15104636929384,2552.718,0.78,177.890625,4,30,-9999,1561914342.961144,-21.89073944091797,20.01989364624023,2.59375,355.8532409667969,3.346722841262817,15,197058.13962625,-0.9506988525390625,-0.3267364501953125,0.0452728271484375,197058.12238425,0.05347787258544515,0.01786554985668756,0.01638616387114854,197058.12503925,-97.70494079589844,-9.437469482421875,-560.9267578125,197058.12238425,1.158090607629408,-1.599681817073114,0.3353547123467721,0.05084531009197235,0.01131118647754192,0.01313918270170689,-0.004525482654571533,-0.001736909151077271,0.01708471775054932,1,-0.4843265414237976,0.5282651782035828,-0.2757802307605743,-0.6405537128448486,-0.9438998103141785,-0.3291041553020477,0.02727259509265423,0,0,0,-1,197051.031864625,3,2,1561914335.869401,1561913957.287787,16,1.221493,0,0,13.06835,0,0,1561914226.950748,197055.356326,0,1.3396,75.29253,3232235528,177845136,1,1,0.54,-21.04845,-39.93778,4
1561914342.985089,12,0,0,1561914342.018983,4.634661125023509,-74.15104636929384,2552.718,0.78,177.890625,4,30,-9999,1561914342.961144,-21.89073944091797,20.01989364624023,2.59375,355.8532409667969,3.346722841262817,15,197058.15989025,-0.94818115234375,-0.3216552734375,0.0485076904296875,197058.14264825,0.04630411555709871,0.04911508208767734,-0.0001778991608172931,197058.14515025,-97.4822998046875,-9.462921142578125,-560.9725341796875,197058.14264825,1.159096416071013,-1.599370405993186,0.3352113997008303,0.04367155209183693,0.04256071895360947,-0.003424880793318152,-0.006743550300598145,0.002232342958450317,0.01829278469085693,1,-0.4845126569271088,0.527955949306488,-0.2762247323989868,-0.6404763460159302,-0.9439553618431091,-0.3289688229560852,0.02697999775409698,0,0,0,-1,197051.031864625,3,2,1561914335.869401,1561913957.287787,16,1.221493,0,0,13.06835,0,0,1561914226.950748,197055.356326,0,1.3396,75.29253,3232235528,177845136,1,1,0.54,-21.60573,-40.09224,4
1561914343.007549,13,0,0,1561914342.018983,4.634661125023509,-74.15104636929384,2552.718,0.78,177.890625,4,30,-9999,1561914342.986033,-21.88069152832031,19.79314231872559,2.525146484375,355.7898864746094,3.283365726470947,15,197058.18015425,-0.9331817626953125,-0.3203277587890625,0.0538482666015625,197058.16291125,0.03566745016332223,0.02489309934118866,0.01917689037744258,197058.16526125,-97.61714172363281,-9.427078247070312,-561.2412109375,197058.16291125,1.159953267181678,-1.598928299546429,0.3351294175519046,0.03303488716483116,0.01833873614668846,0.01592990942299366,-0.004187107086181641,0.007236093282699585,0.02194428443908691,1,-0.484656810760498,0.5276262760162354,-0.276633083820343,-0.6404626369476318,-0.9439940452575684,-0.328891396522522,0.02656342275440693,0,0,0,-1,197051.031864625,3,2,1561914335.869401,1561913957.287787,16,1.221493,0,0,13.06835,0,0,1561914226.950748,197055.356326,0,1.3396,75.29253,3232235528,177845136,1,1,0.54,-22.16301,-39.61069,4
1561914343.025488,14,0,0,1561914342.018983,4.634661125023509,-74.15104636929384,2552.718,0.78,177.890625,4,30,-9999,1561914343.011892,-21.68849945068359,19.86671447753906,2.420654296875,355.7339172363281,3.227377653121948,15,197058.20038725,-0.938323974609375,-0.3208770751953125,0.0565032958984375,197058.18317525,0.04962880586195362,-0.0466367443772496,0.03460138677896351,197058.18537225,-97.68951416015625,-9.418807983398438,-561.3353271484375,197058.18317525,1.16073487651631,-1.599545331992002,0.3346088399547598,0.04699624329805374,-0.05319110676646233,0.03135440498590469,0.01096689701080322,0.008071959018707275,0.02669739723205566,1,-0.4848158359527588,0.5277584791183472,-0.276904284954071,-0.6401161551475525,-0.9441486001014709,-0.3283997178077698,0.02715081349015236,0,0,0,-1,197051.031864625,3,2,1561914335.869401,1561913957.287787,16,1.221493,0,0,13.06835,0,0,1561914226.950748,197055.356326,0,1.3396,75.29253,3232235528,177845136,1,1,0.54,-22.16301,-39.61069,4
1561914343.057193,15,0,0,1561914343.018155,4.634645325136031,-74.15104829713157,2552.933,0.93,181.0546875,4,30,-9999,1561914343.036022,-21.72328948974609,20.05803108215332,2.43756103515625,355.6606140136719,3.154083251953125,15,197058.22065025,-0.9442138671875,-0.329437255859375,0.056365966796875,197058.20343925,0.05332873556440072,-0.05287147080523411,0.03376834998998673,197058.20548325,-97.50535583496094,-9.57000732421875,-561.0381469726562,197058.20343925,1.161814003303621,-1.601269654180878,0.3339001069703311,0.05069617182016373,-0.05942583084106445,0.03052136674523354,0.00600886344909668,0.0068531334400177,0.0277174711227417,1,-0.4851592183113098,0.5282172560691833,-0.2770634889602661,-0.6394082903862,-0.9443327784538269,-0.3277302086353302,0.02878587320446968,0,0,0,-1,197051.031864625,3,2,1561914335.869401,1561913957.287787,16,1.221493,0,0,13.06835,0,0,1561914226.950748,197055.356326,0,1.3396,75.29253,3232235528,177845136,1,1,0.54,-23.27757,-40.08051,4
1561914343.066021,16,0,0,1561914343.018155,4.634645325136031,-74.15104829713157,2552.933,0.93,181.0546875,4,30,-9999,1561914343.062488,-21.70081329345703,20.13408851623535,2.55023193359375,355.6551208496094,3.148579835891724,15,197058.24091425,-0.94146728515625,-0.32391357421875,0.0541839599609375,197058.22370225,0.005535114009620689,0.03742327227001147,0.01428173397776793,197058.22559425,-97.46696472167969,-9.083541870117188,-560.9718627929688,197058.22370225,1.162433672089926,-1.601839461024054,0.3334995273980177,0.002902553416788578,0.03086890839040279,0.01103475224226713,0.0002334117889404297,-0.002085506916046143,0.02703797817230225,1,-0.4853000640869141,0.528344452381134,-0.2772545218467712,-0.6391133666038513,-0.9444472789764404,-0.3273517489433289,0.02932802587747574,0,0,0,-1,197051.031864625,3,2,1561914335.869401,1561913957.287787,16,1.221493,0,0,13.06835,0,0,1561914226.950748,197055.356326,0,1.3396,75.29253,3232235528,177845136,1,1,0.54,-23.27757,-40.08051,4
1561914343.086453,17,0,0,1561914343.018155,4.634645325136031,-74.15104829713157,2552.933,0.93,181.0546875,4,30,-9999,1561914343.062488,-21.70081329345703,20.13408851623535,2.55023193359375,355.6551208496094,3.148579835891724,15,197058.26117825,-0.927978515625,-0.3149566650390625,0.054290771484375,197058.24396625,-0.01513074973328519,0.07856112162846546,0.009813482300832985,197058.24570525,-97.23872375488281,-9.098220825195312,-561.1292724609375,197058.24396625,1.162186650709446,-1.600572623998072,0.3333606225961362,-0.01776331104338169,0.07200675457715988,0.006566500291228294,0.003061890602111816,0.003306925296783447,0.02605104446411133,1,-0.4850237965583801,0.5280325412750244,-0.2775283753871918,-0.6394619345664978,-0.9445291757583618,-0.3272204697132111,0.02813289500772953,0,0,0,-1,197051.031864625,3,2,1561914335.869401,1561913957.287787,16,1.221493,0,0,13.06835,0,0,1561914226.950748,197055.356326,0,1.3396,75.29253,3232235528,177845136,1,1,0.54,-23.83485,-39.63998,4
1561914343.106658,18,0,0,1561914343.018155,4.634645325136031,-74.15104829713157,2552.933,0.93,181.0546875,4,30,-9999,1561914343.086713,-21.76905059814453,19.96681213378906,2.51922607421875,355.6809692382812,3.174437284469604,15,197058.2814652917,-0.914093017578125,-0.318359375,0.0527191162109375,197058.26419925,-0.007811051477202405,0.0491438442274502,0.04876061534658779,197058.2658402917,-97.5865478515625,-9.691329956054688,-561.263671875,197058.26419925,1.161876321718475,-1.599338990215104,0.3328769711165347,-0.0104436120018363,0.04258948192000389,0.04551363363862038,0.01674282550811768,0.01180675625801086,0.02731859683990479,1,-0.4846474528312683,0.5278285145759583,-0.2778865396976471,-0.6397601962089539,-0.9447213411331177,-0.3267634212970734,0.02697218954563141,0,0,0,-1,197051.031864625,3,2,1561914335.869401,1561913957.287787,16,1.221493,0,0,13.06835,0,0,1561914226.950748,197055.356326,0,1.3396,75.29253,3232235528,177845136,1,1,0.54,-24.39213,-40.08186,4
1561914343.134518,19,0,0,1561914343.018155,4.634645325136031,-74.15104829713157,2552.933,0.93,181.0546875,4,30,-9999,1561914343.113542,-21.58808898925781,19.93911933898926,2.447265625,355.6796264648438,3.173079013824463,15,197058.3017282917,-0.92144775390625,-0.3134765625,0.0536956787109375,197058.2844862917,0.01020763014216471,0.001371794277499816,0.08032626479896998,197058.2859202917,-97.55513000488281,-9.411834716796875,-561.35205078125,197058.2844862917,1.161873124581297,-1.599063903293658,0.3315364515962229,0.007575069088488817,-0.005182568449527025,0.07707928121089935,0.03107261657714844,0.007136791944503784,0.02599442005157471,1,-0.4842668473720551,0.5280605554580688,-0.2783907651901245,-0.6396375894546509,-0.9451655745506287,-0.3254961967468262,0.02672465890645981,0,0,0,-1,197051.031864625,3,2,1561914335.869401,1561913957.287787,16,1.221493,0,0,13.06835,0,0,1561914226.950748,197055.356326,0,1.3396,75.29253,3232235528,177845136,1,1,0.54,-24.94941,-40.1877,4
1561914343.147081,20,0,0,1561914343.018155,4.634645325136031,-74.15104829713157,2552.933,0.93,181.0546875,4,30,-9999,1561914343.137429,-21.70817565917969,20.17744445800781,2.37548828125,355.651611328125,3.145072221755981,15,197058.3219922917,-0.930511474609375,-0.3173675537109375,0.0494384765625,197058.3047492917,0.02437511450916824,-0.05153216709303326,0.1378135264055294,197058.3060312917,-97.75567626953125,-9.389083862304688,-561.3392944335938,197058.3047492917,1.162228439413916,-1.599977982302028,0.3292537769484429,0.02174255438148975,-0.05808652937412262,0.1345665454864502,0.02443331480026245,0.009860426187515259,0.02608537673950195,1,-0.4839061796665192,0.5288099050521851,-0.2790298163890839,-0.6390127539634705,-0.9458810687065125,-0.3233369886875153,0.02761021256446838,0,0,0,-1,197051.031864625,3,2,1561914335.869401,1561913957.287787,16,1.221493,0,0,13.06835,0,0,1561914226.950748,197055.356326,0,1.3396,75.29253,3232235528,177845136,1,1,0.54,-25.50669,-40.47277,4
1561914343.167393,21,0,0,1561914343.018155,4.634645325136031,-74.15104829713157,2552.933,0.93,181.0546875,4,30,-9999,1561914343.163713,-21.77249145507812,20.28656578063965,2.4884033203125,355.641845703125,3.135309219360352,15,197058.3422562917,-0.94195556640625,-0.3231964111328125,0.0419769287109375,197058.3250132917,0.01577496840097536,-0.05582038908027885,0.1401994524261314,197058.3261422917,-97.40269470214844,-8.813064575195312,-561.250732421875,197058.3250132917,1.162556803805635,-1.601394269594716,0.3264151396090315,0.01314240880310535,-0.06237474828958511,0.1369524747133255,0.01624304056167603,0.003281950950622559,0.02046072483062744,1,-0.4834670722484589,0.5298570394515991,-0.2797205448150635,-0.6381751298904419,-0.946754515171051,-0.3206495344638824,0.02897778525948524,0,0,0,-1,197051.031864625,3,2,1561914335.869401,1561913957.287787,16,1.221493,0,0,13.06835,0,0,1561914226.950748,197055.356326,0,1.3396,75.29253,3232235528,177845136,1,1,0.54,-26.06396,-40.96003,4
1561914343.189934,22,0,0,1561914343.018155,4.634645325136031,-74.15104829713157,2552.933,0.93,181.0546875,4,30,-9999,1561914343.163713,-21.77249145507812,20.28656578063965,2.4884033203125,355.641845703125,3.135309219360352,15,197058.3624892917,-0.9534912109375,-0.323699951171875,0.0367584228515625,197058.3452772917,-0.02105601684260249,-0.03596359367653904,0.1110141363560621,197058.3462532917,-97.54029846191406,-8.886947631835938,-561.13232421875,197058.3452772917,1.162430217898175,-1.602461747478269,0.3239118267229288,-0.02368857711553574,-0.04251795634627342,0.1077671498060226,0.005566835403442383,-0.004919052124023438,0.0119631290435791,1,-0.4829443097114563,0.530821681022644,-0.280240923166275,-0.6375406980514526,-0.9475223422050476,-0.3182773888111115,0.03001372702419758,0,0,0,-1,197051.031864625,3,2,1561914335.869401,1561913957.287787,16,1.221493,0,0,13.06835,0,0,1561914226.950748,197055.356326,0,1.3396,75.29253,3232235528,177845136,1,1,0.54,-26.62124,-40.98231,4
1561914343.214945,23,0,0,1561914343.018155,4.634645325136031,-74.15104829713157,2552.933,0.93,181.0546875,4,30,-9999,1561914343.193373,-21.76340484619141,20.44406127929688,2.5440673828125,355.7018432617188,3.195322513580322,15,197058.3827522917,-0.95037841796875,-0.3155670166015625,0.02984619140625,197058.3655402917,-0.06213900508260085,-0.02548112530987815,0.0802226678325659,197058.3663642917,-97.30764770507812,-8.983795166015625,-560.95947265625,197058.3655402917,1.161381882214087,-1.602819630949125,0.3220830396821231,-0.06477156281471252,-0.03203548863530159,0.07697568833827972,-0.005399584770202637,-0.007156819105148315,0.006386995315551758,1,-0.4822491109371185,0.5316215753555298,-0.2804184556007385,-0.6373222470283508,-0.9480916261672974,-0.3165431618690491,0.03037140890955925,0,0,0,-1,197051.031864625,3,2,1561914335.869401,1561913957.287787,16,1.221493,0,0,13.06835,0,0,1561914226.950748,197055.356326,0,1.3396,75.29253,3232235528,177845136,1,1,0.54,-27.17852,-41.15924,4
1561914343.228094,24,0,0,1561914343.018155,4.634645325136031,-74.15104829713157,2552.933,0.93,181.0546875,4,30,-9999,1561914343.21679,-21.54646301269531,20.38317680358887,2.70599365234375,355.8086242675781,3.302105903625488,15,197058.4030162917,-0.9477996826171875,-0.3060760498046875,0.0195770263671875,197058.3858042917,-0.06312597258258422,-0.03147563460753751,0.05638710976024771,197058.3864752917,-97.52365112304688,-9.159317016601562,-561.205322265625,197058.3858042917,1.159891488578212,-1.603144381054643,0.3208676149154069,-0.06575853377580643,-0.038029994815588,0.05314012616872787,-0.001912713050842285,-0.0001769661903381348,-0.0008455514907836914,1,-0.4815874695777893,0.532371461391449,-0.28026282787323,-0.6372652053833008,-0.9484657645225525,-0.315390020608902,0.0306917279958725,0,0,0,-1,197051.031864625,3,2,1561914335.869401,1561913957.287787,16,1.221493,0,0,13.06835,0,0,1561914226.950748,197055.356326,0,1.3396,75.29253,3232235528,177845136,1,1,0.54,-27.17852,-41.15924,4
1561914343.248344,25,0,0,1561914343.018155,4.634645325136031,-74.15104829713157,2552.933,0.93,181.0546875,4,30,-9999,1561914343.238786,-21.39376068115234,20.37392425537109,2.72314453125,355.8984069824219,3.391871452331543,15,197058.4232802917,-0.9451141357421875,-0.3030242919921875,0.016204833984375,197058.4060682917,-0.05451544014614002,-0.02095827883059658,0.06464983335832755,197058.4065872917,-97.33506774902344,-9.016632080078125,-560.975341796875,197058.4060682917,1.158574866320887,-1.603429985654826,0.3197084779732489,-0.05714800208806992,-0.02751264162361622,0.06140285357832909,0.001021981239318848,0.008213788270950317,-0.01139748096466064,1,-0.4809802174568176,0.5330528020858765,-0.280153751373291,-0.6372022032737732,-0.9488216638565063,-0.3142898380756378,0.03097451850771904,0,0,0,-1,197051.031864625,3,2,1561914335.869401,1561913957.287787,16,1.221493,0,0,13.06835,0,0,1561914226.950748,197055.356326,0,1.3396,75.29253,3232235528,177845136,1,1,0.54,-27.7358,-41.36414,4
1561914343.268589,26,0,0,1561914343.018155,4.634645325136031,-74.15104829713157,2552.933,0.93,181.0546875,4,30,-9999,1561914343.264972,-21.62727355957031,20.26834487915039,2.65545654296875,355.939697265625,3.43317699432373,15,197058.4435432917,-0.9539947509765625,-0.307891845703125,0.016357421875,197058.4263312917,-0.02394128556759434,-0.02575090352830318,0.08431727800856273,197058.4266982917,-97.25473022460938,-8.96490478515625,-561.1410522460938,197058.4263312917,1.157630096528706,-1.603669551003078,0.3181996105041566,-0.02657384611666203,-0.0323052667081356,0.08107028901576996,0.004173040390014648,0.009832769632339478,-0.01501250267028809,1,-0.480375349521637,0.5337117314338684,-0.2802888154983521,-0.6370475888252258,-0.9492872357368469,-0.312857061624527,0.03121737763285637,0,0,0,-1,197051.031864625,3,2,1561914335.869401,1561913957.287787,16,1.221493,0,0,13.06835,0,0,1561914226.950748,197055.356326,0,1.3396,75.29253,3232235528,177845136,1,1,0.54,-28.29308,-41.55094,4
1561914343.294951,27,0,0,1561914343.018155,4.634645325136031,-74.15104829713157,2552.933,0.93,181.0546875,4,30,-9999,1561914343.289295,-21.5596923828125,20.41978073120117,2.69134521484375,355.9336242675781,3.427106618881226,15,197058.4638072917,-0.965087890625,-0.31591796875,0.0206756591796875,197058.4465652917,0.006673615375629563,-0.04501008558342921,0.07663405826368412,197058.4468092917,-97.251953125,-8.989730834960938,-561.0809326171875,197058.4465652917,1.157376765628148,-1.604437208966916,0.3165901386182415,0.004041054751724005,-0.05156444758176804,0.07338707149028778,-0.00422978401184082,0.003436118364334106,-0.01560556888580322,1,-0.4800028502941132,0.534395694732666,-0.2805503308773041,-0.6366397142410278,-0.9497649669647217,-0.3113279640674591,0.03196299076080322,0,0,0,-1,197051.031864625,3,2,1561914335.869401,1561913957.287787,16,1.221493,0,0,13.06835,0,0,1561914226.950748,197055.356326,0,1.3396,75.29253,3232235528,177845136,1,1,0.54,-28.85036,-40.61024,4
1561914343.309167,28,0,0,1561914343.018155,4.634645325136031,-74.15104829713157,2552.933,0.93,181.0546875,4,30,-9999,1561914343.289295,-21.5596923828125,20.41978073120117,2.69134521484375,355.9336242675781,3.427106618881226,15,197058.4840712917,-0.9708251953125,-0.31842041015625,0.02398681640625,197058.4668282917,0.005406483328969862,-0.02024455165845535,0.05397109001932782,197058.4668892917,-97.41276550292969,-9.2110595703125,-560.9570922851562,197058.4668282917,1.157505308168934,-1.605384603764765,0.3153797982525881,0.002773922402411699,-0.02679891511797905,0.05072410777211189,-0.01497775316238403,-0.005740374326705933,-0.01220011711120605,1,-0.4798599183559418,0.5349507927894592,-0.2807598412036896,-0.6361887454986572,-0.950110137462616,-0.3101775646209717,0.03287578374147415,0,0,0,-1,197051.031864625,3,2,1561914335.869401,1561913957.287787,16,1.221493,0,0,13.06835,0,0,1561914226.950748,197055.356326,0,1.3396,75.29253,3232235528,177845136,1,1,0.54,-29.40764,-41.19143,4
1561914343.329397,29,0,0,1561914343.018155,4.634645325136031,-74.15104829713157,2552.933,0.93,181.0546875,4,30,-9999,1561914343.315789,-21.44838714599609,20.37283706665039,2.61151123046875,355.94384765625,3.437317609786987,15,197058.5043342917,-0.963836669921875,-0.3149871826171875,0.0308990478515625,197058.4870922917,-0.0002737729600601457,-0.002500708263584405,0.03441150339324086,197058.4870002917,-97.13841247558594,-8.644485473632812,-560.9681396484375,197058.4870922917,1.157362188783036,-1.605603978161089,0.3145756227887108,-0.002906333655118942,-0.009055070579051971,0.03116452321410179,-0.02047336101531982,-0.009007483720779419,-0.009106040000915527,1,-0.4796462953090668,0.5352437496185303,-0.2809247672557831,-0.6360305547714233,-0.9503518342971802,-0.309412956237793,0.03309287875890732,0,0,0,-1,197051.031864625,3,2,1561914335.869401,1561913957.287787,16,1.221493,0,0,13.06835,0,0,1561914226.950748,197055.356326,0,1.3396,75.29253,3232235528,177845136,1,1,0.54,-29.96492,-41.62662,4
1561914343.349651,30,0,0,1561914343.018155,4.634645325136031,-74.15104829713157,2552.933,0.93,181.0546875,4,30,-9999,1561914343.340565,-21.42600250244141,20.48943710327148,2.71697998046875,355.9185791015625,3.412055730819702,15,197058.5245982917,-0.953277587890625,-0.307342529296875,0.0366058349609375,197058.5073562917,0.0302921258191063,-0.04971961965512533,0.01823253345490048,197058.5071112917,-97.19918823242188,-9.05572509765625,-561.0215454101562,197058.5073562917,1.157559125215218,-1.606281245008591,0.3140916646068495,0.02765956521034241,-0.05627398192882538,0.01498555205762386,-0.01335805654525757,-0.006034493446350098,-0.00284278392791748,1,-0.4796701073646545,0.5355254411697388,-0.2809832692146301,-0.6357495188713074,-0.9504786133766174,-0.3089526891708374,0.03374182060360909,0,0,0,-1,197051.031864625,3,2,1561914335.869401,1561913957.287787,16,1.221493,0,0,13.06835,0,0,1561914226.950748,197055.356326,0,1.3396,75.29253,3232235528,177845136,1,1,0.54,-29.96492,-41.62662,4
1561914343.375473,31,0,0,1561914343.018155,4.634645325136031,-74.15104829713157,2552.933,0.93,181.0546875,4,30,-9999,1561914343.366407,-21.23778533935547,20.48432540893555,2.72747802734375,355.87646484375,3.369942665100098,15,197058.5448312917,-0.952484130859375,-0.306640625,0.039581298828125,197058.5276192917,0.03475744801884215,-0.07714565150908835,0.02456739473987197,197058.5272232917,-96.96182250976562,-8.769088745117188,-560.8585205078125,197058.5276192917,1.158222803029049,-1.607994095797502,0.3137287604769285,0.03212488442659378,-0.08370001614093781,0.0213204137980938,-0.002746105194091797,0.001264989376068115,0.001231908798217773,1,-0.4799955189228058,0.5359956026077271,-0.2809019684791565,-0.6351433992385864,-0.9505314826965332,-0.3086075186729431,0.03537396714091301,0,0,0,-1,197051.031864625,3,2,1561914335.869401,1561913957.287787,16,1.221493,0,0,13.06835,0,0,1561914226.950748,197055.356326,0,1.3396,75.29253,3232235528,177845136,1,1,0.54,-31.07947,-42.59838,4
1561914343.391124,32,0,0,1561914343.018155,4.634645325136031,-74.15104829713157,2552.933,0.93,181.0546875,4,30,-9999,1561914343.366407,-21.23778533935547,20.48432540893555,2.72747802734375,355.87646484375,3.369942665100098,15,197058.5650952917,-0.95281982421875,-0.3084259033203125,0.04144287109375,197058.5478832917,0.02489576250227873,-0.05684224399054225,0.02831712555470353,197058.5473342917,-97.13636779785156,-8.73394775390625,-560.906494140625,197058.5478832917,1.158737228161842,-1.609704850010827,0.3132160420993256,0.02226320281624794,-0.06339661031961441,0.02507014386355877,-0.001856565475463867,0.001479178667068481,0.002575159072875977,1,-0.480242520570755,0.536535382270813,-0.2808224260807037,-0.6345357894897461,-0.9506275653839111,-0.3081198036670685,0.0370061881840229,0,0,0,-1,197051.031864625,3,2,1561914335.869401,1561913957.287787,16,1.221493,0,0,13.06835,0,0,1561914226.950748,197055.356326,0,1.3396,75.29253,3232235528,177845136,1,1,0.54,-31.07947,-42.59838,4
1561914343.410923,33,0,0,1561914343.018155,4.634645325136031,-74.15104829713157,2552.933,0.93,181.0546875,4,30,-9999,1561914343.391679,-21.24200439453125,20.70757675170898,2.67529296875,355.8476257324219,3.341086864471436,15,197058.5853592917,-0.9531402587890625,-0.309661865234375,0.045623779296875,197058.5681472917,0.02668247727761289,-0.05660815213072429,0.02157506693905893,197058.5674452917,-97.14875793457031,-8.784912109375,-560.7925415039062,197058.5681472917,1.159156219308921,-1.611084207306487,0.3127204931468809,0.0240499172359705,-0.06316251307725906,0.01832808554172516,-0.002091765403747559,-0.0007775723934173584,0.003119349479675293,1,-0.4804219603538513,0.536988377571106,-0.2807863354682922,-0.6340325474739075,-0.9507280588150024,-0.3076483309268951,0.03832355514168739,0,0,0,-1,197051.031864625,3,2,1561914335.869401,1561913957.287787,16,1.221493,0,0,13.06835,0,0,1561914226.950748,197055.356326,0,1.3396,75.29253,3232235528,177845136,1,1,0.54,-31.63675,-43.02444,4
1561914343.430681,34,0,0,1561914343.018155,4.634645325136031,-74.15104829713157,2552.933,0.93,181.0546875,4,30,-9999,1561914343.416926,-21.11988067626953,20.59563446044922,2.7225341796875,355.8195190429688,3.312979221343994,15,197058.6056222917,-0.9575042724609375,-0.3023681640625,0.047760009765625,197058.5884102917,0.01130458619516835,-0.0153091815263205,0.00868669884362046,197058.5875252917,-97.11238098144531,-8.883331298828125,-560.8817749023438,197058.5884102917,1.159572703566537,-1.612229456724634,0.3125275445442071,0.008672025054693222,-0.0218635443598032,0.005439717322587967,-0.002397418022155762,-0.002197146415710449,0.006209015846252441,1,-0.4806452989578247,0.53729647397995,-0.280706375837326,-0.633637547492981,-0.9507428407669067,-0.3074647188186646,0.03941480815410614,0,0,0,-1,197051.031864625,3,2,1561914335.869401,1561913957.287787,16,1.221493,0,0,13.06835,0,0,1561914226.950748,197055.356326,0,1.3396,75.29253,3232235528,177845136,1,1,0.54,-32.19403,-43.19515,4
1561914343.455404,35,0,0,1561914343.018155,4.634645325136031,-74.15104829713157,2552.933,0.93,181.0546875,4,30,-9999,1561914343.441221,-21.38523101806641,20.48965835571289,2.7696533203125,355.8397827148438,3.333236694335938,15,197058.6258862917,-0.9475555419921875,-0.304351806640625,0.04803466796875,197058.6086432917,-0.01521676983649475,0.00439714527582983,0.02256256707126031,197058.6076362917,-97.26358032226562,-8.9566650390625,-560.7913208007812,197058.6086432917,1.159339404092557,-1.612136899632988,0.3122460840197207,-0.01784932985901833,-0.002157217357307673,0.01931558549404144,-0.006671309471130371,0.004828751087188721,0.008429646492004395,1,-0.4804977476596832,0.5373891592025757,-0.2807469367980957,-0.633652925491333,-0.9508329629898071,-0.3071968853473663,0.03933038935065269,0,0,0,-1,197051.031864625,3,2,1561914335.869401,1561913957.287787,16,1.221493,0,0,13.06835,0,0,1561914226.950748,197055.356326,0,1.3396,75.29253,3232235528,177845136,1,1,0.54,-32.75131,-43.53583,4
1561914343.47389,36,0,0,1561914343.018155,4.634645325136031,-74.15104829713157,2552.933,0.93,181.0546875,4,30,-9999,1561914343.467478,-21.32753753662109,20.39239883422852,2.79388427734375,355.8383483886719,3.33180570602417,15,197058.6461502917,-0.9464874267578125,-0.2992706298828125,0.052001953125,197058.6289072917,0.009813482300832985,-0.0903623873669336,0.01884452787340069,197058.6277472917,-97.02543640136719,-9.119430541992188,-560.7914428710938,197058.6289072917,1.159264212987887,-1.613028131694492,0.3119113648176056,0.007180921267718077,-0.09691675007343292,0.01559754647314548,0.003344595432281494,0.002526551485061646,0.007852554321289062,1,-0.48051717877388,0.5377678871154785,-0.2806186676025391,-0.6333735585212708,-0.9509000778198242,-0.3068783283233643,0.04018211737275124,0,0,0,-1,197051.031864625,3,2,1561914335.869401,1561913957.287787,16,1.221493,0,0,13.06835,0,0,1561914226.950748,197055.356326,0,1.3396,75.29253,3232235528,177845136,1,1,0.54,-33.30859,-43.84481,4
1561914343.491743,37,0,0,1561914343.018155,4.634645325136031,-74.15104829713157,2552.933,0.93,181.0546875,4,30,-9999,1561914343.467478,-21.32753753662109,20.39239883422852,2.79388427734375,355.8383483886719,3.33180570602417,15,197058.6664132917,-0.95233154296875,-0.300445556640625,0.051361083984375,197058.6491712917,0.0006452839321261994,-0.1566932080053192,0.04517813104821321,197058.6478592917,-97.25018310546875,-8.827178955078125,-560.6481323242188,197058.6491712917,1.1592889901884,-1.615908329700497,0.3112829239301206,-0.001987276831641793,-0.1632475703954697,0.0419311486184597,0.004485428333282471,0.007009536027908325,0.009072542190551758,1,-0.4807673394680023,0.5388204455375671,-0.2801403999328613,-0.6325002312660217,-0.9509727954864502,-0.3062801659107208,0.04292941465973854,0,0,0,-1,197051.031864625,3,2,1561914335.869401,1561913957.287787,16,1.221493,0,0,13.06835,0,0,1561914226.950748,197055.356326,0,1.3396,75.29253,3232235528,177845136,1,1,0.54,-33.86587,-41.38151,4
1561914343.511731,38,0,0,1561914343.018155,4.634645325136031,-74.15104829713157,2552.933,0.93,181.0546875,4,30,-9999,1561914343.491833,-21.41006469726562,20.60251998901367,2.8753662109375,355.8489685058594,3.342422246932983,15,197058.6866772917,-0.956024169921875,-0.3034820556640625,0.04815673828125,197058.6694342917,-0.0194802244256026,-0.08126236592213283,0.04936009290796464,197058.6679702917,-97.04579162597656,-9.079208374023438,-560.60693359375,197058.6694342917,1.159095625781098,-1.618739293428614,0.3103545948111281,-0.02210115455091,-0.08780487626791,0.04611163586378098,-0.001200437545776367,0.004950731992721558,0.005726099014282227,1,-0.4808749556541443,0.5399785041809082,-0.2797034084796906,-0.6316236257553101,-0.9511311054229736,-0.3053963184356689,0.04563501477241516,0,0,0,-1,197051.031864625,3,2,1561914335.869401,1561913957.287787,16,1.221493,0,0,13.06835,0,0,1561914226.950748,197055.356326,0,1.3396,75.29253,3232235528,177845136,1,1,0.54,-33.86587,-41.38151,4
1561914343.53405,39,0,0,1561914343.018155,4.634645325136031,-74.15104829713157,2552.933,0.93,181.0546875,4,30,-9999,1561914343.51829,-21.23346710205078,20.65760612487793,2.7032470703125,355.9273071289062,3.420789241790771,15,197058.7069412917,-0.955902099609375,-0.3049774169921875,0.0491790771484375,197058.6896982917,-0.06954925081574632,0.05060831651088477,0.03163995164679539,197058.6880812917,-97.12773132324219,-8.909210205078125,-560.6724853515625,197058.6896982917,1.158011714213489,-1.618730661492522,0.3096260347209405,-0.07217017561197281,0.04406579956412315,0.02839149534702301,-0.004670619964599609,0.001220434904098511,0.00251924991607666,1,-0.4803954362869263,0.5404062867164612,-0.279602438211441,-0.63166743516922,-0.9513535499572754,-0.3047024607658386,0.04563745856285095,0,0,0,-1,197051.031864625,3,2,1561914335.869401,1561913957.287787,16,1.221493,0,0,13.06835,0,0,1561914226.950748,197055.356326,0,1.3396,75.29253,3232235528,177845136,1,1,0.54,-34.42315,-38.30066,4
1561914343.552215,40,0,0,1561914343.018155,4.634645325136031,-74.15104829713157,2552.933,0.93,181.0546875,4,30,-9999,1561914343.542615,-21.33837890625,20.78726196289062,2.8853759765625,356.0568237304688,3.550285577774048,15,197058.7271742917,-0.9466400146484375,-0.3045196533203125,0.0548553466796875,197058.7099622917,-0.07873449341542962,0.06838012309720154,0.007694671337565943,197058.7081922917,-97.45291137695312,-8.837966918945312,-560.8396606445312,197058.7099622917,1.156238415971419,-1.616824363569605,0.3093719363436312,-0.08135542273521423,0.06183760985732079,0.004446214064955711,-0.004385948181152344,-0.0005169510841369629,0.005351662635803223,1,-0.4795850515365601,0.5402886867523193,-0.2795829772949219,-0.6323919892311096,-0.9515160918235779,-0.3044604361057281,0.04382737353444099,0,0,0,-1,197051.031864625,3,2,1561914335.869401,1561913957.287787,16,1.221493,0,0,13.06835,0,0,1561914226.950748,197056.301539,0,1.276123,75.29314,3232235528,177845136,1,1,0.54,-34.98043,-38.39363,4
1561914343.573343,41,0,0,1561914343.018155,4.634645325136031,-74.15104829713157,2552.933,0.93,181.0546875,4,30,-9999,1561914343.568883,-21.44719696044922,20.55542373657227,2.8057861328125,356.1938781738281,3.687333583831787,15,197058.7474372917,-0.9481964111328125,-0.3008270263671875,0.0524139404296875,197058.7302252917,-0.08764729463559781,0.02523691343791789,0.003197657520858141,197058.7283032917,-97.19902038574219,-8.727859497070312,-560.704833984375,197058.7302252917,1.15436891243533,-1.615332626281334,0.30956482932877,-0.09026822447776794,0.01869440078735352,-5.080015398561954e-05,0.004881739616394043,0.0001245439052581787,0.01244997978210449,1,-0.4789209067821503,0.540219783782959,-0.2792856693267822,-0.6330851912498474,-0.9515217542648315,-0.3046441674232483,0.04240529984235764,0,0,0,-1,197051.031864625,3,2,1561914335.869401,1561913957.287787,16,1.221493,0,0,13.06835,0,0,1561914226.950748,197056.301539,0,1.276123,75.29314,3232235528,177845136,1,1,0.54,-35.5377,-37.77283,4
1561914343.592911,42,0,0,1561914343.018155,4.634645325136031,-74.15104829713157,2552.933,0.93,181.0546875,4,30,-9999,1561914343.568883,-21.44719696044922,20.55542373657227,2.8057861328125,356.1938781738281,3.687333583831787,15,197058.7677012917,-0.94879150390625,-0.30316162109375,0.050811767578125,197058.7504892917,-0.06694441295353983,-0.02859356167585376,0.00355185794583868,197058.7484142917,-97.1295166015625,-8.747085571289062,-560.3915405273438,197058.7504892917,1.152609273878648,-1.615088821946359,0.3096005509639456,-0.06956534087657928,-0.03513607382774353,0.0003034004475921392,0.003324806690216064,0.003851175308227539,0.01024115085601807,1,-0.4784205853939056,0.5405554175376892,-0.278775155544281,-0.6334019303321838,-0.9515212178230286,-0.304678201675415,0.04217283055186272,0,0,0,-1,197051.031864625,3,2,1561914335.869401,1561913957.287787,16,1.221493,0,0,13.06835,0,0,1561914226.950748,197056.301539,0,1.276123,75.29314,3232235528,177845136,1,1,0.54,-27.23306,-27.52601,4
1561914343.615092,43,0,0,1561914343.018155,4.634645325136031,-74.15104829713157,2552.933,0.93,181.0546875,4,30,-9999,1561914343.593124,-21.31047058105469,20.67264175415039,3.207275390625,356.2950134277344,3.788487911224365,15,197058.7879652917,-0.962982177734375,-0.301910400390625,0.0471649169921875,197058.7707532917,-0.05138409533642485,-0.05837808899119095,-0.01202363968948974,197058.7684952917,-97.06648254394531,-9.087066650390625,-560.5382690429688,197058.7707532917,1.151302229807482,-1.615885734360392,0.3097862576628455,-0.05400502681732178,-0.06492060422897339,-0.01527209766209126,0.002639353275299072,0.001693487167358398,0.007883191108703613,1,-0.4782256186008453,0.541077196598053,-0.2781096398830414,-0.6333962678909302,-0.9514308571815491,-0.304855078458786,0.0429285503923893,0,0,0,-1,197051.031864625,3,2,1561914335.869401,1561913957.287787,16,1.221493,0,0,13.06835,0,0,1561914226.950748,197056.301539,0,1.276123,75.29314,3232235528,177845136,1,1,0.54,-22.05096,-26.67087,4
1561914343.633321,44,0,0,1561914343.018155,4.634645325136031,-74.15104829713157,2552.933,0.93,181.0546875,4,30,-9999,1561914343.6195,-21.27421569824219,20.62385177612305,3.36749267578125,356.3777770996094,3.871230363845825,15,197058.8082282917,-0.963775634765625,-0.309967041015625,0.0477142333984375,197058.7909862917,-0.06051634103041557,-0.003324157672636905,-0.04394961483735965,197058.7886062917,-97.13763427734375,-8.745681762695312,-560.3428955078125,197058.7909862917,1.150183803772475,-1.616380222757906,0.3104936599195405,-0.06313727051019669,-0.00986667163670063,-0.04719807207584381,-0.01178836822509766,0.003618329763412476,0.003775715827941895,1,-0.4781727194786072,0.541336715221405,-0.2774046659469604,-0.6335235834121704,-0.9511938095092773,-0.3055287301540375,0.04338917881250381,0,0,0,-1,197051.031864625,3,2,1561914335.869401,1561913957.287787,16,1.221493,0,0,13.06835,0,0,1561914226.950748,197056.301539,0,1.276123,75.29314,3232235528,177845136,1,1,0.54,-17.80153,-22.81759,4
1561914343.653961,45,0,0,1561914343.018155,4.634645325136031,-74.15104829713157,2552.933,0.93,181.0546875,4,30,-9999,1561914343.643668,-21.39878845214844,20.4362850189209,3.18109130859375,356.4720764160156,3.96554160118103,15,197058.8284922917,-0.9547576904296875,-0.3079681396484375,0.0484771728515625,197058.8112502917,-0.06256138243148741,0.03715828774154858,-0.06541442690728931,197058.8087172917,-97.22207641601562,-8.813812255859375,-560.4017944335938,197058.8112502917,1.148818008573353,-1.615636940583199,0.3117335775194087,-0.06518231332302094,0.03061577305197716,-0.06866288930177689,-0.01292908191680908,-0.003257930278778076,0.00504910945892334,1,-0.4780175983905792,0.5411393046379089,-0.2767418026924133,-0.6340988874435425,-0.9508465528488159,-0.3067091107368469,0.04266514256596565,0,0,0,-1,197051.031864625,3,2,1561914335.869401,1561913957.287787,16,1.221493,0,0,13.06835,0,0,1561914226.950748,197056.301539,0,1.276123,75.29314,3232235528,177845136,1,1,0.54,-13.65158,-20.25485,4
1561914343.674921,46,0,0,1561914343.018155,4.634645325136031,-74.15104829713157,2552.933,0.93,181.0546875,4,30,-9999,1561914343.643668,-21.39878845214844,20.4362850189209,3.18109130859375,356.4720764160156,3.96554160118103,15,197058.8487562917,-0.946441650390625,-0.3041839599609375,0.055267333984375,197058.8315132917,-0.03932903034607217,0.005313272690817088,-0.07993371485429231,197058.8288282917,-97.2696533203125,-8.967453002929688,-560.4677124023438,197058.8315132917,1.147780630648557,-1.614968801076535,0.3133533252947643,-0.04194996133446693,-0.001229241490364075,-0.08318217843770981,-0.004380285739898682,0.0002822577953338623,0.006469368934631348,1,-0.4780594706535339,0.540798544883728,-0.276039719581604,-0.6346638798713684,-0.9503774046897888,-0.3082503974437714,0.04200784862041473,0,0,0,-1,197051.031864625,3,2,1561914335.869401,1561913957.287787,16,1.221493,0,0,13.06835,0,0,1561914226.950748,197056.301539,0,1.276123,75.29314,3232235528,177845136,1,1,0.54,-13.65158,-20.25485,4
1561914343.695134,47,0,0,1561914343.018155,4.634645325136031,-74.15104829713157,2552.933,0.93,181.0546875,4,30,-9999,1561914343.675121,-21.52984619140625,20.51957321166992,3.02227783203125,356.5361022949219,4.029581069946289,15,197058.8690192917,-0.9408721923828125,-0.2991943359375,0.0568389892578125,197058.8517772917,-0.04574538436040008,-0.01916943352639036,-0.06098266053728844,197058.8489392917,-97.27545166015625,-9.13726806640625,-560.4293212890625,197058.8517772917,1.146877134668414,-1.614984862507562,0.3149416451391854,-0.04836631566286087,-0.02571194618940353,-0.06423112004995346,0.00344473123550415,0.005577057600021362,0.01326584815979004,1,-0.4782241582870483,0.540649950504303,-0.2752264440059662,-0.6350194811820984,-0.9498863816261292,-0.3097609877586365,0.04200142994523048,0,0,0,-1,197051.031864625,3,2,1561914335.869401,1561913957.287787,16,1.221493,0,0,13.06835,0,0,1561914226.950748,197056.301539,0,1.276123,75.29314,3232235528,177845136,1,1,0.54,-13.65158,-18.81709,4
1561914343.714374,48,0,0,1561914343.018155,4.634645325136031,-74.15104829713157,2552.933,0.93,181.0546875,4,30,-9999,1561914343.675121,-21.52984619140625,20.51957321166992,3.02227783203125,356.5361022949219,4.029581069946289,15,197058.8892532917,-0.93975830078125,-0.3033447265625,0.0496978759765625,197058.8720412917,-0.03534254451033256,-0.04892253554086461,-0.03856789890652753,197058.8690502917,-97.44039916992188,-9.062423706054688,-560.388671875,197058.8720412917,1.145942485274895,-1.615455344765823,0.3159729577208372,-0.03796347603201866,-0.05546505004167557,-0.0418163537979126,0.008674561977386475,0.01154708862304688,0.0144050121307373,1,-0.478300154209137,0.5407827496528625,-0.2744775712490082,-0.6351732015609741,-0.949546754360199,-0.3107413947582245,0.04243404045701027,0,0,0,-1,197051.031864625,3,2,1561914335.869401,1561913957.287787,16,1.221493,0,0,13.06835,0,0,1561914226.950748,197056.301539,0,1.276123,75.29314,3232235528,177845136,1,1,0.54,-13.65158,-17.52671,4
1561914343.734568,49,0,0,1561914343.018155,4.634645325136031,-74.15104829713157,2552.933,0.93,181.0546875,4,30,-9999,1561914343.723825,-21.33243560791016,20.40942764282227,3.3013916015625,356.6452026367188,4.138655662536621,15,197058.9095162917,-0.944580078125,-0.3062286376953125,0.0448760986328125,197058.8923042917,-0.0202733137982282,-0.02608193445180003,-0.01684822232027729,197058.8891612917,-97.2706298828125,-8.984664916992188,-560.2520751953125,197058.8923042917,1.145396543991277,-1.6163059108241,0.3166135473401078,-0.02289424277842045,-0.03262444958090782,-0.02009667828679085,0.009552955627441406,0.008005470037460327,0.00646519660949707,1,-0.4784330129623413,0.5410343408584595,-0.2738897204399109,-0.6351126432418823,-0.9493112564086914,-0.3113502264022827,0.04323261231184006,0,0,0,-1,197051.031864625,3,2,1561914335.869401,1561913957.287787,16,1.221493,0,0,13.06835,0,0,1561914226.950748,197056.301539,0,1.276123,75.29314,3232235528,177845136,1,1,0.54,-13.65158,-17.58857,4
1561914343.75645,50,0,0,1561914343.018155,4.634645325136031,-74.15104829713157,2552.933,0.93,181.0546875,4,30,-9999,1561914343.745026,-21.44842529296875,20.54825210571289,3.0888671875,356.6895446777344,4.183005809783936,15,197058.9297802917,-0.9325408935546875,-0.3083648681640625,0.0498504638671875,197058.9125682917,-0.02726171481470513,0.04852386032567975,-0.01024358281688078,197058.9092722917,-97.30439758300781,-8.907394409179688,-560.49951171875,197058.9125682917,1.144817949874641,-1.615915206820737,0.3169742003501194,-0.0298826452344656,0.04198134317994118,-0.01349204033613205,0.004635870456695557,0.005464315414428711,0.002019405364990234,1,-0.4783152639865875,0.5409647226333618,-0.273680567741394,-0.6353508234024048,-0.9492159485816956,-0.3116929233074188,0.04285664483904839,0,0,0,-1,197051.031864625,3,2,1561914335.869401,1561913957.287787,16,1.221493,0,0,13.06835,0,0,1561914226.950748,197056.301539,0,1.276123,75.29314,3232235528,177845136,1,1,0.54,-13.65158,-18.35087,4
1561914343.777932,51,0,0,1561914343.018155,4.634645325136031,-74.15104829713157,2552.933,0.93,181.0546875,4,30,-9999,1561914343.771971,-21.45580291748047,20.41210556030273,3.24554443359375,356.7453918457031,4.238873958587646,15,197058.9500442917,-0.924957275390625,-0.301483154296875,0.0516510009765625,197058.9328322917,-0.03344690644641416,0.0347824817330889,-0.002128664659300335,197058.9293832917,-97.153076171875,-8.951522827148438,-560.3959350585938,197058.9328322917,1.144129615631226,-1.614855469867616,0.3172026688548051,-0.03606783971190453,0.02823996543884277,-0.005377122201025486,0.01664876937866211,0.003545165061950684,0.008002877235412598,1,-0.4780426025390625,0.5407393574714661,-0.2736399173736572,-0.6357652544975281,-0.9491896629333496,-0.3119100034236908,0.04184756428003311,0,0,0,-1,197051.031864625,3,2,1561914335.869401,1561913957.287787,16,1.221493,0,0,13.06835,0,0,1561914226.950748,197056.301539,0,1.276123,75.29314,3232235528,177845136,1,1,0.54,-13.65158,-19.34376,4
1561914343.795597,52,0,0,1561914343.018155,4.634645325136031,-74.15104829713157,2552.933,0.93,181.0546875,4,30,-9999,1561914343.771971,-21.45580291748047,20.41210556030273,3.24554443359375,356.7453918457031,4.238873958587646,15,197058.9703072917,-0.924163818359375,-0.3017425537109375,0.0472869873046875,197058.9530952917,-0.0255064253402339,-0.01119166816494899,0.01532702470562403,197058.9494942917,-97.07353210449219,-9.193572998046875,-560.2451782226562,197058.9530952917,1.143380174992344,-1.614540558760432,0.3171218514725423,-0.02812735550105572,-0.01773418113589287,0.01207856647670269,0.02427059412002563,0.01035004854202271,0.01010119915008545,1,-0.4777761995792389,0.5408371090888977,-0.2735035121440887,-0.6359409689903259,-0.9492278695106506,-0.3118332326412201,0.04154974967241287,0,0,0,-1,197051.031864625,3,2,1561914335.869401,1561913957.287787,16,1.221493,0,0,13.06835,0,0,1561914226.950748,197056.301539,0,1.276123,75.29314,3232235528,177845136,1,1,0.54,-13.65158,-20.35314,4
1561914343.815665,53,0,0,1561914343.018155,4.634645325136031,-74.15104829713157,2552.933,0.93,181.0546875,4,30,-9999,1561914343.795781,-21.18375396728516,20.34872627258301,3.412109375,356.7836608886719,4.277119159698486,15,197058.9905712917,-0.9251556396484375,-0.30645751953125,0.0464935302734375,197058.9733292917,-0.006912767241518679,-0.02366724629142518,0.02785400184113875,197058.9696052917,-97.34895324707031,-8.931640625,-560.3705444335938,197058.9733292917,1.142944294271248,-1.615002462594381,0.3167705529236249,-0.009533697739243507,-0.03020976111292839,0.02460554428398609,0.0251542329788208,0.009756863117218018,0.005293965339660645,1,-0.4776313900947571,0.5411698222160339,-0.2733703851699829,-0.6358240246772766,-0.9493181109428406,-0.3114994168281555,0.04199304431676865,0,0,0,-1,197051.031864625,3,2,1561914335.869401,1561913957.287787,16,1.221493,0,0,13.06835,0,0,1561914226.950748,197056.301539,0,1.276123,75.29314,3232235528,177845136,1,1,0.54,-13.65158,-20.35314,4
1561914343.835896,54,0,0,1561914343.018155,4.634645325136031,-74.15104829713157,2552.933,0.93,181.0546875,4,30,-9999,1561914343.82266,-21.24663543701172,20.46134948730469,3.4239501953125,356.8132629394531,4.306736469268799,15,197059.0108352917,-0.9219818115234375,-0.301971435546875,0.0444793701171875,197058.9935922917,-0.02253779967312258,0.00260776733940559,0.05280515809409114,197058.9896862917,-97.29258728027344,-9.01507568359375,-560.3812866210938,197058.9935922917,1.142536568811324,-1.615213487560873,0.3160509369392164,-0.02515872940421104,-0.003934746608138084,0.04955670237541199,0.02437722682952881,0.004357963800430298,0.004290223121643066,1,-0.4773654341697693,0.541501522064209,-0.2734275460243225,-0.6357167363166809,-0.9495328664779663,-0.3108155131340027,0.04220331087708473,0,0,0,-1,197051.031864625,3,2,1561914335.869401,1561913957.287787,16,1.221493,0,0,13.06835,0,0,1561914226.950748,197056.301539,0,1.276123,75.29314,3232235528,177845136,1,1,0.54,-13.65158,-21.35353,4
1561914343.85836,55,0,0,1561914343.018155,4.634645325136031,-74.15104829713157,2552.933,0.93,181.0546875,4,30,-9999,1561914343.846814,-21.44375610351562,20.38528060913086,3.11212158203125,356.8410949707031,4.334566593170166,15,197059.0310982917,-0.92425537109375,-0.3022003173828125,0.0413970947265625,197059.0138562917,-0.008107194990419217,0.007594536480578964,0.07616747244070224,197059.0097972917,-97.09048461914062,-8.953079223632812,-560.3646240234375,197059.0138562917,1.142057178115123,-1.614998214372377,0.3148460476093201,-0.01072812546044588,0.001052022445946932,0.07291901111602783,0.02793353796005249,0.007698625326156616,0.002463936805725098,1,-0.476897120475769,0.5418273210525513,-0.2737235724925995,-0.6356632113456726,-0.94991534948349,-0.309670090675354,0.04201541841030121,0,0,0,-1,197051.031864625,3,2,1561914335.869401,1561913957.287787,16,1.221493,0,0,13.06835,0,0,1561914226.950748,197056.301539,0,1.276123,75.29314,3232235528,177845136,1,1,0.54,-13.65158,-22.42151,4
1561914343.876464,56,0,0,1561914343.018155,4.634645325136031,-74.15104829713157,2552.933,0.93,181.0546875,4,30,-9999,1561914343.874366,-21.40758514404297,20.51174163818359,3.11248779296875,356.8303527832031,4.323822021484375,15,197059.0513622917,-0.932861328125,-0.306121826171875,0.0440216064453125,197059.0341202917,0.01784690772905701,-0.0259969796130265,0.0886353274000172,197059.0299082917,-97.16902160644531,-8.87646484375,-560.3265991210938,197059.0341202917,1.142066188628055,-1.615355411227356,0.3132220523021056,0.01522597763687372,-0.0325394943356514,0.08538686484098434,0.02614623308181763,0.005925178527832031,-0.0009800195693969727,1,-0.4765316247940063,0.5423155426979065,-0.2741763591766357,-0.6353258490562439,-0.9504016041755676,-0.3081255257129669,0.04237707331776619,0,0,0,-1,197051.031864625,3,2,1561914335.869401,1561913957.287787,16,1.221493,0,0,13.06835,0,0,1561914226.950748,197056.301539,0,1.276123,75.29314,3232235528,177845136,1,1,0.54,-13.65158,-23.42231,4
1561914343.896867,57,0,0,1561914343.018155,4.634645325136031,-74.15104829713157,2552.933,0.93,181.0546875,4,30,-9999,1561914343.874366,-21.40758514404297,20.51174163818359,3.11248779296875,356.8303527832031,4.323822021484375,15,197059.0715952917,-0.942352294921875,-0.3025970458984375,0.048370361328125,197059.0543832917,0.01315415157222838,-0.02071726275194441,0.09163537836799147,197059.0500192917,-97.23431396484375,-8.775146484375,-560.1134643554688,197059.0543832917,1.14222941549657,-1.616038944627486,0.3114423593181641,0.01053322106599808,-0.02725977823138237,0.08838691562414169,0.01805734634399414,0.000310063362121582,0.0009701251983642578,1,-0.4762127101421356,0.5429062247276306,-0.2746516168117523,-0.6348550319671631,-0.9509186744689941,-0.306431919336319,0.04305142909288406,0,0,0,-1,197051.031864625,3,2,1561914335.869401,1561913957.287787,16,1.221493,0,0,13.06835,0,0,1561914226.950748,197056.301539,0,1.276123,75.29314,3232235528,177845136,1,1,0.54,-13.65158,-24.40504,4
1561914343.91807,58,0,0,1561914343.018155,4.634645325136031,-74.15104829713157,2552.933,0.93,181.0546875,4,30,-9999,1561914343.897043,-21.27629089355469,20.50092697143555,3.39306640625,356.8316345214844,4.325093746185303,15,197059.0918592917,-0.9384765625,-0.3010711669921875,0.042938232421875,197059.0746472917,-0.00386611095446803,-0.02070527852703905,0.1189839122342332,197059.0701302917,-97.02191162109375,-8.980667114257812,-560.14892578125,197059.0746472917,1.142176187563575,-1.616480710616682,0.3094269429649271,-0.006487041711807251,-0.02724779397249222,0.1157354488968849,0.009162068367004395,0.001915782690048218,0.004870772361755371,1,-0.4757412672042847,0.5435255765914917,-0.2751933038234711,-0.6344436407089233,-0.9515143036842346,-0.3045128583908081,0.04349961131811142,0,0,0,-1,197051.031864625,3,2,1561914335.869401,1561913957.287787,16,1.221493,0,0,13.06835,0,0,1561914226.950748,197056.301539,0,1.276123,75.29314,3232235528,177845136,1,1,0.54,-13.65158,-25.48655,4
1561914343.941056,59,0,0,1561914343.018155,4.634645325136031,-74.15104829713157,2552.933,0.93,181.0546875,4,30,-9999,1561914343.92365,-21.08547973632812,20.32527160644531,3.27667236328125,356.8572082519531,4.350684642791748,15,197059.1121222917,-0.9464263916015625,-0.2974853515625,0.037567138671875,197059.0949112917,-0.01120445133818137,-0.02522253236803146,0.1463135376567353,197059.0902412917,-97.38325500488281,-9.04815673828125,-560.3681030273438,197059.0949112917,1.141833186667687,-1.61704161076983,0.3068251012446347,-0.01382538210600615,-0.03176504746079445,0.1430650800466537,0.01380151510238647,0.0009624063968658447,-0.001131534576416016,1,-0.4750562310218811,0.5443863272666931,-0.2758079171180725,-0.6339519619941711,-0.9522780776023865,-0.302033543586731,0.0440697930753231,0,0,0,-1,197051.031864625,3,2,1561914335.869401,1561913957.287787,16,1.221493,0,0,13.06835,0,0,1561914226.950748,197056.301539,0,1.276123,75.29314,3232235528,177845136,1,1,0.54,-13.65158,-26.48421,4
1561914343.959173,60,0,0,1561914343.018155,4.634645325136031,-74.15104829713157,2552.933,0.93,181.0546875,4,30,-9999,1561914343.947621,-21.03562927246094,20.61706733703613,3.292236328125,356.870361328125,4.363831996917725,15,197059.1323862917,-0.9437103271484375,-0.2799835205078125,0.0413055419921875,197059.1151742917,0.0136825227325001,-0.04409955080673111,0.2128680638266875,197059.1103522917,-96.79376220703125,-8.679229736328125,-560.3743896484375,197059.1151742917,1.141559898359579,-1.617709249751866,0.3034389158020949,0.01106159202754498,-0.05064206570386887,0.2096196115016937,0.006838321685791016,0.001318395137786865,-0.007186174392700195,1,-0.4742023348808289,0.5454436540603638,-0.2766774892807007,-0.6333032250404358,-0.9532646536827087,-0.2988037765026093,0.04475326836109161,0,0,0,-1,197051.031864625,3,2,1561914335.869401,1561913957.287787,16,1.221493,0,0,13.06835,0,0,1561914226.950748,197056.301539,0,1.276123,75.29314,3232235528,177845136,1,1,0.54,-13.65158,-27.50963,4
1561914343.977699,61,0,0,1561914343.018155,4.634645325136031,-74.15104829713157,2552.933,0.93,181.0546875,4,30,-9999,1561914343.974661,-20.92980194091797,20.80354690551758,3.397216796875,356.8721618652344,4.365643501281738,15,197059.1526502917,-0.9378662109375,-0.266815185546875,0.041046142578125,197059.1354382917,0.01739417034374354,-0.04894437346180326,0.3373343594809579,197059.1304642917,-96.82931518554688,-8.556396484375,-560.2307739257812,197059.1354382917,1.141481966587042,-1.618826679435523,0.2978582818397078,0.01477323938161135,-0.05548688769340515,0.3340859115123749,0.01115447282791138,0.01348996162414551,-0.004592299461364746,1,-0.4728972911834717,0.5470987558364868,-0.2782241404056549,-0.6321728229522705,-0.9548647999763489,-0.293473482131958,0.04589779302477837,0,0,0,-1,197051.031864625,3,2,1561914335.869401,1561913957.287787,16,1.221493,0,0,13.06835,0,0,1561914226.950748,197056.301539,0,1.276123,75.29314,3232235528,177845136,1,1,0.54,-13.65158,-27.50963,4
1561914343.998236,62,0,0,1561914343.018155,4.634645325136031,-74.15104829713157,2552.933,0.93,181.0546875,4,30,-9999,1561914343.974661,-20.92980194091797,20.80354690551758,3.397216796875,356.8721618652344,4.365643501281738,15,197059.1729132917,-0.917144775390625,-0.2400360107421875,0.031280517578125,197059.1556712917,0.02575543090215631,-0.04912094104207552,0.5607618570298096,197059.1505752917,-96.68826293945312,-8.539657592773438,-560.004638671875,197059.1556712917,1.14156675536683,-1.61997225483081,0.2891291810520385,0.02313450165092945,-0.05566345527768135,0.557513415813446,0.01946759223937988,0.01830250024795532,-0.006069660186767578,1,-0.4708244204521179,0.5494381189346313,-0.2808491885662079,-0.6305282115936279,-0.9573338031768799,-0.2851176559925079,0.0471157617866993,0,0,0,-1,197051.031864625,3,2,1561914335.869401,1561913957.287787,16,1.221493,0,0,13.06835,0,0,1561914226.950748,197056.301539,0,1.276123,75.29314,3232235528,177845136,1,1,0.54,-13.65158,-28.45443,4
1561914344.018783,63,0,0,1561914343.018155,4.634645325136031,-74.15104829713157,2552.933,0.93,181.0546875,4,30,-9999,1561914343.99833,-20.47046661376953,21.15333938598633,3.30389404296875,356.837158203125,4.330631732940674,15,197059.1931772917,-0.9228973388671875,-0.2057342529296875,-0.0038299560546875,197059.1759352917,0.1895741927200915,-0.121363979300437,0.7818665454758942,197059.1706552917,-96.20317077636719,-8.317474365234375,-560.3106079101562,197059.1759352917,1.142475684912565,-1.622015842940375,0.2754916291477816,0.1869532614946365,-0.1279064863920212,0.7786180973052979,0.04388487339019775,0.03198403120040894,-0.01798605918884277,1,-0.4678255021572113,0.5529670715332031,-0.2851287424564362,-0.6277486681938171,-0.9610297083854675,-0.2720200717449188,0.04926656559109688,0,0,0,-1,197051.031864625,3,2,1561914335.869401,1561913957.287787,16,1.221493,0,0,13.06835,0,0,1561914226.950748,197056.301539,0,1.276123,75.29314,3232235528,177845136,1,1,0.54,-13.65158,-29.46476,4
1561914344.039325,64,0,0,1561914344.015003,4.634612132799472,-74.15103790357163,2552.943,1.23,176.1328125,4,30,-9999,1561914344.03079,-20.3001708984375,21.21766662597656,3.26397705078125,356.2518920898438,3.745363712310791,15,197059.2134412917,-0.9492950439453125,-0.1560516357421875,-0.01611328125,197059.1961982917,0.6933121781730154,-0.2069534493617306,1.052116409729974,197059.1907662917,-95.96659851074219,-7.956008911132812,-560.5513916015625,197059.1961982917,1.150330375497103,-1.627591981762773,0.257074589275947,0.6906912326812744,-0.2134959697723389,1.04886794090271,0.04268121719360352,0.04851815104484558,-0.05872964859008789,1,-0.4660175144672394,0.5570256114006042,-0.2923040390014648,-0.6221805214881897,-0.965578556060791,-0.2542523741722107,0.05489971116185188,0,0,0,-1,197051.031864625,3,2,1561914335.869401,1561913957.287787,16,1.221493,0,0,13.06835,0,0,1561914226.950748,197056.301539,0,1.276123,75.29314,3232235528,177845136,1,1,0.54,-13.65158,-30.48592,4
1561914344.058767,65,0,0,1561914344.015003,4.634612132799472,-74.15103790357163,2552.943,1.23,176.1328125,4,30,-9999,1561914344.03079,-20.3001708984375,21.21766662597656,3.26397705078125,356.2518920898438,3.745363712310791,15,197059.2337042917,-1.007064819335938,-0.1348724365234375,-0.000518798828125,197059.2164622917,1.176706808691042,-0.2547129824545576,1.485402865389833,197059.2108772917,-95.25872802734375,-7.4891357421875,-560.609375,197059.2164622917,1.168144665831462,-1.636766704683735,0.2306339045925715,1.174085855484009,-0.2612554728984833,1.482154369354248,0.02210897207260132,0.07254305481910706,-0.08029031753540039,1,-0.4654880464076996,0.5616132020950317,-0.3042681515216827,-0.6126437783241272,-0.9714040160179138,-0.2285946905612946,0.0641770213842392,0,0,0,-1,197051.031864625,3,2,1561914335.869401,1561913957.287787,16,1.221493,0,0,13.06835,0,0,1561914226.950748,197056.301539,0,1.276123,75.29314,3232235528,177845136,1,1,0.54,-13.65158,-31.387,4
1561914344.094411,66,0,0,1561914344.015003,4.634612132799472,-74.15103790357163,2552.943,1.23,176.1328125,4,30,-9999,1561914344.075551,-18.54830169677734,22.82650375366211,2.40350341796875,352.5157165527344,0.009196111932396889,15,197059.2539382917,-1.057220458984375,-0.1250762939453125,0.0575714111328125,197059.2367262917,1.695059955890212,-0.4159402222157367,1.818063110841593,197059.2309882917,-94.68759155273438,-6.710693359375,-561.052001953125,197059.2367262917,1.195252606235699,-1.649068377098136,0.1948065347098201,1.692438960075378,-0.4224827289581299,1.814814686775208,-0.028983473777771,0.05870428681373596,-0.0772320032119751,1,-0.4657595455646515,0.5669432282447815,-0.3211660385131836,-0.5987451672554016,-0.9780813455581665,-0.1935767382383347,0.07671315968036652,0,0,0,-1,197051.031864625,3,2,1561914335.869401,1561913957.287787,16,1.221493,0,0,13.06835,0,0,1561914226.950748,197056.301539,0,1.276123,75.29314,3232235528,177845136,1,1,0.54,-13.65158,-33.2785,4
1561914344.099391,67,0,0,1561914344.015003,4.634612132799472,-74.15103790357163,2552.943,1.23,176.1328125,4,30,-9999,1561914344.075551,-18.54830169677734,22.82650375366211,2.40350341796875,352.5157165527344,0.009196111932396889,15,197059.2742005417,-1.166458129882812,-0.1628265380859375,0.1414642333984375,197059.2569892917,2.031125585427856,-0.7386575557376857,1.848558702167981,197059.2511002917,-93.83670043945312,-5.927658081054688,-561.7852783203125,197059.2569892917,1.23073250183721,-1.666937210405081,0.1540552369356215,2.028504610061646,-0.7452000379562378,1.845310211181641,-0.07362669706344604,0.02837029099464417,-0.03728461265563965,1,-0.4683032929897308,0.5728176236152649,-0.3404313325881958,-0.5802401304244995,-0.983593761920929,-0.1534465998411179,0.09485600888729095,0,0,0,-1,197051.031864625,3,2,1561914335.869401,1561913957.287787,16,1.221493,0,0,13.06835,0,0,1561914226.950748,197056.301539,0,1.276123,75.29314,3232235528,177845136,1,1,0.54,-13.65158,-33.2785,4
1561914344.119616,68,0,0,1561914344.015003,4.634612132799472,-74.15103790357163,2552.943,1.23,176.1328125,4,30,-9999,1561914344.099612,-17.57173919677734,23.7091007232666,1.61993408203125,349.8197021484375,357.3131713867188,15,197059.2944645417,-1.33819580078125,-0.31451416015625,0.31622314453125,197059.2772525417,2.036037519742398,-1.156119774516402,1.594030809409184,197059.2712105417,-92.56004333496094,-5.204345703125,-562.6207885742188,197059.2772525417,1.268543284681487,-1.690865985721882,0.1143617669396584,2.033416509628296,-1.162662386894226,1.590782284736633,-0.1801429390907288,-0.04871392250061035,0.02246534824371338,1,-0.4732259809970856,0.5792725086212158,-0.3580411374568939,-0.5588444471359253,-0.9863151907920837,-0.1141126453876495,0.1189989373087883,0,0,0,-1,197051.031864625,3,2,1561914335.869401,1561913957.287787,16,1.221493,0,0,13.06835,0,0,1561914226.950748,197056.301539,0,1.276123,75.29314,3232235528,177845136,1,1,0.54,-13.65158,-34.06765,4
1561914344.139987,69,0,0,1561914344.015003,4.634612132799472,-74.15103790357163,2552.943,1.23,176.1328125,4,30,-9999,1561914344.126707,-16.35942840576172,24.69110107421875,0.62353515625,347.4788208007812,354.9722900390625,15,197059.3147285417,-1.550125122070312,-0.664398193359375,0.576263427734375,197059.2975165417,1.398432013671115,-1.714163609337677,0.3217865587209662,197059.2913215417,-92.050537109375,-4.636322021484375,-563.221435546875,197059.2975165417,1.301833531794697,-1.723645812318695,0.0880741840730097,1.395811080932617,-1.720706105232239,0.318538099527359,-0.3536852598190308,-0.2265537679195404,0.1645582914352417,1,-0.4822637736797333,0.5858789086341858,-0.3675197958946228,-0.5376772880554199,-0.9845105409622192,-0.08796036243438721,0.1516648828983307,0,0,0,-1,197051.031864625,3,2,1561914335.869401,1561913957.287787,16,1.221493,0,0,13.06835,0,0,1561914226.950748,197056.301539,0,1.276123,75.29314,3232235528,177845136,1,1,0.54,-13.65158,-34.06765,4
1561914344.175369,70,0,0,1561914344.015003,4.634612132799472,-74.15103790357163,2552.943,1.23,176.1328125,4,30,-9999,1561914344.150153,-16.69001007080078,24.28042221069336,1.18829345703125,347.2050476074219,354.6985168457031,15,197059.3349915417,-1.68096923828125,-0.792938232421875,0.68328857421875,197059.3177495417,-0.5786441848013647,-1.474796560032483,-1.92933610645561,197059.3114325417,-91.86428833007812,-5.0855712890625,-562.8577880859375,197059.3177495417,1.315992391627815,-1.759278230263845,0.101387265355016,-0.5812650918960571,-1.48133909702301,-1.932584524154663,-0.5728796720504761,-0.5631844997406006,0.3898576498031616,1,-0.4961422085762024,0.5891059041023254,-0.3584163188934326,-0.5275745391845703,-0.9772455096244812,-0.1012136563658714,0.1864057183265686,0,0,0,-1,197051.031864625,3,2,1561914335.869401,1561913957.287787,16,1.221493,0,0,13.06835,0,0,1561914226.950748,197056.301539,0,1.276123,75.29314,3232235528,177845136,1,1,0.54,-13.65158,-35.21795,4
1561914344.180296,71,0,0,1561914344.015003,4.634612132799472,-74.15103790357163,2552.943,1.23,176.1328125,4,30,-9999,1561914344.150153,-16.69001007080078,24.28042221069336,1.18829345703125,347.2050476074219,354.6985168457031,15,197059.3552555417,-1.688858032226562,-0.4964599609375,0.456634521484375,197059.3380135417,-3.32846480306789,-0.4104913946254345,-4.891766728239195,197059.3315435417,-93.44245910644531,-5.96490478515625,-561.72216796875,197059.3380135417,1.289041806939741,-1.775156495093951,0.1765969208822479,-3.331085681915283,-0.4170338809490204,-4.895015239715576,-0.7170073986053467,-0.6172577738761902,0.4835042953491211,1,-0.5086460113525391,0.5840988159179688,-0.3231419026851654,-0.5437711477279663,-0.9639618396759033,-0.1756804436445236,0.1997843831777573,0,0,0,-1,197051.031864625,3,2,1561914335.869401,1561913957.287787,16,1.221493,0,0,13.06835,0,0,1561914226.950748,197056.301539,0,1.276123,75.29314,3232235528,177845136,1,1,0.54,-13.65158,-35.21795,4
1561914344.200701,72,0,0,1561914344.015003,4.634612132799472,-74.15103790357163,2552.943,1.23,176.1328125,4,30,-9999,1561914344.179401,-18.42564392089844,22.82693672180176,2.4521484375,350.4298706054688,357.92333984375,15,197059.3755195417,-1.46026611328125,-0.1705474853515625,0.109375,197059.3582765417,-4.404278020177389,0.9653895035671076,-7.428642849955748,197059.3516545417,-96.39811706542969,-8.364776611328125,-560.1384887695312,197059.3582765417,1.23280186207603,-1.756793888389302,0.3167881652543198,-4.406898498535156,0.9588469862937927,-7.431891441345215,-0.7550066113471985,-0.184943825006485,0.2809092998504639,1,-0.5215674638748169,0.5619875192642212,-0.2653667032718658,-0.5845664739608765,-0.933851420879364,-0.3115161657333374,0.1757251769304276,0,0,0,-1,197051.031864625,3,2,1561914335.869401,1561913957.287787,16,1.221493,0,0,13.06835,0,0,1561914226.950748,197056.301539,0,1.276123,75.29314,3232235528,177845136,1,1,0.54,-13.65158,-35.92067,4
1561914344.223535,73,0,0,1561914344.015003,4.634612132799472,-74.15103790357163,2552.943,1.23,176.1328125,4,30,-9999,1561914344.202864,-21.53350830078125,19.96909332275391,3.85784912109375,355.2088012695312,2.7022545337677,15,197059.3957825417,-1.084747314453125,-0.340728759765625,0.1839447021484375,197059.3785405417,-4.638986934419925,2.010926307507932,-8.416302771822535,197059.3717655417,-99.59111022949219,-12.30412292480469,-559.2402954101562,197059.3785405417,1.162706311294353,-1.696699482407937,0.4930203945253867,-4.641607761383057,2.00438380241394,-8.419550895690918,-0.5863314867019653,0.3027412593364716,-0.001241207122802734,1,-0.5343623161315918,0.5193890929222107,-0.1991477608680725,-0.636421263217926,-0.8739346265792847,-0.4732887446880341,0.1106162294745445,0,0,0,-1,197051.031864625,3,2,1561914335.869401,1561913957.287787,16,1.221493,0,0,13.06835,0,0,1561914226.950748,197056.301539,0,1.276123,75.29314,3232235528,177845136,1,1,0.54,-13.65158,-36.68406,4
1561914344.255837,74,0,0,1561914344.015003,4.634612132799472,-74.15103790357163,2552.943,1.23,176.1328125,4,30,-9999,1561914344.251718,-29.05686187744141,3.000234603881836,6.55816650390625,15.08687591552734,22.58034324645996,15,197059.4160465417,-1.165420532226562,-0.390838623046875,0.394378662109375,197059.3988045417,-5.283074574584462,0.6671655289067264,-9.92854364309764,197059.3918765417,-102.4034576416016,-17.46426391601562,-558.4273071289062,197059.3988045417,1.056633086113308,-1.607093097271638,0.6810392677303759,-5.28569507598877,0.6606230139732361,-9.931791305541992,-0.3083402514457703,0.2888720631599426,0.1557512283325195,1,-0.5422379374504089,0.4691212475299835,-0.1221932098269463,-0.6862740516662598,-0.7764070630073547,-0.6296007633209229,0.02819345146417618,0,0,0,-1,197051.031864625,3,2,1561914335.869401,1561913957.287787,16,1.221493,0,0,13.06835,0,0,1561914226.950748,197056.301539,0,1.276123,75.29314,3232235528,177845136,1,1,0.54,-13.65158,-37.58745,4
1561914344.261365,75,0,0,1561914344.015003,4.634612132799472,-74.15103790357163,2552.943,1.23,176.1328125,4,30,-9999,1561914344.251718,-29.05686187744141,3.000234603881836,6.55816650390625,15.08687591552734,22.58034324645996,15,197059.4362795417,-1.584197998046875,-0.1303863525390625,0.233367919921875,197059.4190675417,-4.815408573464443,-1.39740243559369,-12.60759208697585,197059.4119875417,-104.618896484375,-23.933837890625,-557.5064697265625,197059.4190675417,0.9052866669905553,-1.50939058041508,0.9113648819540358,-4.818029403686523,-1.403944969177246,-12.61083984375,-0.5539078116416931,0.3995020985603333,0.431976318359375,1,-0.5573393106460571,0.4130061268806458,-0.01496727205812931,-0.7201213240623474,-0.6115127205848694,-0.7903407216072083,-0.0375976637005806,0,0,0,-1,197051.031864625,3,2,1561914335.869401,1561913957.287787,16,1.221493,0,0,13.06835,0,0,1561914226.950748,197056.301539,0,1.276123,75.29314,3232235528,177845136,1,1,0.54,-13.65158,-38.36047,4
1561914344.281575,76,0,0,1561914344.015003,4.634612132799472,-74.15103790357163,2552.943,1.23,176.1328125,4,30,-9999,1561914344.278006,-28.81392669677734,-4.952327728271484,7.08740234375,102.6022644042969,110.0957336425781,15,197059.4565435417,-1.102066040039062,-0.0124969482421875,-0.1671295166015625,197059.4393315417,-4.041513135447265,-0.6168221969243046,-12.5930299221353,197059.4320985417,-105.1036682128906,-32.03952026367188,-556.4299926757812,197059.4393315417,0.6512215856051207,-1.314191620273532,1.15489016268672,-4.04413366317749,-0.6233646869659424,-12.59627819061279,-1.193407773971558,0.7843642234802246,0.3359071016311646,1,-0.5732172131538391,0.3466301262378693,0.1037063598632812,-0.7351969480514526,-0.3907902836799622,-0.9147505760192871,-0.1025391668081284,0,0,0,-1,197051.031864625,3,2,1561914335.869401,1561913957.287787,16,1.221493,0,0,13.06835,0,0,1561914226.950748,197056.301539,0,1.276123,75.29314,3232235528,177845136,1,1,0.54,-13.65158,-37.32074,4
1561914344.302029,77,0,0,1561914344.015003,4.634612132799472,-74.15103790357163,2552.943,1.23,176.1328125,4,30,-9999,1561914344.278006,-28.81392669677734,-4.952327728271484,7.08740234375,102.6022644042969,110.0957336425781,15,197059.4768075417,0.1358489990234375,-0.099578857421875,-0.46942138671875,197059.4595955417,-2.907621701285318,-0.1023370248923659,-10.79193407691471,197059.4522095417,-103.3981628417969,-39.69309997558594,-556.8605346679688,197059.4595955417,0.07543202820610478,-0.7694270106232366,1.333045596391635,-2.910242557525635,-0.1088795363903046,-10.79518222808838,-0.9382110834121704,0.9593732357025146,0.002044796943664551,1,-0.583780825138092,0.2731534242630005,0.2043921649456024,-0.7367570996284485,-0.1638550013303757,-0.9718701839447021,-0.1691743135452271,0,0,0,-1,197051.031864625,3,2,1561914335.869401,1561913957.287787,16,1.221493,0,0,13.06835,0,0,1561914226.950748,197056.301539,0,1.276123,75.29314,3232235528,177845136,1,1,0.54,-13.65158,-37.32074,4
1561914344.335327,78,0,0,1561914344.015003,4.634612132799472,-74.15103790357163,2552.943,1.23,176.1328125,4,30,-9999,1561914344.32879,-21.72589111328125,-19.70867156982422,6.966064453125,105.7964859008789,113.2899551391602,15,197059.4970705417,0.656768798828125,-0.28924560546875,-0.480316162109375,197059.4798585417,-1.273687683999041,-1.439723527424467,-7.575751607513981,197059.4723205417,-100.66064453125,-44.95083618164062,-557.0133666992188,197059.4798585417,-0.8098647713659047,0.07991350524488156,1.358106206449357,-1.276308655738831,-1.446266055107117,-7.579000473022461,0.1189979910850525,0.8778877258300781,-0.2590046525001526,1,-0.5890501737594604,0.2186584919691086,0.2832601368427277,-0.7245495915412903,0.0168510228395462,-0.9774665832519531,-0.2104167193174362,0,0,0,-1,197051.031864625,3,2,1561914335.869401,1561913957.287787,16,1.221493,0,0,13.06835,0,0,1561914226.950748,197056.301539,0,1.276123,75.29314,3232235528,177845136,1,1,0.54,-13.65158,-37.36024,4
1561914344.342389,79,0,0,1561914344.015003,4.634612132799472,-74.15103790357163,2552.943,1.23,176.1328125,4,30,-9999,1561914344.32879,-21.72589111328125,-19.70867156982422,6.966064453125,105.7964859008789,113.2899551391602,15,197059.5173345417,0.62750244140625,-0.322784423828125,-0.457061767578125,197059.5000915417,-0.246223890163821,-0.9505375867999538,-3.954496211041689,197059.4924325417,-98.04803466796875,-48.61390686035156,-556.6616821289062,197059.5000915417,-1.271047513550604,0.499961147538056,1.310844352373643,-0.2488448172807693,-0.957080066204071,-3.957744598388672,0.5335487127304077,0.6771566867828369,-0.254742443561554,1,-0.5916702747344971,0.1927159130573273,0.3346306681632996,-0.7076787948608398,0.1232201084494591,-0.9664023518562317,-0.225573718547821,0,0,0,-1,197051.031864625,3,2,1561914335.869401,1561913957.287787,16,1.221493,0,0,13.06835,0,0,1561914226.950748,197056.301539,0,1.276123,75.29314,3232235528,177845136,1,1,0.54,-13.65158,-37.36024,4
1561914344.362679,80,0,0,1561914344.015003,4.634612132799472,-74.15103790357163,2552.943,1.23,176.1328125,4,30,-9999,1561914344.352825,-20.78857421875,-20.81048583984375,7.16845703125,105.415771484375,112.9092407226562,15,197059.5375985417,0.36090087890625,-0.5617218017578125,-0.210479736328125,197059.5203555417,0.1884042660532197,0.6501212979302193,-1.496170291993132,197059.5125435417,-96.96647644042969,-50.00053405761719,-556.2027587890625,197059.5203555417,-1.431660750563347,0.6534356925065169,1.281177695454305,0.185783326625824,0.6435787677764893,-1.49941873550415,0.4538889229297638,0.6355684399604797,-0.2303056120872498,1,-0.595970630645752,0.177315965294838,0.3535751402378082,-0.6988295912742615,0.1736135184764862,-0.9583528637886047,-0.2267561107873917,0,0,0,-1,197051.031864625,3,2,1561914335.869401,1561913957.287787,16,1.221493,0,0,13.06835,0,0,1561914226.950748,197056.301539,0,1.276123,75.29314,3232235528,177845136,1,1,0.54,-13.65158,-37.93869,4
1561914344.382897,81,0,0,1561914344.015003,4.634612132799472,-74.15103790357163,2552.943,1.23,176.1328125,4,30,-9999,1561914344.379756,-20.412353515625,-21.05377197265625,7.23162841796875,105.2019577026367,112.695426940918,15,197059.5578615417,0.2625274658203125,-0.738372802734375,-0.093109130859375,197059.5406195417,1.004205609087231,0.3213577897854635,-0.8724550352193755,197059.5326545417,-96.31782531738281,-50.15382385253906,-556.578857421875,197059.5406195417,-1.518666534598847,0.7489220189259028,1.276618057813399,1.001584649085999,0.3148152828216553,-0.8757034540176392,0.163486048579216,0.3953189253807068,0.001889050006866455,1,-0.6044423580169678,0.1687158644199371,0.3565042018890381,-0.6921626925468445,0.197414830327034,-0.9570407271385193,-0.2123687863349915,0,0,0,-1,197051.031864625,3,2,1561914335.869401,1561913957.287787,16,1.221493,0,0,13.06835,0,0,1561914226.950748,197056.301539,0,1.276123,75.29314,3232235528,177845136,1,1,0.54,-13.65158,-38.53397,4
1561914344.414924,82,0,0,1561914344.015003,4.634612132799472,-74.15103790357163,2552.943,1.23,176.1328125,4,30,-9999,1561914344.40563,-20.25798034667969,-21.40406799316406,7.44671630859375,105.4925765991211,112.9860458374023,15,197059.5781255417,0.2673187255859375,-0.7874908447265625,-0.0977325439453125,197059.5608825417,0.9722530023284599,0.02983006736997755,-0.5579050841284816,197059.5527655417,-96.02694702148438,-50.7174072265625,-556.4121704101562,197059.5608825417,-1.607378587751893,0.8363954171331008,1.281128564817843,0.969632089138031,0.02328755334019661,-0.5611535310745239,0.0505208820104599,0.2199660539627075,0.09830617904663086,1,-0.6134647130966187,0.167192667722702,0.3590047955513,-0.6832445859909058,0.2120065838098526,-0.9583387970924377,-0.1914153099060059,0,0,0,-1,197051.031864625,3,2,1561914335.869401,1561913957.287787,16,1.221493,0,0,13.06835,0,0,1561914226.950748,197056.301539,0,1.276123,75.29314,3232235528,177845136,1,1,0.54,-13.65158,-39.00808,4
1561914344.424511,83,0,0,1561914344.015003,4.634612132799472,-74.15103790357163,2552.943,1.23,176.1328125,4,30,-9999,1561914344.40563,-20.25798034667969,-21.40406799316406,7.44671630859375,105.4925765991211,112.9860458374023,15,197059.5983585417,0.2945404052734375,-0.777191162109375,-0.1381683349609375,197059.5811465417,0.6425973352185275,-0.01079725400750826,-0.1996454690144441,197059.5728765417,-95.81405639648438,-50.85617065429688,-555.8405151367188,197059.5811465417,-1.670089136182959,0.8959518409155645,1.285287252613606,0.6399763822555542,-0.01733976788818836,-0.202893927693367,0.0474085658788681,0.1720275282859802,0.07823294401168823,1,-0.6195816993713379,0.1677372455596924,0.3606636226177216,-0.6766863465309143,0.2199101597070694,-0.9595183730125427,-0.1759654730558395,0,0,0,-1,197051.031864625,3,2,1561914335.869401,1561913957.287787,16,1.221493,0,0,13.06835,0,0,1561914226.950748,197056.301539,0,1.276123,75.29314,3232235528,177845136,1,1,0.54,-13.65158,-39.33028,4
1561914344.443663,84,0,0,1561914344.015003,4.634612132799472,-74.15103790357163,2552.943,1.23,176.1328125,4,30,-9999,1561914344.429884,-20.17655944824219,-21.2607536315918,7.80999755859375,105.5573348999023,113.0508041381836,15,197059.6186225417,0.3123321533203125,-0.8065185546875,-0.1263580322265625,197059.6014105417,0.5224482900073847,0.1485173034587759,0.2479637333039698,197059.5929875417,-95.89839172363281,-50.80252075195312,-555.5859985351562,197059.6014105417,-1.699470021890011,0.9258758655450029,1.293050667059735,0.5198273658752441,0.1419747769832611,0.2447152733802795,0.07542352378368378,0.1844848394393921,0.02665579319000244,1,-0.6235764026641846,0.1695299744606018,0.3588094711303711,-0.6735486388206482,0.2191168665885925,-0.9616760015487671,-0.1648241132497787,0,0,0,-1,197051.031864625,3,2,1561914335.869401,1561913957.287787,16,1.221493,0,0,13.06835,0,0,1561914226.950748,197056.301539,0,1.276123,75.29314,3232235528,177845136,1,1,0.54,-13.65158,-39.36135,4
1561914344.46392,85,0,0,1561914344.015003,4.634612132799472,-74.15103790357163,2552.943,1.23,176.1328125,4,30,-9999,1561914344.456117,-20.29326629638672,-21.05018997192383,8.08935546875,105.4836959838867,112.977165222168,15,197059.6388855417,0.3077392578125,-0.80169677734375,-0.13116455078125,197059.6216735417,0.5248557876328163,0.1932829108541358,0.5520075138945011,197059.6130985417,-96.13752746582031,-50.51333618164062,-555.466064453125,197059.6216735417,-1.714258552833406,0.9432805433534079,1.305677021763804,0.5222348570823669,0.1867403835058212,0.5487590432167053,0.1002260893583298,0.1585427522659302,0.02748608589172363,1,-0.6270676255226135,0.1728124618530273,0.3542839586734772,-0.6718668341636658,0.2121060788631439,-0.9650612473487854,-0.1538440883159637,0,0,0,-1,197051.031864625,3,2,1561914335.869401,1561913957.287787,16,1.221493,0,0,13.06835,0,0,1561914226.950748,197056.301539,0,1.276123,75.29314,3232235528,177845136,1,1,0.54,-13.65158,-39.36135,4
1561914344.492888,86,0,0,1561914344.015003,4.634612132799472,-74.15103790357163,2552.943,1.23,176.1328125,4,30,-9999,1561914344.480779,-20.91617584228516,-20.60598373413086,8.219970703125,105.2784423828125,112.7719116210938,15,197059.6591495417,0.2925567626953125,-0.7965240478515625,-0.133331298828125,197059.6419375417,0.566690053616326,0.2259172868519668,0.9616909054452056,197059.6332095417,-96.35818481445312,-50.15205383300781,-555.2645874023438,197059.6419375417,-1.714336559563316,0.9471923267262186,1.324233904419738,0.5640690922737122,0.2193747609853745,0.9584424495697021,0.1096065044403076,0.1680604219436646,0.01136505603790283,1,-0.6300758123397827,0.1781563758850098,0.3470756113529205,-0.6714189648628235,0.1981327533721924,-0.9697571396827698,-0.1425295472145081,0,0,0,-1,197051.031864625,3,2,1561914335.869401,1561913957.287787,16,1.221493,0,0,13.06835,0,0,1561914226.950748,197056.301539,0,1.276123,75.29314,3232235528,177845136,1,1,0.54,-13.65158,-39.91095,4
1561914344.507606,87,0,0,1561914344.015003,4.634612132799472,-74.15103790357163,2552.943,1.23,176.1328125,4,30,-9999,1561914344.480779,-20.91617584228516,-20.60598373413086,8.219970703125,105.2784423828125,112.7719116210938,15,197059.6794135417,0.33111572265625,-0.7896575927734375,-0.1610260009765625,197059.6622015417,0.4977155129638188,0.5890659330951717,1.651756423933305,197059.6532905417,-96.83158874511719,-49.77619934082031,-555.53662109375,197059.6622015417,-1.686913718799103,0.9281613335135365,1.351383606986527,0.4950945675373077,0.5825234055519104,1.648507952690125,0.1183184385299683,0.1795014142990112,-0.002888202667236328,1,-0.6327333450317383,0.1855450421571732,0.3350477516651154,-0.673026442527771,0.1742383241653442,-0.9760254621505737,-0.1304430961608887,0,0,0,-1,197051.031864625,3,2,1561914335.869401,1561913957.287787,16,1.221493,0,0,13.06835,0,0,1561914226.950748,197057.246759,0,1.276123,75.29314,3232235528,177845136,1,1,0.54,-13.65158,-39.91095,4
1561914344.524764,88,0,0,1561914344.015003,4.634612132799472,-74.15103790357163,2552.943,1.23,176.1328125,4,30,-9999,1561914344.506137,-21.29548645019531,-19.93625640869141,8.1351318359375,104.3781433105469,111.8716125488281,15,197059.6996765417,0.160125732421875,-0.841583251953125,-0.1163482666015625,197059.6824345417,0.4473071998507989,1.033990669034786,2.688096533681759,197059.6734015417,-97.59579467773438,-48.75468444824219,-555.4638671875,197059.6824345417,-1.581731831410783,0.8413190616051397,1.391905442207946,0.4446781277656555,1.027439832687378,2.68484902381897,0.1984587907791138,0.1943840980529785,-0.04243379831314087,1,-0.6343593597412109,0.1956837028264999,0.3139444291591644,-0.6787745952606201,0.132656916975975,-0.9840416312217712,-0.1185921803116798,0,0,0,-1,197051.031864625,3,2,1561914335.869401,1561913957.287787,16,1.221493,0,0,13.06835,0,0,1561914226.950748,197057.246759,0,1.276123,75.29314,3232235528,177845136,1,1,0.54,-13.65158,-40.30312,4
1561914344.545021,89,0,0,1561914344.015003,4.634612132799472,-74.15103790357163,2552.943,1.23,176.1328125,4,30,-9999,1561914344.531195,-23.27546691894531,-17.8359260559082,7.66522216796875,102.7817687988281,110.2752380371094,15,197059.7199405417,0.142822265625,-0.8895263671875,-0.1175079345703125,197059.7026985417,0.6206574152101277,1.243887710349381,3.023865753390077,197059.6935125417,-98.78607177734375,-47.65957641601562,-555.793701171875,197059.7026985417,-1.349783277049577,0.6354968769469904,1.439231634699674,0.6180283427238464,1.237336874008179,3.020618200302124,0.08225762844085693,0.1497745513916016,-0.01077413558959961,1,-0.6356539130210876,0.2077427059412003,0.2855960726737976,-0.6864559650421143,0.07786808162927628,-0.9913578629493713,-0.1055741384625435,0,0,0,-1,197051.031864625,3,2,1561914335.869401,1561913957.287787,16,1.221493,0,0,13.06835,0,0,1561914226.950748,197057.246759,0,1.276123,75.29314,3232235528,177845136,1,1,0.54,-13.65158,-40.33566,4
1561914344.575451,90,0,0,1561914344.015003,4.634612132799472,-74.15103790357163,2552.943,1.23,176.1328125,4,30,-9999,1561914344.55611,-24.77275085449219,-16.15675735473633,7.24530029296875,100.7668609619141,108.2603302001953,15,197059.7402045417,0.106536865234375,-0.84356689453125,-0.150970458984375,197059.7229615417,0.6889432624047405,1.461067698297016,3.583992979132121,197059.7136235417,-99.91844177246094,-46.17796325683594,-556.2688598632812,197059.7229615417,-0.8493949151267055,0.1648435796569339,1.478589626317889,0.6863142251968384,1.454516887664795,3.580745458602905,0.1277127265930176,0.1062256097793579,-0.02667981386184692,1,-0.6368949413299561,0.2212481945753098,0.2529021501541138,-0.6938692927360535,0.01510954368859529,-0.9957519769668579,-0.09082814306020737,0,0,0,-1,197051.031864625,3,2,1561914335.869401,1561913957.287787,16,1.221493,0,0,13.06835,0,0,1561914226.950748,197057.246759,0,1.276123,75.29314,3232235528,177845136,1,1,0.54,-13.65158,-40.49329,4
1561914344.585509,91,0,0,1561914344.015003,4.634612132799472,-74.15103790357163,2552.943,1.23,176.1328125,4,30,-9999,1561914344.582358,-26.31399536132812,-13.71759033203125,6.5880126953125,97.82534027099609,105.3188095092773,15,197059.7604675417,0.001007080078125,-0.7637786865234375,-0.163330078125,197059.7432255417,0.5095245018694481,2.042971858588746,4.917540801268982,197059.7337345417,-101.7125244140625,-44.17338562011719,-556.787841796875,197059.7432255417,0.05369919328216892,-0.6997987555403947,1.467088918850222,0.5068954825401306,2.036421060562134,4.91429328918457,0.173211395740509,0.1510602831840515,-0.07177931070327759,1,-0.6355487704277039,0.237659826874733,0.2106930315494537,-0.7037073373794556,-0.06667453050613403,-0.9946271777153015,-0.07919113337993622,0,0,0,-1,197051.031864625,3,2,1561914335.869401,1561913957.287787,16,1.221493,0,0,13.06835,0,0,1561914226.950748,197057.246759,0,1.276123,75.29314,3232235528,177845136,1,1,0.54,-14.20886,-40.80383,4
1561914344.607524,92,0,0,1561914344.015003,4.634612132799472,-74.15103790357163,2552.943,1.23,176.1328125,4,30,-9999,1561914344.582358,-26.31399536132812,-13.71759033203125,6.5880126953125,97.82534027099609,105.3188095092773,15,197059.7807015417,-0.4332427978515625,-0.7541046142578125,-0.01251220703125,197059.7634895417,0.4136866553013116,2.021095055498181,6.08703284025089,197059.7538455417,-103.2270050048828,-41.26203918457031,-557.6622314453125,197059.7634895417,0.5628537964489112,-1.160833916618394,1.378137352068743,0.4110575914382935,2.014544248580933,6.083785533905029,0.1766104996204376,0.2177199125289917,-0.08701521158218384,1,-0.6283257007598877,0.2589389383792877,0.1556938141584396,-0.7168799638748169,-0.1756034195423126,-0.9814985990524292,-0.07631488144397736,0,0,0,-1,197051.031864625,3,2,1561914335.869401,1561913957.287787,16,1.221493,0,0,13.06835,0,0,1561914226.950748,197057.246759,0,1.276123,75.29314,3232235528,177845136,1,1,0.54,-14.76614,-41.05515,4
1561914344.626098,93,0,0,1561914344.015003,4.634612132799472,-74.15103790357163,2552.943,1.23,176.1328125,4,30,-9999,1561914344.606542,-27.68794250488281,-10.68576049804688,5.64324951171875,95.160888671875,102.6543579101562,15,197059.8009645417,-0.583465576171875,-0.9992218017578125,0.099639892578125,197059.7837525417,1.254484162010697,0.994910910566745,5.137645206409633,197059.7739565417,-104.5510711669922,-37.91403198242188,-558.5977783203125,197059.7837525417,0.7764840745289797,-1.337125876745955,1.270375130221568,1.251855134963989,0.9883601069450378,5.134397983551025,-0.1453624665737152,0.2011073231697083,0.05600857734680176,1,-0.6198294162750244,0.2855715155601501,0.1012847423553467,-0.7238796949386597,-0.2878803312778473,-0.9552119374275208,-0.06852080672979355,0,0,0,-1,197051.031864625,3,2,1561914335.869401,1561913957.287787,16,1.221493,0,0,13.06835,0,0,1561914226.950748,197057.246759,0,1.276123,75.29314,3232235528,177845136,1,1,0.54,-14.76614,-41.05515,4
1561914344.656164,94,0,0,1561914344.015003,4.634612132799472,-74.15103790357163,2552.943,1.23,176.1328125,4,30,-9999,1561914344.632485,-29.37881469726562,-4.84375,4.85186767578125,94.10650634765625,101.5999755859375,15,197059.8212285417,-0.488250732421875,-0.9854888916015625,0.0456085205078125,197059.8040165417,1.912189343777135,-0.5106177294969256,3.688116186167603,197059.7940675417,-105.2955780029297,-34.92111206054688,-559.0572509765625,197059.8040165417,0.9215837385362446,-1.470086734987675,1.190359571425545,1.909560322761536,-0.5171685218811035,3.684868574142456,-0.2140210866928101,-0.07071924209594727,0.1369728446006775,1,-0.6194394826889038,0.3124552369117737,0.0636429563164711,-0.71736741065979,-0.3694444894790649,-0.9285025596618652,-0.03733290359377861,0,0,0,-1,197051.031864625,3,2,1561914335.869401,1561913957.287787,16,1.221493,0,0,13.06835,0,0,1561914226.950748,197057.246759,0,1.276123,75.29314,3232235528,177845136,1,1,0.54,-15.8807,-41.64652,4
1561914344.666615,95,0,0,1561914344.015003,4.634612132799472,-74.15103790357163,2552.943,1.23,176.1328125,4,30,-9999,1561914344.657246,-29.8028564453125,-2.289968490600586,5.298828125,94.00360870361328,101.4970779418945,15,197059.8414925417,-0.4247283935546875,-0.773223876953125,-0.0209808349609375,197059.8242805417,1.006614704609316,-0.4159324990485754,4.151450555774608,197059.8141785417,-105.5000152587891,-32.36570739746094,-558.2785034179688,197059.8242805417,1.008493275438521,-1.562049294281169,1.115978626754082,1.003985643386841,-0.4224833250045776,4.148203372955322,-0.04896903038024902,-0.08714777231216431,0.04945105314254761,1,-0.6177800893783569,0.3412132859230042,0.03528200834989548,-0.7075849175453186,-0.439281702041626,-0.8983411192893982,-0.003842509351670742,0,0,0,-1,197051.031864625,3,2,1561914335.869401,1561913957.287787,16,1.221493,0,0,13.06835,0,0,1561914226.950748,197057.246759,0,1.276123,75.29314,3232235528,177845136,1,1,0.54,-15.8807,-41.64652,4
1561914344.686777,96,0,0,1561914344.015003,4.634612132799472,-74.15103790357163,2552.943,1.23,176.1328125,4,30,-9999,1561914344.683136,-29.79641723632812,0.8152580261230469,5.14508056640625,93.40803527832031,100.9015045166016,15,197059.8617555417,-0.569488525390625,-0.5187530517578125,0.0111541748046875,197059.8445135417,-0.2518980211823438,0.7002393264844206,5.718932312276792,197059.8342895417,-105.6331024169922,-29.55024719238281,-558.415771484375,197059.8445135417,1.023385543154155,-1.57263677366685,1.016114893629642,-0.2545270919799805,0.6936885118484497,5.71568489074707,0.1019432544708252,0.07684439420700073,-0.0219501256942749,1,-0.6024410128593445,0.3708766400814056,-0.002016180194914341,-0.7067611217498779,-0.5266716480255127,-0.8500682711601257,0.0009693122701719403,0,0,0,-1,197051.031864625,3,2,1561914335.869401,1561913957.287787,16,1.221493,0,0,13.06835,0,0,1561914226.950748,197057.246759,0,1.276123,75.29314,3232235528,177845136,1,1,0.54,-16.43798,-40.5394,4
1561914344.707772,97,0,0,1561914344.015003,4.634612132799472,-74.15103790357163,2552.943,1.23,176.1328125,4,30,-9999,1561914344.683136,-29.79641723632812,0.8152580261230469,5.14508056640625,93.40803527832031,100.9015045166016,15,197059.8820195417,-0.7085113525390625,-0.54730224609375,0.0883941650390625,197059.8647765417,-0.255769458458992,0.6413421873967732,6.040844039568992,197059.8544015417,-105.5407257080078,-26.48564147949219,-558.5885009765625,197059.8647765417,1.012227251679132,-1.547208281165856,0.8940529378954251,-0.2583985328674316,0.634791374206543,6.037596702575684,0.0565946102142334,0.2608632445335388,0.02592504024505615,1,-0.5759277939796448,0.4011505544185638,-0.04855232685804367,-0.7106532454490662,-0.6260831356048584,-0.7796163558959961,-0.01477081794291735,0,0,0,-1,197051.031864625,3,2,1561914335.869401,1561913957.287787,16,1.221493,0,0,13.06835,0,0,1561914226.950748,197057.246759,0,1.276123,75.29314,3232235528,177845136,1,1,0.54,-16.99526,-36.54057,4
1561914344.738542,98,0,0,1561914344.015003,4.634612132799472,-74.15103790357163,2552.943,1.23,176.1328125,4,30,-9999,1561914344.707966,-29.44341278076172,4.194839477539062,4.875244140625,93.02165222167969,100.5151214599609,15,197059.9022835417,-0.9399261474609375,-0.568572998046875,0.0303955078125,197059.8850405417,0.601410483696016,-0.1796943977081155,5.312943524106355,197059.8745125417,-104.7327270507812,-22.67974853515625,-558.8062744140625,197059.8850405417,1.021021342075893,-1.55063453797336,0.7793368731061007,0.5987814664840698,-0.1862452030181885,5.309696197509766,0.002723813056945801,0.1555055975914001,0.1027358770370483,1,-0.553087055683136,0.432346910238266,-0.09082067757844925,-0.7063444256782532,-0.7112351655960083,-0.7028078436851501,-0.01434171572327614,0,0,0,-1,197051.031864625,3,2,1561914335.869401,1561913957.287787,16,1.221493,0,0,13.06835,0,0,1561914226.950748,197057.246759,0,1.276123,75.29314,3232235528,177845136,1,1,0.54,-17.55254,-37.22298,4
1561914344.747566,99,0,0,1561914344.015003,4.634612132799472,-74.15103790357163,2552.943,1.23,176.1328125,4,30,-9999,1561914344.707966,-29.44341278076172,4.194839477539062,4.875244140625,93.02165222167969,100.5151214599609,15,197059.9225465417,-1.103378295898438,-0.470306396484375,-0.2245941162109375,197059.9053045417,0.3223556762459162,1.253011433927884,5.211918106050852,197059.8946235417,-103.7193603515625,-19.78466796875,-558.8325805664062,197059.9053045417,1.039915754893032,-1.556690206300622,0.6744485135451735,0.3197266161441803,1.246460676193237,5.208670616149902,-0.1589523553848267,0.0558936595916748,0.04141277074813843,1,-0.5336539149284363,0.4579354524612427,-0.1322614401578903,-0.6985810995101929,-0.7809737920761108,-0.6244666576385498,-0.01101724058389664,0,0,0,-1,197051.031864625,3,2,1561914335.869401,1561913957.287787,16,1.221493,0,0,13.06835,0,0,1561914226.950748,197057.246759,0,1.276123,75.29314,3232235528,177845136,1,1,0.54,-18.10982,-37.68904,4
1561914344.767845,100,0,0,1561914344.015003,4.634612132799472,-74.15103790357163,2552.943,1.23,176.1328125,4,30,-9999,1561914344.749025,-27.57737731933594,10.51575660705566,4.59869384765625,92.03407287597656,99.52754211425781,15,197059.9428105417,-1.077011108398438,-0.4655914306640625,-0.28656005859375,197059.9255685417,-0.9447318956235811,3.536439308391557,5.3765147772232,197059.9147345417,-102.7486877441406,-16.84005737304688,-559.7213134765625,197059.9255685417,1.035045695284351,-1.504083367446341,0.5657193782680547,-0.9473609328269958,3.529888391494751,5.373267650604248,-0.2610528469085693,0.06571686267852783,-0.1683166027069092,1,-0.501670241355896,0.4692421555519104,-0.1812449097633362,-0.7037678360939026,-0.8423254489898682,-0.5360232591629028,-0.05627753585577011,0,0,0,-1,197051.031864625,3,2,1561914335.869401,1561913957.287787,16,1.221493,0,0,13.06835,0,0,1561914226.950748,197057.246759,0,1.276123,75.29314,3232235528,177845136,1,1,0.54,-18.10982,-37.68904,4
1561914344.790398,101,0,0,1561914344.015003,4.634612132799472,-74.15103790357163,2552.943,1.23,176.1328125,4,30,-9999,1561914344.784959,-24.93373107910156,15.96204376220703,1.88623046875,1.474645137786865,8.968112945556641,15,197059.9630435417,-0.9634857177734375,-0.4556732177734375,-0.1572265625,197059.9458315417,0.3902652187785007,2.846332244590452,4.632369511743297,197059.9348455417,-101.3179626464844,-14.26206970214844,-561.3137817382812,197059.9458315417,1.035338550628521,-1.43301811434638,0.462607021625661,0.3876361548900604,2.839781522750854,4.629122257232666,-0.1905995011329651,-0.01930883526802063,-0.1636531352996826,1,-0.4665690362453461,0.4699573218822479,-0.2324022650718689,-0.7123500108718872,-0.8864116072654724,-0.4462826251983643,-0.1229069009423256,0,0,0,-1,197051.031864625,3,2,1561914335.869401,1561913957.287787,16,1.221493,0,0,13.06835,0,0,1561914226.950748,197057.246759,0,1.276123,75.29314,3232235528,177845136,1,1,0.54,-18.6671,-38.2749,4
1561914344.815671,102,0,0,1561914344.015003,4.634612132799472,-74.15103790357163,2552.943,1.23,176.1328125,4,30,-9999,1561914344.80876,-23.56278228759766,18.05834770202637,0.638427734375,357.2454833984375,4.738947868347168,15,197059.9833075417,-0.9752655029296875,-0.5575103759765625,-0.05743408203125,197059.9660955417,2.468301055227557,0.09566580636171738,3.14075056205311,197059.9549565417,-99.92373657226562,-11.73439025878906,-562.9234008789062,197059.9660955417,1.082331297392016,-1.422921080158501,0.3902507329519944,2.465672016143799,0.08911500126123428,3.137503147125244,-0.04876518249511719,-0.07525289058685303,-0.02096736431121826,1,-0.4558396339416504,0.4733715653419495,-0.2742555737495422,-0.7020779252052307,-0.9147205948829651,-0.3804202973842621,-0.1362591832876205,0,0,0,-1,197051.031864625,3,2,1561914335.869401,1561913957.287787,16,1.221493,0,0,13.06835,0,0,1561914226.950748,197057.246759,0,1.276123,75.29314,3232235528,177845136,1,1,0.54,-19.78165,-38.96253,4
1561914344.828554,103,0,0,1561914344.015003,4.634612132799472,-74.15103790357163,2552.943,1.23,176.1328125,4,30,-9999,1561914344.80876,-23.56278228759766,18.05834770202637,0.638427734375,357.2454833984375,4.738947868347168,15,197060.0035705417,-1.14837646484375,-0.5276336669921875,-0.0023956298828125,197059.9863595417,1.808041103027406,-0.4335394559634163,2.207203676691753,197059.9750365417,-98.42755126953125,-10.26853942871094,-563.4866943359375,197059.9863595417,1.13995751979327,-1.45087798896332,0.3437082739225505,1.80541205406189,-0.4400902688503265,2.203956127166748,-0.04051542282104492,-0.2205295860767365,0.05520004034042358,1,-0.4604640305042267,0.4813063740730286,-0.3022741675376892,-0.6818705797195435,-0.9347500801086426,-0.336980789899826,-0.1126341000199318,0,0,0,-1,197051.031864625,3,2,1561914335.869401,1561913957.287787,16,1.221493,0,0,13.06835,0,0,1561914226.950748,197057.246759,0,1.276123,75.29314,3232235528,177845136,1,1,0.54,-19.78165,-38.96253,4
1561914344.848857,104,0,0,1561914344.015003,4.634612132799472,-74.15103790357163,2552.943,1.23,176.1328125,4,30,-9999,1561914344.835089,-21.70821380615234,20.29532814025879,-0.6944580078125,355.408203125,2.901681423187256,15,197060.0238345417,-1.14849853515625,-0.4878082275390625,0.042144775390625,197060.0066225417,0.3174807598705262,0.05646673827684108,1.616880997878173,197059.9951485417,-97.74168395996094,-9.19805908203125,-564.294921875,197060.0066225417,1.166168313487095,-1.463183803954126,0.3074454615978406,0.3148516714572906,0.04991593211889267,1.613633632659912,-0.2007801532745361,-0.2250088155269623,0.09997308254241943,1,-0.4586053192615509,0.4883613586425781,-0.3194879591464996,-0.6701579689979553,-0.9475962519645691,-0.3026248812675476,-0.1023686900734901,0,0,0,-1,197051.031864625,3,2,1561914335.869401,1561913957.287787,16,1.221493,0,0,13.06835,0,0,1561914226.950748,197057.246759,0,1.276123,75.29314,3232235528,177845136,1,1,0.54,-20.33893,-38.2953,4
1561914344.869227,105,0,0,1561914344.015003,4.634612132799472,-74.15103790357163,2552.943,1.23,176.1328125,4,30,-9999,1561914344.859326,-21.14844512939453,20.94716453552246,-0.751220703125,355.3204956054688,2.813966274261475,15,197060.0440985417,-1.084426879882812,-0.4299468994140625,-0.0187225341796875,197060.0268555417,-0.1041703449867764,0.1276900521538112,0.8063425937903764,197060.0152595417,-97.07890319824219,-8.479034423828125,-564.10009765625,197060.0268555417,1.169559800142942,-1.461254168115707,0.2832676371064296,-0.10679941624403,0.1211392432451248,0.8030951619148254,-0.1941062211990356,-0.2083136737346649,0.147111177444458,1,-0.4523530304431915,0.4928423166275024,-0.3284519016742706,-0.6667851209640503,-0.9543922543525696,-0.2794945538043976,-0.1049663722515106,0,0,0,-1,197051.031864625,3,2,1561914335.869401,1561913957.287787,16,1.221493,0,0,13.06835,0,0,1561914226.950748,197057.246759,0,1.276123,75.29314,3232235528,177845136,1,1,0.54,-20.89621,-38.86431,4
1561914344.893432,106,0,0,1561914344.015003,4.634612132799472,-74.15103790357163,2552.943,1.23,176.1328125,4,30,-9999,1561914344.886017,-20.728515625,21.25467300415039,-0.70391845703125,355.7265319824219,3.219997644424438,15,197060.0643615417,-1.065032958984375,-0.3633880615234375,-0.0931549072265625,197060.0471195417,-0.2889615003890856,0.01965119936758569,0.2256573623295751,197060.0353705417,-96.68632507324219,-8.264984130859375,-564.3448486328125,197060.0471195417,1.166763562639942,-1.459339939790552,0.2732965772725433,-0.2915905714035034,0.01310039311647415,0.2224099338054657,-0.1275150775909424,-0.1600397825241089,0.08837521076202393,1,-0.4485321640968323,0.4952474236488342,-0.3309823870658875,-0.6663329005241394,-0.9569118022918701,-0.2699071168899536,-0.1070977747440338,0,0,0,-1,197051.031864625,3,2,1561914335.869401,1561913957.287787,16,1.221493,0,0,13.06835,0,0,1561914226.950748,197057.246759,0,1.276123,75.29314,3232235528,177845136,1,1,0.54,-21.45349,-39.26356,4
1561914344.910376,107,0,0,1561914344.015003,4.634612132799472,-74.15103790357163,2552.943,1.23,176.1328125,4,30,-9999,1561914344.886017,-20.728515625,21.25467300415039,-0.70391845703125,355.7265319824219,3.219997644424438,15,197060.0846255417,-1.033233642578125,-0.268951416015625,-0.1349639892578125,197060.0673835417,-0.4584314900401689,-0.04512380256197559,0.07846764467420368,197060.0554815417,-96.57420349121094,-8.184341430664062,-564.1775512695312,197060.0673835417,1.158753317261051,-1.457667416769965,0.2699996857397067,-0.4610605537891388,-0.05167460814118385,0.07522021979093552,-0.1074225902557373,-0.09665694832801819,0.01564306020736694,1,-0.4453321993350983,0.4972728192806244,-0.3296857178211212,-0.6676124334335327,-0.9576103687286377,-0.2667311429977417,-0.1087979525327682,0,0,0,-1,197051.031864625,3,2,1561914335.869401,1561913957.287787,16,1.221493,0,0,13.06835,0,0,1561914226.950748,197057.246759,0,1.276123,75.29314,3232235528,177845136,1,1,0.54,-22.01077,-39.5171,4
1561914344.929849,108,0,0,1561914344.015003,4.634612132799472,-74.15103790357163,2552.943,1.23,176.1328125,4,30,-9999,1561914344.910547,-20.84416198730469,21.21610641479492,-0.53564453125,356.3560180664062,3.849484443664551,15,197060.1048895417,-1.027420043945312,-0.2428741455078125,-0.1643218994140625,197060.0876465417,-0.3013302857558496,-0.2050109396626268,0.09389027686296156,197060.0957035417,-96.49626159667969,-8.121536254882812,-563.6016845703125,197060.0876465417,1.150338430357045,-1.458206698076312,0.2673583878410752,-0.3039593696594238,-0.2115617394447327,0.09064285457134247,-0.07486808300018311,-0.004766792058944702,-0.02660369873046875,1,-0.4425692856311798,0.4999522864818573,-0.3275576829910278,-0.6684953570365906,-0.9583654999732971,-0.2641845941543579,-0.1083602756261826,0,0,0,-1,197051.031864625,3,2,1561914335.869401,1561913957.287787,16,1.221493,0,0,13.06835,0,0,1561914226.950748,197057.246759,0,1.276123,75.29314,3232235528,177845136,1,1,0.54,-22.01077,-39.5171,4
1561914344.95001,109,0,0,1561914344.015003,4.634612132799472,-74.15103790357163,2552.943,1.23,176.1328125,4,30,-9999,1561914344.936477,-20.70873260498047,21.11886024475098,-0.15216064453125,356.5823669433594,4.075844764709473,15,197060.1251225417,-1.0296630859375,-0.24102783203125,-0.1729583740234375,197060.1079105417,-0.0300670887069946,-0.1679272204316004,0.07021663898492018,197060.1158145417,-96.77262878417969,-8.040573120117188,-563.8819580078125,197060.1079105417,1.147090378444431,-1.461650228316282,0.2654563065532479,-0.03269615769386292,-0.1744780242443085,0.06696921586990356,-0.06818932294845581,0.01947548985481262,-0.05920785665512085,1,-0.4417743980884552,0.5022732019424438,-0.3262900412082672,-0.6679009795188904,-0.9592307209968567,-0.2623496055603027,-0.1051140204071999,0,0,0,-1,197051.031864625,3,2,1561914335.869401,1561913957.287787,16,1.221493,0,0,13.06835,0,0,1561914226.950748,197057.246759,0,1.276123,75.29314,3232235528,177845136,1,1,0.54,-22.56805,-39.8947,4
1561914344.97626,110,0,0,1561914344.015003,4.634612132799472,-74.15103790357163,2552.943,1.23,176.1328125,4,30,-9999,1561914344.960905,-20.66131591796875,21.34661674499512,-0.3037109375,356.4896240234375,3.983104228973389,15,197060.1453865417,-1.00640869140625,-0.248046875,-0.14495849609375,197060.1281745417,0.06421973284227976,-0.01019671118169539,0.1402915977998482,197060.1359255417,-96.65934753417969,-7.97607421875,-563.7371826171875,197060.1281745417,1.147996560940619,-1.463960428275597,0.2635365864546751,0.06159066781401634,-0.01674751751124859,0.1370441764593124,-0.06969290971755981,0.01946881413459778,-0.0700070858001709,1,-0.4418304264545441,0.503299355506897,-0.3266670107841492,-0.6669065952301025,-0.9599701762199402,-0.2604966461658478,-0.1029512658715248,0,0,0,-1,197051.031864625,3,2,1561914335.869401,1561913957.287787,16,1.221493,0,0,13.06835,0,0,1561914226.950748,197057.246759,0,1.276123,75.29314,3232235528,177845136,1,1,0.54,-23.12533,-40.63206,4
1561914344.991278,111,0,0,1561914344.015003,4.634612132799472,-74.15103790357163,2552.943,1.23,176.1328125,4,30,-9999,1561914344.960905,-20.66131591796875,21.34661674499512,-0.3037109375,356.4896240234375,3.983104228973389,15,197060.1656495417,-0.9893798828125,-0.2632293701171875,-0.112335205078125,197060.1484375417,0.1132455990334394,0.04150030558281378,0.1437228145483062,197060.1560065417,-96.22956848144531,-7.971405029296875,-563.762939453125,197060.1484375417,1.150044479736723,-1.463916760749159,0.2608204443108993,0.1106165274977684,0.03494949638843536,0.1404753923416138,-0.04574310779571533,0.009826451539993286,-0.04189026355743408,1,-0.4415624439716339,0.5034763813018799,-0.3281863331794739,-0.6662041544914246,-0.9606656432151794,-0.2578733265399933,-0.1030682846903801,0,0,0,-1,197051.031864625,3,2,1561914335.869401,1561913957.287787,16,1.221493,0,0,13.06835,0,0,1561914226.950748,197057.246759,0,1.276123,75.29314,3232235528,177845136,1,1,0.54,-23.6826,-41.35605,4
1561914345.011027,112,0,0,1561914344.015003,4.634612132799472,-74.15103790357163,2552.943,1.23,176.1328125,4,30,-9999,1561914344.990161,-20.57503509521484,21.50565338134766,-0.03741455078125,356.3009033203125,3.794369459152222,15,197060.1859135417,-0.980438232421875,-0.2635040283203125,-0.0810699462890625,197060.1687015417,0.1803945427586973,-0.1296003376037251,0.05717513912680216,197060.1761175417,-96.535888671875,-8.059112548828125,-563.9954833984375,197060.1687015417,1.153253396770985,-1.46546047960102,0.2591134103541794,0.1777654737234116,-0.136151134967804,0.0539277121424675,-0.02811992168426514,-0.007005691528320312,-0.0107039213180542,1,-0.4421366453170776,0.5036859512329102,-0.3294326663017273,-0.6650487780570984,-0.9612599611282349,-0.2562236487865448,-0.101631298661232,0,0,0,-1,197051.031864625,3,2,1561914335.869401,1561913957.287787,16,1.221493,0,0,13.06835,0,0,1561914226.950748,197057.246759,0,1.276123,75.29314,3232235528,177845136,1,1,0.54,-24.23988,-42.07439,4
1561914345.031168,113,0,0,1561914345.014119,4.634591261860574,-74.15103136568716,2552.941,1.11,177.5390625,4,30,-9999,1561914345.011302,-20.70774841308594,21.33220100402832,-0.24176025390625,356.0182800292969,3.511750936508179,15,197060.2061775417,-0.9651031494140625,-0.2432861328125,-0.0701751708984375,197060.1889655417,0.1820984332241301,-0.3012280203699906,0.03108042150176975,197060.1962285417,-96.29356384277344,-7.880386352539062,-563.7685546875,197060.1889655417,1.157315948656512,-1.471316688731079,0.2589213195749822,0.1794693619012833,-0.3077788352966309,0.0278329961001873,-0.01855075359344482,-0.00746607780456543,0.0149351954460144,1,-0.4440709948539734,0.5047755837440491,-0.3295423686504364,-0.6628758311271667,-0.9618874788284302,-0.2560379803180695,-0.09600512683391571,0,0,0,-1,197051.031864625,3,2,1561914335.869401,1561913957.287787,16,1.221493,0,0,13.06835,0,0,1561914226.950748,197057.246759,0,1.276123,75.29314,3232235528,177845136,1,1,0.54,-24.79716,-41.76156,4
1561914345.057631,114,0,0,1561914345.014119,4.634591261860574,-74.15103136568716,2552.941,1.11,177.5390625,4,30,-9999,1561914345.040108,-20.51695251464844,21.41619491577148,-0.156005859375,355.7955932617188,3.289067268371582,15,197060.2264405417,-0.9647369384765625,-0.25628662109375,-0.0721893310546875,197060.2091985417,0.1143004771412198,-0.3079567631801848,0.06731272813229779,197060.2163395417,-96.36895751953125,-7.874801635742188,-563.8226318359375,197060.2091985417,1.160463038599532,-1.478935044986452,0.2581377718955127,0.1116714030504227,-0.3145075738430023,0.06406529992818832,-0.002312660217285156,0.01199433207511902,0.01851761341094971,1,-0.4458993375301361,0.5067813992500305,-0.3291274905204773,-0.6603192687034607,-0.9627904891967773,-0.255280464887619,-0.0886927917599678,0,0,0,-1,197051.031864625,3,2,1561914335.869401,1561913957.287787,16,1.221493,0,0,13.06835,0,0,1561914226.950748,197057.246759,0,1.276123,75.29314,3232235528,177845136,1,1,0.54,-25.35444,-42.02405,4
1561914345.075947,115,0,0,1561914345.014119,4.634591261860574,-74.15103136568716,2552.941,1.11,177.5390625,4,30,-9999,1561914345.062014,-20.47071838378906,21.53238868713379,-0.05718994140625,355.6717834472656,3.165244340896606,15,197060.2467045417,-0.971588134765625,-0.2606658935546875,-0.064361572265625,197060.2294625417,0.08378091736502077,-0.210598251629613,-0.009922938221635242,197060.2364205417,-96.111572265625,-7.81427001953125,-563.8678588867188,197060.2294625417,1.162363996772711,-1.484705196208229,0.2576466735540778,0.08115184307098389,-0.2171490490436554,-0.01317036338150501,-0.00132596492767334,-0.001480996608734131,0.01095736026763916,1,-0.4471920728683472,0.5083757638931274,-0.3286161124706268,-0.6584715843200684,-0.9634110331535339,-0.2548056244850159,-0.08314666897058487,0,0,0,-1,197051.031864625,3,2,1561914335.869401,1561913957.287787,16,1.221493,0,0,13.06835,0,0,1561914226.950748,197057.246759,0,1.276123,75.29314,3232235528,177845136,1,1,0.54,-25.91172,-42.25862,4
1561914345.092011,116,0,0,1561914345.014119,4.634591261860574,-74.15103136568716,2552.941,1.11,177.5390625,4,30,-9999,1561914345.089552,-20.39328765869141,21.40705490112305,0.052734375,355.6454772949219,3.13894510269165,15,197060.2669685417,-0.9619140625,-0.2626953125,-0.0731201171875,197060.2497255417,0.01636858700795402,-0.04304307480229668,-0.03385170693210621,197060.2565315417,-96.17878723144531,-7.955780029296875,-563.4876708984375,197060.2497255417,1.163375812285227,-1.487461105997733,0.2582024872936966,0.0137395178899169,-0.04959388077259064,-0.03709913045167923,-0.008092999458312988,-0.005322843790054321,0.01611793041229248,1,-0.4480582475662231,0.5089244246482849,-0.3281619548797607,-0.6576849222183228,-0.9634951949119568,-0.2553430497646332,-0.08047947287559509,0,0,0,-1,197051.031864625,3,2,1561914335.869401,1561913957.287787,16,1.221493,0,0,13.06835,0,0,1561914226.950748,197057.246759,0,1.276123,75.29314,3232235528,177845136,1,1,0.54,-25.91172,-42.25862,4
1561914345.112917,117,0,0,1561914345.014119,4.634591261860574,-74.15103136568716,2552.941,1.11,177.5390625,4,30,-9999,1561914345.089552,-20.39328765869141,21.40705490112305,0.052734375,355.6454772949219,3.13894510269165,15,197060.287248625,-0.9421234130859375,-0.2519378662109375,-0.0713348388671875,197060.2699895417,0.0227101061956507,0.0008934905457215844,-0.07677893422698444,197060.276659625,-96.39405822753906,-8.061111450195312,-563.58935546875,197060.2699895417,1.163491154413693,-1.487832633275244,0.2593696759477075,0.02008103579282761,-0.005657315719872713,-0.08002635836601257,0.001313447952270508,-0.006223946809768677,0.006976604461669922,1,-0.4484762847423553,0.5087441802024841,-0.3277587890625,-0.657740592956543,-0.9632275104522705,-0.2564713656902313,-0.08009675890207291,0,0,0,-1,197051.031864625,3,2,1561914335.869401,1561913957.287787,16,1.221493,0,0,13.06835,0,0,1561914226.950748,197057.246759,0,1.276123,75.29314,3232235528,177845136,1,1,0.54,-26.469,-42.52053,4
1561914345.134695,118,0,0,1561914345.014119,4.634591261860574,-74.15103136568716,2552.941,1.11,177.5390625,4,30,-9999,1561914345.11308,-20.71824645996094,21.4657154083252,-0.04913330078125,355.6180419921875,3.111501216888428,15,197060.307481625,-0.9393157958984375,-0.2421722412109375,-0.060699462890625,197060.290270625,0.03944833996290772,-0.05099926855890841,-0.06469004709078775,197060.296770625,-96.45538330078125,-7.817962646484375,-563.4954223632812,197060.290270625,1.164003296845394,-1.4885615183748,0.2609640288435442,0.03681927174329758,-0.05755007639527321,-0.06793747097253799,0.02075326442718506,0.00607416033744812,0.008026123046875,1,-0.4491732716560364,0.5084908008575439,-0.3272745311260223,-0.6577019095420837,-0.9628766775131226,-0.258012056350708,-0.0793609544634819,0,0,0,-1,197051.031864625,3,2,1561914335.869401,1561913957.287787,16,1.221493,0,0,13.06835,0,0,1561914226.950748,197057.246759,0,1.276123,75.29314,3232235528,177845136,1,1,0.54,-27.02628,-42.82321,4
1561914345.152725,119,0,0,1561914345.014119,4.634591261860574,-74.15103136568716,2552.941,1.11,177.5390625,4,30,-9999,1561914345.139698,-20.70726013183594,21.44515609741211,0.13519287109375,355.558837890625,3.052304744720459,15,197060.327745625,-0.9248504638671875,-0.242889404296875,-0.055999755859375,197060.310533625,0.05006689586127167,-0.1476445855695569,-0.003384611429381704,197060.316850625,-96.57984924316406,-8.028915405273438,-563.609130859375,197060.310533625,1.164852630055156,-1.490700052910449,0.261882136628859,0.04743782803416252,-0.1541953831911087,-0.006632036063820124,0.02349174022674561,0.01672676205635071,0.0165831446647644,1,-0.4499961733818054,0.5087849497795105,-0.3267911076545715,-0.657151997089386,-0.9628075957298279,-0.2588989734649658,-0.07728263735771179,0,0,0,-1,197051.031864625,3,2,1561914335.869401,1561913957.287787,16,1.221493,0,0,13.06835,0,0,1561914226.950748,197057.246759,0,1.276123,75.29314,3232235528,177845136,1,1,0.54,-27.58356,-43.47526,4
1561914345.174602,120,0,0,1561914345.014119,4.634591261860574,-74.15103136568716,2552.941,1.11,177.5390625,4,30,-9999,1561914345.163201,-20.55230712890625,21.43174743652344,-0.08087158203125,355.4810180664062,2.974480152130127,15,197060.348009625,-0.945648193359375,-0.2457733154296875,-0.063201904296875,197060.330797625,0.05567045311090739,-0.2363893688903764,0.02289519589141121,197060.336961625,-96.47767639160156,-7.917617797851562,-563.3192749023438,197060.330797625,1.165885637210875,-1.495259476509646,0.2617185935988491,0.05304138362407684,-0.2429401725530624,0.01964777149260044,0.03834176063537598,0.01585158705711365,0.01689541339874268,1,-0.4509578347206116,0.5100876688957214,-0.3261535167694092,-0.6557983160018921,-0.9631922245025635,-0.2587409913539886,-0.07289519906044006,0,0,0,-1,197051.031864625,3,2,1561914335.869401,1561913957.287787,16,1.221493,0,0,13.06835,0,0,1561914226.950748,197057.246759,0,1.276123,75.29314,3232235528,177845136,1,1,0.54,-28.14084,-43.68319,4
