loggingTime,loggingSample,identifierForVendor,deviceID,locationTimestamp_since1970,locationLatitude,locationLongitude,locationAltitude,locationSpeed,locationCourse,locationVerticalAccuracy,locationHorizontalAccuracy,locationFloor,locationHeadingTimestamp_since1970,locationHeadingX,locationHeadingY,locationHeadingZ,locationTrueHeading,locationMagneticHeading,locationHeadingAccuracy,accelerometerTimestamp_sinceReboot,accelerometerAccelerationX,accelerometerAccelerationY,accelerometerAccelerationZ,gyroTimestamp_sinceReboot,gyroRotationX,gyroRotationY,gyroRotationZ,magnetometerTimestamp_sinceReboot,magnetometerX,magnetometerY,magnetometerZ,motionTimestamp_sinceReboot,motionYaw,motionRoll,motionPitch,motionRotationRateX,motionRotationRateY,motionRotationRateZ,motionUserAccelerationX,motionUserAccelerationY,motionUserAccelerationZ,motionAttitudeReferenceFrame,motionQuaternionX,motionQuaternionY,motionQuaternionZ,motionQuaternionW,motionGravityX,motionGravityY,motionGravityZ,motionMagneticFieldX,motionMagneticFieldY,motionMagneticFieldZ,motionMagneticFieldCalibrationAccuracy,activityTimestamp_sinceReboot,activity,activityActivityConfidence,activityActivityStartDate,pedometerStartDate,pedometerNumberofSteps,pedometerAverageActivePace,pedometerCurrentPace,pedometerCurrentCadence,pedometerDistance,pedometerFloorAscended,pedometerFloorDescended,pedometerEndDate,altimeterTimestamp_sinceReboot,altimeterReset,altimeterRelativeAltitude,altimeterPressure,IP_en0,IP_pdp_ip0,deviceOrientation,batteryState,batteryLevel,avAudioRecorderPeakPower,avAudioRecorderAveragePower,label
1561914352.497691,1,0,0,1561914352.009297,4.634532672357405,-74.15115298710218,2553.021,1.64,211.640625,4,50,-9999,1561914352.485453,-21.51853179931641,19.79337692260742,3.570556640625,358.316650390625,5.81013011932373,15,197067.66198575,-0.950347900390625,-0.3102569580078125,0.040985107421875,197067.64474375,0.04309287591468116,0.05110765921527463,-0.003744138176542401,197067.63595475,-97.36625671386719,-9.758544921875,-559.8968505859375,197067.64474375,1.118381210388403,-1.599338496611203,0.3158279707963071,0.04043928161263466,0.04453190043568611,-0.006988454610109329,-0.00840461254119873,0.0004229545593261719,0.007281780242919922,1,-0.4686082601547241,0.5421897172927856,-0.2695317268371582,-0.6432646512985229,-0.9501525163650513,-0.3106035888195038,0.02712678164243698,0,0,0,-1,197063.341071,3,2,1561914348.178607,1561913957.287787,16,1.221493,0,0,13.06835,0,0,1561914226.950748,197064.808535,0,1.149414,75.29433,3232235528,177845136,1,1,0.54,-17.08326,-36.49746,5
1561914352.515618,2,0,0,1561914352.009297,4.634532672357405,-74.15115298710218,2553.021,1.64,211.640625,4,50,-9999,1561914352.511584,-21.50243377685547,19.90900421142578,3.322998046875,358.22314453125,5.716604232788086,15,197067.68224975,-0.954620361328125,-0.3163909912109375,0.041961669921875,197067.66500675,0.0645944396076539,0.008828645329721682,-0.01127715563594053,197067.65606575,-97.26039123535156,-9.481903076171875,-560.1975708007812,197067.66500675,1.119532881731413,-1.599215295551013,0.3159877633701503,0.06194084510207176,0.002252885140478611,-0.01452147215604782,-0.0002418160438537598,0.0004985034465789795,0.0139768123626709,1,-0.4689456224441528,0.5418432950973511,-0.2698783576488495,-0.6431652307510376,-0.9501060843467712,-0.3107554912567139,0.027008306235075,0,0,0,-1,197063.341071,3,2,1561914348.178607,1561913957.287787,16,1.221493,0,0,13.06835,0,0,1561914226.950748,197064.808535,0,1.149414,75.29433,3232235528,177845136,1,1,0.54,-17.08326,-37.13364,5
1561914352.527378,3,0,0,1561914352.009297,4.634532672357405,-74.15115298710218,2553.021,1.64,211.640625,4,50,-9999,1561914352.511584,-21.50243377685547,19.90900421142578,3.322998046875,358.22314453125,5.716604232788086,15,197067.70251275,-0.9558258056640625,-0.3225860595703125,0.0406494140625,197067.68527075,0.05676820811223805,0.002431466075242345,-0.02786465448549907,197067.67617675,-97.40519714355469,-9.240188598632812,-560.3338012695312,197067.68527075,1.120842587116093,-1.599757223147298,0.3163722008853054,0.05411461368203163,-0.004144294187426567,-0.03110896982252598,-0.004648447036743164,-0.005270093679428101,0.01444196701049805,1,-0.4694740474224091,0.5416216254234314,-0.2700457870960236,-0.6428961753845215,-0.9499719142913818,-0.311120867729187,0.02751973271369934,0,0,0,-1,197063.341071,3,2,1561914348.178607,1561913957.287787,16,1.221493,0,0,13.06835,0,0,1561914226.950748,197064.808535,0,1.149414,75.29433,3232235528,177845136,1,1,0.54,-17.08326,-37.81969,5
1561914352.547638,4,0,0,1561914352.009297,4.634532672357405,-74.15115298710218,2553.021,1.64,211.640625,4,50,-9999,1561914352.533817,-21.31612396240234,19.96722221374512,3.21893310546875,358.1552429199219,5.648697376251221,15,197067.72277675,-0.9479522705078125,-0.324005126953125,0.040130615234375,197067.70553475,0.03691247797293427,0.02930462568690491,-0.03198376574352463,197067.69628775,-97.2650146484375,-9.515396118164062,-560.2987060546875,197067.70553475,1.121790044394767,-1.599846502844292,0.3170414266023862,0.03426005318760872,0.02273005433380604,-0.03522823005914688,-0.006064891815185547,-0.01082924008369446,0.01305091381072998,1,-0.469917505979538,0.541273295879364,-0.2701090574264526,-0.6428388357162476,-0.949760913848877,-0.311756819486618,0.02759848721325397,0,0,0,-1,197063.341071,3,2,1561914348.178607,1561913957.287787,16,1.221493,0,0,13.06835,0,0,1561914226.950748,197064.808535,0,1.149414,75.29433,3232235528,177845136,1,1,0.54,-17.08326,-38.11823,5
1561914352.574553,5,0,0,1561914352.009297,4.634532672357405,-74.15115298710218,2553.021,1.64,211.640625,4,50,-9999,1561914352.558247,-21.69577789306641,20.09461402893066,3.410400390625,358.1078796386719,5.601356029510498,15,197067.74300975,-0.9459381103515625,-0.32373046875,0.039459228515625,197067.72579775,0.03176059284417599,0.01831668934534698,-0.03949494528198411,197067.71639875,-97.30317687988281,-9.397659301757812,-560.2197265625,197067.72579775,1.122467154065699,-1.59966195714872,0.3178198170668133,0.02910816669464111,0.01174211874604225,-0.04273940995335579,0.001571059226989746,-0.01150882244110107,0.01271438598632812,1,-0.4702789783477783,0.5408750176429749,-0.2701139152050018,-0.6429077982902527,-0.9495233297348022,-0.3124963045120239,0.02741620503365993,0,0,0,-1,197063.341071,3,2,1561914348.178607,1561913957.287787,16,1.221493,0,0,13.06835,0,0,1561914226.950748,197064.808535,0,1.149414,75.29433,3232235528,177845136,1,1,0.54,-17.64054,-38.57564,5
1561914352.591078,6,0,0,1561914352.009297,4.634532672357405,-74.15115298710218,2553.021,1.64,211.640625,4,50,-9999,1561914352.585134,-21.54320526123047,19.99986839294434,3.3759765625,358.0602722167969,5.553726673126221,15,197067.76327375,-0.9521331787109375,-0.3260955810546875,0.031890869140625,197067.74606175,0.03046070391610831,-0.01212324191425871,-0.03751035763765706,197067.73650975,-97.34365844726562,-9.463485717773438,-560.1834716796875,197067.74606175,1.123097613397554,-1.599953241423457,0.3186185872326818,0.02780827879905701,-0.01869781315326691,-0.04075482115149498,0.003327429294586182,-0.01047548651695251,0.01177370548248291,1,-0.4706971943378448,0.5406356453895569,-0.2699851393699646,-0.6428571939468384,-0.9492655396461487,-0.3132549822330475,0.02768549881875515,0,0,0,-1,197063.341071,3,2,1561914348.178607,1561913957.287787,16,1.221493,0,0,13.06835,0,0,1561914226.950748,197064.808535,0,1.149414,75.29433,3232235528,177845136,1,1,0.54,-17.64054,-38.57564,5
1561914352.608628,7,0,0,1561914352.009297,4.634532672357405,-74.15115298710218,2553.021,1.64,211.640625,4,50,-9999,1561914352.585134,-21.54320526123047,19.99986839294434,3.3759765625,358.0602722167969,5.553726673126221,15,197067.78353775,-0.953338623046875,-0.3267974853515625,0.0226898193359375,197067.76632575,0.04447532283654129,-0.02494369940190016,-0.05853921023714075,197067.75662075,-97.07968139648438,-9.725128173828125,-560.3097534179688,197067.76632575,1.123881100366322,-1.600828817246281,0.3195763867398488,0.0418228954076767,-0.03151827305555344,-0.06178367137908936,-0.003192603588104248,-0.01193118095397949,0.003383278846740723,1,-0.4712767601013184,0.540510892868042,-0.2697153985500336,-0.6426506638526917,-0.9489405751228333,-0.3141644299030304,0.02850762009620667,0,0,0,-1,197063.341071,3,2,1561914348.178607,1561913957.287787,16,1.221493,0,0,13.06835,0,0,1561914226.950748,197064.808535,0,1.149414,75.29433,3232235528,177845136,1,1,0.54,-18.19782,-39.34145,5
1561914352.628638,8,0,0,1561914352.009297,4.634532672357405,-74.15115298710218,2553.021,1.64,211.640625,4,50,-9999,1561914352.608837,-21.58910369873047,19.93453216552734,3.18035888671875,357.9875183105469,5.480989456176758,15,197067.80380075,-0.9498291015625,-0.3282928466796875,0.0246124267578125,197067.78658875,0.05130233629095942,0.007401723617657226,-0.07176766400378233,197067.77670175,-97.30409240722656,-9.470199584960938,-560.461669921875,197067.78658875,1.124930100303441,-1.601512341176352,0.3210271558896994,0.04864991083741188,0.0008271518163383007,-0.07501213252544403,-0.004874467849731445,-0.01125609874725342,-0.006452441215515137,1,-0.4720299243927002,0.540147066116333,-0.2694134116172791,-0.6425303816795349,-0.9484642148017883,-0.3155414164066315,0.02914220467209816,0,0,0,-1,197063.341071,3,2,1561914348.178607,1561913957.287787,16,1.221493,0,0,13.06835,0,0,1561914226.950748,197064.808535,0,1.149414,75.29433,3232235528,177845136,1,1,0.54,-18.7551,-39.90372,5
1561914352.656203,9,0,0,1561914352.009297,4.634532672357405,-74.15115298710218,2553.021,1.64,211.640625,4,50,-9999,1561914352.635171,-21.53408813476562,19.75516891479492,3.26434326171875,357.9122009277344,5.40568208694458,15,197067.82406475,-0.9401092529296875,-0.3287506103515625,0.030517578125,197067.80685275,0.05068874397580517,-0.02235803629954223,-0.05263551473265309,197067.79681275,-97.49168395996094,-9.438796997070312,-560.4627685546875,197067.80685275,1.125977971878217,-1.601938593485741,0.32234440905617,0.04803631827235222,-0.02893260680139065,-0.05587997660040855,-0.001793742179870605,-0.0115017294883728,-0.004921078681945801,1,-0.4727125763893127,0.5397310256958008,-0.2692154049873352,-0.6424611210823059,-0.9480354189872742,-0.3167910873889923,0.02953352034091949,0,0,0,-1,197063.341071,3,2,1561914348.178607,1561913957.287787,16,1.221493,0,0,13.06835,0,0,1561914226.950748,197064.808535,0,1.149414,75.29433,3232235528,177845136,1,1,0.54,-19.31237,-40.45512,5
1561914352.669163,10,0,0,1561914352.009297,4.634532672357405,-74.15115298710218,2553.021,1.64,211.640625,4,50,-9999,1561914352.659608,-21.60797119140625,19.9713191986084,3.33477783203125,357.8111267089844,5.304591655731201,15,197067.84432875,-0.94342041015625,-0.33111572265625,0.0244598388671875,197067.82708575,0.07298153282864045,-0.1079605558501772,-0.07204037169940646,197067.81692375,-97.53215026855469,-9.634750366210938,-560.1663208007812,197067.82708575,1.127330366247238,-1.603897813541372,0.323584753922122,0.07032909989356995,-0.1145351231098175,-0.07528483867645264,0.007472872734069824,-0.01078328490257263,-0.0008602142333984375,1,-0.4736628532409668,0.539752185344696,-0.2687772810459137,-0.6419265866279602,-0.9475821852684021,-0.3179672956466675,0.03137784078717232,0,0,0,-1,197063.341071,3,2,1561914348.178607,1561913957.287787,16,1.221493,0,0,13.06835,0,0,1561914226.950748,197064.808535,0,1.149414,75.29433,3232235528,177845136,1,1,0.54,-19.86965,-40.99054,5
1561914352.690223,11,0,0,1561914352.009297,4.634532672357405,-74.15115298710218,2553.021,1.64,211.640625,4,50,-9999,1561914352.685818,-21.51646423339844,19.982421875,3.2960205078125,357.7643127441406,5.25777530670166,15,197067.86459175,-0.9409027099609375,-0.33172607421875,0.0214691162109375,197067.84734975,0.03041063648761482,-0.05923962160383158,-0.09553504515219449,197067.83703475,-97.38525390625,-9.444625854492188,-560.0574340820312,197067.84734975,1.128563125832744,-1.606423440517676,0.3253609588018849,0.02775821089744568,-0.06581419706344604,-0.09877951443195343,0.003513753414154053,-0.011464923620224,-0.009290933609008789,1,-0.4747940003871918,0.5398574471473694,-0.2679879665374756,-0.6413322687149048,-0.9469341635704041,-0.3196508288383484,0.03375081345438957,0,0,0,-1,197063.341071,3,2,1561914348.178607,1561913957.287787,16,1.221493,0,0,13.06835,0,0,1561914226.950748,197064.808535,0,1.149414,75.29433,3232235528,177845136,1,1,0.54,-20.42693,-41.03461,5
1561914352.709851,12,0,0,1561914352.009297,4.634532672357405,-74.15115298710218,2553.021,1.64,211.640625,4,50,-9999,1561914352.685818,-21.51646423339844,19.982421875,3.2960205078125,357.7643127441406,5.25777530670166,15,197067.88485575,-0.9312896728515625,-0.3238372802734375,0.0186614990234375,197067.86761375,-0.0127448237126832,0.03033793218985566,-0.09699845217119303,197067.85714575,-97.49606323242188,-9.427841186523438,-560.3128662109375,197067.86761375,1.128698896105518,-1.606788189018046,0.3273853608846084,-0.01539724972099066,0.02376336045563221,-0.1002429202198982,0.005370378494262695,-0.01015773415565491,-0.012603759765625,1,-0.4754021167755127,0.5394712686538696,-0.2672764658927917,-0.6415035724639893,-0.9462730884552002,-0.3215683698654175,0.03407284617424011,0,0,0,-1,197063.341071,3,2,1561914348.178607,1561913957.287787,16,1.221493,0,0,13.06835,0,0,1561914226.950748,197064.808535,0,1.149414,75.29433,3232235528,177845136,1,1,0.54,-20.98421,-41.68071,5
1561914352.735629,13,0,0,1561914352.009297,4.634532672357405,-74.15115298710218,2553.021,1.64,211.640625,4,50,-9999,1561914352.710024,-21.73577117919922,19.87169647216797,3.42816162109375,357.767578125,5.261041641235352,15,197067.90511975,-0.9259490966796875,-0.326019287109375,0.0235137939453125,197067.88787675,0.01832947251857937,0.04112080512747748,-0.07283319475592304,197067.87725675,-97.3302001953125,-9.28179931640625,-560.4032592773438,197067.88787675,1.128717901809092,-1.606073975166537,0.3292230115055218,0.01567704603075981,0.03454623371362686,-0.0760776624083519,0.01441550254821777,-0.0005294084548950195,-0.01471459865570068,1,-0.475785881280899,0.5388096570968628,-0.2668455243110657,-0.6419544816017151,-0.945705235004425,-0.3233078718185425,0.03337610140442848,0,0,0,-1,197063.341071,3,2,1561914348.178607,1561913957.287787,16,1.221493,0,0,13.06835,0,0,1561914226.950748,197064.808535,0,1.149414,75.29433,3232235528,177845136,1,1,0.54,-21.54149,-40.95227,5
1561914352.750232,14,0,0,1561914352.009297,4.634532672357405,-74.15115298710218,2553.021,1.64,211.640625,4,50,-9999,1561914352.736695,-21.76611328125,19.83827018737793,3.2093505859375,357.7156066894531,5.209076404571533,15,197067.92535275,-0.924560546875,-0.3319549560546875,0.0280914306640625,197067.90814075,0.04866527417956296,0.00116726350578173,-0.03852022832301511,197067.89736775,-97.5089111328125,-9.507110595703125,-560.3175048828125,197067.90814075,1.129441010766427,-1.605962984492673,0.3302916464480945,0.04601284861564636,-0.005407308228313923,-0.04176469147205353,0.01941382884979248,-0.001700371503829956,-0.009745121002197266,1,-0.4762413501739502,0.5383527278900146,-0.2667510807514191,-0.6420392394065857,-0.94536292552948,-0.324318915605545,0.03325896710157394,0,0,0,-1,197063.341071,3,2,1561914348.178607,1561913957.287787,16,1.221493,0,0,13.06835,0,0,1561914226.950748,197064.808535,0,1.149414,75.29433,3232235528,177845136,1,1,0.54,-21.54149,-40.95227,5
1561914352.770446,15,0,0,1561914352.009297,4.634532672357405,-74.15115298710218,2553.021,1.64,211.640625,4,50,-9999,1561914352.760643,-21.78932952880859,19.92832374572754,3.2724609375,357.6358337402344,5.129306316375732,15,197067.94561675,-0.9327545166015625,-0.3292236328125,0.0309600830078125,197067.92840475,0.05590960497679651,-0.009299758526556699,-0.03301946909145644,197067.91747875,-97.54539489746094,-9.619384765625,-560.2858276367188,197067.92840475,1.130579120250505,-1.60663354022422,0.3311029020524245,0.05325717851519585,-0.01587432995438576,-0.03626393154263496,0.02051675319671631,-0.006868720054626465,-0.005792021751403809,1,-0.4768459796905518,0.5381074547767639,-0.2666886448860168,-0.6418220400810242,-0.9450772404670715,-0.325086236000061,0.03388344123959541,0,0,0,-1,197063.341071,3,2,1561914348.178607,1561913957.287787,16,1.221493,0,0,13.06835,0,0,1561914226.950748,197064.808535,0,1.149414,75.29433,3232235528,177845136,1,1,0.54,-22.09877,-40.98829,5
1561914352.791544,16,0,0,1561914352.009297,4.634532672357405,-74.15115298710218,2553.021,1.64,211.640625,4,50,-9999,1561914352.760643,-21.78932952880859,19.92832374572754,3.2724609375,357.6358337402344,5.129306316375732,15,197067.96587975,-0.9361419677734375,-0.32733154296875,0.030426025390625,197067.94866775,0.04211096842076895,0.02159344275058048,-0.03630447829606918,197067.93758975,-97.53086853027344,-9.338653564453125,-560.1199951171875,197067.94866775,1.131562789977844,-1.606989065116143,0.3318550035435399,0.03945854306221008,0.01501887105405331,-0.03954894095659256,0.01206612586975098,-0.003426253795623779,-0.003250479698181152,1,-0.4773514270782471,0.5378112196922302,-0.2666710317134857,-0.6417019963264465,-0.9448206424713135,-0.3257973790168762,0.03421058505773544,0,0,0,-1,197063.341071,3,2,1561914348.178607,1561913957.287787,16,1.221493,0,0,13.06835,0,0,1561914226.950748,197064.808535,0,1.149414,75.29433,3232235528,177845136,1,1,0.54,-22.65605,-41.86557,5
1561914352.816939,17,0,0,1561914352.009297,4.634532672357405,-74.15115298710218,2553.021,1.64,211.640625,4,50,-9999,1561914352.811361,-21.69891357421875,19.76258087158203,3.14593505859375,357.506103515625,4.999571323394775,15,197067.98614375,-0.9268798828125,-0.3299713134765625,0.0311279296875,197067.96893175,0.04590757087078591,0.02321504153832973,-0.03203862686198026,197067.95767075,-97.48193359375,-9.410171508789062,-560.2661743164062,197067.96893175,1.13248167056946,-1.606804375417439,0.3325777761980753,0.04325514659285545,0.01664046943187714,-0.03528308868408203,0.008449316024780273,-0.0008508861064910889,-0.003601551055908203,1,-0.4777595996856689,0.5373635292053223,-0.2667711675167084,-0.6417315602302551,-0.944591224193573,-0.3264806270599365,0.0340275950729847,0,0,0,-1,197063.341071,3,2,1561914348.178607,1561913957.287787,16,1.221493,0,0,13.06835,0,0,1561914226.950748,197064.808535,0,1.149414,75.29433,3232235528,177845136,1,1,0.54,-23.21333,-42.33511,5
1561914352.83125,18,0,0,1561914352.009297,4.634532672357405,-74.15115298710218,2553.021,1.64,211.640625,4,50,-9999,1561914352.811361,-21.69891357421875,19.76258087158203,3.14593505859375,357.506103515625,4.999571323394775,15,197068.00640775,-0.9248046875,-0.328399658203125,0.02886962890625,197067.98916475,0.0421061747308068,0.003237338621100322,-0.04252988366023841,197067.97778175,-97.56434631347656,-9.49658203125,-560.4032592773438,197067.98916475,1.133394226125643,-1.607006642329713,0.3333336965200806,0.03945374861359596,-0.003337233094498515,-0.04577434808015823,0.01745760440826416,-0.002776294946670532,-0.003081798553466797,1,-0.4782258272171021,0.5370334386825562,-0.2667659223079681,-0.6416628360748291,-0.9443374872207642,-0.3271950483322144,0.0342097133398056,0,0,0,-1,197063.341071,3,2,1561914348.178607,1561913957.287787,16,1.221493,0,0,13.06835,0,0,1561914226.950748,197064.808535,0,1.149414,75.29433,3232235528,177845136,1,1,0.54,-23.77061,-42.50636,5
1561914352.8521,19,0,0,1561914352.009297,4.634532672357405,-74.15115298710218,2553.021,1.64,211.640625,4,50,-9999,1561914352.839713,-21.81631469726562,19.70587158203125,3.07611083984375,357.4618225097656,4.955285549163818,15,197068.02667075,-0.9141387939453125,-0.3205718994140625,0.022308349609375,197068.00942875,0.01989434597510992,0.07562099178501798,-0.02701963347161693,197067.99789275,-97.68833923339844,-9.630325317382812,-560.3252563476562,197068.00942875,1.134042164081071,-1.60659413321643,0.3341449613897809,0.01724192127585411,0.06904642283916473,-0.03026409819722176,0.01928126811981201,-0.0004380941390991211,-0.004940986633300781,1,-0.4785529375076294,0.53655606508255,-0.2668045163154602,-0.6418022513389587,-0.944085955619812,-0.3279615342617035,0.03381064906716347,0,0,0,-1,197063.341071,3,2,1561914348.178607,1561913957.287787,16,1.221493,0,0,13.06835,0,0,1561914226.950748,197064.808535,0,1.149414,75.29433,3232235528,177845136,1,1,0.54,-24.32788,-31.73154,5
1561914352.874243,20,0,0,1561914352.009297,4.634532672357405,-74.15115298710218,2553.021,1.64,211.640625,4,50,-9999,1561914352.862025,-21.89652252197266,19.69869041442871,3.17431640625,357.4017028808594,4.895165920257568,15,197068.04693475,-0.9055328369140625,-0.3180999755859375,0.028778076171875,197068.02969175,0.05230421749304723,0.08428132533384666,-0.006493585685940206,197068.01800375,-97.57533264160156,-9.6951904296875,-560.4276123046875,197068.02969175,1.134634779111833,-1.605118535353104,0.3345268123952215,0.04965179041028023,0.07770675420761108,-0.009738050401210785,0.02987074851989746,0.007750362157821655,-0.01010489463806152,1,-0.4786128401756287,0.5358510613441467,-0.2672217488288879,-0.6421728730201721,-0.94400954246521,-0.3283222615718842,0.03241322189569473,0,0,0,-1,197063.341071,3,2,1561914348.178607,1561913957.287787,16,1.221493,0,0,13.06835,0,0,1561914226.950748,197064.808535,0,1.149414,75.29433,3232235528,177845136,1,1,0.54,-24.88516,-32.28725,5
1561914352.897973,21,0,0,1561914352.009297,4.634532672357405,-74.15115298710218,2553.021,1.64,211.640625,4,50,-9999,1561914352.889443,-22.11968994140625,19.8543586730957,3.1375732421875,357.2860717773438,4.779534339904785,15,197068.06719875,-0.91217041015625,-0.31744384765625,0.035186767578125,197068.04995575,0.08151749675456242,0.04955503629975843,0.03920519335538349,197068.03811475,-97.67182922363281,-9.818832397460938,-560.83203125,197068.04995575,1.136117723508466,-1.604428125733898,0.334282128454973,0.07886506617069244,0.04298046603798866,0.03596073016524315,0.03857910633087158,0.00999113917350769,-0.00298607349395752,1,-0.478854775428772,0.5353318452835083,-0.2679438889026642,-0.6421246528625488,-0.9441119432449341,-0.3280911147594452,0.03176416084170341,0,0,0,-1,197063.341071,3,2,1561914348.178607,1561913957.287787,16,1.221493,0,0,13.06835,0,0,1561914226.950748,197064.808535,0,1.149414,75.29433,3232235528,177845136,1,1,0.54,-25.44244,-32.7113,5
1561914352.912334,22,0,0,1561914352.009297,4.634532672357405,-74.15115298710218,2553.021,1.64,211.640625,4,50,-9999,1561914352.889443,-22.11968994140625,19.8543586730957,3.1375732421875,357.2860717773438,4.779534339904785,15,197068.08746175,-0.92449951171875,-0.3273773193359375,0.0344696044921875,197068.07021975,0.08105703620208772,-0.0001813612702343961,0.06620245627384375,197068.05819575,-97.64741516113281,-9.573822021484375,-560.47607421875,197068.07021975,1.137729946476999,-1.604531145573874,0.3331433232775732,0.07840460538864136,-0.006755932699888945,0.06295798718929291,0.0323108434677124,0.009571284055709839,0.003312826156616211,1,-0.4790078401565552,0.5352461934089661,-0.2688122093677521,-0.6417186856269836,-0.9444812536239624,-0.3270151317119598,0.03187399730086327,0,0,0,-1,197063.341071,3,2,1561914348.178607,1561913957.287787,16,1.221493,0,0,13.06835,0,0,1561914226.950748,197064.808535,0,1.149414,75.29433,3232235528,177845136,1,1,0.54,-25.44244,-32.7113,5
1561914352.932394,23,0,0,1561914352.009297,4.634532672357405,-74.15115298710218,2553.021,1.64,211.640625,4,50,-9999,1561914352.913222,-21.91915893554688,19.87195587158203,3.05987548828125,357.1638488769531,4.657305240631104,15,197068.10769475,-0.932220458984375,-0.3327178955078125,0.031097412109375,197068.09048275,0.08388584591196989,-0.02185176937631816,0.04041107269697137,197068.09841775,-97.90284729003906,-9.4346923828125,-560.3994140625,197068.09048275,1.13950083130248,-1.605645113453255,0.3320707688774775,0.08123341947793961,-0.02842633984982967,0.03716661036014557,0.02029573917388916,-0.001375943422317505,0.001531362533569336,1,-0.4793566167354584,0.5354310274124146,-0.2694668173789978,-0.6410291790962219,-0.9447952508926392,-0.32600137591362,0.03293830156326294,0,0,0,-1,197063.341071,3,2,1561914348.178607,1561913957.287787,16,1.221493,0,0,13.06835,0,0,1561914226.950748,197064.808535,0,1.149414,75.29433,3232235528,177845136,1,1,0.54,-25.99972,-33.65864,5
1561914352.952557,24,0,0,1561914352.009297,4.634532672357405,-74.15115298710218,2553.021,1.64,211.640625,4,50,-9999,1561914352.939467,-21.78668975830078,19.91810989379883,2.88983154296875,357.0779418945312,4.571398735046387,15,197068.12795875,-0.92572021484375,-0.3227081298828125,0.0301361083984375,197068.11074675,0.03560832798712247,0.03815457630534723,0.02048237194379942,197068.11852875,-97.78802490234375,-9.41436767578125,-560.4368896484375,197068.11074675,1.140725629947028,-1.606108813747837,0.3315425305078529,0.03295590355992317,0.03158000484108925,0.01723790727555752,0.01273143291473389,-0.007215946912765503,-0.002285003662109375,1,-0.4796116352081299,0.5354100465774536,-0.2699222266674042,-0.640664279460907,-0.9449518918991089,-0.325501948595047,0.03338247537612915,0,0,0,-1,197063.341071,3,2,1561914348.178607,1561913957.287787,16,1.221493,0,0,13.06835,0,0,1561914226.950748,197064.808535,0,1.149414,75.29433,3232235528,177845136,1,1,0.54,-26.557,-34.55911,5
1561914352.978653,25,0,0,1561914352.009297,4.634532672357405,-74.15115298710218,2553.021,1.64,211.640625,4,50,-9999,1561914352.963385,-21.97402191162109,19.90621376037598,3.029296875,357.0328063964844,4.526268482208252,15,197068.14822275,-0.92132568359375,-0.314300537109375,0.0311279296875,197068.13101075,0.03752686923641555,0.07032369806074137,0.02964178188090895,197068.13863975,-97.68388366699219,-9.736953735351562,-560.5752563476562,197068.13101075,1.141294527689151,-1.605142758929235,0.3311612200167198,0.03487444296479225,0.06374912708997726,0.02639731578528881,0.01938748359680176,0.002433240413665771,-0.00233769416809082,1,-0.4795356392860413,0.5350537300109863,-0.270461767911911,-0.6407912969589233,-0.945107638835907,-0.3251413702964783,0.0324738472700119,0,0,0,-1,197063.341071,3,2,1561914348.178607,1561913957.287787,16,1.221493,0,0,13.06835,0,0,1561914226.950748,197064.808535,0,1.149414,75.29433,3232235528,177845136,1,1,0.54,-27.11428,-35.40703,5
1561914352.99327,26,0,0,1561914352.009297,4.634532672357405,-74.15115298710218,2553.021,1.64,211.640625,4,50,-9999,1561914352.990374,-22.07843017578125,19.89944458007812,2.8453369140625,356.9123840332031,4.405842304229736,15,197068.16848575,-0.9288787841796875,-0.31427001953125,0.0359039306640625,197068.15127375,0.08346666435639143,0.03460671310114367,0.06174272671239706,197068.15875075,-97.73782348632812,-9.424514770507812,-560.70361328125,197068.15127375,1.142482909652911,-1.604550748639302,0.3302970101233308,0.08081423491239548,0.02803214266896248,0.05849826335906982,0.02408146858215332,0.01002347469329834,-0.0007958412170410156,1,-0.4795517325401306,0.5347822308540344,-0.2712689936161041,-0.6406646370887756,-0.9454071521759033,-0.3243240118026733,0.0319237969815731,0,0,0,-1,197063.341071,3,2,1561914348.178607,1561913957.287787,16,1.221493,0,0,13.06835,0,0,1561914226.950748,197064.808535,0,1.149414,75.29433,3232235528,177845136,1,1,0.54,-27.67156,-36.24125,5
1561914353.014161,27,0,0,1561914352.009297,4.634532672357405,-74.15115298710218,2553.021,1.64,211.640625,4,50,-9999,1561914352.990374,-22.07843017578125,19.89944458007812,2.8453369140625,356.9123840332031,4.405842304229736,15,197068.18874975,-0.940826416015625,-0.321746826171875,0.0353240966796875,197068.17150775,0.09913191052045552,0.02592827005690245,0.07953610490354347,197068.17886175,-97.70010375976562,-9.5157470703125,-560.6795654296875,197068.17150775,1.144449885737657,-1.60477617260034,0.3288494213834767,0.09647948294878006,0.01935369893908501,0.07629163563251495,0.01698935031890869,0.008684277534484863,0.003751039505004883,1,-0.4797371625900269,0.5347229838371277,-0.2723211050033569,-0.6401286721229553,-0.9458681344985962,-0.3229543268680573,0.03215282782912254,0,0,0,-1,197063.341071,3,2,1561914348.178607,1561913957.287787,16,1.221493,0,0,13.06835,0,0,1561914226.950748,197065.753685,0,1.17041,75.29413,3232235528,177845136,1,1,0.54,-28.22884,-37.08423,5
1561914353.033816,28,0,0,1561914353.015784,4.63452512864455,-74.15117536678365,2553.034,1.75,211.9921875,4,50,-9999,1561914353.025558,-21.9300537109375,20.06553649902344,2.7357177734375,356.7738037109375,4.267257213592529,15,197068.20901375,-0.9460906982421875,-0.3253021240234375,0.035858154296875,197068.19177075,0.08214067644964097,0.05333965452487004,0.07698453026313855,197068.19897275,-97.69184875488281,-9.326278686523438,-560.675048828125,197068.19177075,1.146313598046063,-1.604824236767927,0.3272680858051457,0.07948824763298035,0.04676508158445358,0.07374006509780884,0.005549430847167969,-0.00028952956199646,0.003108501434326172,1,-0.479836642742157,0.5346630811691284,-0.2734258770942688,-0.6396330595016479,-0.946375846862793,-0.3214573264122009,0.03221562877297401,0,0,0,-1,197063.341071,3,2,1561914348.178607,1561913957.287787,16,1.221493,0,0,13.06835,0,0,1561914226.950748,197065.753685,0,1.17041,75.29413,3232235528,177845136,1,1,0.54,-28.22884,-37.08423,5
1561914353.060689,29,0,0,1561914353.015784,4.63452512864455,-74.15117536678365,2553.034,1.75,211.9921875,4,50,-9999,1561914353.025558,-21.9300537109375,20.06553649902344,2.7357177734375,356.7738037109375,4.267257213592529,15,197068.22927675,-0.947479248046875,-0.3244781494140625,0.0416259765625,197068.21203475,0.0675854358279219,0.04753476229682432,0.05845532066280325,197068.21905375,-97.54014587402344,-9.226608276367188,-560.6961669921875,197068.21203475,1.147771507056678,-1.604362527002782,0.325881617262665,0.06493300944566727,0.04096018895506859,0.05521085858345032,0.0007445216178894043,-0.005157977342605591,0.004064559936523438,1,-0.4798076748847961,0.5344917178153992,-0.2744584083557129,-0.6393557786941528,-0.9468352198600769,-0.3201441168785095,0.03179360181093216,0,0,0,-1,197063.341071,3,2,1561914348.178607,1561913957.287787,16,1.221493,0,0,13.06835,0,0,1561914226.950748,197065.753685,0,1.17041,75.29413,3232235528,177845136,1,1,0.54,-23.58021,-27.12538,5
1561914353.075317,30,0,0,1561914353.015784,4.63452512864455,-74.15117536678365,2553.034,1.75,211.9921875,4,50,-9999,1561914353.064593,-21.73892974853516,19.93508148193359,2.80267333984375,356.58056640625,4.074024677276611,15,197068.24954075,-0.9561920166015625,-0.3183135986328125,0.0425262451171875,197068.23229875,0.05918342890483091,0.03138748397545588,0.04159697833038365,197068.23916475,-97.42654418945312,-9.236541748046875,-560.8783569335938,197068.23229875,1.149083905806203,-1.604139191135755,0.3249436303148056,0.05653100460767746,0.02481291443109512,0.03835251554846764,-0.0003371834754943848,-0.00522276759147644,0.01003384590148926,1,-0.4798871874809265,0.5343260765075684,-0.2752394676208496,-0.6390987634658813,-0.9471420645713806,-0.3192553520202637,0.03159213811159134,0,0,0,-1,197063.341071,3,2,1561914348.178607,1561913957.287787,16,1.221493,0,0,13.06835,0,0,1561914226.950748,197065.753685,0,1.17041,75.29413,3232235528,177845136,1,1,0.54,-23.58021,-27.12538,5
1561914353.094607,31,0,0,1561914353.015784,4.63452512864455,-74.15117536678365,2553.034,1.75,211.9921875,4,50,-9999,1561914353.091375,-21.81781768798828,20.02914810180664,2.7449951171875,356.4971618652344,3.990630388259888,15,197068.26980475,-0.95562744140625,-0.3105621337890625,0.03997802734375,197068.25256175,0.05611813049014971,0.03832395335067627,0.04007338387074932,197068.25927575,-97.48764038085938,-9.410354614257812,-560.9048461914062,197068.25256175,1.150178612886095,-1.603945142524483,0.3241567034155703,0.05346570536494255,0.03174938261508942,0.03682892024517059,-0.008792877197265625,0.0001958906650543213,0.01110959053039551,1,-0.4799511134624481,0.5341865420341492,-0.2758940756320953,-0.6388852000236511,-0.9473990797996521,-0.3185095191001892,0.03141666576266289,0,0,0,-1,197063.341071,3,2,1561914348.178607,1561913957.287787,16,1.221493,0,0,13.06835,0,0,1561914226.950748,197065.753685,0,1.17041,75.29413,3232235528,177845136,1,1,0.54,-23.58021,-27.55093,5
1561914353.115103,32,0,0,1561914353.015784,4.63452512864455,-74.15117536678365,2553.034,1.75,211.9921875,4,50,-9999,1561914353.091375,-21.81781768798828,20.02914810180664,2.7449951171875,356.4971618652344,3.990630388259888,15,197068.2900495417,-0.956695556640625,-0.31024169921875,0.0381317138671875,197068.27282575,0.07404786252910818,0.0104795388894618,0.0566457027020944,197068.2793985417,-97.30781555175781,-9.256805419921875,-561.1058959960938,197068.27282575,1.151486018794782,-1.604026961267787,0.3232154242973944,0.07139543443918228,0.003904967103153467,0.05340123921632767,-0.007931828498840332,0.007054984569549561,0.008473873138427734,1,-0.4800703525543213,0.5341203212738037,-0.27660071849823,-0.6385452151298523,-0.9476955533027649,-0.3176171183586121,0.03150412067770958,0,0,0,-1,197063.341071,3,2,1561914348.178607,1561913957.287787,16,1.221493,0,0,13.06835,0,0,1561914226.950748,197065.753685,0,1.17041,75.29413,3232235528,177845136,1,1,0.54,-20.50197,-20.98729,5
1561914353.140594,33,0,0,1561914353.015784,4.63452512864455,-74.15117536678365,2553.034,1.75,211.9921875,4,50,-9999,1561914353.115281,-21.489990234375,19.83216285705566,2.63836669921875,356.3849792480469,3.878435850143433,15,197068.3103135417,-0.9547576904296875,-0.3115081787109375,0.0400238037109375,197068.2931015417,0.0929001135696701,-0.006405435053858584,0.05051430692440497,197068.2995095417,-97.38746643066406,-9.110565185546875,-561.1400756835938,197068.2931015417,1.153146145647571,-1.604689114754379,0.3220900611817848,0.09024768322706223,-0.01298000663518906,0.04726984351873398,-0.008664429187774658,0.006308138370513916,0.005988001823425293,1,-0.480317085981369,0.5341978669166565,-0.2773405611515045,-0.6379736661911011,-0.9480311870574951,-0.3165498375892639,0.0321437269449234,0,0,0,-1,197063.341071,3,2,1561914348.178607,1561913957.287787,16,1.221493,0,0,13.06835,0,0,1561914226.950748,197065.753685,0,1.17041,75.29413,3232235528,177845136,1,1,0.54,-13.29098,-15.313,5
1561914353.157654,34,0,0,1561914353.015784,4.63452512864455,-74.15117536678365,2553.034,1.75,211.9921875,4,50,-9999,1561914353.141942,-21.46726989746094,20.1066722869873,2.634765625,356.2478942871094,3.741371393203735,15,197068.3305765417,-0.957244873046875,-0.311279296875,0.043731689453125,197068.3133645417,0.09185375757737796,0.002433862920223416,0.03856736627430951,197068.3196205417,-97.32048034667969,-9.169174194335938,-561.01220703125,197068.3133645417,1.15508436138077,-1.605587911369137,0.3211696160182861,0.08920133113861084,-0.004140708595514297,0.03532290086150169,-0.00646507740020752,0.004168391227722168,0.007017850875854492,1,-0.4807239770889282,0.5342353582382202,-0.2780442833900452,-0.6373291015625,-0.94829261302948,-0.3156765997409821,0.03300591930747032,0,0,0,-1,197063.341071,3,2,1561914348.178607,1561913957.287787,16,1.221493,0,0,13.06835,0,0,1561914226.950748,197065.753685,0,1.17041,75.29413,3232235528,177845136,1,1,0.54,-10.40031,-15.87178,5
1561914353.175734,35,0,0,1561914353.015784,4.63452512864455,-74.15117536678365,2553.034,1.75,211.9921875,4,50,-9999,1561914353.166385,-21.69549560546875,20.19065856933594,2.4725341796875,356.1268005371094,3.620262861251831,15,197068.3508405417,-0.9526519775390625,-0.3082275390625,0.049957275390625,197068.3336285417,0.07851052156775395,0.03979268669185497,0.0212344486356378,197068.3397015417,-97.3309326171875,-9.150192260742188,-561.262939453125,197068.3336285417,1.15684894450298,-1.605782532031381,0.3205937174916091,0.07585809379816055,0.03321811556816101,0.0179899837821722,-0.008777022361755371,0.003850758075714111,0.01053488254547119,1,-0.4810749888420105,0.5340086817741394,-0.2787483632564545,-0.6369466185569763,-0.9484677910804749,-0.3151300847530365,0.0331968329846859,0,0,0,-1,197063.341071,3,2,1561914348.178607,1561913957.287787,16,1.221493,0,0,13.06835,0,0,1561914226.950748,197065.753685,0,1.17041,75.29413,3232235528,177845136,1,1,0.54,-10.40031,-16.37027,5
1561914353.197799,36,0,0,1561914353.015784,4.63452512864455,-74.15117536678365,2553.034,1.75,211.9921875,4,50,-9999,1561914353.192343,-21.72541046142578,20.20131492614746,2.4580078125,356.0296020507812,3.52307653427124,15,197068.3711045417,-0.9484100341796875,-0.3019256591796875,0.0535125732421875,197068.3538615417,0.06544025956986307,0.06588314325914325,0.001823466398377254,197068.3598125417,-97.46209716796875,-9.30499267578125,-561.2589721679688,197068.3538615417,1.158379425113661,-1.605332545005161,0.3203894602985403,0.06278783082962036,0.05930857360363007,-0.001420998130925,-0.004105091094970703,0.006708711385726929,0.01718497276306152,1,-0.4813684523105621,0.5335452556610107,-0.2794108986854553,-0.6368229389190674,-0.9485468864440918,-0.3149362206459045,0.0327722541987896,0,0,0,-1,197063.341071,3,2,1561914348.178607,1561913957.287787,16,1.221493,0,0,13.06835,0,0,1561914226.950748,197065.753685,0,1.17041,75.29413,3232235528,177845136,1,1,0.54,-10.40031,-17.22932,5
1561914353.217299,37,0,0,1561914353.015784,4.63452512864455,-74.15117536678365,2553.034,1.75,211.9921875,4,50,-9999,1561914353.192343,-21.72541046142578,20.20131492614746,2.4580078125,356.0296020507812,3.52307653427124,15,197068.3913675417,-0.942779541015625,-0.30718994140625,0.053863525390625,197068.3741255417,0.04870628686035018,0.06434649931016753,0.01516270766636614,197068.3799235417,-97.49806213378906,-9.318710327148438,-561.131103515625,197068.3741255417,1.159538582230969,-1.604496093288183,0.3202544259453044,0.04605386033654213,0.05777192860841751,0.01191824302077293,0.0002063512802124023,0.01288241147994995,0.02153229713439941,1,-0.4815260469913483,0.533031702041626,-0.2800255417823792,-0.6368638277053833,-0.9486163854598999,-0.3148080706596375,0.03198025748133659,0,0,0,-1,197063.341071,3,2,1561914348.178607,1561913957.287787,16,1.221493,0,0,13.06835,0,0,1561914226.950748,197065.753685,0,1.17041,75.29413,3232235528,177845136,1,1,0.54,-10.40031,-17.22932,5
1561914353.236442,38,0,0,1561914353.015784,4.63452512864455,-74.15117536678365,2553.034,1.75,211.9921875,4,50,-9999,1561914353.216594,-21.58282470703125,20.34033584594727,2.49761962890625,355.9640197753906,3.457496881484985,15,197068.4116315417,-0.9523468017578125,-0.30859375,0.05438232421875,197068.3943895417,0.03713644982060994,0.03234755354842945,0.02872645341424871,197068.4000345417,-97.55564880371094,-9.115859985351562,-561.2581787109375,197068.3943895417,1.160375675248542,-1.603901767125897,0.3198081565290378,0.03448402509093285,0.02577298134565353,0.02548198774456978,0.005995988845825195,0.00719451904296875,0.02244234085083008,1,-0.4815517067909241,0.5327461957931519,-0.2805811762809753,-0.6368387341499329,-0.9487755298614502,-0.3143844604492188,0.03142111003398895,0,0,0,-1,197063.341071,3,2,1561914348.178607,1561913957.287787,16,1.221493,0,0,13.06835,0,0,1561914226.950748,197065.753685,0,1.17041,75.29413,3232235528,177845136,1,1,0.54,-10.40031,-18.05071,5
1561914353.257359,39,0,0,1561914353.015784,4.63452512864455,-74.15117536678365,2553.034,1.75,211.9921875,4,50,-9999,1561914353.243502,-21.70963287353516,20.13743591308594,2.37841796875,355.9264526367188,3.419927597045898,15,197068.4318955417,-0.958160400390625,-0.31134033203125,0.0486602783203125,197068.4146525417,0.01942909173267308,0.009227320544906544,0.03839639133232643,197068.4201455417,-97.1748046875,-9.164016723632812,-561.2777099609375,197068.4146525417,1.160893845451531,-1.603826097190364,0.3191256535962842,0.0167766660451889,0.002652748953551054,0.03515192866325378,-0.003354668617248535,0.005142718553543091,0.02302587032318115,1,-0.4815045893192291,0.5327584147453308,-0.280987560749054,-0.6366849541664124,-0.948992133140564,-0.3137364685535431,0.03135639429092407,0,0,0,-1,197063.341071,3,2,1561914348.178607,1561913957.287787,16,1.221493,0,0,13.06835,0,0,1561914226.950748,197065.753685,0,1.17041,75.29413,3232235528,177845136,1,1,0.54,-10.40031,-19.03087,5
1561914353.277752,40,0,0,1561914353.015784,4.63452512864455,-74.15117536678365,2553.034,1.75,211.9921875,4,50,-9999,1561914353.267197,-21.71612548828125,20.29952812194824,2.4534912109375,355.8882446289062,3.381711483001709,15,197068.4521285417,-0.962371826171875,-0.30889892578125,0.040802001953125,197068.4349165417,0.03294197110373514,-0.009219863693854323,0.0217958429934265,197068.4402265417,-97.31401062011719,-9.037582397460938,-561.254150390625,197068.4349165417,1.161357345935653,-1.60419551307102,0.3185376160242759,0.03028954565525055,-0.01579443551599979,0.01855137757956982,-0.008995532989501953,0.001837760210037231,0.01694715023040771,1,-0.4815295934677124,0.5329031944274902,-0.2812384366989136,-0.6364341974258423,-0.949164867401123,-0.3131780922412872,0.03171312808990479,0,0,0,-1,197063.341071,3,2,1561914348.178607,1561913957.287787,16,1.221493,0,0,13.06835,0,0,1561914226.950748,197065.753685,0,1.17041,75.29413,3232235528,177845136,1,1,0.54,-10.40031,-20.02422,5
1561914353.297213,41,0,0,1561914353.015784,4.63452512864455,-74.15117536678365,2553.034,1.75,211.9921875,4,50,-9999,1561914353.293734,-21.6630859375,20.28184509277344,2.47216796875,355.8331604003906,3.326634168624878,15,197068.4723915417,-0.9634552001953125,-0.3114013671875,0.033172607421875,197068.4551805417,0.03621233292235244,-0.007373227793993379,0.01950525813984935,197068.4603375417,-97.37869262695312,-9.20867919921875,-561.140869140625,197068.4551805417,1.162038834128721,-1.604733557952165,0.318153931868191,0.03355990722775459,-0.01394779980182648,0.01626079343259335,-0.01310420036315918,0.003914773464202881,0.008574128150939941,1,-0.4816888272762299,0.5330007672309875,-0.2814511060714722,-0.636137843132019,-0.9492676258087158,-0.3128136694431305,0.03222788870334625,0,0,0,-1,197063.341071,3,2,1561914348.178607,1561913957.287787,16,1.221493,0,0,13.06835,0,0,1561914226.950748,197065.753685,0,1.17041,75.29413,3232235528,177845136,1,1,0.54,-10.40031,-21.08219,5
1561914353.317626,42,0,0,1561914353.015784,4.63452512864455,-74.15117536678365,2553.034,1.75,211.9921875,4,50,-9999,1561914353.293734,-21.6630859375,20.28184509277344,2.47216796875,355.8331604003906,3.326634168624878,15,197068.4926555417,-0.9719085693359375,-0.3107147216796875,0.030853271484375,197068.4754435417,0.05854000918546776,-0.0158234379328148,0.003718838146186648,197068.4804485417,-97.31373596191406,-8.995040893554688,-561.3313598632812,197068.4754435417,1.162975475720244,-1.605459907584707,0.3178996207711958,0.05588758364319801,-0.02239800803363323,0.0004743735771626234,-0.01413166522979736,0.001170724630355835,0.0002524852752685547,1,-0.4819757342338562,0.5330660939216614,-0.2816570997238159,-0.635774552822113,-0.9493234753608704,-0.3125721216201782,0.03292013704776764,0,0,0,-1,197063.341071,3,2,1561914348.178607,1561913957.287787,16,1.221493,0,0,13.06835,0,0,1561914226.950748,197065.753685,0,1.17041,75.29413,3232235528,177845136,1,1,0.54,-10.40031,-22.14006,5
1561914353.341113,43,0,0,1561914353.015784,4.63452512864455,-74.15117536678365,2553.034,1.75,211.9921875,4,50,-9999,1561914353.317811,-21.48007965087891,20.35678482055664,2.26605224609375,355.7486267089844,3.242085218429565,15,197068.5129195417,-0.9732666015625,-0.309814453125,0.0218353271484375,197068.4957075417,0.06163753184933893,0.02981808314507219,-0.0006420881388181043,197068.5005595417,-97.37788391113281,-9.004257202148438,-561.1715698242188,197068.4957075417,1.164200036130241,-1.605799916735561,0.3179005262493561,0.05898510664701462,0.02324351109564304,-0.003886552527546883,-0.02259671688079834,0.001858234405517578,-0.002389669418334961,1,-0.48235023021698,0.5328786969184875,-0.2819640040397644,-0.6355114579200745,-0.9493118524551392,-0.3125729858875275,0.03324289992451668,0,0,0,-1,197063.341071,3,2,1561914348.178607,1561913957.287787,16,1.221493,0,0,13.06835,0,0,1561914226.950748,197065.753685,0,1.17041,75.29413,3232235528,177845136,1,1,0.54,-10.40031,-22.99433,5
1561914353.359386,44,0,0,1561914353.015784,4.63452512864455,-74.15117536678365,2553.034,1.75,211.9921875,4,50,-9999,1561914353.344269,-21.55133056640625,20.26337051391602,2.2974853515625,355.6213684082031,3.114843368530273,15,197068.5331825417,-0.9730682373046875,-0.305816650390625,0.0098724365234375,197068.5159715417,0.1140469442054443,0.00423948613929714,-0.02622254935735621,197068.5206705417,-97.24317932128906,-8.987869262695312,-561.2200317382812,197068.5159715417,1.16592651595369,-1.606104277219974,0.318157214436328,0.1113945171236992,-0.002335085533559322,-0.0294670145958662,-0.02404516935348511,0.003002345561981201,-0.01169371604919434,1,-0.4829184710979462,0.5324981212615967,-0.2823551297187805,-0.6352251768112183,-0.9492214322090149,-0.3128167986869812,0.03352899849414825,0,0,0,-1,197068.5276595417,2,0,1561914353.365196,1561913957.287787,16,1.221493,0,0,13.06835,0,0,1561914226.950748,197065.753685,0,1.17041,75.29413,3232235528,177845136,1,1,0.54,-10.40031,-22.99433,5
1561914353.382515,45,0,0,1561914353.015784,4.63452512864455,-74.15117536678365,2553.034,1.75,211.9921875,4,50,-9999,1561914353.369046,-21.67877197265625,20.42175674438477,2.33624267578125,355.3954772949219,2.888945579528809,15,197068.5534465417,-0.9685516357421875,-0.3048095703125,0.0054779052734375,197068.5362045417,0.1557941248213084,0.02384194965893438,-0.05014039910735785,197068.5407515417,-97.42230224609375,-8.949020385742188,-561.33837890625,197068.5362045417,1.168825394935327,-1.607010670972846,0.3188977065200991,0.1531417071819305,0.01726737804710865,-0.05338486284017563,-0.02410924434661865,0.007703393697738647,-0.02450847625732422,1,-0.4840064346790314,0.5319100022315979,-0.2828143835067749,-0.6346853971481323,-0.9489589929580688,-0.3135200440883636,0.0343809574842453,0,0,0,-1,197068.5276595417,2,0,1561914353.365196,1561913957.287787,16,1.221493,0,0,13.06835,0,0,1561914226.950748,197065.753685,0,1.17041,75.29413,3232235528,177845136,1,1,0.54,-10.40031,-23.90659,5
1561914353.398999,46,0,0,1561914353.015784,4.63452512864455,-74.15117536678365,2553.034,1.75,211.9921875,4,50,-9999,1561914353.394988,-21.73188781738281,20.25786209106445,2.443603515625,355.0665283203125,2.559994459152222,15,197068.5737105417,-0.9612884521484375,-0.2989654541015625,0.018463134765625,197068.5564675417,0.2165378998088167,0.08053479031232319,-0.07596054482400309,197068.5608625417,-97.2603759765625,-9.120590209960938,-561.24609375,197068.5564675417,1.172817079453855,-1.607364364489904,0.3201001111740626,0.2138854712247849,0.07396021485328674,-0.07920501381158829,-0.01998221874237061,0.009852021932601929,-0.02922487258911133,1,-0.4854223430156708,0.5307697653770447,-0.2836021184921265,-0.6342069506645203,-0.9485693573951721,-0.3146615922451019,0.03470278903841972,0,0,0,-1,197068.5276595417,2,0,1561914353.365196,1561913957.287787,16,1.221493,0,0,13.06835,0,0,1561914226.950748,197065.753685,0,1.17041,75.29413,3232235528,177845136,1,1,0.54,-10.40031,-24.82581,5
1561914353.418921,47,0,0,1561914353.015784,4.63452512864455,-74.15117536678365,2553.034,1.75,211.9921875,4,50,-9999,1561914353.394988,-21.73188781738281,20.25786209106445,2.443603515625,355.0665283203125,2.559994459152222,15,197068.5939735417,-0.9443206787109375,-0.2889862060546875,0.0336761474609375,197068.5767315417,0.2552924863077588,0.1130368072039772,-0.07814486955008608,197068.5809735417,-97.53114318847656,-9.08001708984375,-561.3831787109375,197068.5767315417,1.177888018803346,-1.606982304503419,0.3216055694509506,0.252640038728714,0.1064622327685356,-0.08138933777809143,-0.01318049430847168,0.01712474226951599,-0.01586008071899414,1,-0.487092912197113,0.5290577411651611,-0.2848110795021057,-0.6338146328926086,-0.9481080174446106,-0.3160902261734009,0.03432319685816765,0,0,0,-1,197068.5276595417,2,0,1561914353.365196,1561913957.287787,16,1.221493,0,0,13.06835,0,0,1561914226.950748,197065.753685,0,1.17041,75.29413,3232235528,177845136,1,1,0.54,-10.40031,-25.73133,5
1561914353.457715,48,0,0,1561914353.015784,4.63452512864455,-74.15117536678365,2553.034,1.75,211.9921875,4,50,-9999,1561914353.446167,-21.76729583740234,20.28339385986328,1.72491455078125,354.0518798828125,1.545350670814514,15,197068.6142375417,-0.916412353515625,-0.28460693359375,0.0496826171875,197068.5969955417,0.337203598271435,0.03424558845732893,-0.07789639662038168,197068.6010845417,-97.47517395019531,-9.245819091796875,-561.64306640625,197068.5969955417,1.184148057455905,-1.607425324962531,0.3229926316930264,0.3345511555671692,0.02767101675271988,-0.08114086091518402,0.003332972526550293,0.02841967344284058,-0.001050949096679688,1,-0.4891595244407654,0.5273391008377075,-0.2862332165241241,-0.6330141425132751,-0.9476536512374878,-0.3174058496952057,0.03472713381052017,0,0,0,-1,197068.5276595417,2,0,1561914353.365196,1561913957.287787,16,1.221493,0,0,13.06835,0,0,1561914226.950748,197065.753685,0,1.17041,75.29413,3232235528,177845136,1,1,0.54,-10.40031,-27.44053,5
1561914353.462058,49,0,0,1561914353.015784,4.63452512864455,-74.15117536678365,2553.034,1.75,211.9921875,4,50,-9999,1561914353.446167,-21.76729583740234,20.28339385986328,1.72491455078125,354.0518798828125,1.545350670814514,15,197068.6344705417,-0.8978424072265625,-0.29071044921875,0.0651092529296875,197068.6172585417,0.4253728724806883,-0.04169152054908146,-0.1408479321515657,197068.6211955417,-97.47178649902344,-9.189620971679688,-561.9782104492188,197068.6172585417,1.192352770759284,-1.610359071236349,0.3247872458892235,0.4227204322814941,-0.04826609045267105,-0.14409239590168,0.03056472539901733,0.03450024127960205,0.01219797134399414,1,-0.4921911060810089,0.5258233547210693,-0.2875220477581024,-0.631338894367218,-0.9469770789146423,-0.3191071748733521,0.03748457133769989,0,0,0,-1,197068.5276595417,2,0,1561914353.365196,1561913957.287787,16,1.221493,0,0,13.06835,0,0,1561914226.950748,197065.753685,0,1.17041,75.29413,3232235528,177845136,1,1,0.54,-10.40031,-27.44053,5
1561914353.479531,50,0,0,1561914353.015784,4.63452512864455,-74.15117536678365,2553.034,1.75,211.9921875,4,50,-9999,1561914353.469735,-21.90752410888672,20.10451889038086,1.616943359375,353.3200988769531,0.8135725259780884,15,197068.6547345417,-0.8837738037109375,-0.2955322265625,0.0814666748046875,197068.6375225417,0.4828510793395415,0.005489307638871326,-0.3069114724523287,197068.6413065417,-97.49554443359375,-9.001266479492188,-562.1861572265625,197068.6375225417,1.202265949727672,-1.614159848807558,0.3288294105930299,0.4801986515522003,-0.001085264142602682,-0.3101559281349182,0.04768884181976318,0.03222495317459106,0.02408194541931152,1,-0.4963459074497223,0.5235975384712219,-0.2883905172348022,-0.6295372843742371,-0.9455312490463257,-0.3229353725910187,0.04102728515863419,0,0,0,-1,197068.5276595417,2,0,1561914353.365196,1561913957.287787,16,1.221493,0,0,13.06835,0,0,1561914226.950748,197065.753685,0,1.17041,75.29413,3232235528,177845136,1,1,0.54,-10.40031,-28.43709,5
1561914353.499965,51,0,0,1561914353.015784,4.63452512864455,-74.15117536678365,2553.034,1.75,211.9921875,4,50,-9999,1561914353.496147,-22.06632995605469,20.04645919799805,1.1053466796875,352.5430908203125,0.03655167669057846,15,197068.6749985417,-0.837005615234375,-0.294708251953125,0.08685302734375,197068.6577865417,0.4806094966500218,0.08512714529605582,-0.5008276830136853,197068.6613875417,-97.9921875,-9.237655639648438,-562.46533203125,197068.6577865417,1.212929419894584,-1.616688531193226,0.3365521512592486,0.4779570698738098,0.07855257391929626,-0.5040721297264099,0.05913126468658447,0.03470245003700256,0.03816437721252441,1,-0.5013965964317322,0.5198583006858826,-0.2885972559452057,-0.6285383701324463,-0.9429051280021667,-0.3302346467971802,0.04330239817500114,0,0,0,-1,197068.5276595417,2,0,1561914353.365196,1561913957.287787,16,1.221493,0,0,13.06835,0,0,1561914226.950748,197065.753685,0,1.17041,75.29413,3232235528,177845136,1,1,0.54,-10.40031,-29.00072,5
1561914353.536232,52,0,0,1561914353.015784,4.63452512864455,-74.15117536678365,2553.034,1.75,211.9921875,4,50,-9999,1561914353.520439,-22.43175506591797,19.73734283447266,1.004150390625,351.6776123046875,359.1710815429688,15,197068.6952615417,-0.77423095703125,-0.254547119140625,0.08465576171875,197068.6780495417,0.5241977205274577,0.09364366814602022,-0.6569421861141302,197068.6814985417,-98.26861572265625,-9.522201538085938,-562.5283203125,197068.6780495417,1.224141437388007,-1.61900997112435,0.348370546884728,0.5215452909469604,0.08706909418106079,-0.6601866483688354,0.101832389831543,0.04665842652320862,0.04155302047729492,1,-0.5075106024742126,0.514862060546875,-0.287681519985199,-0.6281635165214539,-0.9388379454612732,-0.3413666784763336,0.04529990628361702,0,0,0,-1,197068.5276595417,2,0,1561914353.365196,1561913957.287787,16,1.221493,0,0,13.06835,0,0,1561914226.950748,197065.753685,0,1.17041,75.29413,3232235528,177845136,1,1,0.54,-10.40031,-29.44501,5
1561914353.542074,53,0,0,1561914353.015784,4.63452512864455,-74.15117536678365,2553.034,1.75,211.9921875,4,50,-9999,1561914353.520439,-22.43175506591797,19.73734283447266,1.004150390625,351.6776123046875,359.1710815429688,15,197068.7155255417,-0.684326171875,-0.198211669921875,0.0497894287109375,197068.6983135417,0.5577540828946741,0.07025126007909122,-0.7026843746812222,197068.7016095417,-98.29914855957031,-9.967727661132812,-562.8818359375,197068.6983135417,1.236458133081967,-1.621643533147929,0.3617584892285271,0.5551098585128784,0.06368501484394073,-0.7059298157691956,0.1598362326622009,0.09937235713005066,0.03712010383605957,1,-0.5142573118209839,0.5092222094535828,-0.2865079045295715,-0.6278100609779358,-0.9340672492980957,-0.3539194464683533,0.04753568395972252,0,0,0,-1,197068.5276595417,2,0,1561914353.365196,1561913957.287787,16,1.221493,0,0,13.06835,0,0,1561914226.950748,197065.753685,0,1.17041,75.29413,3232235528,177845136,1,1,0.54,-10.40031,-29.44501,5
1561914353.560584,54,0,0,1561914353.015784,4.63452512864455,-74.15117536678365,2553.034,1.75,211.9921875,4,50,-9999,1561914353.546964,-22.52423095703125,19.31250762939453,0.72113037109375,350.6191101074219,358.1125793457031,15,197068.7357895417,-0.56060791015625,-0.1434478759765625,0.016754150390625,197068.7185465417,0.7545252021445957,0.07190721364490249,-0.6259555078827314,197068.7217205417,-98.55352783203125,-10.3480224609375,-563.1759033203125,197068.7185465417,1.250995706017239,-1.625132381404941,0.3748039287748985,0.751880943775177,0.06534097343683243,-0.6292009949684143,0.2448800802230835,0.1678784191608429,-0.0007497072219848633,1,-0.5215189456939697,0.5032768249511719,-0.2859046161174774,-0.6268884539604187,-0.9292061924934387,-0.3660900890827179,0.05053914710879326,0,0,0,-1,197068.5276595417,2,0,1561914353.365196,1561913957.287787,16,1.221493,0,0,13.06835,0,0,1561914226.950748,197065.753685,0,1.17041,75.29413,3232235528,177845136,1,1,0.54,-10.40031,-30.43635,5
1561914353.580838,55,0,0,1561914353.015784,4.63452512864455,-74.15117536678365,2553.034,1.75,211.9921875,4,50,-9999,1561914353.57293,-22.85537719726562,19.05497741699219,0.35223388671875,349.0533752441406,356.5468444824219,15,197068.7560525417,-0.515625,-0.0869903564453125,0.0305023193359375,197068.7388105417,1.040309551353217,-0.1502126718087203,-0.475909816274359,197068.7418315417,-98.92630004882812,-10.57725524902344,-563.4067993164062,197068.7388105417,1.271142076565634,-1.632976299869402,0.3853294103570267,1.037665367126465,-0.1567789167165756,-0.4791553020477295,0.3642759323120117,0.2324165403842926,-0.04082930088043213,1,-0.5301218628883362,0.4977575242519379,-0.2867024838924408,-0.6237066388130188,-0.9248838424682617,-0.3758644163608551,0.05758348479866982,0,0,0,-1,197068.5276595417,2,0,1561914353.365196,1561913957.287787,16,1.221493,0,0,13.06835,0,0,1561914226.950748,197065.753685,0,1.17041,75.29413,3232235528,177845136,1,1,0.54,-10.40031,-31.37586,5
1561914353.613471,56,0,0,1561914353.015784,4.63452512864455,-74.15117536678365,2553.034,1.75,211.9921875,4,50,-9999,1561914353.597527,-23.29825592041016,18.67521095275879,-0.1307373046875,346.9345703125,354.4280395507812,15,197068.7763165417,-0.5015106201171875,-0.033111572265625,0.0288238525390625,197068.7590745417,1.341291495638484,-0.4116216401920642,-0.2947075367570406,197068.7619125417,-99.06953430175781,-10.78904724121094,-563.6968994140625,197068.7590745417,1.297698138997367,-1.649454013822544,0.3914668603776705,1.338647246360779,-0.4181878566741943,-0.2979530394077301,0.4058672785758972,0.2945543527603149,-0.0421299934387207,1,-0.5404617190361023,0.4941834509372711,-0.2885221838951111,-0.616797149181366,-0.9214922785758972,-0.3815447092056274,0.07263230532407761,0,0,0,-1,197068.5276595417,2,0,1561914353.365196,1561913957.287787,16,1.221493,0,0,13.06835,0,0,1561914226.950748,197065.753685,0,1.17041,75.29413,3232235528,177845136,1,1,0.54,-10.40031,-32.30734,5
1561914353.624474,57,0,0,1561914353.015784,4.63452512864455,-74.15117536678365,2553.034,1.75,211.9921875,4,50,-9999,1561914353.597527,-23.29825592041016,18.67521095275879,-0.1307373046875,346.9345703125,354.4280395507812,15,197068.7965805417,-0.52197265625,0.0299224853515625,0.0172119140625,197068.7793375417,1.499036119642166,-0.4610869279630869,-0.187240198340746,197068.7820235417,-98.88418579101562,-10.839599609375,-564.0030517578125,197068.7793375417,1.329417243633592,-1.671054558484986,0.3938106879738049,1.496391892433167,-0.4676531553268433,-0.1904857009649277,0.417305588722229,0.3505986034870148,-0.06360495090484619,1,-0.5519225597381592,0.4915240406990051,-0.2915637493133545,-0.6072694063186646,-0.9188162684440613,-0.3837101757526398,0.0924287885427475,0,0,0,-1,197068.5276595417,2,0,1561914353.365196,1561913957.287787,16,1.221493,0,0,13.06835,0,0,1561914226.950748,197065.753685,0,1.17041,75.29413,3232235528,177845136,1,1,0.54,-10.40031,-33.1269,5
1561914353.641686,58,0,0,1561914353.015784,4.63452512864455,-74.15117536678365,2553.034,1.75,211.9921875,4,50,-9999,1561914353.623624,-23.07734680175781,18.64134979248047,-0.68145751953125,344.5526733398438,352.046142578125,15,197068.8168135417,-0.52825927734375,0.094818115234375,0.0057525634765625,197068.7996015417,1.553284178414863,-0.1586232008472996,-0.006096508367409392,197068.8021345417,-98.9091796875,-10.64398193359375,-564.2437744140625,197068.7996015417,1.362927631960442,-1.690749594168517,0.3925434715503446,1.550639986991882,-0.1651894450187683,-0.009342010132968426,0.395327091217041,0.4124621450901031,-0.09335196018218994,1,-0.5627622008323669,0.4884471893310547,-0.2965801358222961,-0.5972923636436462,-0.917299747467041,-0.3825396597385406,0.1105639040470123,0,0,0,-1,197068.5276595417,2,0,1561914353.365196,1561913957.287787,16,1.221493,0,0,13.06835,0,0,1561914226.950748,197065.753685,0,1.17041,75.29413,3232235528,177845136,1,1,0.54,-10.40031,-34.00138,5
1561914353.661875,59,0,0,1561914353.015784,4.63452512864455,-74.15117536678365,2553.034,1.75,211.9921875,4,50,-9999,1561914353.648569,-23.23489379882812,18.69924163818359,-1.11578369140625,342.14404296875,349.6375122070312,15,197068.8370765417,-0.5683441162109375,0.1825408935546875,0.0516815185546875,197068.8198655417,1.56961148642592,0.3568065944232902,0.1027306401014796,197068.8222455417,-98.8330078125,-10.60543823242188,-565.1347045898438,197068.8198655417,1.396507332051916,-1.70154334307208,0.3875949511134632,1.566967248916626,0.3502403795719147,0.0994851365685463,0.3896594047546387,0.4727809727191925,-0.1149511337280273,1,-0.5715353488922119,0.4834244549274445,-0.3050819635391235,-0.5887046456336975,-0.9179186820983887,-0.3779628574848175,0.1207037195563316,0,0,0,-1,197068.5276595417,2,0,1561914353.365196,1561913957.287787,16,1.221493,0,0,13.06835,0,0,1561914226.950748,197065.753685,0,1.17041,75.29413,3232235528,177845136,1,1,0.54,-10.40031,-34.73608,5
1561914353.696043,60,0,0,1561914353.015784,4.63452512864455,-74.15117536678365,2553.034,1.75,211.9921875,4,50,-9999,1561914353.686178,-23.11942291259766,18.71212768554688,-1.7314453125,339.6183776855469,347.1118469238281,15,197068.8573405417,-0.6179656982421875,0.2760009765625,0.064178466796875,197068.8401285417,1.685231027255056,0.7979171510496927,0.2162630615843206,197068.8423565417,-98.9017333984375,-10.3922119140625,-566.0407104492188,197068.8401285417,1.431365006056021,-1.702818428729625,0.3801893529735333,1.682586789131165,0.7913509011268616,0.2130175530910492,0.3521692752838135,0.5536372065544128,-0.07055759429931641,1,-0.5786157846450806,0.475734531879425,-0.3172944486141205,-0.58155357837677,-0.920513391494751,-0.3710963129997253,0.1222391426563263,0,0,0,-1,197068.5276595417,2,0,1561914353.365196,1561913957.287787,16,1.221493,0,0,13.06835,0,0,1561914226.950748,197065.753685,0,1.17041,75.29413,3232235528,177845136,1,1,0.54,-10.40031,-35.33826,5
1561914353.702387,61,0,0,1561914353.015784,4.63452512864455,-74.15117536678365,2553.034,1.75,211.9921875,4,50,-9999,1561914353.686178,-23.11942291259766,18.71212768554688,-1.7314453125,339.6183776855469,347.1118469238281,15,197068.8776045417,-0.6285400390625,0.3928375244140625,0.0575714111328125,197068.8603925417,1.650026700805299,1.234293406206261,0.4540226268555427,197068.8624675417,-98.70071411132812,-10.46638488769531,-567.194580078125,197068.8603925417,1.466923778143471,-1.695898748970165,0.3693197873348166,1.647382497787476,1.227727055549622,0.4507771134376526,0.307319164276123,0.6369821429252625,-0.0521845817565918,1,-0.5837295055389404,0.4663061201572418,-0.3330353498458862,-0.5752441883087158,-0.9252848625183105,-0.3609811663627625,0.116363063454628,0,0,0,-1,197068.8521225417,3,2,1561914353.689659,1561913957.287787,16,1.221493,0,0,13.06835,0,0,1561914226.950748,197065.753685,0,1.17041,75.29413,3232235528,177845136,1,1,0.54,-10.40031,-35.33826,5
1561914353.724564,62,0,0,1561914353.015784,4.63452512864455,-74.15117536678365,2553.034,1.75,211.9921875,4,50,-9999,1561914353.686178,-23.11942291259766,18.71212768554688,-1.7314453125,339.6183776855469,347.1118469238281,15,197068.8978685417,-0.6045074462890625,0.4592437744140625,0.0755462646484375,197068.8806255417,1.376184498556811,1.781368213129718,0.8873626120533121,197068.8825785417,-98.47010803222656,-10.3172607421875,-568.4842529296875,197068.8806255417,1.497838973912727,-1.67629834722255,0.35258978456904,1.373540282249451,1.774801969528198,0.8841171264648438,0.3047233819961548,0.7381669282913208,-0.04125666618347168,1,-0.5842173099517822,0.4561843872070312,-0.3528256416320801,-0.5710516571998596,-0.9332634210586548,-0.3453294336795807,0.09882812201976776,0,0,0,-1,197068.8521225417,3,2,1561914353.689659,1561913957.287787,16,1.221493,0,0,13.06835,0,0,1561914226.950748,197065.753685,0,1.17041,75.29413,3232235528,177845136,1,1,0.54,-10.40031,-36.32984,5
1561914353.742971,63,0,0,1561914353.015784,4.63452512864455,-74.15117536678365,2553.034,1.75,211.9921875,4,50,-9999,1561914353.725685,-22.33106231689453,19.24724960327148,-5.3685302734375,335.3401489257812,342.8336181640625,15,197068.9181315417,-0.58697509765625,0.47601318359375,0.1063995361328125,197068.9008895417,1.190543262134549,2.336296415791709,1.372153271614758,197068.9026595417,-97.37413024902344,-9.943557739257812,-569.90673828125,197068.9008895417,1.52277847260203,-1.642657042328383,0.3275532299977398,1.187899112701416,2.329730033874512,1.368907809257507,0.339881420135498,0.7809710502624512,0.007564783096313477,1,-0.5787086486816406,0.4461917281150818,-0.3773229420185089,-0.5688908100128174,-0.9443888664245605,-0.3217273056507111,0.06798151880502701,0,0,0,-1,197068.8521225417,3,2,1561914353.689659,1561913957.287787,16,1.221493,0,0,13.06835,0,0,1561914226.950748,197065.753685,0,1.17041,75.29413,3232235528,177845136,1,1,0.54,-10.40031,-36.94766,5
1561914353.778666,64,0,0,1561914353.015784,4.63452512864455,-74.15117536678365,2553.034,1.75,211.9921875,4,50,-9999,1561914353.774355,-19.93692779541016,20.4819221496582,-8.4775390625,332.3207092285156,339.8141784667969,15,197068.9383955417,-0.5347137451171875,0.5378265380859375,0.2234039306640625,197068.9211525417,1.04750834209581,2.820223412211643,2.009168354872371,197068.9227705417,-96.03817749023438,-8.987747192382812,-571.74267578125,197068.9211525417,1.544664725269485,-1.597282024115556,0.2925435629443707,1.044864177703857,2.81365704536438,2.005922794342041,0.3702024221420288,0.7644018530845642,0.08104205131530762,1,-0.5674143433570862,0.4367146492004395,-0.4068558812141418,-0.5672649145126343,-0.9571775197982788,-0.2883886396884918,0.0253574438393116,0,0,0,-1,197068.8521225417,3,2,1561914353.689659,1561913957.287787,16,1.221493,0,0,13.06835,0,0,1561914226.950748,197065.753685,0,1.17041,75.29413,3232235528,177845136,1,1,0.54,-10.40031,-37.83941,5
1561914353.783473,65,0,0,1561914353.015784,4.63452512864455,-74.15117536678365,2553.034,1.75,211.9921875,4,50,-9999,1561914353.774355,-19.93692779541016,20.4819221496582,-8.4775390625,332.3207092285156,339.8141784667969,15,197068.9586595417,-0.464019775390625,0.5948638916015625,0.4418487548828125,197068.9414165417,0.8798343882838761,3.230336105330068,2.852170160016015,197068.9428815417,-94.34635925292969,-8.499893188476562,-573.1998291015625,197068.9414165417,1.565492829846247,-1.54097627676882,0.2434899946267249,0.877190113067627,3.223769903182983,2.84892463684082,0.4353571534156799,0.778917670249939,0.2523400783538818,1,-0.5493304133415222,0.4286817312240601,-0.4423376321792603,-0.564628541469574,-0.9700708985328674,-0.2410911321640015,-0.02893614023923874,0,0,0,-1,197068.8521225417,3,2,1561914353.689659,1561913957.287787,16,1.221493,0,0,13.06835,0,0,1561914226.950748,197065.753685,0,1.17041,75.29413,3232235528,177845136,1,1,0.54,-10.40031,-37.83941,5
1561914353.807129,66,0,0,1561914353.015784,4.63452512864455,-74.15117536678365,2553.034,1.75,211.9921875,4,50,-9999,1561914353.800077,-15.21499633789062,22.6654167175293,-11.2362060546875,331.4564819335938,338.949951171875,15,197068.9789225417,-0.3420257568359375,0.6742706298828125,0.725006103515625,197068.9616805417,0.2684146799469063,3.339035422066633,3.813989163509653,197068.9629925417,-91.94221496582031,-7.163742065429688,-574.4268188476562,197068.9616805417,1.582637996239361,-1.477919405738659,0.1773843485291749,0.265770435333252,3.33246922492981,3.810743570327759,0.5160463452339172,0.7713194489479065,0.5331369042396545,1,-0.5231997966766357,0.424991637468338,-0.4817569553852081,-0.5599590539932251,-0.9800661206245422,-0.1764555722475052,-0.09128816425800323,0,0,0,-1,197068.8521225417,3,2,1561914353.689659,1561913957.287787,16,1.221493,0,0,13.06835,0,0,1561914226.950748,197065.753685,0,1.17041,75.29413,3232235528,177845136,1,1,0.54,-10.40031,-38.42855,5
1561914353.824617,67,0,0,1561914353.015784,4.63452512864455,-74.15117536678365,2553.034,1.75,211.9921875,4,50,-9999,1561914353.800077,-15.21499633789062,22.6654167175293,-11.2362060546875,331.4564819335938,338.949951171875,15,197068.9991555417,-0.093170166015625,0.8118133544921875,0.864166259765625,197068.9819435417,-0.923926482239555,2.274757420902703,4.901774354983495,197068.9831035417,-89.34407043457031,-5.733917236328125,-574.9892578125,197068.9819435417,1.588399136600284,-1.418743847867431,0.08933080478610519,-0.92657071352005,2.26819109916687,4.898529052734375,0.6424950361251831,0.7634826898574829,0.8758693933486938,1,-0.4878963828086853,0.4318859577178955,-0.5203104615211487,-0.5520040988922119,-0.9845207929611206,-0.08921204507350922,-0.1508632749319077,0,0,0,-1,197068.8521225417,3,2,1561914353.689659,1561913957.287787,16,1.221493,0,0,13.06835,0,0,1561914226.950748,197065.753685,0,1.17041,75.29413,3232235528,177845136,1,1,0.54,-10.40031,-34.01216,5
1561914353.857242,68,0,0,1561914353.015784,4.63452512864455,-74.15117536678365,2553.034,1.75,211.9921875,4,50,-9999,1561914353.851391,-9.266731262207031,26.23287582397461,-9.66375732421875,335.6206970214844,343.1141662597656,15,197069.0194195417,0.095733642578125,0.988525390625,0.7753143310546875,197069.0022075417,-2.635173131235268,-1.109746150454853,6.289343600884286,197069.0032145417,-85.91484069824219,-3.540740966796875,-574.1083374023438,197069.0022075417,1.571222734999507,-1.404052595281282,-0.02872469202558459,-2.6378173828125,-1.116312384605408,6.286098003387451,0.8925535678863525,0.7830926179885864,1.030069947242737,1,-0.4489235281944275,0.4642368257045746,-0.5465169548988342,-0.5331708192825317,-0.9857236742973328,0.02872074209153652,-0.1659036725759506,0,0,0,-1,197068.8521225417,3,2,1561914353.689659,1561913957.287787,16,1.221493,0,0,13.06835,0,0,1561914226.950748,197065.753685,0,1.17041,75.29413,3232235528,177845136,1,1,0.54,-10.40031,-31.7316,5
1561914353.864477,69,0,0,1561914353.015784,4.63452512864455,-74.15117536678365,2553.034,1.75,211.9921875,4,50,-9999,1561914353.851391,-9.266731262207031,26.23287582397461,-9.66375732421875,335.6206970214844,343.1141662597656,15,197069.0396835417,0.0781097412109375,1.619094848632812,0.3792572021484375,197069.0224715417,-3.745239659969258,-5.32772247025964,7.950114292475291,197069.0232955417,-82.52467346191406,-1.985153198242188,-571.5475463867188,197069.0224715417,1.524932428769578,-1.473194978843754,-0.1791087369125194,-3.747884035110474,-5.334288597106934,7.946868896484375,1.075053453445435,0.8103727102279663,0.8712019920349121,1,-0.4142304062843323,0.5295935869216919,-0.553042471408844,-0.492024302482605,-0.9793198704719543,0.1781526356935501,-0.09588760882616043,0,0,0,-1,197068.8521225417,3,2,1561914353.689659,1561913957.287787,16,1.221493,0,0,13.06835,0,0,1561914226.950748,197065.753685,0,1.17041,75.29413,3232235528,177845136,1,1,0.54,-10.40031,-31.7316,5
1561914353.885498,70,0,0,1561914353.015784,4.63452512864455,-74.15117536678365,2553.034,1.75,211.9921875,4,50,-9999,1561914353.875018,-5.487625122070312,27.76821517944336,-7.13079833984375,340.6335754394531,348.1270446777344,15,197069.0599465417,-0.27008056640625,2.598297119140625,0.1209259033203125,197069.0427345417,-2.546610241816901,-9.67427993591898,10.68357750901044,197069.0434065417,-77.790771484375,-0.8219451904296875,-569.042236328125,197069.0427345417,1.456199313338674,-1.644363227656355,-0.3680303205336076,-2.549254417419434,-9.680846214294434,10.68033218383789,1.008623838424683,1.259316444396973,0.3106783628463745,1,-0.386339545249939,0.6205087900161743,-0.5453411936759949,-0.4102604389190674,-0.9305141568183899,0.3597783446311951,0.06857880204916,0,0,0,-1,197068.8521225417,3,2,1561914353.689659,1561913957.287787,16,1.221493,0,0,13.06835,0,0,1561914226.950748,197065.753685,0,1.17041,75.29413,3232235528,177845136,1,1,0.54,-10.40031,-31.84248,5
1561914353.907802,71,0,0,1561914353.015784,4.63452512864455,-74.15117536678365,2553.034,1.75,211.9921875,4,50,-9999,1561914353.901303,6.366127014160156,27.52906608581543,-7.2772216796875,345.497802734375,352.9912719726562,15,197069.0802105417,-0.967376708984375,3.409683227539062,0.266265869140625,197069.0629685417,1.965496241420597,-13.13756114390162,13.44594880654618,197069.0635175417,-71.40144348144531,-0.8919677734375,-569.4422607421875,197069.0629685417,1.388988759209322,-1.908576646459919,-0.6076964155296498,1.962852001190186,-13.14412689208984,13.44270324707031,0.5044945478439331,2.027319431304932,-0.1511368751525879,1,-0.3653329610824585,0.708916962146759,-0.5406601428985596,-0.2676852345466614,-0.7745751738548279,0.5709778070449829,0.2720628678798676,0,0,0,-1,197068.8521225417,3,2,1561914353.689659,1561913957.287787,16,1.221493,0,0,13.06835,0,0,1561914226.950748,197065.753685,0,1.17041,75.29413,3232235528,177845136,1,1,0.54,-10.40031,-30.18253,5
1561914353.936889,72,0,0,1561914353.015784,4.63452512864455,-74.15117536678365,2553.034,1.75,211.9921875,4,50,-9999,1561914353.926268,11.29376220703125,23.91205787658691,-12.88177490234375,28.94893074035645,36.44239807128906,15,197069.1004745417,-1.679031372070312,3.502670288085938,0.7894287109375,197069.0832315417,7.055146757613149,-13.94740286504826,14.46316022913292,197069.0836285417,-65.55513000488281,-3.8848876953125,-574.4630126953125,197069.0832315417,1.309436103826024,-2.244645477903006,-0.9047787251410072,7.052502632141113,-13.95396900177002,14.45991516113281,-0.4845653772354126,2.623394727706909,-0.1192775964736938,1,-0.3431814610958099,0.7582863569259644,-0.5499096512794495,-0.06948148459196091,-0.4828113317489624,0.7862884402275085,0.3855434358119965,0,0,0,-1,197068.8521225417,3,2,1561914353.689659,1561913957.287787,16,1.221493,0,0,13.06835,0,0,1561914226.950748,197065.753685,0,1.17041,75.29413,3232235528,177845136,1,1,0.54,-10.40031,-30.46707,5
1561914353.945852,73,0,0,1561914353.015784,4.63452512864455,-74.15117536678365,2553.034,1.75,211.9921875,4,50,-9999,1561914353.926268,11.29376220703125,23.91205787658691,-12.88177490234375,28.94893074035645,36.44239807128906,15,197069.1207375417,-2.07452392578125,3.243331909179688,1.267166137695312,197069.1034955417,8.723135681022706,-10.02547205413216,12.48082455382365,197069.1037395417,-62.3531494140625,-8.95574951171875,-581.0361938476562,197069.1034955417,1.072295278463997,-2.705042701936425,-1.209107706391007,8.720491409301758,-10.03203773498535,12.47757911682129,-1.52941620349884,2.567369699478149,0.4687602519989014,1,-0.3045013844966888,0.7534010410308838,-0.5680566430091858,0.1302977651357651,-0.1496151238679886,0.9353006482124329,0.3206684291362762,0,0,0,-1,197068.8521225417,3,2,1561914353.689659,1561913957.287787,16,1.221493,0,0,13.06835,0,0,1561914226.950748,197066.698857,0,1.178467,75.29406,3232235528,177845136,1,1,0.54,-10.40031,-20.33017,5
1561914353.966143,74,0,0,1561914353.015784,4.63452512864455,-74.15117536678365,2553.034,1.75,211.9921875,4,50,-9999,1561914353.952188,13.49666976928711,18.32025527954102,-18.60845947265625,19.62581062316895,27.11927795410156,15,197069.1410015417,-1.867095947265625,2.904067993164062,1.469619750976562,197069.1237595417,6.770843125970612,-1.866975526370315,8.055180258536661,197069.1238505417,-61.27427673339844,-14.84957885742188,-584.7857055664062,197069.1237595417,0.271007132632627,2.674187140857968,-1.378103622748631,6.76819896697998,-1.873541831970215,8.051935195922852,-2.160809278488159,2.261839866638184,1.09620463848114,1,-0.2473250031471252,0.7240932583808899,-0.5887054204940796,0.260662853717804,0.0862852931022644,0.9814921617507935,0.1709614098072052,0,0,0,-1,197068.8521225417,3,2,1561914353.689659,1561913957.287787,16,1.221493,0,0,13.06835,0,0,1561914226.950748,197066.698857,0,1.178467,75.29406,3232235528,177845136,1,1,0.54,-10.40031,-20.53205,5
1561914353.986362,75,0,0,1561914353.015784,4.63452512864455,-74.15117536678365,2553.034,1.75,211.9921875,4,50,-9999,1561914353.976465,15.31259918212891,13.4105052947998,-21.30206298828125,27.19864082336426,34.69210815429688,15,197069.1612655417,-1.336196899414062,2.39923095703125,1.127716064453125,197069.1440225417,3.269327713166027,6.489622369605951,4.20404319361371,197069.1439615417,-58.14833068847656,-18.23249816894531,-584.6348876953125,197069.1440225417,-0.5199875303419248,1.952403293521867,-1.353839707412374,3.266683340072632,6.48305606842041,4.200798034667969,-2.066870212554932,1.927510976791382,1.389454960823059,1,-0.1730976104736328,0.7142266035079956,-0.613705039024353,0.2885890603065491,0.1997742205858231,0.9765570759773254,0.08016484975814819,0,0,0,-1,197068.8521225417,3,2,1561914353.689659,1561913957.287787,16,1.221493,0,0,13.06835,0,0,1561914226.950748,197066.698857,0,1.178467,75.29406,3232235528,177845136,1,1,0.54,-10.40031,-13.77269,5
1561914354.021528,76,0,0,1561914353.015784,4.63452512864455,-74.15117536678365,2553.034,1.75,211.9921875,4,50,-9999,1561914354.003013,22.09579467773438,8.841930389404297,-17.85382080078125,37.53261184692383,45.02608108520508,15,197069.1814985417,-1.125335693359375,2.337722778320312,1.054122924804688,197069.1642865417,1.015758401895994,7.425385271310363,2.900293747229856,197069.1640425417,-54.43482971191406,-19.83877563476562,-582.3564453125,197069.1642865417,-0.7642999359303952,1.868813534936396,-1.300690109662477,1.013114213943481,7.418818950653076,2.897048234939575,-1.591269135475159,1.43548846244812,1.04936683177948,1,-0.0951710119843483,0.7280914187431335,-0.6281983256340027,0.2572786509990692,0.2550722062587738,0.9637425541877747,0.078349269926548,0,0,0,-1,197068.8521225417,3,2,1561914353.689659,1561913957.287787,16,1.221493,0,0,13.06835,0,0,1561914226.950748,197066.698857,0,1.178467,75.29406,3232235528,177845136,1,1,0.54,-10.40031,-14.68754,5
1561914354.026586,77,0,0,1561914353.015784,4.63452512864455,-74.15117536678365,2553.034,1.75,211.9921875,4,50,-9999,1561914354.003013,22.09579467773438,8.841930389404297,-17.85382080078125,37.53261184692383,45.02608108520508,15,197069.2017625417,-1.3330078125,1.988601684570312,1.228958129882812,197069.1845505417,1.947796872815931,3.663974897202144,2.279150571436897,197069.1841535417,-52.10198974609375,-21.82293701171875,-580.2864990234375,197069.1845505417,-0.9076307936286715,1.84470097986254,-1.257797378751609,1.945152640342712,3.657408475875854,2.275904893875122,-1.421770572662354,1.386308431625366,0.9708346128463745,1,-0.03675256669521332,0.7350465059280396,-0.6355087161064148,0.2334192246198654,0.2964348196983337,0.9514144062995911,0.08328823745250702,0,0,0,-1,197068.8521225417,3,2,1561914353.689659,1561913957.287787,16,1.221493,0,0,13.06835,0,0,1561914226.950748,197066.698857,0,1.178467,75.29406,3232235528,177845136,1,1,0.54,-10.40031,-14.68754,5
1561914354.04683,78,0,0,1561914354.015871,4.634566660974765,-74.15115835152021,2553.062,1.75,214.1015625,4,50,-9999,1561914354.036833,24.03867340087891,7.162273406982422,-16.55010986328125,42.62051391601562,50.11398315429688,15,197069.2220255417,-1.423538208007812,1.469467163085938,1.07611083984375,197069.2048135417,2.073826444030078,1.733499224116088,0.8737767620683818,197069.2042645417,-51.02821350097656,-23.05989074707031,-579.7256469726562,197069.2048135417,-1.066267299688209,1.743528489214235,-1.234929441431557,2.071182012557983,1.726932883262634,0.8705312609672546,-1.6576908826828,1.044476747512817,1.172310352325439,1,-0.003650258295238018,0.7268497347831726,-0.6483256220817566,0.2266054302453995,0.3246830701828003,0.9441249370574951,0.05664772167801857,0,0,0,-1,197068.8521225417,3,2,1561914353.689659,1561913957.287787,16,1.221493,0,0,13.06835,0,0,1561914226.950748,197066.698857,0,1.178467,75.29406,3232235528,177845136,1,1,0.54,-10.40031,-15.75888,5
1561914354.067111,79,0,0,1561914354.015871,4.634566660974765,-74.15115835152021,2553.062,1.75,214.1015625,4,50,-9999,1561914354.036833,24.03867340087891,7.162273406982422,-16.55010986328125,42.62051391601562,50.11398315429688,15,197069.2422895417,-1.43212890625,1.297332763671875,0.910186767578125,197069.2250775417,0.9478725614971115,2.772602363495499,-1.601804310315016,197069.2243755417,-50.45579528808594,-23.51747131347656,-578.7466430664062,197069.2250775417,-1.157267056759145,1.700677719809899,-1.245182430168903,0.9452283382415771,2.766036033630371,-1.605049729347229,-1.740734696388245,0.5220126509666443,1.034679651260376,1,0.01178212463855743,0.7215100526809692,-0.6599910259246826,0.2090367674827576,0.3171964585781097,0.9474545121192932,0.04143114760518074,0,0,0,-1,197068.8521225417,3,2,1561914353.689659,1561913957.287787,16,1.221493,0,0,13.06835,0,0,1561914226.950748,197066.698857,0,1.178467,75.29406,3232235528,177845136,1,1,0.54,-10.40031,-16.81734,5
1561914354.095968,80,0,0,1561914354.015871,4.634566660974765,-74.15115835152021,2553.062,1.75,214.1015625,4,50,-9999,1561914354.077585,25.50834274291992,6.390871047973633,-14.69134521484375,51.94237899780273,59.43584823608398,15,197069.2625535417,-1.379959106445312,1.398391723632812,0.730621337890625,197069.2453105417,-0.1959149129594611,4.371096897207766,-4.490010768305329,197069.2444865417,-49.80319213867188,-21.62971496582031,-576.88232421875,197069.2453105417,-1.145236596390415,1.784563557278173,-1.307348844338745,-0.1985591351985931,4.36453104019165,-4.493256092071533,-1.686612129211426,0.3318347930908203,0.8549425601959229,1,0.01407616771757603,0.7262396216392517,-0.6678690910339355,0.1622613370418549,0.2544833123683929,0.9654979705810547,0.05524425208568573,0,0,0,-1,197068.8521225417,3,2,1561914353.689659,1561913957.287787,16,1.221493,0,0,13.06835,0,0,1561914226.950748,197066.698857,0,1.178467,75.29406,3232235528,177845136,1,1,0.54,-10.95759,-17.89022,5
1561914354.107801,81,0,0,1561914354.015871,4.634566660974765,-74.15115835152021,2553.062,1.75,214.1015625,4,50,-9999,1561914354.077585,25.50834274291992,6.390871047973633,-14.69134521484375,51.94237899780273,59.43584823608398,15,197069.282826875,-1.370254516601562,1.539337158203125,0.5667572021484375,197069.2655745417,-0.9995048634471317,5.063621046014227,-6.910415137643921,197069.2645675417,-49.60980224609375,-18.52249145507812,-574.491455078125,197069.2655745417,-0.8740086031816869,2.147751777874074,-1.410371847279418,-1.002149105072021,5.057054996490479,-6.913660526275635,-1.513839483261108,0.4112321734428406,0.6434885263442993,1,0.003344951197504997,0.737261950969696,-0.6698749661445618,0.08775640279054642,0.1338803172111511,0.9871595501899719,0.08713274449110031,0,0,0,-1,197068.8521225417,3,2,1561914353.689659,1561913957.287787,16,1.221493,0,0,13.06835,0,0,1561914226.950748,197066.698857,0,1.178467,75.29406,3232235528,177845136,1,1,0.54,-11.51487,-18.95858,5
1561914354.128731,82,0,0,1561914354.015871,4.634566660974765,-74.15115835152021,2553.062,1.75,214.1015625,4,50,-9999,1561914354.106941,25.79462051391602,12.0059814453125,-10.20751953125,59.014404296875,66.50787353515625,15,197069.303090875,-1.421356201171875,1.733123779296875,0.3464202880859375,197069.285847875,-1.442840757480405,5.045250028182641,-8.691834483466568,197069.284688875,-50.88700866699219,-14.49600219726562,-571.5511474609375,197069.285847875,0.3179636705590534,-2.849558876865551,-1.447780961461956,-1.44548487663269,5.038683891296387,-8.695079803466797,-1.334927678108215,0.5468940138816833,0.4492473602294922,1,-0.02220224216580391,0.7471693158149719,-0.6642513275146484,-0.003902150318026543,-0.03532687202095985,0.9924431443214417,0.1175098493695259,0,0,0,-1,197068.8521225417,3,2,1561914353.689659,1561913957.287787,16,1.221493,0,0,13.06835,0,0,1561914226.950748,197066.698857,0,1.178467,75.29406,3232235528,177845136,1,1,0.54,-12.07215,-20.0032,5
1561914354.148141,83,0,0,1561914354.015871,4.634566660974765,-74.15115835152021,2553.062,1.75,214.1015625,4,50,-9999,1561914354.128725,24.25818634033203,16.1138916015625,-7.25244140625,66.38655090332031,73.88002014160156,15,197069.323354875,-1.441329956054688,1.755233764648438,0.19781494140625,197069.306111875,-1.568043150859973,4.536617152646152,-9.666899783906151,197069.304799875,-53.23854064941406,-10.35887145996094,-569.4493408203125,197069.306111875,0.9786369915370885,-2.100482392378982,-1.299837811550004,-1.570687294006348,4.530051231384277,-9.670145034790039,-1.190378785133362,0.7696089744567871,0.211184024810791,1,-0.05898893624544144,0.751091480255127,-0.6494796872138977,-0.1027525886893272,-0.2309774160385132,0.9635148048400879,0.1352362185716629,0,0,0,-1,197068.8521225417,3,2,1561914353.689659,1561913957.287787,16,1.221493,0,0,13.06835,0,0,1561914226.950748,197066.698857,0,1.178467,75.29406,3232235528,177845136,1,1,0.54,-12.07215,-20.0032,5
1561914354.179733,84,0,0,1561914354.015871,4.634566660974765,-74.15115835152021,2553.062,1.75,214.1015625,4,50,-9999,1561914354.156634,21.22283935546875,20.42618179321289,-4.781494140625,72.546875,80.04034423828125,15,197069.343587875,-1.361465454101562,1.660903930664062,0.0442657470703125,197069.326375875,-1.545555152299235,3.374632298461068,-10.20072509809035,197069.324910875,-57.3809814453125,-6.58380126953125,-567.0376586914062,197069.326375875,1.126273908244547,-1.881989535649238,-1.101900683370199,-1.54819929599762,3.368066072463989,-10.20396995544434,-1.011133909225464,0.8631658554077148,0.05944514274597168,1,-0.1068619266152382,0.7468369603157043,-0.6256322264671326,-0.1984928101301193,-0.430196076631546,0.8920679092407227,0.1383698284626007,0,0,0,-1,197068.8521225417,3,2,1561914353.689659,1561913957.287787,16,1.221493,0,0,13.06835,0,0,1561914226.950748,197066.698857,0,1.178467,75.29406,3232235528,177845136,1,1,0.54,-13.18671,-21.88923,5
1561914354.191479,85,0,0,1561914354.015871,4.634566660974765,-74.15115835152021,2553.062,1.75,214.1015625,4,50,-9999,1561914354.156634,21.22283935546875,20.42618179321289,-4.781494140625,72.546875,80.04034423828125,15,197069.363850875,-1.225250244140625,1.46490478515625,-0.02593994140625,197069.346638875,-1.708998941035687,2.049369304159335,-10.49002961362784,197069.344991875,-62.7188720703125,-3.226791381835938,-565.6322631835938,197069.346638875,1.168104133418726,-1.791286912847215,-0.8908487100695948,-1.711643099784851,2.042803049087524,-10.4932746887207,-0.7479352951049805,0.8832982778549194,-0.09324765205383301,1,-0.1637924313545227,0.7361580729484558,-0.5915818810462952,-0.2850861251354218,-0.613530158996582,0.7776056528091431,0.1375133395195007,0,0,0,-1,197068.8521225417,3,2,1561914353.689659,1561913957.287787,16,1.221493,0,0,13.06835,0,0,1561914226.950748,197066.698857,0,1.178467,75.29406,3232235528,177845136,1,1,0.54,-13.18671,-21.88923,5
1561914354.208952,86,0,0,1561914354.015871,4.634566660974765,-74.15115835152021,2553.062,1.75,214.1015625,4,50,-9999,1561914354.1941,16.85673141479492,24.14801788330078,-2.94586181640625,76.78678894042969,84.28025817871094,15,197069.384114875,-1.02911376953125,1.227676391601562,-0.0090179443359375,197069.366902875,-1.978549725503621,0.3614301083917768,-10.82984470766421,197069.365102875,-68.77528381347656,-1.14178466796875,-564.3846435546875,197069.366902875,1.17785060263528,-1.759297006657413,-0.6720832663573607,-1.981193900108337,0.3548638820648193,-10.83308982849121,-0.4565854072570801,0.8422872424125671,-0.1725746393203735,1,-0.2292748093605042,0.7216303944587708,-0.5455400943756104,-0.3592611849308014,-0.7686647772789001,0.6226175427436829,0.1466347277164459,0,0,0,-1,197068.8521225417,3,2,1561914353.689659,1561913957.287787,16,1.221493,0,0,13.06835,0,0,1561914226.950748,197066.698857,0,1.178467,75.29406,3232235528,177845136,1,1,0.54,-13.74399,-15.45477,5
1561914354.229335,87,0,0,1561914354.015871,4.634566660974765,-74.15115835152021,2553.062,1.75,214.1015625,4,50,-9999,1561914354.1941,16.85673141479492,24.14801788330078,-2.94586181640625,76.78678894042969,84.28025817871094,15,197069.404378875,-0.967010498046875,1.232589721679688,-0.0537109375,197069.387166875,-2.654433911187049,-1.109963997032021,-10.9988361272674,197069.385213875,-75.54617309570312,-0.44866943359375,-562.80810546875,197069.387166875,1.173993804383653,-1.770227274059218,-0.4445604982788899,-2.657078266143799,-1.116530299186707,-11.00208187103271,-0.1442079544067383,0.7976152896881104,-0.1878730058670044,1,-0.3019106686115265,0.7058877348899841,-0.4841454923152924,-0.4197327494621277,-0.8849057555198669,0.4300611317157745,0.1788550913333893,0,0,0,-1,197068.8521225417,3,2,1561914353.689659,1561913957.287787,16,1.221493,0,0,13.06835,0,0,1561914226.950748,197066.698857,0,1.178467,75.29406,3232235528,177845136,1,1,0.54,-14.30126,-15.50517,5
1561914354.258052,88,0,0,1561914354.015871,4.634566660974765,-74.15115835152021,2553.062,1.75,214.1015625,4,50,-9999,1561914354.256029,-7.945121765136719,27.27524757385254,2.9830322265625,356.0220642089844,3.515546321868896,15,197069.424641875,-0.8217926025390625,1.262893676757812,-0.0374298095703125,197069.407430875,-3.051583135067295,-1.827019587903638,-10.23222816325712,197069.405293875,-81.99586486816406,-1.533233642578125,-560.8949584960938,197069.407430875,1.161567760283302,-1.806188889326886,-0.2208049468029772,-3.054227352142334,-1.833585858345032,-10.2354736328125,-0.01819664239883423,1.013574600219727,-0.281273365020752,1,-0.3711910247802734,0.6899263858795166,-0.4099958539009094,-0.4670355618000031,-0.9488138556480408,0.2190150916576385,0.2275623828172684,0,0,0,-1,197068.8521225417,3,2,1561914353.689659,1561913957.287787,16,1.221493,0,0,13.06835,0,0,1561914226.950748,197066.698857,0,1.178467,75.29406,3232235528,177845136,1,1,0.54,-12.83646,-15.94467,5
1561914354.270204,89,0,0,1561914354.015871,4.634566660974765,-74.15115835152021,2553.062,1.75,214.1015625,4,50,-9999,1561914354.256029,-7.945121765136719,27.27524757385254,2.9830322265625,356.0220642089844,3.515546321868896,15,197069.444905875,-0.48870849609375,1.081756591796875,0.0583648681640625,197069.427663875,-2.188234246563228,-1.416172661272678,-9.166212715798022,197069.425404875,-87.42240905761719,-3.890899658203125,-559.283447265625,197069.427663875,1.157866092119819,-1.841518578817214,-0.01708069710516573,-2.190878629684448,-1.422738909721375,-9.169458389282227,0.1416447162628174,1.245813846588135,-0.3048182725906372,1,-0.431207686662674,0.669144332408905,-0.3368110954761505,-0.5028558373451233,-0.9634373188018799,0.01707986742258072,0.2673884034156799,0,0,0,-1,197068.8521225417,3,2,1561914353.689659,1561913957.287787,16,1.221493,0,0,13.06835,0,0,1561914226.950748,197066.698857,0,1.178467,75.29406,3232235528,177845136,1,1,0.54,-12.83646,-13.91198,5
1561914354.290892,90,0,0,1561914354.015871,4.634566660974765,-74.15115835152021,2553.062,1.75,214.1015625,4,50,-9999,1561914354.280206,-16.95542907714844,22.31094932556152,5.15301513671875,354.4190673828125,1.91254198551178,15,197069.465169875,-0.1486358642578125,0.958038330078125,0.115142822265625,197069.447926875,-0.9933854518943477,0.2578757525651357,-8.038787969395006,197069.445515875,-91.63023376464844,-6.35357666015625,-558.3341674804688,197069.447926875,1.176332660325266,-1.856751978444446,0.1603021798911068,-0.9960296750068665,0.2513095140457153,-8.042033195495605,0.4583837985992432,1.241373062133789,-0.2200931310653687,1,-0.4827115535736084,0.6373527646064758,-0.2780227065086365,-0.5324231386184692,-0.9470922350883484,-0.1596165150403976,0.2784579694271088,0,0,0,-1,197068.8521225417,3,2,1561914353.689659,1561913957.287787,16,1.221493,0,0,13.06835,0,0,1561914226.950748,197066.698857,0,1.178467,75.29406,3232235528,177845136,1,1,0.54,-9.411427,-14.37458,5
1561914354.310256,91,0,0,1561914354.015871,4.634566660974765,-74.15115835152021,2553.062,1.75,214.1015625,4,50,-9999,1561914354.307018,-20.19699096679688,19.7085132598877,4.8839111328125,353.6252746582031,1.118749976158142,15,197069.485432875,0.1872100830078125,0.825408935546875,0.223907470703125,197069.468190875,-1.089413714480425,2.425644138783322,-6.425689991845291,197069.465627875,-95.32270812988281,-8.746200561523438,-558.664794921875,197069.468190875,1.199108788534258,-1.835081169330522,0.3062899647534351,-1.092057943344116,2.41907787322998,-6.428935527801514,0.7717182040214539,1.259561657905579,-0.1339187622070312,1,-0.5193950533866882,0.5956169366836548,-0.238927349448204,-0.5642542243003845,-0.9203541278839111,-0.301523357629776,0.2490615099668503,0,0,0,-1,197068.8521225417,3,2,1561914353.689659,1561913957.287787,16,1.221493,0,0,13.06835,0,0,1561914226.950748,197066.698857,0,1.178467,75.29406,3232235528,177845136,1,1,0.54,-9.411427,-14.37458,5
1561914354.336291,92,0,0,1561914354.015871,4.634566660974765,-74.15115835152021,2553.062,1.75,214.1015625,4,50,-9999,1561914354.330875,-22.82538604736328,17.20981597900391,3.84515380859375,355.9335632324219,3.427024841308594,15,197069.505696875,0.3992462158203125,0.7693634033203125,0.433837890625,197069.488454875,-2.036344582216084,4.434000762155437,-5.175287390521248,197069.485738875,-97.9188232421875,-11.43484497070312,-559.3822631835938,197069.488454875,1.195177937602707,-1.763862232517992,0.4270957978368198,-2.038988828659058,4.42743444442749,-5.178532600402832,1.080472230911255,1.239638209342957,0.04927372932434082,1,-0.5358502864837646,0.5478880405426025,-0.2142825871706009,-0.6056122183799744,-0.8932621479034424,-0.4142292141914368,0.1746336668729782,0,0,0,-1,197068.8521225417,3,2,1561914353.689659,1561913957.287787,16,1.221493,0,0,13.06835,0,0,1561914226.950748,197066.698857,0,1.178467,75.29406,3232235528,177845136,1,1,0.54,-9.411427,-15.74258,5
1561914354.350741,93,0,0,1561914354.015871,4.634566660974765,-74.15115835152021,2553.062,1.75,214.1015625,4,50,-9999,1561914354.330875,-22.82538604736328,17.20981597900391,3.84515380859375,355.9335632324219,3.427024841308594,15,197069.525929875,0.4707489013671875,0.8079833984375,0.6556854248046875,197069.508717875,-2.711623697699846,6.221696113402965,-3.953077811445113,197069.505849875,-100.1851348876953,-13.73188781738281,-560.9014892578125,197069.508717875,1.154703030363732,-1.636154562534016,0.525870972648697,-2.71426796913147,6.215129852294922,-3.956323385238647,1.262286782264709,1.271329879760742,0.3773505687713623,1,-0.5335414409637451,0.4935353696346283,-0.2013556361198425,-0.6566675901412964,-0.8630405068397522,-0.5019664764404297,0.05648726224899292,0,0,0,-1,197068.8521225417,3,2,1561914353.689659,1561913957.287787,16,1.221493,0,0,13.06835,0,0,1561914226.950748,197066.698857,0,1.178467,75.29406,3232235528,177845136,1,1,0.54,-9.411427,-15.74258,5
1561914354.373281,94,0,0,1561914354.015871,4.634566660974765,-74.15115835152021,2553.062,1.75,214.1015625,4,50,-9999,1561914354.357803,-24.84766387939453,15.16388988494873,1.99017333984375,0.952660083770752,8.446127891540527,15,197069.546193875,0.5704498291015625,0.78826904296875,0.8148345947265625,197069.528981875,-3.100088353265344,7.391490687484707,-1.667942850722698,197069.525929875,-101.2256317138672,-15.02139282226562,-563.427001953125,197069.528981875,1.084575552264118,-1.459998412806448,0.5837867687289132,-3.10273265838623,7.384924411773682,-1.671188354492188,1.300014019012451,1.359170913696289,0.7479441165924072,1,-0.5132818818092346,0.4363626539707184,-0.2039448320865631,-0.7103068828582764,-0.8292651772499084,-0.5511875152587891,-0.09225868433713913,0,0,0,-1,197068.8521225417,3,2,1561914353.689659,1561913957.287787,16,1.221493,0,0,13.06835,0,0,1561914226.950748,197066.698857,0,1.178467,75.29406,3232235528,177845136,1,1,0.54,-9.411427,-16.75441,5
1561914354.392117,95,0,0,1561914354.015871,4.634566660974765,-74.15115835152021,2553.062,1.75,214.1015625,4,50,-9999,1561914354.381432,-24.97093200683594,14.43025875091553,-3.0308837890625,6.29832124710083,13.79178905487061,15,197069.566457875,0.737640380859375,0.835601806640625,0.9086456298828125,197069.549245875,-3.672956407978436,6.457264429729269,1.712047195219391,197069.546040875,-101.3418579101562,-15.4075927734375,-566.059326171875,197069.549245875,1.0062455933867,-1.271907551253239,0.5705212809625354,-3.67560076713562,6.450698375701904,1.708801746368408,1.374755620956421,1.328339815139771,1.06265664100647,1,-0.4731451869010925,0.3901571929454803,-0.2257988154888153,-0.756918728351593,-0.8043057918548584,-0.5400708317756653,-0.2478219866752625,0,0,0,-1,197068.8521225417,3,2,1561914353.689659,1561913957.287787,16,1.221493,0,0,13.06835,0,0,1561914226.950748,197066.698857,0,1.178467,75.29406,3232235528,177845136,1,1,0.54,-9.411427,-17.78938,5
1561914354.415212,96,0,0,1561914354.015871,4.634566660974765,-74.15115835152021,2553.062,1.75,214.1015625,4,50,-9999,1561914354.408009,-23.55707550048828,16.81653213500977,-3.32037353515625,8.25593376159668,15.74940204620361,15,197069.586720875,0.5740966796875,1.040725708007812,1.027053833007812,197069.569508875,-3.821842825564297,1.977521479006741,5.22688187558379,197069.566151875,-99.94905090332031,-13.74275207519531,-567.1317138671875,197069.569508875,0.9506447051646125,-1.151939150290209,0.4767263910385713,-3.824487209320068,1.97095513343811,5.223636627197266,1.54933500289917,1.294474840164185,1.27001416683197,1,-0.4182652533054352,0.3799604177474976,-0.2585999965667725,-0.7834604382514954,-0.8116946816444397,-0.4588730335235596,-0.3613685071468353,0,0,0,-1,197068.8521225417,3,2,1561914353.689659,1561913957.287787,16,1.221493,0,0,13.06835,0,0,1561914226.950748,197066.698857,0,1.178467,75.29406,3232235528,177845136,1,1,0.54,-9.411427,-18.84005,5
1561914354.431925,97,0,0,1561914354.015871,4.634566660974765,-74.15115835152021,2553.062,1.75,214.1015625,4,50,-9999,1561914354.408009,-23.55707550048828,16.81653213500977,-3.32037353515625,8.25593376159668,15.74940204620361,15,197069.606984875,0.214385986328125,1.289810180664062,1.160675048828125,197069.589772875,-1.250840158691142,-4.40892204048627,7.959255326600879,197069.586263875,-97.2958984375,-10.19496154785156,-565.7947998046875,197069.589772875,0.9549951345623851,-1.178166541861771,0.329925732021378,-1.25348436832428,-4.415488243103027,7.956009864807129,1.44817328453064,1.364698529243469,1.389037251472473,1,-0.3731289803981781,0.4240083396434784,-0.2958796322345734,-0.7703551054000854,-0.8740764856338501,-0.323972761631012,-0.3619833886623383,0,0,0,-1,197068.8521225417,3,2,1561914353.689659,1561913957.287787,16,1.221493,0,0,13.06835,0,0,1561914226.950748,197066.698857,0,1.178467,75.29406,3232235528,177845136,1,1,0.54,-9.411427,-17.89918,5
1561914354.452123,98,0,0,1561914354.015871,4.634566660974765,-74.15115835152021,2553.062,1.75,214.1015625,4,50,-9999,1561914354.432186,-20.69147491455078,20.19586753845215,-1.50457763671875,4.275741100311279,11.76920890808105,15,197069.627248875,-0.3976287841796875,1.753341674804688,0.9594268798828125,197069.610005875,2.087678876440125,-9.298142520407239,9.990289565603346,197069.606374875,-93.56930541992188,-6.78204345703125,-563.292724609375,197069.610005875,1.023547326900526,-1.337748423606491,0.1605328679372055,2.085034608840942,-9.304708480834961,9.987044334411621,1.174842953681946,1.449654340744019,1.388649702072144,1,-0.3575456440448761,0.5081080198287964,-0.3396120071411133,-0.7061523795127869,-0.9604569673538208,-0.1598442494869232,-0.2279746979475021,0,0,0,-1,197068.8521225417,3,2,1561914353.689659,1561913957.287787,16,1.221493,0,0,13.06835,0,0,1561914226.950748,197066.698857,0,1.178467,75.29406,3232235528,177845136,1,1,0.54,-9.411427,-18.89021,5
1561914354.473629,99,0,0,1561914354.015871,4.634566660974765,-74.15115835152021,2553.062,1.75,214.1015625,4,50,-9999,1561914354.458697,-16.11193084716797,23.81151580810547,0.95147705078125,357.9510803222656,5.444551467895508,15,197069.647511875,-0.6092376708984375,2.042404174804688,0.5945892333984375,197069.630269875,3.822859620468489,-11.81581298960658,13.08698238847884,197069.626485875,-86.9031982421875,-3.311599731445312,-561.8779907226562,197069.630269875,1.113877651620576,-1.561091023269796,-0.06277899333493499,3.820215225219727,-11.82237911224365,13.08373737335205,0.6003541946411133,1.690603971481323,0.9691128730773926,1,-0.3528387248516083,0.6088200211524963,-0.3941407203674316,-0.5911819338798523,-0.9979830384254456,0.06273776292800903,-0.009686032310128212,0,0,0,-1,197068.8521225417,3,2,1561914353.689659,1561913957.287787,16,1.221493,0,0,13.06835,0,0,1561914226.950748,197066.698857,0,1.178467,75.29406,3232235528,177845136,1,1,0.54,-9.411427,-19.36967,5
1561914354.49914,100,0,0,1561914354.015871,4.634566660974765,-74.15115835152021,2553.062,1.75,214.1015625,4,50,-9999,1561914354.483589,0.2079391479492188,28.73521423339844,0.2059326171875,354.3697509765625,1.863213539123535,15,197069.667775875,-0.9976806640625,1.993621826171875,0.7518157958984375,197069.650533875,5.144889004574648,-12.44143000971476,13.85214585391386,197069.646565875,-78.42919921875,-0.7872161865234375,-562.3531494140625,197069.650533875,1.173495315339263,-1.795191352054808,-0.3493628163662563,5.142244815826416,-12.44799613952637,13.84890079498291,0.306796669960022,1.700104951858521,0.3855146169662476,1,-0.3360414803028107,0.7011514902114868,-0.4530978798866272,-0.4360790848731995,-0.9160343408584595,0.3422991931438446,0.2090745717287064,0,0,0,-1,197068.8521225417,3,2,1561914353.689659,1561913957.287787,16,1.221493,0,0,13.06835,0,0,1561914226.950748,197066.698857,0,1.178467,75.29406,3232235528,177845136,1,1,0.54,-9.411427,-18.20115,5
1561914354.513113,101,0,0,1561914354.015871,4.634566660974765,-74.15115835152021,2553.062,1.75,214.1015625,4,50,-9999,1561914354.509608,7.557907104492188,27.77741050720215,-4.17047119140625,353.6891479492188,1.182604432106018,15,197069.688039875,-1.472213745117188,1.980300903320312,0.8024139404296875,197069.670796875,6.925790099249166,-12.9988104511085,12.17645187283849,197069.666676875,-69.9892578125,-0.67803955078125,-565.73876953125,197069.670796875,1.203297301395825,-2.043241142744817,-0.6408260807884661,6.923145771026611,-13.0053768157959,12.1732063293457,-0.2838871479034424,1.395763993263245,0.3870348930358887,1,-0.3226691484451294,0.7604439854621887,-0.5018802285194397,-0.2563706040382385,-0.7137935161590576,0.5978578329086304,0.3647808730602264,0,0,0,-1,197068.8521225417,3,2,1561914353.689659,1561913957.287787,16,1.221493,0,0,13.06835,0,0,1561914226.950748,197066.698857,0,1.178467,75.29406,3232235528,177845136,1,1,0.54,-9.411427,-18.20115,5
1561914354.533384,102,0,0,1561914354.015871,4.634566660974765,-74.15115835152021,2553.062,1.75,214.1015625,4,50,-9999,1561914354.509608,7.557907104492188,27.77741050720215,-4.17047119140625,353.6891479492188,1.182604432106018,15,197069.708272875,-1.864715576171875,2.33416748046875,0.85418701171875,197069.691060875,6.762974550213864,-10.59189019900119,10.37257888323317,197069.686787875,-64.48468017578125,-3.07159423828125,-571.9816284179688,197069.691060875,1.184565563518703,-2.30264740289298,-0.9095146341906112,6.760330200195312,-10.59845638275146,10.36933326721191,-1.015339493751526,1.191095113754272,0.3920236825942993,1,-0.3096162378787994,0.7805978059768677,-0.5370910167694092,-0.07961207628250122,-0.4568742215633392,0.7892057299613953,0.4103902876377106,0,0,0,-1,197068.8521225417,3,2,1561914353.689659,1561913957.287787,16,1.221493,0,0,13.06835,0,0,1561914226.950748,197066.698857,0,1.178467,75.29406,3232235528,177845136,1,1,0.54,-9.411427,-18.78413,5
1561914354.553559,103,0,0,1561914354.015871,4.634566660974765,-74.15115835152021,2553.062,1.75,214.1015625,4,50,-9999,1561914354.533755,11.83175659179688,25.09429931640625,-9.89019775390625,38.03508758544922,45.52855682373047,15,197069.728535875,-2.0833740234375,2.516311645507812,0.9385528564453125,197069.711324875,5.939950714303558,-4.097636059627376,7.456312028417235,197069.706899875,-61.95176696777344,-7.03802490234375,-576.814697265625,197069.711324875,1.084559585838863,-2.544190907270456,-1.12534634862563,5.937301635742188,-4.104207038879395,7.453067302703857,-1.622356057167053,1.431750535964966,0.4979485273361206,1,-0.2827348113059998,0.7734211683273315,-0.5651452541351318,0.04991651326417923,-0.2423595041036606,0.9024168848991394,0.3562385439872742,0,0,0,-1,197068.8521225417,3,2,1561914353.689659,1561913957.287787,16,1.221493,0,0,13.06835,0,0,1561914226.950748,197066.698857,0,1.178467,75.29406,3232235528,177845136,1,1,0.54,-9.411427,-19.80882,5
1561914354.58403,104,0,0,1561914354.015871,4.634566660974765,-74.15115835152021,2553.062,1.75,214.1015625,4,50,-9999,1561914354.560216,14.5908088684082,21.54759788513184,-14.1328125,37.08757400512695,44.5810432434082,15,197069.748799875,-2.061264038085938,2.255325317382812,1.120330810546875,197069.731587875,4.016413907437705,4.229923793087101,5.348851990348328,197069.727010875,-59.21662902832031,-10.15687561035156,-578.9417724609375,197069.731587875,0.9143103919541317,-2.699542985834571,-1.277627773219937,4.01376485824585,4.223352909088135,5.345607280731201,-1.959747314453125,1.55897855758667,0.6773440837860107,1,-0.2284434735774994,0.7605379223823547,-0.5996864438056946,0.09885256737470627,-0.1236266568303108,0.9573330283164978,0.261208713054657,0,0,0,-1,197068.8521225417,3,2,1561914353.689659,1561913957.287787,16,1.221493,0,0,13.06835,0,0,1561914226.950748,197066.698857,0,1.178467,75.29406,3232235528,177845136,1,1,0.54,-9.411427,-20.46363,5
1561914354.594562,105,0,0,1561914354.015871,4.634566660974765,-74.15115835152021,2553.062,1.75,214.1015625,4,50,-9999,1561914354.58436,21.21458053588867,16.16768646240234,-13.6334228515625,46.6191520690918,54.11262130737305,15,197069.769063875,-2.04547119140625,1.615447998046875,1.255157470703125,197069.751851875,2.129965613492839,7.206787682714479,3.922752928744599,197069.747121875,-55.88385009765625,-12.57841491699219,-578.1497802734375,197069.751851875,0.6399116596136885,-2.840600146626732,-1.368241648754262,2.12731671333313,7.200216770172119,3.91950798034668,-2.001622676849365,1.275769472122192,0.9282021522521973,1,-0.151048555970192,0.7571318745613098,-0.6296817660331726,0.08623575419187546,-0.05964136496186256,0.9795558452606201,0.1921286880970001,0,0,0,-1,197068.8521225417,3,2,1561914353.689659,1561913957.287787,16,1.221493,0,0,13.06835,0,0,1561914226.950748,197066.698857,0,1.178467,75.29406,3232235528,177845136,1,1,0.54,-9.411427,-21.27245,5
1561914354.614371,106,0,0,1561914354.015871,4.634566660974765,-74.15115835152021,2553.062,1.75,214.1015625,4,50,-9999,1561914354.610546,23.42677307128906,14.70720100402832,-11.63604736328125,55.20440292358398,62.69787216186523,15,197069.789326875,-2.221633911132812,1.255691528320312,1.384246826171875,197069.772084875,1.216403887899763,5.844774663266306,1.956784775178839,197069.767232875,-52.66693115234375,-14.33393859863281,-575.75439453125,197069.772084875,0.3435957672770316,-2.998676652171294,-1.414203130389004,1.213754892349243,5.838203907012939,1.953539848327637,-2.023258447647095,0.627683699131012,1.100792407989502,1,-0.08393651247024536,0.7550743222236633,-0.6477152705192566,0.05729319155216217,-0.02221268601715565,0.987764298915863,0.154365137219429,0,0,0,-1,197068.8521225417,3,2,1561914353.689659,1561913957.287787,16,1.221493,0,0,13.06835,0,0,1561914226.950748,197066.698857,0,1.178467,75.29406,3232235528,177845136,1,1,0.54,-9.411427,-21.94858,5
1561914354.634734,107,0,0,1561914354.015871,4.634566660974765,-74.15115835152021,2553.062,1.75,214.1015625,4,50,-9999,1561914354.610546,23.42677307128906,14.70720100402832,-11.63604736328125,55.20440292358398,62.69787216186523,15,197069.809590875,-2.167861938476562,1.0989990234375,1.310714721679688,197069.792348875,0.3950450603029749,5.085555373384337,-0.9829189624942272,197069.787312875,-51.36512756347656,-15.04586791992188,-573.9281616210938,197069.792348875,0.2926257013444535,-2.94050645124374,-1.432235155221219,0.3923961520195007,5.07898473739624,-0.9861639142036438,-2.194046974182129,0.265275776386261,1.248911261558533,1,-0.04423631355166435,0.7521375417709351,-0.6572059392929077,0.02031397260725498,-0.0275869332253933,0.9904157519340515,0.1353354603052139,0,0,0,-1,197068.8521225417,3,2,1561914353.689659,1561913957.287787,16,1.221493,0,0,13.06835,0,0,1561914226.950748,197066.698857,0,1.178467,75.29406,3232235528,177845136,1,1,0.54,-9.411427,-21.94858,5
1561914354.661815,108,0,0,1561914354.015871,4.634566660974765,-74.15115835152021,2553.062,1.75,214.1015625,4,50,-9999,1561914354.635044,24.63277053833008,14.44706630706787,-9.54803466796875,62.60947418212891,70.10294342041016,15,197069.829854875,-2.054641723632812,1.197113037109375,1.156875610351562,197069.812611875,-0.4476872329383532,5.060074248074459,-3.78022800405461,197069.807423875,-50.9268798828125,-14.79385375976562,-571.4805908203125,197069.812611875,0.5898932128428449,-2.544370564542963,-1.411254904661145,-0.4503361582756042,5.053503513336182,-3.783472776412964,-2.078524589538574,0.1116988062858582,1.179348945617676,1,-0.02893257327377796,0.751562237739563,-0.6581446528434753,-0.03409818932414055,-0.08933746069669724,0.9873002171516418,0.1313657760620117,0,0,0,-1,197068.8521225417,3,2,1561914353.689659,1561913957.287787,16,1.221493,0,0,13.06835,0,0,1561914226.950748,197066.698857,0,1.178467,75.29406,3232235528,177845136,1,1,0.54,-9.411427,-23.92085,5
1561914354.675854,109,0,0,1561914354.015871,4.634566660974765,-74.15115835152021,2553.062,1.75,214.1015625,4,50,-9999,1561914354.664429,24.95764923095703,15.60550689697266,-6.965087890625,70.40473175048828,77.89820098876953,15,197069.850117875,-2.119400024414062,1.348922729492188,0.9616241455078125,197069.832875875,-0.8807864683735794,5.50323597137244,-6.065991737110392,197069.827534875,-51.55508422851562,-11.812255859375,-569.0465087890625,197069.832875875,0.8921112909190702,-2.141014364361984,-1.328740172432869,-0.8834353685379028,5.496665000915527,-6.069236755371094,-1.852866888046265,0.2262658476829529,1.027482151985168,1,-0.03121046163141727,0.7508146166801453,-0.6509899497032166,-0.1073096990585327,-0.2017747759819031,0.9708471894264221,0.1293933689594269,0,0,0,-1,197068.8521225417,3,2,1561914353.689659,1561913957.287787,16,1.221493,0,0,13.06835,0,0,1561914226.950748,197066.698857,0,1.178467,75.29406,3232235528,177845136,1,1,0.54,-9.411427,-23.92085,5
1561914354.695515,110,0,0,1561914354.015871,4.634566660974765,-74.15115835152021,2553.062,1.75,214.1015625,4,50,-9999,1561914354.685644,20.68793487548828,21.44171905517578,-1.63177490234375,78.84869384765625,86.3421630859375,15,197069.870381875,-2.310958862304688,1.477294921875,0.7274169921875,197069.853139875,-1.100406178195836,5.838098118413478,-7.863836395272212,197069.847615875,-54.07890319824219,-8.76934814453125,-566.122802734375,197069.853139875,1.030932455825908,-1.893137626269933,-1.191233951965727,-1.103055119514465,5.831527233123779,-7.867081165313721,-1.767968654632568,0.4200958609580994,0.8442496061325073,1,-0.04581059888005257,0.7460486888885498,-0.6345673203468323,-0.1965632885694504,-0.3514313995838165,0.9288268685340881,0.1173745170235634,0,0,0,-1,197068.8521225417,3,2,1561914353.689659,1561913957.287787,16,1.221493,0,0,13.06835,0,0,1561914226.950748,197066.698857,0,1.178467,75.29406,3232235528,177845136,1,1,0.54,-9.411427,-24.9855,5
1561914354.71566,111,0,0,1561914354.015871,4.634566660974765,-74.15115835152021,2553.062,1.75,214.1015625,4,50,-9999,1561914354.712489,16.56072235107422,24.70543098449707,0.8021240234375,86.21821594238281,93.71168518066406,15,197069.890614875,-2.405670166015625,1.45318603515625,0.4590606689453125,197069.873402875,-1.321527644556788,5.235377892093361,-9.090862301179756,197069.867726875,-57.64619445800781,-5.386627197265625,-563.6154174804688,197069.873402875,1.071337929893349,-1.742246214691807,-1.018415577866989,-1.324176549911499,5.228806972503662,-9.094107627868652,-1.793936729431152,0.6260172128677368,0.6378947496414185,1,-0.07100092619657516,0.7346563935279846,-0.6077027320861816,-0.2931488156318665,-0.5170221924781799,0.8512777090072632,0.08952229470014572,0,0,0,-1,197068.8521225417,3,2,1561914353.689659,1561913957.287787,16,1.221493,0,0,13.06835,0,0,1561914226.950748,197066.698857,0,1.178467,75.29406,3232235528,177845136,1,1,0.54,-9.411427,-25.86733,5
1561914354.743216,112,0,0,1561914354.015871,4.634566660974765,-74.15115835152021,2553.062,1.75,214.1015625,4,50,-9999,1561914354.73695,10.99755096435547,27.15661239624023,2.460693359375,91.19137573242188,98.68484497070312,15,197069.910878875,-2.548934936523438,1.532546997070312,0.133087158203125,197069.893666875,-1.537569131138414,3.522602854948051,-10.38404432435818,197069.887837875,-62.88397216796875,-2.627960205078125,-561.4034423828125,197069.893666875,1.064535613815901,-1.657907921070566,-0.8192198423685024,-1.540218114852905,3.516031742095947,-10.38729000091553,-1.725467920303345,0.7225726246833801,0.3996567726135254,1,-0.1113307252526283,0.7192408442497253,-0.5675025582313538,-0.3850180208683014,-0.680202305316925,0.7306133508682251,0.05940384417772293,0,0,0,-1,197068.8521225417,3,2,1561914353.689659,1561913957.287787,16,1.221493,0,0,13.06835,0,0,1561914226.950748,197066.698857,0,1.178467,75.29406,3232235528,177845136,1,1,0.54,-9.411427,-17.93161,5
1561914354.758804,113,0,0,1561914354.015871,4.634566660974765,-74.15115835152021,2553.062,1.75,214.1015625,4,50,-9999,1561914354.73695,10.99755096435547,27.15661239624023,2.460693359375,91.19137573242188,98.68484497070312,15,197069.931142875,-2.561264038085938,1.852813720703125,-0.2349700927734375,197069.913930875,-1.888904527418245,2.607494365393857,-10.92225107116778,197069.907948875,-69.47465515136719,-0.9735107421875,-559.8997802734375,197069.913930875,1.037443747991711,-1.615786889419592,-0.5991464300551398,-1.891553521156311,2.600923299789429,-10.92549610137939,-1.723953247070312,0.9686092138290405,0.09594571590423584,1,-0.1652957201004028,0.7008908987045288,-0.5125865936279297,-0.4676369428634644,-0.824981689453125,0.563937783241272,0.03714145347476006,0,0,0,-1,197068.8521225417,3,2,1561914353.689659,1561913957.287787,16,1.221493,0,0,13.06835,0,0,1561914226.950748,197066.698857,0,1.178467,75.29406,3232235528,177845136,1,1,0.54,-8.876316,-10.61177,5
1561914354.776532,114,0,0,1561914354.015871,4.634566660974765,-74.15115835152021,2553.062,1.75,214.1015625,4,50,-9999,1561914354.762534,-2.436126708984375,28.18664169311523,4.725830078125,5.045882701873779,12.53935050964355,15,197069.951405875,-2.140243530273438,1.794662475585938,-0.330322265625,197069.934193875,-1.212146558581163,2.6933336399654,-10.22446664657619,197069.928029875,-76.25259399414062,-0.8790435791015625,-559.0753173828125,197069.934193875,1.005396487112133,-1.577759899485708,-0.3832603811263612,-1.214795470237732,2.686762571334839,-10.22771167755127,-1.633836269378662,1.478867411613464,-0.2414283752441406,1,-0.2180022001266479,0.6750586628913879,-0.4516997635364532,-0.5410527586936951,-0.9274277687072754,0.3739462792873383,0.006458315066993237,0,0,0,-1,197068.8521225417,3,2,1561914353.689659,1561913957.287787,16,1.221493,0,0,13.06835,0,0,1561914226.950748,197066.698857,0,1.178467,75.29406,3232235528,177845136,1,1,0.54,-4.350241,-7.517895,5
1561914354.797883,115,0,0,1561914354.015871,4.634566660974765,-74.15115835152021,2553.062,1.75,214.1015625,4,50,-9999,1561914354.786736,-8.410888671875,26.89689636230469,4.39666748046875,5.541706562042236,13.03517436981201,15,197069.971669875,-1.704360961914062,1.521743774414062,-0.323333740234375,197069.954427875,0.2910805776684616,2.03225449941394,-9.770168648863937,197069.948140875,-82.703369140625,-1.63958740234375,-558.8763427734375,197069.954427875,0.9923446923971109,-1.532357306334411,-0.1817935892881432,0.2884316444396973,2.025683403015137,-9.77341365814209,-1.157449007034302,1.613868594169617,-0.2925260066986084,1,-0.2712134122848511,0.6383926272392273,-0.3969684839248657,-0.6010941863059998,-0.9827945232391357,0.180793896317482,-0.03779627755284309,0,0,0,-1,197068.8521225417,3,2,1561914353.689659,1561913957.287787,16,1.221493,0,0,13.06835,0,0,1561914226.950748,197066.698857,0,1.178467,75.29406,3232235528,177845136,1,1,0.54,-4.350241,-7.517895,5
1561914354.819714,116,0,0,1561914354.015871,4.634566660974765,-74.15115835152021,2553.062,1.75,214.1015625,4,50,-9999,1561914354.813688,-14.02725219726562,24.73451995849609,3.8389892578125,4.815537929534912,12.30900573730469,15,197069.991933875,-1.330825805664062,1.135879516601562,-0.261505126953125,197069.974690875,1.175267370121854,0.7685917527062852,-9.569321561565648,197069.968251875,-88.21432495117188,-3.718170166015625,-559.7101440429688,197069.974690875,0.9979717110373654,-1.503863280844646,0.01471950142056419,1.172618389129639,0.7620207667350769,-9.572566986083984,-0.7067083120346069,1.536462783813477,-0.2564579248428345,1,-0.3315749764442444,0.5971767902374268,-0.3450846672058105,-0.6437036991119385,-0.9976527094841003,-0.01471897028386593,-0.06687583029270172,0,0,0,-1,197068.8521225417,3,2,1561914353.689659,1561913957.287787,16,1.221493,0,0,13.06835,0,0,1561914226.950748,197066.698857,0,1.178467,75.29406,3232235528,177845136,1,1,0.54,-4.350241,-8.362636,5
1561914354.837158,117,0,0,1561914354.015871,4.634566660974765,-74.15115835152021,2553.062,1.75,214.1015625,4,50,-9999,1561914354.813688,-14.02725219726562,24.73451995849609,3.8389892578125,4.815537929534912,12.30900573730469,15,197070.012196875,-1.077041625976562,0.825897216796875,-0.20318603515625,197069.994954875,1.190380809308054,0.0957840507141169,-9.385467572550938,197069.988362875,-93.09135437011719,-6.916122436523438,-560.09423828125,197069.994954875,1.00925483498644,-1.497473021181438,0.2083975925001134,1.187731862068176,0.0892130509018898,-9.388712882995605,-0.3550909757614136,1.342771887779236,-0.1898325681686401,1,-0.3940230309963226,0.5557963252067566,-0.290276825428009,-0.6719937324523926,-0.9757348299026489,-0.2068924307823181,-0.07167258858680725,0,0,0,-1,197068.8521225417,3,2,1561914353.689659,1561913957.287787,16,1.221493,0,0,13.06835,0,0,1561914226.950748,197066.698857,0,1.178467,75.29406,3232235528,177845136,1,1,0.54,-4.350241,-8.798295,5
1561914354.857601,118,0,0,1561914354.015871,4.634566660974765,-74.15115835152021,2553.062,1.75,214.1015625,4,50,-9999,1561914354.839486,-18.6656494140625,21.52173805236816,3.23101806640625,4.148074626922607,11.64154243469238,15,197070.032460875,-0.909149169921875,0.6735687255859375,-0.1498260498046875,197070.015218875,0.93841301330515,0.1726383523999506,-8.696121107557159,197070.008443875,-97.26585388183594,-10.17481994628906,-560.543212890625,197070.015218875,1.017467015527467,-1.498669138008128,0.3938975546398359,0.9357641339302063,0.166067361831665,-8.699366569519043,-0.1560223698616028,1.20968759059906,-0.1366400718688965,1,-0.4504773914813995,0.5136118531227112,-0.2333045303821564,-0.6919840574264526,-0.9210192561149597,-0.3837904036045074,-0.06654597073793411,0,0,0,-1,197068.8521225417,3,2,1561914353.689659,1561913957.287787,16,1.221493,0,0,13.06835,0,0,1561914226.950748,197066.698857,0,1.178467,75.29406,3232235528,177845136,1,1,0.54,-4.350241,-9.852101,5
1561914354.877723,119,0,0,1561914354.015871,4.634566660974765,-74.15115835152021,2553.062,1.75,214.1015625,4,50,-9999,1561914354.86375,-25.43759918212891,13.92984008789062,2.11199951171875,3.610554218292236,11.10402202606201,15,197070.052724875,-0.5955810546875,0.5182647705078125,-0.1749114990234375,197070.035481875,0.9273630253101932,0.9161220886650778,-7.397002365676734,197070.028554875,-100.4169616699219,-14.05439758300781,-560.982421875,197070.035481875,1.024628615287841,-1.491324633045515,0.5583848407266412,0.9247141480445862,0.9095510840415955,-7.400247097015381,-0.06371396780014038,1.203385829925537,-0.0824960470199585,1,-0.4961585700511932,0.4692139029502869,-0.1832077652215958,-0.707177460193634,-0.8454352021217346,-0.5298170447349548,-0.06732997298240662,0,0,0,-1,197068.8521225417,3,2,1561914353.689659,1561913957.287787,16,1.221493,0,0,13.06835,0,0,1561914226.950748,197066.698857,0,1.178467,75.29406,3232235528,177845136,1,1,0.54,-4.350241,-10.64272,5
1561914354.898922,120,0,0,1561914354.015871,4.634566660974765,-74.15115835152021,2553.062,1.75,214.1015625,4,50,-9999,1561914354.891254,-27.07433319091797,10.53107261657715,1.4482421875,2.78882360458374,10.28229141235352,15,197070.072957875,-0.38946533203125,0.2252197265625,-0.09600830078125,197070.055745875,1.095698242020794,1.503691857859843,-6.273976096130093,197070.048665875,-102.6454772949219,-17.87109375,-561.9794921875,197070.055745875,1.034399776689505,-1.472093340588526,0.6974760552796496,1.093049287796021,1.49712073802948,-6.277220726013184,0.1671541929244995,1.160549998283386,-0.09938180446624756,1,-0.5321011543273926,0.423206239938736,-0.1449837535619736,-0.7188494801521301,-0.7627351880073547,-0.6422852277755737,-0.07552967965602875,0,0,0,-1,197068.8521225417,3,2,1561914353.689659,1561913957.287787,16,1.221493,0,0,13.06835,0,0,1561914226.950748,197067.644118,0,1.426758,75.29171,3232235528,177845136,1,1,0.54,-4.350241,-11.54565,5
1561914354.918008,121,0,0,1561914354.015871,4.634566660974765,-74.15115835152021,2553.062,1.75,214.1015625,4,50,-9999,1561914354.914384,-28.50575256347656,7.230955123901367,0.314697265625,1.456027507781982,8.949495315551758,15,197070.093221875,-0.240753173828125,-0.0431671142578125,-0.0381622314453125,197070.076009875,1.311087520451459,1.5163471993599,-5.651903210800588,197070.068745875,-103.974365234375,-21.16807556152344,-562.7213745117188,197070.076009875,1.050099337741024,-1.451430486394603,0.8198637479070315,1.308438539505005,1.50977611541748,-5.655148029327393,0.2880004644393921,0.9562726020812988,-0.0147557258605957,1,-0.5630720853805542,0.3772579431533813,-0.1150115579366684,-0.7262222170829773,-0.6774657964706421,-0.7310528755187988,-0.08125254511833191,0,0,0,-1,197068.8521225417,3,2,1561914353.689659,1561913957.287787,16,1.221493,0,0,13.06835,0,0,1561914226.950748,197067.644118,0,1.426758,75.29171,3232235528,177845136,1,1,0.54,-4.350241,-12.35558,5
