loggingTime,loggingSample,identifierForVendor,deviceID,locationTimestamp_since1970,locationLatitude,locationLongitude,locationAltitude,locationSpeed,locationCourse,locationVerticalAccuracy,locationHorizontalAccuracy,locationFloor,locationHeadingTimestamp_since1970,locationHeadingX,locationHeadingY,locationHeadingZ,locationTrueHeading,locationMagneticHeading,locationHeadingAccuracy,accelerometerTimestamp_sinceReboot,accelerometerAccelerationX,accelerometerAccelerationY,accelerometerAccelerationZ,gyroTimestamp_sinceReboot,gyroRotationX,gyroRotationY,gyroRotationZ,magnetometerTimestamp_sinceReboot,magnetometerX,magnetometerY,magnetometerZ,motionTimestamp_sinceReboot,motionYaw,motionRoll,motionPitch,motionRotationRateX,motionRotationRateY,motionRotationRateZ,motionUserAccelerationX,motionUserAccelerationY,motionUserAccelerationZ,motionAttitudeReferenceFrame,motionQuaternionX,motionQuaternionY,motionQuaternionZ,motionQuaternionW,motionGravityX,motionGravityY,motionGravityZ,motionMagneticFieldX,motionMagneticFieldY,motionMagneticFieldZ,motionMagneticFieldCalibrationAccuracy,activityTimestamp_sinceReboot,activity,activityActivityConfidence,activityActivityStartDate,pedometerStartDate,pedometerNumberofSteps,pedometerAverageActivePace,pedometerCurrentPace,pedometerCurrentCadence,pedometerDistance,pedometerFloorAscended,pedometerFloorDescended,pedometerEndDate,altimeterTimestamp_sinceReboot,altimeterReset,altimeterRelativeAltitude,altimeterPressure,IP_en0,IP_pdp_ip0,deviceOrientation,batteryState,batteryLevel,avAudioRecorderPeakPower,avAudioRecorderAveragePower,label
1561238324.353335,1,0,0,1561238318.874369,4.603123184803567,-74.06473843912211,2644.437,0.08684977,-1,34.38091659545898,200,-9999,1561238324.323417,5.877647399902344,20.96693801879883,5.74993896484375,115.6441192626953,123.1878051757812,15,60864.15622500001,-0.3599090576171875,0.9565277099609375,0.3598175048828125,60864.146093,-0.6575065099491181,-0.03076643480924941,-1.235556809827395,60864.14569600001,43.07943725585938,21.58334350585938,-528.9660034179688,60864.151159,-1.49385750056042,-1.316287531349774,-0.9180001720947345,-0.6986667513847351,-0.1024518758058548,-1.176984906196594,0.2042376399040222,0.1690972447395325,0.5362741947174072,1,-0.6297343373298645,-0.1642279922962189,-0.2830035388469696,0.7045373320579529,-0.5878435969352722,0.794388473033905,-0.1529276669025421,0,0,0,-1,60863.912084,3,2,1561238324.08027,1561238131.651496,23,2.314067,0,0,18.8331,0,0,1561238323.767679,60860.838632,0,-0.3354492,74.39958,2650659446,177292352,1,1,0.46,-160,-160,0
1561238324.35522,2,0,0,1561238318.874369,4.603123184803567,-74.06473843912211,2644.437,0.08684977,-1,34.38091659545898,200,-9999,1561238324.323417,5.877647399902344,20.96693801879883,5.74993896484375,115.6441192626953,123.1878051757812,15,60864.176488,-0.3276824951171875,0.944671630859375,0.2989044189453125,60864.166356,-0.8095815303081308,-0.2681667396494199,-0.9867645671083016,60864.165838,42.32746887207031,21.89283752441406,-528.4014892578125,60864.17142200001,-1.526918633892704,-1.346838883598958,-0.9010038928688169,-0.8545335531234741,-0.3220364153385162,-0.9297143816947937,0.2622555494308472,0.1680757999420166,0.4668123126029968,1,-0.6340875625610352,-0.1702752411365509,-0.290374219417572,0.6961480379104614,-0.6053189039230347,0.7839505672454834,-0.1378786116838455,0,0,0,-1,60863.912084,3,2,1561238324.08027,1561238131.651496,23,2.314067,0,0,18.8331,0,0,1561238323.767679,60860.838632,0,-0.3354492,74.39958,2650659446,177292352,1,1,0.46,-160,-160,0
1561238324.357957,3,0,0,1561238318.874369,4.603123184803567,-74.06473843912211,2644.437,0.08684977,-1,34.38091659545898,200,-9999,1561238324.323417,5.877647399902344,20.96693801879883,5.74993896484375,115.6441192626953,123.1878051757812,15,60864.196752,-0.3053741455078125,0.935150146484375,0.232147216796875,60864.18662,-0.9815516955905805,-0.4172576880069989,-0.7476382675656508,60864.18594900001,42.15469360351562,21.89616394042969,-528.1986083984375,60864.19168600001,-1.562137823856973,-1.382259476722509,-0.8888254480482722,-1.025994300842285,-0.4458257257938385,-0.6908366084098816,0.3056780099868774,0.1631821990013123,0.3833647966384888,1,-0.6404246687889099,-0.175465002655983,-0.2951735854148865,0.6869794726371765,-0.6191545724868774,0.7763319611549377,-0.1181365549564362,0,0,0,-1,60863.912084,3,2,1561238324.08027,1561238131.651496,23,2.314067,0,0,18.8331,0,0,1561238323.767679,60860.838632,0,-0.3354492,74.39958,2650659446,177292352,1,1,0.46,-160,-160,0
1561238324.378312,4,0,0,1561238318.874369,4.603123184803567,-74.06473843912211,2644.437,0.08684977,-1,34.38091659545898,200,-9999,1561238324.362222,4.324272155761719,21.5705451965332,6.96734619140625,116.4816207885742,124.0253067016602,15,60864.217016,-0.2916259765625,0.9313507080078125,0.1668243408203125,60864.20688400001,-1.126239373401823,-0.5000463115498561,-0.5267325172529951,60864.20609000001,41.82974243164062,21.85955810546875,-527.6043701171875,60864.21195,-1.599863950011466,-1.421297085663999,-0.8809386645484737,-1.164685845375061,-0.5128332376480103,-0.4793699085712433,0.3310955762863159,0.1602582335472107,0.2911109924316406,1,-0.6484187245368958,-0.1793250143527985,-0.297995924949646,0.6771957874298096,-0.6293285489082336,0.7713366150856018,-0.09479139745235443,0,0,0,-1,60863.912084,3,2,1561238324.08027,1561238131.651496,23,2.314067,0,0,18.8331,0,0,1561238323.767679,60861.786354,0,-0.3354492,74.39958,2650659446,177292352,1,1,0.46,-160,-160,0
1561238324.402071,5,0,0,1561238318.874369,4.603123184803567,-74.06473843912211,2644.437,0.08684977,-1,34.38091659545898,200,-9999,1561238324.388743,4.136955261230469,21.65735244750977,7.45257568359375,116.9908142089844,124.5345001220703,15,60864.237279,-0.286834716796875,0.9421539306640625,0.10003662109375,60864.22714700001,-1.261576958941905,-0.5273117547900873,-0.3138681818518337,60864.226201,41.40742492675781,21.87336730957031,-527.0233764648438,60864.232213,-1.640167619386647,-1.462974861077131,-0.8766853118707149,-1.290531873703003,-0.5391048192977905,-0.2593919932842255,0.3491069078445435,0.1703116297721863,0.206092894077301,1,-0.6577163934707642,-0.1816290467977524,-0.2992989122867584,0.6669633388519287,-0.6359874606132507,0.7686226963996887,-0.06884007155895233,0,0,0,-1,60863.912084,3,2,1561238324.08027,1561238131.651496,23,2.314067,0,0,18.8331,0,0,1561238323.767679,60861.786354,0,-0.3354492,74.39958,2650659446,177292352,1,1,0.46,-160,-160,0
1561238324.418807,6,0,0,1561238318.874369,4.603123184803567,-74.06473843912211,2644.437,0.08684977,-1,34.38091659545898,200,-9999,1561238324.412896,3.836479187011719,21.39342498779297,8.1937255859375,117.5909805297852,125.1346664428711,15,60864.25754300001,-0.278411865234375,0.9449310302734375,0.035552978515625,60864.247411,-1.301636494374986,-0.5331928134253093,-0.09602133836724297,60864.24634300001,41.34417724609375,21.81236267089844,-526.6202392578125,60864.252477,-1.681693961411933,-1.505853665974376,-0.8759307074803439,-1.296264886856079,-0.5378536581993103,-0.04491006582975388,0.3543255925178528,0.1757537126541138,0.1088894605636597,1,-0.6678206324577332,-0.1823167502880096,-0.2990748584270477,0.6567575335502625,-0.6389325261116028,0.7681397795677185,-0.04155240952968597,0,0,0,-1,60863.912084,3,2,1561238324.08027,1561238131.651496,23,2.314067,0,0,18.8331,0,0,1561238323.767679,60861.786354,0,-0.3354492,74.39958,2650659446,177292352,1,1,0.46,-160,-160,0
1561238324.439382,7,0,0,1561238318.874369,4.603123184803567,-74.06473843912211,2644.437,0.08684977,-1,34.38091659545898,200,-9999,1561238324.412896,3.836479187011719,21.39342498779297,8.1937255859375,117.5909805297852,125.1346664428711,15,60864.27780700001,-0.2689208984375,0.9331512451171875,-0.031341552734375,60864.267675,-1.254308127062643,-0.5424227971313059,0.1147279144961775,60864.266485,41.24467468261719,21.36959838867188,-525.884521484375,60864.272741,-1.721888660273869,-1.547761100006918,-0.8782763329966218,-1.241950750350952,-0.55499267578125,0.1600292325019836,0.3631476163864136,0.1679062843322754,0.01458418369293213,1,-0.6779747009277344,-0.1816513240337372,-0.2973240911960602,0.6472646594047546,-0.6383093595504761,0.7696394920349121,-0.01470620278269053,0,0,0,-1,60863.912084,3,2,1561238324.08027,1561238131.651496,23,2.314067,0,0,18.8331,0,0,1561238323.767679,60861.786354,0,-0.3354492,74.39958,2650659446,177292352,1,1,0.46,-160,-160,0
1561238324.459472,8,0,0,1561238318.874369,4.603123184803567,-74.06473843912211,2644.437,0.08684977,-1,34.38091659545898,200,-9999,1561238324.439638,3.540836334228516,21.07361602783203,9.17578125,118.1540756225586,125.6977615356445,15,60864.29807,-0.2638092041015625,0.9302978515625,-0.07611083984375,60864.287938,-1.179195000097503,-0.568036015231252,0.302184627833547,60864.28659600001,41.434814453125,21.09037780761719,-525.3423461914062,60864.29300400001,-1.760191966852889,-1.588806851617438,-0.8834597952236175,-1.159699320793152,-0.5795862078666687,0.3443599343299866,0.3682495355606079,0.1588392853736877,-0.06345915794372559,1,-0.6879792809486389,-0.1799940764904022,-0.2939556241035461,0.6386523842811584,-0.6343780755996704,0.7729386687278748,0.01142671704292297,0,0,0,-1,60863.912084,3,2,1561238324.08027,1561238131.651496,23,2.314067,0,0,18.8331,0,0,1561238323.767679,60861.786354,0,-0.3354492,74.39958,2650659446,177292352,1,1,0.46,-160,-160,0
1561238324.483229,9,0,0,1561238318.874369,4.603123184803567,-74.06473843912211,2644.437,0.08684977,-1,34.38091659545898,200,-9999,1561238324.463682,3.773967742919922,20.82857513427734,9.52008056640625,118.5850448608398,126.1287307739258,15,60864.318334,-0.259002685546875,0.93017578125,-0.118316650390625,60864.308202,-1.048350966264711,-0.5791456580346266,0.4852457937917407,60864.30673700001,41.69955444335938,21.18959045410156,-525.2164306640625,60864.31326800001,-1.795661681477858,-1.628122864923887,-0.891468909182034,-1.006213665008545,-0.5832645297050476,0.5289135575294495,0.3645731210708618,0.1496473550796509,-0.1350415945053101,1,-0.6974997520446777,-0.1774612814188004,-0.2890300750732422,0.6312394738197327,-0.6272379159927368,0.7779954671859741,0.03599682077765465,0,0,0,-1,60863.912084,3,2,1561238324.08027,1561238131.651496,23,2.314067,0,0,18.8331,0,0,1561238323.767679,60861.786354,0,-0.3354492,74.39958,2650659446,177292352,1,1,0.46,-160,-160,0
1561238324.499816,10,0,0,1561238318.874369,4.603123184803567,-74.06473843912211,2644.437,0.08684977,-1,34.38091659545898,200,-9999,1561238324.491385,4.227855682373047,20.48758316040039,9.88812255859375,118.825553894043,126.3692398071289,15,60864.338598,-0.254119873046875,0.9274749755859375,-0.151763916015625,60864.32846600001,-0.8865897627049711,-0.5758856825442605,0.6851269525626569,60864.326848,41.672119140625,20.61384582519531,-525.0411376953125,60864.333532,-1.827236236821428,-1.664569245832942,-0.9027919031879222,-0.855953574180603,-0.5931528806686401,0.7402191162109375,0.3619077801704407,0.1440178155899048,-0.190980076789856,1,-0.7062062621116638,-0.1739902347326279,-0.2825369834899902,0.6254381537437439,-0.6166990399360657,0.7850593328475952,0.05799977108836174,0,0,0,-1,60863.912084,3,2,1561238324.08027,1561238131.651496,23,2.314067,0,0,18.8331,0,0,1561238323.767679,60861.786354,0,-0.3354492,74.39958,2650659446,177292352,1,1,0.46,-160,-160,0
1561238324.520036,11,0,0,1561238318.874369,4.603123184803567,-74.06473843912211,2644.437,0.08684977,-1,34.38091659545898,200,-9999,1561238324.491385,4.227855682373047,20.48758316040039,9.88812255859375,118.825553894043,126.3692398071289,15,60864.358861,-0.259490966796875,0.9193115234375,-0.1771697998046875,60864.34873000001,-0.7479722279663468,-0.6140581020289113,0.8949278537619002,60864.34699000001,42.50245666503906,20.50538635253906,-524.689453125,60864.353795,-1.856124018664033,-1.699800311856411,-0.9179687944329626,-0.7150406241416931,-0.6313135623931885,0.9326404929161072,0.3469704985618591,0.1316406726837158,-0.2428934574127197,1,-0.7143614888191223,-0.169587254524231,-0.2741816639900208,0.6210895180702209,-0.6023873686790466,0.7943694591522217,0.07814434915781021,0,0,0,-1,60863.912084,3,2,1561238324.08027,1561238131.651496,23,2.314067,0,0,18.8331,0,0,1561238323.767679,60861.786354,0,-0.3354492,74.39958,2650659446,177292352,1,1,0.46,-160,-160,0
1561238324.540538,12,0,0,1561238318.874369,4.603123184803567,-74.06473843912211,2644.437,0.08684977,-1,34.38091659545898,200,-9999,1561238324.518841,4.337062835693359,20.36674118041992,9.954833984375,118.8431625366211,126.386848449707,15,60864.37912500001,-0.274261474609375,0.9075927734375,-0.2125396728515625,60864.368993,-0.5957962738020199,-0.6430143862452339,1.043964207317132,60864.367101,42.80825805664062,20.13648986816406,-524.4007568359375,60864.37402900001,-1.882327789667571,-1.733797216853466,-0.9362196438902272,-0.5561772584915161,-0.6600764989852905,1.072141647338867,0.318300724029541,0.1060694456100464,-0.2907246351242065,1,-0.7218135595321655,-0.1645842492580414,-0.2642771005630493,0.6181058883666992,-0.5849785804748535,0.8053227066993713,0.09620557725429535,0,0,0,-1,60863.912084,3,2,1561238324.08027,1561238131.651496,23,2.314067,0,0,18.8331,0,0,1561238323.767679,60861.786354,0,-0.3354492,74.39958,2650659446,177292352,1,1,0.46,-160,-160,0
1561238324.560777,13,0,0,1561238318.874369,4.603123184803567,-74.06473843912211,2644.437,0.08684977,-1,34.38091659545898,200,-9999,1561238324.541383,5.439834594726562,19.57226181030273,10.468017578125,118.6172180175781,126.1609039306641,15,60864.39938900001,-0.2908477783203125,0.8983612060546875,-0.243377685546875,60864.389257,-0.407113174782669,-0.7094674459776541,1.158803974579093,60864.387243,43.10108947753906,19.74168395996094,-524.2997436523438,60864.394292,-1.905011610748327,-1.766281041342651,-0.9570674582554778,-0.3490033149719238,-0.7415356636047363,1.18304979801178,0.2832580208778381,0.08811819553375244,-0.3425197601318359,1,-0.7283655405044556,-0.1594288200139999,-0.2528685927391052,0.6165415644645691,-0.5649505257606506,0.8175061941146851,0.1118678152561188,0,0,0,-1,60863.912084,3,2,1561238324.08027,1561238131.651496,23,2.314067,0,0,18.8331,0,0,1561238323.767679,60861.786354,0,-0.3354492,74.39958,2650659446,177292352,1,1,0.46,-160,-160,0
1561238324.580837,14,0,0,1561238318.874369,4.603123184803567,-74.06473843912211,2644.437,0.08684977,-1,34.38091659545898,200,-9999,1561238324.564868,5.862537384033203,19.25323486328125,10.53662109375,118.0611572265625,125.6048431396484,15,60864.419622,-0.321868896484375,0.880218505859375,-0.25579833984375,60864.40949000001,-0.1728958800773613,-0.7882344299583827,1.251980524269914,60864.40738400001,43.84603881835938,19.310791015625,-524.4771728515625,60864.414556,-1.922342960669231,-1.796275668687038,-0.9803866089035765,-0.1218276619911194,-0.7940231561660767,1.265908479690552,0.2421335577964783,0.05769979953765869,-0.3739906549453735,1,-0.7337092757225037,-0.1546045392751694,-0.2398350089788437,0.6166419386863708,-0.5426096320152283,0.8307126760482788,0.1244637295603752,0,0,0,-1,60863.912084,3,2,1561238324.08027,1561238131.651496,23,2.314067,0,0,18.8331,0,0,1561238323.767679,60861.786354,0,-0.3354492,74.39958,2650659446,177292352,1,1,0.46,-160,-160,0
1561238324.6012,15,0,0,1561238318.874369,4.603123184803567,-74.06473843912211,2644.437,0.08684977,-1,34.38091659545898,200,-9999,1561238324.591258,6.582420349121094,18.76691055297852,10.46636962890625,117.1902008056641,124.73388671875,15,60864.439886,-0.3654632568359375,0.85980224609375,-0.2618865966796875,60864.429754,0.003429885167913051,-0.7248711697226724,1.298902226883802,60864.427495,44.4075927734375,19.09625244140625,-524.5363159179688,60864.43482,-1.935032526350172,-1.822195373534158,-1.005532543752325,0.02534101717174053,-0.6889284253120422,1.302615880966187,0.1752951741218567,0.02716523408889771,-0.3911033868789673,1,-0.7377195358276367,-0.1496409922838211,-0.2262226641178131,0.6182239055633545,-0.5188010334968567,0.8444473147392273,0.1332450807094574,0,0,0,-1,60863.912084,3,2,1561238324.08027,1561238131.651496,23,2.314067,0,0,18.8331,0,0,1561238323.767679,60861.786354,0,-0.3354492,74.39958,2650659446,177292352,1,1,0.46,-160,-160,0
1561238324.623779,16,0,0,1561238318.874369,4.603123184803567,-74.06473843912211,2644.437,0.08684977,-1,34.38091659545898,200,-9999,1561238324.615577,6.943359375,18.47971725463867,10.23858642578125,116.4289474487305,123.9726333618164,15,60864.46014900001,-0.406402587890625,0.8508148193359375,-0.27484130859375,60864.450017,0.05910859407819968,-0.471205342208734,1.316249259276251,60864.447637,45.07484436035156,18.78125,-524.7918701171875,60864.455083,-1.946395742866993,-1.843034560886772,-1.031408555223962,0.05207249522209167,-0.3880369961261749,1.316976428031921,0.1076560616493225,-0.002340912818908691,-0.4050562381744385,1,-0.7406010627746582,-0.1433943063020706,-0.2138084173202515,0.6206722855567932,-0.4946952164173126,0.8580232858657837,0.138103723526001,0,0,0,-1,60863.912084,3,2,1561238324.08027,1561238131.651496,23,2.314067,0,0,18.8331,0,0,1561238323.767679,60861.786354,0,-0.3354492,74.39958,2650659446,177292352,1,1,0.46,-160,-160,0
1561238324.648905,17,0,0,1561238318.874369,4.603123184803567,-74.06473843912211,2644.437,0.08684977,-1,34.38091659545898,200,-9999,1561238324.642412,8.176624298095703,17.63277435302734,10.09869384765625,116.1962051391602,123.7398910522461,15,60864.480413,-0.4298248291015625,0.8454742431640625,-0.28607177734375,60864.470281,0.05426030931371043,-0.09604770366203474,1.313375175827837,60864.46777900001,45.51361083984375,18.11190795898438,-524.88671875,60864.47534700001,-1.959069694264933,-1.858017300834786,-1.057265068370948,0.05370714515447617,-0.01209135539829731,1.308260440826416,0.05470412969589233,-0.02576982975006104,-0.4213020801544189,1,-0.7425559759140015,-0.1348856538534164,-0.2039685398340225,0.6235489845275879,-0.4711317420005798,0.871015191078186,0.1391670405864716,0,0,0,-1,60863.912084,3,2,1561238324.08027,1561238131.651496,23,2.314067,0,0,18.8331,0,0,1561238323.767679,60861.786354,0,-0.3354492,74.39958,2650659446,177292352,1,1,0.46,-160,-160,0
1561238324.662045,18,0,0,1561238318.874369,4.603123184803567,-74.06473843912211,2644.437,0.08684977,-1,34.38091659545898,200,-9999,1561238324.642412,8.176624298095703,17.63277435302734,10.09869384765625,116.1962051391602,123.7398910522461,15,60864.500677,-0.4761962890625,0.847808837890625,-0.2956695556640625,60864.490545,0.1144296404540887,0.1936821187015387,1.31997022795131,60864.48792000001,45.87252807617188,17.73043823242188,-525.0577392578125,60864.49561100001,-1.971366685327502,-1.866274443072214,-1.083274583631149,0.1483987718820572,0.2240226417779922,1.321814656257629,-0.004911661148071289,-0.03706091642379761,-0.427453875541687,1,-0.7434586882591248,-0.1243908032774925,-0.1964721977710724,0.6270524263381958,-0.4481370449066162,0.8834964632987976,0.1364077925682068,0,0,0,-1,60863.912084,3,2,1561238324.08027,1561238131.651496,23,2.314067,0,0,18.8331,0,0,1561238323.767679,60861.786354,0,-0.3354492,74.39958,2650659446,177292352,1,1,0.46,-160,-160,0
1561238324.682255,19,0,0,1561238318.874369,4.603123184803567,-74.06473843912211,2644.437,0.08684977,-1,34.38091659545898,200,-9999,1561238324.666284,8.272174835205078,17.26044082641602,9.9464111328125,116.3570022583008,123.9006881713867,15,60864.52094,-0.5381011962890625,0.84844970703125,-0.283111572265625,60864.51080800001,0.3253229703324825,0.2965200841949485,1.329594093182529,60864.508031,46.15383911132812,17.07536315917969,-525.0242919921875,60864.515874,-1.977417171461774,-1.866175823048123,-1.110486617979131,0.3876630067825317,0.3037371933460236,1.31899619102478,-0.07550153136253357,-0.04978460073471069,-0.4217653274536133,1,-0.7428612112998962,-0.1132028177380562,-0.1897486746311188,0.6319317221641541,-0.4249867498874664,0.8959149718284607,0.1293153166770935,0,0,0,-1,60863.912084,3,2,1561238324.08027,1561238131.651496,23,2.314067,0,0,18.8331,0,0,1561238323.767679,60861.786354,0,-0.3354492,74.39958,2650659446,177292352,1,1,0.46,-160,-160,0
1561238324.703779,20,0,0,1561238318.874369,4.603123184803567,-74.06473843912211,2644.437,0.08684977,-1,34.38091659545898,200,-9999,1561238324.692694,8.777881622314453,16.65689086914062,9.6004638671875,116.5108261108398,124.0545120239258,15,60864.541204,-0.6258544921875,0.827056884765625,-0.2353973388671875,60864.53107200001,0.557413464591253,0.3633553075437951,1.224338243735436,60864.52817300001,46.46562194824219,16.93904113769531,-525.1204833984375,60864.536138,-1.971754325380101,-1.854226949757803,-1.137803395710523,0.5888765454292297,0.3916611969470978,1.167087078094482,-0.182539701461792,-0.06240761280059814,-0.3807357549667358,1,-0.7403765320777893,-0.1025275066494942,-0.1836452186107635,0.6384395956993103,-0.4028484523296356,0.9077140092849731,0.1173385977745056,0,0,0,-1,60863.912084,3,2,1561238324.08027,1561238131.651496,23,2.314067,0,0,18.8331,0,0,1561238323.767679,60861.786354,0,-0.3354492,74.39958,2650659446,177292352,1,1,0.46,-160,-160,0
1561238324.731354,21,0,0,1561238318.874369,4.603123184803567,-74.06473843912211,2644.437,0.08684977,-1,34.38091659545898,200,-9999,1561238324.716932,8.986782073974609,16.17842864990234,9.5235595703125,116.7693405151367,124.3130264282227,15,60864.56146800001,-0.7054290771484375,0.826995849609375,-0.1818389892578125,60864.551336,0.6312504047620269,0.5273530337869836,1.003524372480388,60864.548284,46.84475708007812,16.39105224609375,-525.4255981445312,60864.556402,-1.956358018070828,-1.830496060269737,-1.161772111121817,0.6236526370048523,0.5637391805648804,0.9412092566490173,-0.2854832410812378,-0.09774613380432129,-0.3093892335891724,1,-0.7365323305130005,-0.09265367686748505,-0.179739311337471,0.6454681754112244,-0.3843776285648346,0.9175093173980713,0.102129153907299,0,0,0,-1,60863.912084,3,2,1561238324.08027,1561238131.651496,23,2.314067,0,0,18.8331,0,0,1561238323.767679,60861.786354,0,-0.3354492,74.39958,2650659446,177292352,1,1,0.46,-160,-160,0
1561238324.74335,22,0,0,1561238318.874369,4.603123184803567,-74.06473843912211,2644.437,0.08684977,-1,34.38091659545898,200,-9999,1561238324.716932,8.986782073974609,16.17842864990234,9.5235595703125,116.7693405151367,124.3130264282227,15,60864.58173100001,-0.7556304931640625,0.8240203857421875,-0.1514434814453125,60864.571599,0.619594281302968,0.6340387344233398,0.7921972136604206,60864.56842600001,46.91026306152344,16.15400695800781,-525.697265625,60864.576665,-1.935622868126875,-1.799013804216071,-1.18126303707203,0.6191748380661011,0.6220850944519043,0.7366302609443665,-0.3626949787139893,-0.095237135887146,-0.2494757175445557,1,-0.7321072220802307,-0.0835307314991951,-0.1782278716564178,0.6521322131156921,-0.3699099719524384,0.9250863790512085,0.08591673523187637,0,0,0,-1,60863.912084,3,2,1561238324.08027,1561238131.651496,23,2.314067,0,0,18.8331,0,0,1561238323.767679,60861.786354,0,-0.3354492,74.39958,2650659446,177292352,1,1,0.46,-160,-160,0
1561238324.763391,23,0,0,1561238318.874369,4.603123184803567,-74.06473843912211,2644.437,0.08684977,-1,34.38091659545898,200,-9999,1561238324.743347,9.391254425048828,15.64978313446045,9.18499755859375,117.2530822753906,124.7967681884766,15,60864.601995,-0.786163330078125,0.8202362060546875,-0.1270294189453125,60864.591863,0.6762455766433516,0.5152220687055636,0.5725010711148789,60864.58856700001,47.17262268066406,15.76934814453125,-525.935302734375,60864.59692900001,-1.908054078218938,-1.762286626758516,-1.19639628712782,0.7052817344665527,0.4397259056568146,0.5108421444892883,-0.4097841382026672,-0.1086599230766296,-0.2075430154800415,1,-0.727295994758606,-0.07643516361713409,-0.1776179224252701,0.6585212349891663,-0.3590299785137177,0.9307271838188171,0.06960359960794449,0,0,0,-1,60863.912084,3,2,1561238324.08027,1561238131.651496,23,2.314067,0,0,18.8331,0,0,1561238323.767679,60861.786354,0,-0.3354492,74.39958,2650659446,177292352,1,1,0.46,-160,-160,0
1561238324.784143,24,0,0,1561238318.874369,4.603123184803567,-74.06473843912211,2644.437,0.08684977,-1,34.38091659545898,200,-9999,1561238324.767554,9.480506896972656,15.39616012573242,8.781005859375,117.5176544189453,125.0613403320312,15,60864.62227679167,-0.839508056640625,0.8358917236328125,-0.0843048095703125,60864.61214479167,0.8086779197502669,0.2270177050143876,0.3358160913435037,60864.60869579167,47.36253356933594,15.65034484863281,-526.2463989257812,60864.61721079167,-1.869049807488544,-1.719956516135318,-1.20688163217749,0.8281024694442749,0.156870499253273,0.2780687808990479,-0.4570381343364716,-0.1144727468490601,-0.1615983247756958,1,-0.7218881249427795,-0.07297179102897644,-0.1765602380037308,0.6651158332824707,-0.3519828617572784,0.9345105886459351,0.05289469286799431,0,0,0,-1,60863.912084,3,2,1561238324.08027,1561238131.651496,23,2.314067,0,0,18.8331,0,0,1561238323.767679,60861.786354,0,-0.3354492,74.39958,2650659446,177292352,1,1,0.46,-160,-160,0
1561238324.813402,25,0,0,1561238318.874369,4.603123184803567,-74.06473843912211,2644.437,0.08684977,-1,34.38091659545898,200,-9999,1561238324.794577,9.638031005859375,15.33557987213135,8.62225341796875,117.2910308837891,124.834716796875,15,60864.64253979167,-0.8988189697265625,0.8754119873046875,-0.0414886474609375,60864.63240779167,0.8207409742238899,0.05265868423413678,0.114675982854921,60864.62883779167,47.33485412597656,15.55003356933594,-526.4945678710938,60864.63744379167,-1.823424057321515,-1.675687993118754,-1.212378901967405,0.7961857914924622,0.04590723291039467,0.049122154712677,-0.5241513848304749,-0.07474356889724731,-0.09898364543914795,1,-0.7162966132164001,-0.07268475741147995,-0.1753834784030914,0.6714736223220825,-0.3488649725914001,0.9364531636238098,0.03672782331705093,0,0,0,-1,60863.912084,3,2,1561238324.08027,1561238131.651496,23,2.314067,0,0,18.8331,0,0,1561238323.767679,60861.786354,0,-0.3354492,74.39958,2650659446,177292352,1,1,0.46,-160,-160,0
1561238324.824709,26,0,0,1561238318.874369,4.603123184803567,-74.06473843912211,2644.437,0.08684977,-1,34.38091659545898,200,-9999,1561238324.81824,9.706710815429688,15.14975070953369,8.3621826171875,117.008186340332,124.551872253418,15,60864.66280379167,-0.9223480224609375,0.8900146484375,-0.00897216796875,60864.65267179167,0.7639301555342105,0.1233717364462477,-0.1711464495572882,60864.64897879167,47.56422424316406,15.591796875,-526.479736328125,60864.65770679167,-1.778667222315844,-1.631929931082612,-1.211710338952435,0.7754661440849304,0.1473587602376938,-0.2491945028305054,-0.565406322479248,-0.05511486530303955,-0.04644870758056641,1,-0.7108017206192017,-0.07413473725318909,-0.1761342138051987,0.6769354343414307,-0.3507618606090546,0.9362184405326843,0.02147009037435055,0,0,0,-1,60863.912084,3,2,1561238324.08027,1561238131.651496,23,2.314067,0,0,18.8331,0,0,1561238323.767679,60861.786354,0,-0.3354492,74.39958,2650659446,177292352,1,1,0.46,-160,-160,0
1561238324.844588,27,0,0,1561238318.874369,4.603123184803567,-74.06473843912211,2644.437,0.08684977,-1,34.38091659545898,200,-9999,1561238324.81824,9.706710815429688,15.14975070953369,8.3621826171875,117.008186340332,124.551872253418,15,60864.68303679167,-0.9294586181640625,0.920501708984375,0.009185791015625,60864.67290479167,0.9341330471172836,0.1505570185376676,-0.4733326752874893,60864.66909079167,47.87754821777344,15.73309326171875,-526.8433227539062,60864.67797079167,-1.7280347005007,-1.581533244825108,-1.204223371519668,1.018453240394592,0.1229165345430374,-0.5445680618286133,-0.5691233277320862,-0.02769261598587036,-0.00502312183380127,1,-0.7042098045349121,-0.07754138857126236,-0.1793073266744614,0.6825867891311646,-0.3583974242210388,0.9335611462593079,0.00384823139756918,0,0,0,-1,60863.912084,3,2,1561238324.08027,1561238131.651496,23,2.314067,0,0,18.8331,0,0,1561238323.767679,60861.786354,0,-0.3354492,74.39958,2650659446,177292352,1,1,0.46,-160,-160,0
1561238324.88998,28,0,0,1561238318.874369,4.603123184803567,-74.06473843912211,2644.437,0.08684977,-1,34.38091659545898,200,-9999,1561238324.880509,10.13402557373047,16.19659423828125,7.77410888671875,115.9988403320312,123.5425262451172,15,60864.70330079167,-0.918243408203125,0.9632568359375,0.0629730224609375,60864.69316879167,1.284980285969304,0.01266945625383396,-0.7306483650753813,60864.68923179167,47.77407836914062,16.23773193359375,-527.1478271484375,60864.69823479167,-1.662513780109105,-1.519572460871777,-1.190107844446432,1.337092757225037,-0.05129175633192062,-0.7840304374694824,-0.5563111305236816,0.01385170221328735,0.05404329299926758,1,-0.6952717304229736,-0.0841725692152977,-0.1833373755216599,0.6898547410964966,-0.3710722923278809,0.9284090399742126,-0.01902439817786217,0,0,0,-1,60863.912084,3,2,1561238324.08027,1561238131.651496,23,2.314067,0,0,18.8331,0,0,1561238323.767679,60861.786354,0,-0.3354492,74.39958,2650659446,177292352,1,1,0.46,-160,-160,0
1561238324.893178,29,0,0,1561238318.874369,4.603123184803567,-74.06473843912211,2644.437,0.08684977,-1,34.38091659545898,200,-9999,1561238324.880509,10.13402557373047,16.19659423828125,7.77410888671875,115.9988403320312,123.5425262451172,15,60864.72356379167,-0.9014434814453125,0.9911956787109375,0.11004638671875,60864.71343279167,1.408834853521183,-0.2121838977426462,-0.9317548442638429,60864.70937379167,47.51042175292969,16.847412109375,-527.3513793945312,60864.71849779167,-1.592781990824689,-1.458418287467631,-1.16993600194295,1.420476794242859,-0.2615041136741638,-0.9831811189651489,-0.5179513692855835,0.05486029386520386,0.1292691230773926,1,-0.685027539730072,-0.09411606192588806,-0.1871535331010818,0.6977485418319702,-0.3877493441104889,0.9207256436347961,-0.04375887289643288,0,0,0,-1,60863.912084,3,2,1561238324.08027,1561238131.651496,23,2.314067,0,0,18.8331,0,0,1561238323.767679,60861.786354,0,-0.3354492,74.39958,2650659446,177292352,1,1,0.46,-160,-160,0
1561238324.905395,30,0,0,1561238318.874369,4.603123184803567,-74.06473843912211,2644.437,0.08684977,-1,34.38091659545898,200,-9999,1561238324.880509,10.13402557373047,16.19659423828125,7.77410888671875,115.9988403320312,123.5425262451172,15,60864.74382779167,-0.897216796875,1.00469970703125,0.165924072265625,60864.73369579167,1.482372454385432,-0.35370614228222,-1.121320781184555,60864.72951479167,47.63848876953125,17.52244567871094,-527.86474609375,60864.73876179167,-1.527590697170462,-1.405369078920989,-1.144188498944229,1.504326701164246,-0.3962323665618896,-1.166941285133362,-0.4925442039966583,0.09307390451431274,0.2045378684997559,1,-0.6742048859596252,-0.1066676154732704,-0.1910801529884338,0.7053781151771545,-0.4081363379955292,0.910374641418457,-0.06813958287239075,0,0,0,-1,60863.912084,3,2,1561238324.08027,1561238131.651496,23,2.314067,0,0,18.8331,0,0,1561238323.767679,60861.786354,0,-0.3354492,74.39958,2650659446,177292352,1,1,0.46,-160,-160,0
1561238324.925481,31,0,0,1561238318.874369,4.603123184803567,-74.06473843912211,2644.437,0.08684977,-1,34.38091659545898,200,-9999,1561238324.921371,9.776657104492188,17.1885986328125,6.901123046875,113.287223815918,120.8309097290039,15,60864.76409179167,-0.8695068359375,1.002456665039062,0.2332763671875,60864.75395979167,1.559240604508934,-0.5093647122040433,-1.307246176895129,60864.74962579167,47.4302978515625,18.26640319824219,-528.4881591796875,60864.75902579167,-1.467083692950595,-1.36026221663527,-1.113221496965444,1.553367733955383,-0.5644360184669495,-1.35493278503418,-0.4571409225463867,0.1046282052993774,0.2915874123573303,1,-0.6626047492027283,-0.121628537774086,-0.1951594948768616,0.7127932906150818,-0.4320192337036133,0.8971264958381653,-0.09232289344072342,0,0,0,-1,60863.912084,3,2,1561238324.08027,1561238131.651496,23,2.314067,0,0,18.8331,0,0,1561238323.767679,60861.786354,0,-0.3354492,74.39958,2650659446,177292352,1,1,0.46,-160,-160,0
1561238324.969159,32,0,0,1561238318.874369,4.603123184803567,-74.06473843912211,2644.437,0.08684977,-1,34.38091659545898,200,-9999,1561238324.945848,9.299606323242188,18.40097045898438,5.5830078125,111.5195693969727,119.0632553100586,15,60864.78435479167,-0.804046630859375,0.985809326171875,0.3290252685546875,60864.77422379167,1.499391385331583,-0.6054787285772211,-1.48159454503102,60864.76976779167,47.02786254882812,18.71705627441406,-529.2177734375,60864.77928879167,-1.415975394442994,-1.327003455132882,-1.077807772910136,1.452593207359314,-0.5997141003608704,-1.526530623435974,-0.3821646571159363,0.1195658445358276,0.3934128284454346,1,-0.6508944034576416,-0.1386270374059677,-0.1996179670095444,0.719215989112854,-0.4592660069465637,0.8809224367141724,-0.1142380386590958,0,0,0,-1,60863.912084,3,2,1561238324.08027,1561238131.651496,23,2.314067,0,0,18.8331,0,0,1561238323.767679,60861.786354,0,-0.3354492,74.39958,2650659446,177292352,1,1,0.46,-160,-160,0
1561238324.973695,33,0,0,1561238318.874369,4.603123184803567,-74.06473843912211,2644.437,0.08684977,-1,34.38091659545898,200,-9999,1561238324.945848,9.299606323242188,18.40097045898438,5.5830078125,111.5195693969727,119.0632553100586,15,60864.80461879167,-0.6957550048828125,0.945648193359375,0.4037322998046875,60864.79448679167,1.239196818405315,-0.4812427963572427,-1.652814231518285,60864.78990979167,46.66859436035156,19.29122924804688,-529.7503662109375,60864.79955279167,-1.380212609814977,-1.306510600532655,-1.039493645137419,1.134552359580994,-0.4355962574481964,-1.691119074821472,-0.262475848197937,0.1008343696594238,0.5021302700042725,1,-0.6399810314178467,-0.1557237207889557,-0.205999419093132,0.72369784116745,-0.4890652894973755,0.8621478080749512,-0.1323488056659698,0,0,0,-1,60863.912084,3,2,1561238324.08027,1561238131.651496,23,2.314067,0,0,18.8331,0,0,1561238323.767679,60861.786354,0,-0.3354492,74.39958,2650659446,177292352,1,1,0.46,-160,-160,0
1561238324.986363,34,0,0,1561238318.874369,4.603123184803567,-74.06473843912211,2644.437,0.08684977,-1,34.38091659545898,200,-9999,1561238324.975382,8.860816955566406,19.23083877563477,4.8941650390625,110.0960922241211,117.639778137207,15,60864.82488279167,-0.599334716796875,0.948760986328125,0.4355621337890625,60864.81475079167,0.8006841754222851,-0.2533853966511531,-1.71035102792112,60864.81002079167,46.08477783203125,20.07237243652344,-530.1165161132812,60864.81981679167,-1.363676348409876,-1.298885241726545,-1.001189634120539,0.6762652397155762,-0.2110960632562637,-1.68846070766449,-0.1280354857444763,0.09933888912200928,0.5671895146369934,1,-0.6311342716217041,-0.1710227578878403,-0.2149837613105774,0.7253982424736023,-0.5194864273071289,0.8421131372451782,-0.1448414921760559,0,0,0,-1,60863.912084,3,2,1561238324.08027,1561238131.651496,23,2.314067,0,0,18.8331,0,0,1561238323.767679,60861.786354,0,-0.3354492,74.39958,2650659446,177292352,1,1,0.46,-160,-160,0
1561238325.006412,35,0,0,1561238318.874369,4.603123184803567,-74.06473843912211,2644.437,0.08684977,-1,34.38091659545898,200,-9999,1561238324.996542,8.492111206054688,19.96186447143555,4.60601806640625,109.3612289428711,116.904914855957,15,60864.84514579167,-0.505615234375,0.96417236328125,0.4459381103515625,60864.83501479167,0.3190775912601377,-0.1383642681189578,-1.550013816596245,60864.83016179167,45.50956726074219,20.67588806152344,-530.4723510742188,60864.84008079167,-1.363888806251883,-1.302349922097707,-0.9675488861598865,0.2042380571365356,-0.131517082452774,-1.489770770072937,-0.002865076065063477,0.1366769671440125,0.5907647013664246,1,-0.6254072189331055,-0.1833838224411011,-0.2249273806810379,0.724323034286499,-0.5470006465911865,0.8234976530075073,-0.1504723727703094,0,0,0,-1,60863.912084,3,2,1561238324.08027,1561238131.651496,23,2.314067,0,0,18.8331,0,0,1561238323.767679,60861.786354,0,-0.3354492,74.39958,2650659446,177292352,1,1,0.46,-160,-160,0
1561238325.049504,36,0,0,1561238318.874369,4.603123184803567,-74.06473843912211,2644.437,0.08684977,-1,34.38091659545898,200,-9999,1561238325.021444,7.406253814697266,20.33452987670898,4.3087158203125,109.1679382324219,116.7116241455078,15,60864.86540979167,-0.43450927734375,0.96270751953125,0.4282073974609375,60864.85527779167,-0.09127212319530466,-0.1119030995279305,-1.295181258208743,60864.85030379167,44.84197998046875,21.15029907226562,-530.5836791992188,60864.86034379167,-1.376191237283741,-1.314815584025791,-0.9408794769617165,-0.178450733423233,-0.1260613352060318,-1.239447712898254,0.1039860248565674,0.1582626104354858,0.594494104385376,1,-0.6230741739273071,-0.1928808838129044,-0.2341387122869492,0.7209400534629822,-0.5698826909065247,0.8080765008926392,-0.1491510719060898,0,0,0,-1,60863.912084,3,2,1561238324.08027,1561238131.651496,23,2.314067,0,0,18.8331,0,0,1561238323.767679,60861.786354,0,-0.3354492,74.39958,2650659446,177292352,1,1,0.46,-160,-160,0
1561238325.052003,37,0,0,1561238318.874369,4.603123184803567,-74.06473843912211,2644.437,0.08684977,-1,34.38091659545898,200,-9999,1561238325.021444,7.406253814697266,20.33452987670898,4.3087158203125,109.1679382324219,116.7116241455078,15,60864.88567379167,-0.3801727294921875,0.9384765625,0.38397216796875,60864.87554179167,-0.367621691610102,-0.1546550908230815,-1.09397863890493,60864.87041479167,44.40280151367188,21.37738037109375,-530.6791381835938,60864.88060779167,-1.395770707676078,-1.333478490288891,-0.9199521615898831,-0.424530565738678,-0.1831770837306976,-1.059327006340027,0.1828714609146118,0.1559044122695923,0.5540104508399963,1,-0.6233905553817749,-0.200416162610054,-0.2421448826789856,0.7159493565559387,-0.5888773202896118,0.7955726385116577,-0.142435148358345,0,0,0,-1,60863.912084,3,2,1561238324.08027,1561238131.651496,23,2.314067,0,0,18.8331,0,0,1561238323.767679,60861.786354,0,-0.3354492,74.39958,2650659446,177292352,1,1,0.46,-160,-160,0
1561238325.067124,38,0,0,1561238318.874369,4.603123184803567,-74.06473843912211,2644.437,0.08684977,-1,34.38091659545898,200,-9999,1561238325.065353,6.578132629394531,21.17227172851562,4.3265380859375,109.2733840942383,116.8170700073242,15,60864.90593679167,-0.3431243896484375,0.9310302734375,0.32708740234375,60864.89580579167,-0.5556938614753888,-0.2342761505653985,-0.9371088633193382,60864.89055679167,43.95768737792969,21.82513427734375,-530.45751953125,60864.90084079167,-1.419620391478816,-1.356824331600344,-0.9029612193012164,-0.6019457578659058,-0.256862998008728,-0.8934751749038696,0.2455762624740601,0.1455761194229126,0.4863597750663757,1,-0.6256437301635742,-0.206928089261055,-0.2488721162080765,0.7097980976104736,-0.6051648855209351,0.7851641774177551,-0.1315013766288757,0,0,0,-1,60863.912084,3,2,1561238324.08027,1561238131.651496,23,2.314067,0,0,18.8331,0,0,1561238323.767679,60861.786354,0,-0.3354492,74.39958,2650659446,177292352,1,1,0.46,-160,-160,0
1561238325.087465,39,0,0,1561238318.874369,4.603123184803567,-74.06473843912211,2644.437,0.08684977,-1,34.38091659545898,200,-9999,1561238325.065353,6.578132629394531,21.17227172851562,4.3265380859375,109.2733840942383,116.8170700073242,15,60864.92620079167,-0.3146514892578125,0.9364471435546875,0.265899658203125,60864.91606879167,-0.7154209425945263,-0.3155182764632468,-0.736451925722882,60864.91069779167,43.63491821289062,22.23095703125,-530.006591796875,60864.92110479167,-1.446384416066284,-1.383794983110529,-0.8899863187652892,-0.7533209323883057,-0.3397392630577087,-0.686997652053833,0.2906143665313721,0.1556150913238525,0.4097426533699036,1,-0.6295952796936035,-0.2123693525791168,-0.2540804445743561,0.7028173208236694,-0.6184493899345398,0.7770631313323975,-0.1170180812478065,0,0,0,-1,60863.912084,3,2,1561238324.08027,1561238131.651496,23,2.314067,0,0,18.8331,0,0,1561238323.767679,60861.786354,0,-0.3354492,74.39958,2650659446,177292352,1,1,0.46,-160,-160,0
1561238325.123687,40,0,0,1561238318.874369,4.603123184803567,-74.06473843912211,2644.437,0.08684977,-1,34.38091659545898,200,-9999,1561238325.122069,5.537319183349609,22.15192031860352,5.6046142578125,110.1268005371094,117.6704864501953,15,60864.94643379167,-0.2981719970703125,0.9495086669921875,0.2122802734375,60864.93630179167,-0.8282809159021222,-0.3790876653673292,-0.5047132350441109,60864.93080879167,43.71932983398438,22.19955444335938,-529.82666015625,60864.94136779167,-1.474905806683271,-1.413397688227688,-0.881425295013765,-0.8566161394119263,-0.4068511724472046,-0.4453552067279816,0.3218996524810791,0.1738951802253723,0.3397673964500427,1,-0.6350226998329163,-0.2165542542934418,-0.2574824392795563,0.695379912853241,-0.6281893253326416,0.7716462016105652,-0.09970085322856903,0,0,0,-1,60863.912084,3,2,1561238324.08027,1561238131.651496,23,2.314067,0,0,18.8331,0,0,1561238323.767679,60861.786354,0,-0.3354492,74.39958,2650659446,177292352,1,1,0.46,-160,-160,0
1561238325.127856,41,0,0,1561238318.874369,4.603123184803567,-74.06473843912211,2644.437,0.08684977,-1,34.38091659545898,200,-9999,1561238325.122069,5.537319183349609,22.15192031860352,5.6046142578125,110.1268005371094,117.6704864501953,15,60864.96669779167,-0.275390625,0.95355224609375,0.1673431396484375,60864.95656579167,-0.91481687341483,-0.4579374736579592,-0.2631237778092458,60864.95095079167,42.95529174804688,22.67851257324219,-529.3789672851562,60864.96163179167,-1.504623377711653,-1.445317610116746,-0.8774700858574966,-0.9307074546813965,-0.4767671525478363,-0.2108921110630035,0.3464769124984741,0.1818490028381348,0.2691004872322083,1,-0.6417630910873413,-0.2194278836250305,-0.2588629424571991,0.6877366304397583,-0.6340745687484741,0.769124448299408,-0.07998307794332504,0,0,0,-1,60863.912084,3,2,1561238324.08027,1561238131.651496,23,2.314067,0,0,18.8331,0,0,1561238323.767679,60861.786354,0,-0.3354492,74.39958,2650659446,177292352,1,1,0.46,-160,-160,0
1561238325.148437,42,0,0,1561238318.874369,4.603123184803567,-74.06473843912211,2644.437,0.08684977,-1,34.38091659545898,200,-9999,1561238325.122069,5.537319183349609,22.15192031860352,5.6046142578125,110.1268005371094,117.6704864501953,15,60864.98696179167,-0.246826171875,0.9488677978515625,0.1324920654296875,60864.97682979167,-0.9970736636879983,-0.5023265100751819,-0.01132748938054303,60864.97109179167,42.93869018554688,22.38002014160156,-529.0814208984375,60864.98189579167,-1.535662907804932,-1.47928842704134,-0.8779617522014431,-1.031383991241455,-0.5143869519233704,0.05379467085003853,0.3772441148757935,0.1842815279960632,0.2076431512832642,1,-0.6496449112892151,-0.2208580076694489,-0.2583477795124054,0.6800291538238525,-0.636048436164856,0.769438624382019,-0.05836645886301994,0,0,0,-1,60863.912084,3,2,1561238324.08027,1561238131.651496,23,2.314067,0,0,18.8331,0,0,1561238323.767679,60861.786354,0,-0.3354492,74.39958,2650659446,177292352,1,1,0.46,-160,-160,0
1561238325.16857,43,0,0,1561238318.874369,4.603123184803567,-74.06473843912211,2644.437,0.08684977,-1,34.38091659545898,200,-9999,1561238325.148451,5.331455230712891,22.07743072509766,6.06671142578125,110.4808807373047,118.0245666503906,15,60865.00722479167,-0.2259368896484375,0.9393463134765625,0.0944671630859375,60864.99709279167,-1.147230941746045,-0.5200106986616351,0.2474966148487699,60864.99120379167,43.07673645019531,22.68849182128906,-528.3572998046875,60865.00215879167,-1.570438541979164,-1.516716250502111,-0.8832812923072607,-1.188909411430359,-0.5249759554862976,0.2953894436359406,0.3976527452468872,0.1708391308784485,0.1502856016159058,1,-0.6590114235877991,-0.2203456163406372,-0.2561062574386597,0.6719831824302673,-0.6336910128593445,0.7728254199028015,-0.03430350497364998,0,0,0,-1,60863.912084,3,2,1561238324.08027,1561238131.651496,23,2.314067,0,0,18.8331,0,0,1561238323.767679,60861.786354,0,-0.3354492,74.39958,2650659446,177292352,1,1,0.46,-160,-160,0
1561238325.206556,44,0,0,1561238318.874369,4.603123184803567,-74.06473843912211,2644.437,0.08684977,-1,34.38091659545898,200,-9999,1561238325.202258,5.573432922363281,21.91072082519531,7.19647216796875,111.4695510864258,119.0132369995117,15,60865.02748879167,-0.2307891845703125,0.9303436279296875,0.034149169921875,60865.01735679167,-1.251784781929793,-0.5230088854168463,0.4241496825920149,60865.01134479167,43.10832214355469,22.38067626953125,-527.8037109375,60865.02242279167,-1.609743309235701,-1.557891238784811,-0.8918142409506953,-1.255245327949524,-0.5349622964859009,0.4594865143299103,0.4007607698440552,0.1569835543632507,0.07441890239715576,1,-0.6695900559425354,-0.2181675136089325,-0.2527359127998352,0.6634581089019775,-0.6279489398002625,0.7782123684883118,-0.008104185573756695,0,0,0,-1,60863.912084,3,2,1561238324.08027,1561238131.651496,23,2.314067,0,0,18.8331,0,0,1561238323.767679,60861.786354,0,-0.3354492,74.39958,2650659446,177292352,1,1,0.46,-160,-160,0
1561238325.20911,45,0,0,1561238318.874369,4.603123184803567,-74.06473843912211,2644.437,0.08684977,-1,34.38091659545898,200,-9999,1561238325.202258,5.573432922363281,21.91072082519531,7.19647216796875,111.4695510864258,119.0132369995117,15,60865.04775279167,-0.2272796630859375,0.9307708740234375,-0.0242156982421875,60865.03762079167,-1.167110107702942,-0.5921205788654926,0.5863401877194756,60865.03148679167,43.40707397460938,22.01152038574219,-527.5223999023438,60865.04268679167,-1.648969701008577,-1.600159431669371,-0.9025872217301317,-1.124573588371277,-0.6352528929710388,0.6309906244277954,0.3905999064445496,0.144877016544342,-0.01649653911590576,1,-0.6802695393562317,-0.2152404636144638,-0.2478428184986115,0.6553462147712708,-0.6193138957023621,0.784932553768158,0.01819020695984364,0,0,0,-1,60863.912084,3,2,1561238324.08027,1561238131.651496,23,2.314067,0,0,18.8331,0,0,1561238323.767679,60861.786354,0,-0.3354492,74.39958,2650659446,177292352,1,1,0.46,-160,-160,0
1561238325.229335,46,0,0,1561238318.874369,4.603123184803567,-74.06473843912211,2644.437,0.08684977,-1,34.38091659545898,200,-9999,1561238325.22345,6.101272583007812,21.52392959594727,7.905029296875,111.595458984375,119.1391448974609,15,60865.06801579167,-0.23638916015625,0.9274749755859375,-0.0607147216796875,60865.05788379167,-0.9573100054520253,-0.7650050073501665,0.7872977962030018,60865.05159779167,43.58120727539062,21.98135375976562,-527.0569458007812,60865.06294979167,-1.683666774207371,-1.642230241204577,-0.9163987654041291,-0.9008927941322327,-0.8184826374053955,0.8301886916160583,0.3760650753974915,0.1369898915290833,-0.08729732036590576,1,-0.6903612017631531,-0.2124221473932266,-0.2401657402515411,0.6485357284545898,-0.607128918170929,0.7934147715568542,0.04344351589679718,0,0,0,-1,60863.912084,3,2,1561238324.08027,1561238131.651496,23,2.314067,0,0,18.8331,0,0,1561238323.767679,60861.786354,0,-0.3354492,74.39958,2650659446,177292352,1,1,0.46,-160,-160,0
1561238325.249839,47,0,0,1561238318.874369,4.603123184803567,-74.06473843912211,2644.437,0.08684977,-1,34.38091659545898,200,-9999,1561238325.22345,6.101272583007812,21.52392959594727,7.905029296875,111.595458984375,119.1391448974609,15,60865.08827979167,-0.273590087890625,0.909759521484375,-0.07745361328125,60865.07814779167,-0.7271740051172639,-0.9157907914254719,0.9481615144753851,60865.07173879167,43.8841552734375,21.63032531738281,-526.61328125,60865.08321379167,-1.712873709707887,-1.683564873647218,-0.9332482205965313,-0.686572253704071,-0.9415228366851807,0.9766969084739685,0.3392643332481384,0.1147315502166748,-0.1399940252304077,1,-0.6995726227760315,-0.209972620010376,-0.2296523004770279,0.6432491540908813,-0.5914463400840759,0.8035576343536377,0.06698071211576462,0,0,0,-1,60863.912084,3,2,1561238324.08027,1561238131.651496,23,2.314067,0,0,18.8331,0,0,1561238323.767679,60861.786354,0,-0.3354492,74.39958,2650659446,177292352,1,1,0.46,-160,-160,0
1561238325.291602,48,0,0,1561238318.874369,4.603123184803567,-74.06473843912211,2644.437,0.08684977,-1,34.38091659545898,200,-9999,1561238325.274058,6.920162200927734,20.8969612121582,8.44732666015625,110.6459197998047,118.1896057128906,15,60865.10854379167,-0.320526123046875,0.90338134765625,-0.08160400390625,60865.09841179167,-0.6199016100927632,-0.9363035234056982,1.064360559157722,60865.09188079167,44.38571166992188,21.23599243164062,-526.536865234375,60865.10347779167,-1.739484383574418,-1.724212379779466,-0.9522850595035274,-0.6188288927078247,-0.9204258322715759,1.085891604423523,0.2766259908676147,0.0905766487121582,-0.168134331703186,1,-0.7080522775650024,-0.2072794437408447,-0.2175659835338593,0.639032244682312,-0.57301265001297,0.8147425651550293,0.08860559016466141,0,0,0,-1,60863.912084,3,2,1561238324.08027,1561238131.651496,23,2.314067,0,0,18.8331,0,0,1561238323.767679,60861.786354,0,-0.3354492,74.39958,2650659446,177292352,1,1,0.46,-160,-160,0
1561238325.294513,49,0,0,1561238318.874369,4.603123184803567,-74.06473843912211,2644.437,0.08684977,-1,34.38091659545898,200,-9999,1561238325.274058,6.920162200927734,20.8969612121582,8.44732666015625,110.6459197998047,118.1896057128906,15,60865.12880679167,-0.3594970703125,0.8951873779296875,-0.0881195068359375,60865.11867479167,-0.6157819662025197,-0.7848458237873659,1.150265347492081,60865.11199179167,44.99580383300781,21.15374755859375,-526.255126953125,60865.12374079167,-1.768012465376437,-1.764576160320908,-0.9726092393485601,-0.6186973452568054,-0.7378690242767334,1.160006523132324,0.2142720818519592,0.07279676198959351,-0.1902621984481812,1,-0.7161864638328552,-0.2032220959663391,-0.2055440545082092,0.6352396607398987,-0.5526052117347717,0.826357901096344,0.1084445416927338,0,0,0,-1,60863.912084,3,2,1561238324.08027,1561238131.651496,23,2.314067,0,0,18.8331,0,0,1561238323.767679,60861.786354,0,-0.3354492,74.39958,2650659446,177292352,1,1,0.46,-160,-160,0
1561238325.310434,50,0,0,1561238318.874369,4.603123184803567,-74.06473843912211,2644.437,0.08684977,-1,34.38091659545898,200,-9999,1561238325.300457,7.593460083007812,20.69927597045898,8.58697509765625,110.2779922485352,117.8216781616211,15,60865.14907079167,-0.38916015625,0.886871337890625,-0.10205078125,60865.13893879167,-0.571162566351005,-0.5600832835840575,1.174156299315073,60865.13213379167,45.65997314453125,20.66072082519531,-526.1034545898438,60865.14400479167,-1.798183358577679,-1.802335289242482,-0.993247170280563,-0.5471060872077942,-0.5133989453315735,1.162472486495972,0.1533508896827698,0.05427134037017822,-0.2215549945831299,1,-0.7236286997795105,-0.1974973082542419,-0.1946830153465271,0.6320244073867798,-0.5314026474952698,0.8378032445907593,0.1252873688936234,0,0,0,-1,60863.912084,3,2,1561238324.08027,1561238131.651496,23,2.314067,0,0,18.8331,0,0,1561238323.767679,60861.786354,0,-0.3354492,74.39958,2650659446,177292352,1,1,0.46,-160,-160,0
1561238325.330642,51,0,0,1561238318.874369,4.603123184803567,-74.06473843912211,2644.437,0.08684977,-1,34.38091659545898,200,-9999,1561238325.32471,8.249477386474609,19.75273132324219,8.87042236328125,110.1150817871094,117.6587677001953,15,60865.16933479167,-0.4181365966796875,0.884124755859375,-0.123260498046875,60865.15920279167,-0.4605031630521416,-0.3734319101603279,1.131949457095061,60865.15227479167,45.72854614257812,20.3148193359375,-525.9782104492188,60865.16423779167,-1.826646108502006,-1.834888581623692,-1.013175471081894,-0.4373924136161804,-0.3483646810054779,1.12039315700531,0.1059154272079468,0.03435707092285156,-0.249962329864502,1,-0.72981858253479,-0.1908668428659439,-0.1852636188268661,0.6297714710235596,-0.5108226537704468,0.8485164642333984,0.1381306350231171,0,0,0,-1,60863.912084,3,2,1561238324.08027,1561238131.651496,23,2.314067,0,0,18.8331,0,0,1561238323.767679,60862.734125,0,-0.5310059,74.40141,2650659446,177292352,1,1,0.46,-160,-160,0
1561238325.372766,52,0,0,1561238318.874369,4.603123184803567,-74.06473843912211,2644.437,0.08684977,-1,34.38091659545898,200,-9999,1561238325.351617,8.736286163330078,19.3102912902832,8.90008544921875,110.0472869873047,117.5909729003906,15,60865.18959779167,-0.440460205078125,0.8807373046875,-0.1471710205078125,60865.17946579167,-0.3586974387972465,-0.248440971771312,1.104002777247988,60865.17238579167,46.24069213867188,19.6798095703125,-526.0531005859375,60865.18450179167,-1.852972474693783,-1.863150080067604,-1.032583907784392,-0.3288701772689819,-0.2252590209245682,1.090855598449707,0.06023287773132324,0.02594089508056641,-0.2820737361907959,1,-0.7349140644073486,-0.1837634593248367,-0.1768258512020111,0.6283827424049377,-0.4908511936664581,0.8586263656616211,0.1477353870868683,0,0,0,-1,60863.912084,3,2,1561238324.08027,1561238131.651496,23,2.314067,0,0,18.8331,0,0,1561238323.767679,60862.734125,0,-0.5310059,74.40141,2650659446,177292352,1,1,0.46,-160,-160,0
1561238325.375492,53,0,0,1561238318.874369,4.603123184803567,-74.06473843912211,2644.437,0.08684977,-1,34.38091659545898,200,-9999,1561238325.351617,8.736286163330078,19.3102912902832,8.90008544921875,110.0472869873047,117.5909729003906,15,60865.20983079167,-0.452301025390625,0.871002197265625,-0.160980224609375,60865.19969979167,-0.2193986674517799,-0.1615806412378326,1.056666686768484,60865.19252779167,46.69203186035156,19.36227416992188,-525.913818359375,60865.20476579167,-1.875646023148722,-1.886454621502603,-1.051634883474127,-0.1916721016168594,-0.1604371517896652,1.041540741920471,0.0270887017250061,0.007359564304351807,-0.3086897134780884,1,-0.7388181686401367,-0.1765248030424118,-0.1691380590200424,0.6279959678649902,-0.4716382622718811,0.8682355284690857,0.1540265828371048,0,0,0,-1,60863.912084,3,2,1561238324.08027,1561238131.651496,23,2.314067,0,0,18.8331,0,0,1561238323.767679,60862.734125,0,-0.5310059,74.40141,2650659446,177292352,1,1,0.46,-160,-160,0
1561238325.391244,54,0,0,1561238318.874369,4.603123184803567,-74.06473843912211,2644.437,0.08684977,-1,34.38091659545898,200,-9999,1561238325.37727,9.297836303710938,18.90585708618164,8.764892578125,109.9829177856445,117.5266036987305,15,60865.23009479167,-0.4683685302734375,0.8671722412109375,-0.1705322265625,60865.21996279167,-0.1088079737090404,-0.1269275891337215,1.026465907374767,60865.21263879167,46.95016479492188,19.0806884765625,-525.8961791992188,60865.22502879167,-1.894777853184995,-1.906032323450537,-1.070500552206647,-0.08861789107322693,-0.1309106796979904,1.01983118057251,-0.003880918025970459,-0.008712112903594971,-0.3226532936096191,1,-0.7417442798614502,-0.1694748848676682,-0.1617645025253296,0.6284313797950745,-0.4529824554920197,0.8774407505989075,0.157812625169754,0,0,0,-1,60863.912084,3,2,1561238324.08027,1561238131.651496,23,2.314067,0,0,18.8331,0,0,1561238323.767679,60862.734125,0,-0.5310059,74.40141,2650659446,177292352,1,1,0.46,-160,-160,0
1561238325.411675,55,0,0,1561238318.874369,4.603123184803567,-74.06473843912211,2644.437,0.08684977,-1,34.38091659545898,200,-9999,1561238325.401751,9.499771118164062,18.57362365722656,8.77484130859375,109.8605499267578,117.4042358398438,15,60865.25035879167,-0.4981689453125,0.863922119140625,-0.17340087890625,60865.24022679167,0.03474679537448184,-0.1102961481261767,0.9991376135328098,60865.23278079167,47.29861450195312,18.72262573242188,-526.2406005859375,60865.24529279167,-1.909769909707291,-1.921688090245074,-1.089596189228186,0.07881318032741547,-0.1085963174700737,0.984400749206543,-0.04776602983474731,-0.01832181215286255,-0.3323895931243896,1,-0.7436996698379517,-0.1626609712839127,-0.1544763445854187,0.6297532916069031,-0.4346405863761902,0.886440098285675,0.1590955853462219,0,0,0,-1,60863.912084,3,2,1561238324.08027,1561238131.651496,23,2.314067,0,0,18.8331,0,0,1561238323.767679,60862.734125,0,-0.5310059,74.40141,2650659446,177292352,1,1,0.46,-160,-160,0
1561238325.443013,56,0,0,1561238318.874369,4.603123184803567,-74.06473843912211,2644.437,0.08684977,-1,34.38091659545898,200,-9999,1561238325.426149,10.51852798461914,17.89764404296875,8.816650390625,109.6597137451172,117.2033996582031,15,60865.27062279167,-0.5322418212890625,0.861236572265625,-0.172210693359375,60865.26049079167,0.2316982106302018,-0.04020254718361817,0.9417004193547438,60865.25292179167,48.01846313476562,18.23936462402344,-525.9721069335938,60865.26555679167,-1.917109748003936,-1.929631747383427,-1.108990014256025,0.2672624289989471,-0.02341724187135696,0.9253430366516113,-0.09952253103256226,-0.0364997386932373,-0.3305020332336426,1,-0.7442077398300171,-0.1561812907457352,-0.1475619524717331,0.6324456930160522,-0.4171858727931976,0.8952491283416748,0.1564755141735077,0,0,0,-1,60863.912084,3,2,1561238324.08027,1561238131.651496,23,2.314067,0,0,18.8331,0,0,1561238323.767679,60862.734125,0,-0.5310059,74.40141,2650659446,177292352,1,1,0.46,-160,-160,0
1561238325.452582,57,0,0,1561238318.874369,4.603123184803567,-74.06473843912211,2644.437,0.08684977,-1,34.38091659545898,200,-9999,1561238325.426149,10.51852798461914,17.89764404296875,8.816650390625,109.6597137451172,117.2033996582031,15,60865.29088579167,-0.55035400390625,0.855743408203125,-0.175537109375,60865.28075379167,0.3469052278064846,0.04902346934617861,0.888734672646921,60865.27303279167,48.50559997558594,17.96723937988281,-526.0982055664062,60865.28581979167,-1.917872280357345,-1.929884970910549,-1.12831068153643,0.356751024723053,0.06603647023439407,0.8681823015213013,-0.1413143873214722,-0.04378104209899902,-0.3239359855651855,1,-0.7435151338577271,-0.1497405469417572,-0.1414533853530884,0.6362027525901794,-0.4008761644363403,0.9036901593208313,0.1504739671945572,0,0,0,-1,60863.912084,3,2,1561238324.08027,1561238131.651496,23,2.314067,0,0,18.8331,0,0,1561238323.767679,60862.734125,0,-0.5310059,74.40141,2650659446,177292352,1,1,0.46,-160,-160,0
1561238325.472522,58,0,0,1561238318.874369,4.603123184803567,-74.06473843912211,2644.437,0.08684977,-1,34.38091659545898,200,-9999,1561238325.452745,10.88714218139648,17.78390121459961,8.67657470703125,109.5052642822266,117.0489501953125,15,60865.31114979167,-0.565704345703125,0.85284423828125,-0.1801605224609375,60865.30101779167,0.4023567690757875,0.1265819108242293,0.8115240400072347,60865.29317479167,48.6953125,17.54695129394531,-526.481689453125,60865.30608379167,-1.914399479840215,-1.924620844624672,-1.14680110820881,0.4239657521247864,0.1138378158211708,0.7822633981704712,-0.1718187928199768,-0.05696040391921997,-0.3196709156036377,1,-0.7421055436134338,-0.1433625817298889,-0.1362968236207962,0.6404293179512024,-0.3859204649925232,0.91145259141922,0.1425469368696213,0,0,0,-1,60863.912084,3,2,1561238324.08027,1561238131.651496,23,2.314067,0,0,18.8331,0,0,1561238323.767679,60862.734125,0,-0.5310059,74.40141,2650659446,177292352,1,1,0.46,-160,-160,0
1561238325.492804,59,0,0,1561238318.874369,4.603123184803567,-74.06473843912211,2644.437,0.08684977,-1,34.38091659545898,200,-9999,1561238325.476753,10.99405288696289,17.09506607055664,8.3289794921875,109.411491394043,116.9551773071289,15,60865.33141379167,-0.5962982177734375,0.85845947265625,-0.1701202392578125,60865.32128179167,0.5191294586569278,0.0711647243329884,0.7151740675614758,60865.31328579167,48.57574462890625,17.11183166503906,-526.3936157226562,60865.32634779167,-1.903518458158194,-1.912859744208576,-1.164155944061492,0.5478411316871643,0.0440739169716835,0.6917001605033875,-0.2064751982688904,-0.06171959638595581,-0.3093534708023071,1,-0.7397983074188232,-0.1379654109477997,-0.1314962059259415,0.6452695727348328,-0.3726111054420471,0.9184548258781433,0.132671982049942,0,0,0,-1,60863.912084,3,2,1561238324.08027,1561238131.651496,23,2.314067,0,0,18.8331,0,0,1561238323.767679,60862.734125,0,-0.5310059,74.40141,2650659446,177292352,1,1,0.46,-160,-160,0
1561238325.526162,60,0,0,1561238318.874369,4.603123184803567,-74.06473843912211,2644.437,0.08684977,-1,34.38091659545898,200,-9999,1561238325.523253,11.08575820922852,16.92155075073242,8.173828125,109.1591567993164,116.7028427124023,15,60865.35167679167,-0.6502685546875,0.86297607421875,-0.138519287109375,60865.34154479167,0.6641375147473064,0.02550456112747085,0.6157633240748891,60865.33342779167,48.8548583984375,16.86590576171875,-526.843017578125,60865.34661079167,-1.882936700830433,-1.893231175301161,-1.180445377724067,0.6965736150741577,0.02652448415756226,0.5759240388870239,-0.256497323513031,-0.06511068344116211,-0.2763527631759644,1,-0.7364571690559387,-0.1338607519865036,-0.1267196983098984,0.6508872509002686,-0.3609037697315216,0.9247756004333496,0.1205757260322571,0,0,0,-1,60863.912084,3,2,1561238324.08027,1561238131.651496,23,2.314067,0,0,18.8331,0,0,1561238323.767679,60862.734125,0,-0.5310059,74.40141,2650659446,177292352,1,1,0.46,-160,-160,0
1561238325.533734,61,0,0,1561238318.874369,4.603123184803567,-74.06473843912211,2644.437,0.08684977,-1,34.38091659545898,200,-9999,1561238325.523253,11.08575820922852,16.92155075073242,8.173828125,109.1591567993164,116.7028427124023,15,60865.37194079167,-0.726043701171875,0.85009765625,-0.08740234375,60865.36180879167,0.7617439665953645,0.1199423839105527,0.4405608801774102,60865.35353879167,49.07650756835938,17.15574645996094,-526.9971923828125,60865.36687479167,-1.85193371349572,-1.862689444780758,-1.19424964461432,0.7620317339897156,0.1577176600694656,0.3732830584049225,-0.3354188799858093,-0.07376933097839355,-0.2214305400848389,1,-0.7320033311843872,-0.1306846737861633,-0.1232136562466621,0.6571993827819824,-0.3521573841571808,0.9299399852752686,0.1058147251605988,0,0,0,-1,60863.912084,3,2,1561238324.08027,1561238131.651496,23,2.314067,0,0,18.8331,0,0,1561238323.767679,60862.734125,0,-0.5310059,74.40141,2650659446,177292352,1,1,0.46,-160,-160,0
1561238325.553591,62,0,0,1561238318.874369,4.603123184803567,-74.06473843912211,2644.437,0.08684977,-1,34.38091659545898,200,-9999,1561238325.523253,11.08575820922852,16.92155075073242,8.173828125,109.1591567993164,116.7028427124023,15,60865.39220479167,-0.78057861328125,0.8570556640625,-0.0314788818359375,60865.38207279167,0.7418802469727905,0.3077548955695568,0.1726814956096099,60865.37367979167,49.43222045898438,16.77149963378906,-527.3797607421875,60865.38713879167,-1.814470466683884,-1.822527629215138,-1.202820609688321,0.734428882598877,0.3331049382686615,0.1107675433158875,-0.4071946740150452,-0.08447045087814331,-0.1465166807174683,1,-0.7268842458724976,-0.1282184571027756,-0.1226173564791679,0.6634488701820374,-0.3483900427818298,0.933057427406311,0.08960136026144028,0,0,0,-1,60863.912084,3,2,1561238324.08027,1561238131.651496,23,2.314067,0,0,18.8331,0,0,1561238323.767679,60862.734125,0,-0.5310059,74.40141,2650659446,177292352,1,1,0.46,-160,-160,0
1561238325.573868,63,0,0,1561238318.874369,4.603123184803567,-74.06473843912211,2644.437,0.08684977,-1,34.38091659545898,200,-9999,1561238325.553652,11.56503295898438,16.35406112670898,7.46533203125,108.8632049560547,116.4068908691406,15,60865.41246779167,-0.8126983642578125,0.8929595947265625,0.0258331298828125,60865.40233579167,0.7725699827426457,0.3429898483718501,-0.03848347669997201,60865.39379079167,49.13290405273438,16.73735046386719,-527.6923828125,60865.40740179167,-1.772572424322325,-1.776476388914545,-1.20635013683574,0.7962607741355896,0.310504823923111,-0.08708561211824417,-0.4495734572410583,-0.06086242198944092,-0.07667076587677002,1,-0.7213234305381775,-0.126846581697464,-0.1241317689418793,0.6694726943969727,-0.3489189445972443,0.9343212842941284,0.07279509305953979,0,0,0,-1,60863.912084,3,2,1561238324.08027,1561238131.651496,23,2.314067,0,0,18.8331,0,0,1561238323.767679,60862.734125,0,-0.5310059,74.40141,2650659446,177292352,1,1,0.46,-160,-160,0
1561238325.602569,64,0,0,1561238318.874369,4.603123184803567,-74.06473843912211,2644.437,0.08684977,-1,34.38091659545898,200,-9999,1561238325.577992,11.53225708007812,16.42850112915039,7.214111328125,108.8840789794922,116.4277648925781,15,60865.43273179167,-0.839141845703125,0.919677734375,0.08746337890625,60865.42259979167,0.9021279760850384,0.1792872003774424,-0.2180412542441665,60865.41393279167,49.49971008300781,16.87544250488281,-527.7744750976562,60865.42763479167,-1.722496006349485,-1.725245488586438,-1.205985585936892,0.9265016317367554,0.1176461353898048,-0.2716887593269348,-0.4759201407432556,-0.02244812250137329,0.0009933710098266602,1,-0.7149330377578735,-0.1277220547199249,-0.1258101314306259,0.6758176684379578,-0.3525252938270569,0.9341912865638733,0.05488434433937073,0,0,0,-1,60863.912084,3,2,1561238324.08027,1561238131.651496,23,2.314067,0,0,18.8331,0,0,1561238323.767679,60862.734125,0,-0.5310059,74.40141,2650659446,177292352,1,1,0.46,-160,-160,0
1561238325.614259,65,0,0,1561238318.874369,4.603123184803567,-74.06473843912211,2644.437,0.08684977,-1,34.38091659545898,200,-9999,1561238325.605132,11.7805061340332,16.49644470214844,6.81402587890625,108.5309143066406,116.0746002197266,15,60865.45299579167,-0.8639678955078125,0.91461181640625,0.152374267578125,60865.44286379167,0.9689711889171553,-0.01973668683857724,-0.4649421199570856,60865.43404379167,49.34210205078125,16.98443603515625,-528.0050048828125,60865.44789879167,-1.666297282533731,-1.672405040281,-1.200414249208982,0.9688006043434143,-0.05466890707612038,-0.5464992523193359,-0.490450382232666,-0.01455605030059814,0.08080697059631348,1,-0.7078241109848022,-0.1316934078931808,-0.1274484246969223,0.6822015047073364,-0.3601050078868866,0.9321891069412231,0.03671625256538391,0,0,0,-1,60863.912084,3,2,1561238324.08027,1561238131.651496,23,2.314067,0,0,18.8331,0,0,1561238323.767679,60862.734125,0,-0.5310059,74.40141,2650659446,177292352,1,1,0.46,-160,-160,0
1561238325.634613,66,0,0,1561238318.874369,4.603123184803567,-74.06473843912211,2644.437,0.08684977,-1,34.38091659545898,200,-9999,1561238325.629788,11.51253890991211,17.02725601196289,6.45025634765625,107.9243774414062,115.4680633544922,15,60865.47322879167,-0.8808441162109375,0.9182281494140625,0.228912353515625,60865.46309679167,0.9662342582648807,-0.07916565919591345,-0.7912754936071442,60865.45418579167,49.2474365234375,17.04808044433594,-528.2581787109375,60865.46816279167,-1.610276623895513,-1.621883250410328,-1.187537514474241,0.9525508284568787,-0.08368804305791855,-0.8756018280982971,-0.5014516115188599,-0.01270174980163574,0.1706628799438477,1,-0.700248122215271,-0.1385649889707565,-0.1305081397294998,0.688055157661438,-0.3734568655490875,0.927450954914093,0.01909537799656391,0,0,0,-1,60863.912084,3,2,1561238324.08027,1561238131.651496,23,2.314067,0,0,18.8331,0,0,1561238323.767679,60862.734125,0,-0.5310059,74.40141,2650659446,177292352,1,1,0.46,-160,-160,0
1561238325.654983,67,0,0,1561238318.874369,4.603123184803567,-74.06473843912211,2644.437,0.08684977,-1,34.38091659545898,200,-9999,1561238325.629788,11.51253890991211,17.02725601196289,6.45025634765625,107.9243774414062,115.4680633544922,15,60865.49349179167,-0.881744384765625,0.9302825927734375,0.3018035888671875,60865.48336079167,0.8927818785555144,-0.02775653014524185,-1.096071350889514,60865.47429679167,49.20455932617188,17.58564758300781,-528.9158325195312,60865.48842579167,-1.560541576962151,-1.576990793309134,-1.167304987473121,0.8525069952011108,0.00735611654818058,-1.170267224311829,-0.4893641471862793,0.005475103855133057,0.2639100551605225,1,-0.6924543380737305,-0.1473874300718307,-0.1359921097755432,0.6930297017097473,-0.3926243782043457,0.9196957945823669,0.002432129811495543,0,0,0,-1,60863.912084,3,2,1561238324.08027,1561238131.651496,23,2.314067,0,0,18.8331,0,0,1561238323.767679,60862.734125,0,-0.5310059,74.40141,2650659446,177292352,1,1,0.46,-160,-160,0
1561238325.689613,68,0,0,1561238318.874369,4.603123184803567,-74.06473843912211,2644.437,0.08684977,-1,34.38091659545898,200,-9999,1561238325.683017,11.04361343383789,17.98752593994141,5.72357177734375,107.3458633422852,114.8895492553711,15,60865.51375579167,-0.8535308837890625,0.908843994140625,0.356536865234375,60865.50362379167,0.6389757024521288,0.2088940948480713,-1.420984194414124,60865.49443779167,48.6590576171875,18.25015258789062,-529.0383911132812,60865.50868979167,-1.525556003619711,-1.542225037744009,-1.14005830384227,0.5332373976707458,0.2693986594676971,-1.510953783988953,-0.4545770287513733,0.01547551155090332,0.3476061820983887,1,-0.6851711869239807,-0.1567686349153519,-0.1452542841434479,0.6963226795196533,-0.4173712134361267,0.9086578488349915,-0.01192807964980602,0,0,0,-1,60863.912084,3,2,1561238324.08027,1561238131.651496,23,2.314067,0,0,18.8331,0,0,1561238323.767679,60862.734125,0,-0.5310059,74.40141,2650659446,177292352,1,1,0.46,-160,-160,0
1561238325.695319,69,0,0,1561238318.874369,4.603123184803567,-74.06473843912211,2644.437,0.08684977,-1,34.38091659545898,200,-9999,1561238325.683017,11.04361343383789,17.98752593994141,5.72357177734375,107.3458633422852,114.8895492553711,15,60865.53401979167,-0.86761474609375,0.9095306396484375,0.402313232421875,60865.52388779167,0.2462739575923145,0.5115596895744866,-1.744919125186457,60865.51454979167,48.34793090820312,18.62382507324219,-529.092041015625,60865.52895379167,-1.512761773686039,-1.522080318225568,-1.105980177869407,0.1544493436813354,0.5968154072761536,-1.818905711174011,-0.4116789400577545,0.009889364242553711,0.3973475694656372,1,-0.6793997883796692,-0.1658359616994858,-0.1594239324331284,0.6967771053314209,-0.4477265775203705,0.8939039707183838,-0.02182872220873833,0,0,0,-1,60863.912084,3,2,1561238324.08027,1561238131.651496,23,2.314067,0,0,18.8331,0,0,1561238323.767679,60862.734125,0,-0.5310059,74.40141,2650659446,177292352,1,1,0.46,-160,-160,0
1561238325.715753,70,0,0,1561238318.874369,4.603123184803567,-74.06473843912211,2644.437,0.08684977,-1,34.38091659545898,200,-9999,1561238325.705644,9.627651214599609,19.1022834777832,5.514892578125,108.1029205322266,115.6466064453125,15,60865.55428279167,-0.8159942626953125,0.9299468994140625,0.4296417236328125,60865.54415179167,-0.08676791884365365,0.8642146821744524,-1.991582969562359,60865.53469079167,47.63935852050781,19.13447570800781,-529.052978515625,60865.54921679167,-1.517746273930846,-1.510812527244371,-1.066814827078787,-0.1638798862695694,0.9280505776405334,-2.044255495071411,-0.3716054856777191,0.04263764619827271,0.4493141174316406,1,-0.6748118996620178,-0.1736491173505783,-0.1783971637487411,0.694729745388031,-0.4820474684238434,0.8756667971611023,-0.02894976735115051,0,0,0,-1,60863.912084,3,2,1561238324.08027,1561238131.651496,23,2.314067,0,0,18.8331,0,0,1561238323.767679,60862.734125,0,-0.5310059,74.40141,2650659446,177292352,1,1,0.46,-160,-160,0
1561238325.735869,71,0,0,1561238318.874369,4.603123184803567,-74.06473843912211,2644.437,0.08684977,-1,34.38091659545898,200,-9999,1561238325.729811,9.036975860595703,19.73093032836914,5.77850341796875,109.5179138183594,117.0615997314453,15,60865.57454679167,-0.707672119140625,0.957244873046875,0.4248199462890625,60865.56441479167,-0.3160495771007176,1.047482509433236,-2.148295884959745,60865.55480179167,46.70846557617188,20.0491943359375,-529.0831298828125,60865.56948079167,-1.534001888796138,-1.504459180694688,-1.024358642635367,-0.3367427587509155,1.04656445980072,-2.157793283462524,-0.246190071105957,0.08717775344848633,0.464073121547699,1,-0.6709696054458618,-0.1804895401000977,-0.2006037980318069,0.6906384825706482,-0.5185041427612305,0.8543810844421387,-0.03444663062691689,0,0,0,-1,60863.912084,3,2,1561238324.08027,1561238131.651496,23,2.314067,0,0,18.8331,0,0,1561238323.767679,60862.734125,0,-0.5310059,74.40141,2650659446,177292352,1,1,0.46,-160,-160,0
1561238325.770412,72,0,0,1561238318.874369,4.603123184803567,-74.06473843912211,2644.437,0.08684977,-1,34.38091659545898,200,-9999,1561238325.75687,8.04150390625,20.43864822387695,6.05352783203125,110.8923721313477,118.4360580444336,15,60865.59481079167,-0.6002349853515625,0.970550537109375,0.4241790771484375,60865.58467879167,-0.2785610573839992,0.9377610714702986,-2.068493996579412,60865.57494379167,46.06269836425781,20.510009765625,-528.8995361328125,60865.58974479167,-1.550959342723231,-1.499002158121794,-0.9822234932986244,-0.2369663566350937,0.8519304990768433,-2.018699645996094,-0.1011325120925903,0.1347578763961792,0.4610581994056702,1,-0.6670859456062317,-0.1873080730438232,-0.2224639505147934,0.6858729720115662,-0.5537442564964294,0.8317338228225708,-0.03982405364513397,0,0,0,-1,60863.912084,3,2,1561238324.08027,1561238131.651496,23,2.314067,0,0,18.8331,0,0,1561238323.767679,60862.734125,0,-0.5310059,74.40141,2650659446,177292352,1,1,0.46,-160,-160,0
1561238325.776485,73,0,0,1561238318.874369,4.603123184803567,-74.06473843912211,2644.437,0.08684977,-1,34.38091659545898,200,-9999,1561238325.75687,8.04150390625,20.43864822387695,6.05352783203125,110.8923721313477,118.4360580444336,15,60865.6150675,-0.50885009765625,0.946014404296875,0.4427490234375,60865.60494279167,-0.1152959667566914,0.5155451101457902,-1.826471243035191,60865.59508479167,45.12936401367188,21.00480651855469,-528.6814575195312,60865.6100015,-1.56152602983322,-1.494931257109564,-0.9442101360756431,-0.09215962886810303,0.384547621011734,-1.763932943344116,0.03719556331634521,0.1537110805511475,0.4773961901664734,1,-0.6630408763885498,-0.195333406329155,-0.2401226013898849,0.6815884113311768,-0.5846961736679077,0.8100340366363525,-0.04444331303238869,0,0,0,-1,60863.912084,3,2,1561238324.08027,1561238131.651496,23,2.314067,0,0,18.8331,0,0,1561238323.767679,60862.734125,0,-0.5310059,74.40141,2650659446,177292352,1,1,0.46,-160,-160,0
1561238325.796705,74,0,0,1561238318.874369,4.603123184803567,-74.06473843912211,2644.437,0.08684977,-1,34.38091659545898,200,-9999,1561238325.780677,7.176971435546875,20.87046051025391,6.36029052734375,111.5235061645508,119.0671920776367,15,60865.6353315,-0.4611358642578125,0.915985107421875,0.47418212890625,60865.62519950001,-0.06079464136432885,0.09378161989048632,-1.554475410370455,60865.6151895,44.00596618652344,21.7176513671875,-528.36865234375,60865.6302655,-1.568095545373577,-1.496527864219537,-0.9114402571921754,-0.073780357837677,0.01620659977197647,-1.495082855224609,0.1274141073226929,0.1375611424446106,0.5066830515861511,1,-0.6597907543182373,-0.2048129290342331,-0.2526834011077881,0.6774060726165771,-0.6109194159507751,0.7903868556022644,-0.04545564949512482,0,0,0,-1,60863.912084,3,2,1561238324.08027,1561238131.651496,23,2.314067,0,0,18.8331,0,0,1561238323.767679,60862.734125,0,-0.5310059,74.40141,2650659446,177292352,1,1,0.46,-160,-160,0
1561238325.816923,75,0,0,1561238318.874369,4.603123184803567,-74.06473843912211,2644.437,0.08684977,-1,34.38091659545898,200,-9999,1561238325.806943,5.7850341796875,21.66304016113281,6.25897216796875,111.6010284423828,119.1447143554688,15,60865.6555955,-0.41082763671875,0.8960418701171875,0.457183837890625,60865.6454635,-0.1533522724178148,-0.1402551124929141,-1.318014668762864,60865.6353315,43.67361450195312,21.82244873046875,-528.7566528320312,60865.6505295,-1.575404400520459,-1.504163816272395,-0.8837620942873727,-0.1883849650621414,-0.18806292116642,-1.263353824615479,0.1992762088775635,0.1304492354393005,0.5104767084121704,1,-0.6579878926277161,-0.214328795671463,-0.2617503702640533,0.6727568507194519,-0.6328395009040833,0.7731304168701172,-0.04223020002245903,0,0,0,-1,60863.912084,3,2,1561238324.08027,1561238131.651496,23,2.314067,0,0,18.8331,0,0,1561238323.767679,60862.734125,0,-0.5310059,74.40141,2650659446,177292352,1,1,0.46,-160,-160,0
1561238325.850587,76,0,0,1561238318.874369,4.603123184803567,-74.06473843912211,2644.437,0.08684977,-1,34.38091659545898,200,-9999,1561238325.831812,5.223674774169922,22.21585464477539,6.3380126953125,111.555061340332,119.098747253418,15,60865.67585850001,-0.37115478515625,0.897186279296875,0.4504547119140625,60865.6657275,-0.2833883031758768,-0.2832375682581783,-1.058645681774521,60865.65544250001,42.93498229980469,22.33662414550781,-528.6680908203125,60865.6707935,-1.585518932223562,-1.517121434931541,-0.8612181766527468,-0.3275516629219055,-0.3241688013076782,-0.9855304360389709,0.2570667266845703,0.1380307078361511,0.4850568771362305,1,-0.6578963994979858,-0.2229254394769669,-0.2682687938213348,0.6674642562866211,-0.6505756974220276,0.7586367726325989,-0.03495315089821815,0,0,0,-1,60863.912084,3,2,1561238324.08027,1561238131.651496,23,2.314067,0,0,18.8331,0,0,1561238323.767679,60862.734125,0,-0.5310059,74.40141,2650659446,177292352,1,1,0.46,-160,-160,0
1561238325.85771,77,0,0,1561238318.874369,4.603123184803567,-74.06473843912211,2644.437,0.08684977,-1,34.38091659545898,200,-9999,1561238325.831812,5.223674774169922,22.21585464477539,6.3380126953125,111.555061340332,119.098747253418,15,60865.69612250001,-0.3386993408203125,0.9041595458984375,0.432464599609375,60865.6859905,-0.4653615678287731,-0.4198409542643757,-0.7486068592541126,60865.6755845,42.48947143554688,22.89842224121094,-528.2418212890625,60865.6910265,-1.599597244378074,-1.535645441851405,-0.8448070143209244,-0.510956883430481,-0.4536082744598389,-0.6802456378936768,0.3115062713623047,0.1527764797210693,0.4686435461044312,1,-0.6598950028419495,-0.2299414724111557,-0.2722083330154419,0.6614893078804016,-0.6634654998779297,0.7478430271148682,-0.02333100885152817,0,0,0,-1,60863.912084,3,2,1561238324.08027,1561238131.651496,23,2.314067,0,0,18.8331,0,0,1561238323.767679,60862.734125,0,-0.5310059,74.40141,2650659446,177292352,1,1,0.46,-160,-160,0
1561238325.878162,78,0,0,1561238318.874369,4.603123184803567,-74.06473843912211,2644.437,0.08684977,-1,34.38091659545898,200,-9999,1561238325.857706,4.730747222900391,22.3802604675293,6.658447265625,111.5347366333008,119.0784225463867,15,60865.7163865,-0.313201904296875,0.900238037109375,0.376068115234375,60865.7062545,-0.5925986162811618,-0.5320234193906556,-0.4829549426220546,60865.69569550001,42.03366088867188,22.94367980957031,-528.0726318359375,60865.7112895,-1.617254591914063,-1.559118460063178,-0.8339387352906557,-0.6132416725158691,-0.5708643794059753,-0.4250876307487488,0.3473635911941528,0.1608901619911194,0.4170113801956177,1,-0.6638057231903076,-0.2354538142681122,-0.2737982571125031,0.6549487709999084,-0.6719180941581726,0.7405837774276733,-0.007846926338970661,0,0,0,-1,60863.912084,3,2,1561238324.08027,1561238131.651496,23,2.314067,0,0,18.8331,0,0,1561238323.767679,60862.734125,0,-0.5310059,74.40141,2650659446,177292352,1,1,0.46,-160,-160,0
1561238325.898013,79,0,0,1561238318.874369,4.603123184803567,-74.06473843912211,2644.437,0.08684977,-1,34.38091659545898,200,-9999,1561238325.881919,4.393795013427734,22.63074111938477,6.85009765625,111.5205383300781,119.0642242431641,15,60865.73661950001,-0.30010986328125,0.90313720703125,0.3136138916015625,60865.72651850001,-0.6518456947360457,-0.6783164507069972,-0.2432382202657332,60865.71583650001,41.61410522460938,22.9990234375,-527.4002685546875,60865.7315535,-1.63653333010247,-1.586414402888263,-0.8277158302664959,-0.6668993234634399,-0.7210181951522827,-0.1932562589645386,0.3696685433387756,0.1649182438850403,0.3294912576675415,1,-0.6690931916236877,-0.2399945110082626,-0.2730124294757843,0.648213803768158,-0.6764770150184631,0.7363879084587097,0.01056612841784954,0,0,0,-1,60863.912084,3,2,1561238324.08027,1561238131.651496,23,2.314067,0,0,18.8331,0,0,1561238323.767679,60862.734125,0,-0.5310059,74.40141,2650659446,177292352,1,1,0.46,-160,-160,0
1561238325.930691,80,0,0,1561238318.874369,4.603123184803567,-74.06473843912211,2644.437,0.08684977,-1,34.38091659545898,200,-9999,1561238325.913286,3.927700042724609,22.61297988891602,7.67486572265625,111.4067611694336,118.9504470825195,15,60865.75688350001,-0.287200927734375,0.9028778076171875,0.2582244873046875,60865.7467515,-0.7220466210705344,-0.7902571008062979,-0.03282425938355363,60865.73594850001,41.48617553710938,22.91850280761719,-527.1417236328125,60865.7518175,-1.657568819014436,-1.617546599274358,-0.8254704297163622,-0.7493297457695007,-0.812157154083252,0.007657670881599188,0.38270103931427,0.1697961688041687,0.2553991079330444,1,-0.6756151914596558,-0.2437039613723755,-0.2700597047805786,0.6412645578384399,-0.677470326423645,0.7348669171333313,0.03169501572847366,0,0,0,-1,60863.912084,3,2,1561238324.08027,1561238131.651496,23,2.314067,0,0,18.8331,0,0,1561238323.767679,60862.734125,0,-0.5310059,74.40141,2650659446,177292352,1,1,0.46,-160,-160,0
1561238325.93901,81,0,0,1561238318.874369,4.603123184803567,-74.06473843912211,2644.437,0.08684977,-1,34.38091659545898,200,-9999,1561238325.913286,3.927700042724609,22.61297988891602,7.67486572265625,111.4067611694336,118.9504470825195,15,60865.7771465,-0.279296875,0.9154205322265625,0.2003631591796875,60865.7670145,-0.7889564129299032,-0.824273124777662,0.1447161736349058,60865.75608950001,41.47116088867188,23.09254455566406,-526.697265625,60865.77208050001,-1.681033505449574,-1.651525159383225,-0.8264142931565358,-0.8019274473190308,-0.8390769362449646,0.18785060942173,0.3925960063934326,0.1713231205940247,0.1752378940582275,1,-0.6831371188163757,-0.246255099773407,-0.265691339969635,0.6341058015823364,-0.6753107905387878,0.7355067133903503,0.05463579297065735,0,0,0,-1,60863.912084,3,2,1561238324.08027,1561238131.651496,23,2.314067,0,0,18.8331,0,0,1561238323.767679,60862.734125,0,-0.5310059,74.40141,2650659446,177292352,1,1,0.46,-160,-160,0
1561238325.958844,82,0,0,1561238318.874369,4.603123184803567,-74.06473843912211,2644.437,0.08684977,-1,34.38091659545898,200,-9999,1561238325.913286,3.927700042724609,22.61297988891602,7.67486572265625,111.4067611694336,118.9504470825195,15,60865.7974105,-0.27508544921875,0.9226226806640625,0.1335296630859375,60865.78727850001,-0.8261029827626554,-0.8891392068165039,0.3430473726513958,60865.77623150001,41.64459228515625,22.66665649414062,-526.3255004882812,60865.79234450001,-1.70638730027127,-1.687923648682514,-0.8305975045144066,-0.8305521607398987,-0.9166414737701416,0.3902226388454437,0.3952773809432983,0.1838151216506958,0.08753705024719238,1,-0.6914339661598206,-0.2476412206888199,-0.2598128318786621,0.6269689202308655,-0.6698135137557983,0.7383344769477844,0.07881420850753784,0,0,0,-1,60863.912084,3,2,1561238324.08027,1561238131.651496,23,2.314067,0,0,18.8331,0,0,1561238323.767679,60862.734125,0,-0.5310059,74.40141,2650659446,177292352,1,1,0.46,-160,-160,0
1561238325.978992,83,0,0,1561238318.874369,4.603123184803567,-74.06473843912211,2644.437,0.08684977,-1,34.38091659545898,200,-9999,1561238325.96042,4.020912170410156,22.28308486938477,8.49700927734375,111.1435394287109,118.6872253417969,15,60865.8176745,-0.2875518798828125,0.9184417724609375,0.071197509765625,60865.80754250001,-0.8110534594426176,-0.9317876011452508,0.5417319731445394,60865.79634250001,41.79296875,22.39186096191406,-525.9241333007812,60865.8126085,-1.732921254599354,-1.72650795037033,-0.8381736139140853,-0.8066335320472717,-0.9365898966789246,0.582344114780426,0.3784729838371277,0.1790472865104675,-0.0006194114685058594,1,-0.700269877910614,-0.2479588687419891,-0.252192884683609,0.6201107501983643,-0.6607300639152527,0.74342280626297,0.1037230044603348,0,0,0,-1,60863.912084,3,2,1561238324.08027,1561238131.651496,23,2.314067,0,0,18.8331,0,0,1561238323.767679,60862.734125,0,-0.5310059,74.40141,2650659446,177292352,1,1,0.46,-160,-160,0
1561238326.010175,84,0,0,1561238318.874369,4.603123184803567,-74.06473843912211,2644.437,0.08684977,-1,34.38091659545898,200,-9999,1561238326.004933,4.452713012695312,21.91260147094727,8.76318359375,110.9078216552734,118.4515075683594,15,60865.8379375,-0.2930755615234375,0.905975341796875,0.018585205078125,60865.8278055,-0.7631927262283676,-0.922416203585371,0.6995775309535358,60865.81648350001,42.28404235839844,22.0032958984375,-525.8026123046875,60865.8328715,-1.759862132232077,-1.765523072151756,-0.8485800017097278,-0.7521186470985413,-0.9309642314910889,0.7316276431083679,0.357647180557251,0.1615990400314331,-0.08541631698608398,1,-0.7091473937034607,-0.247115358710289,-0.2433706372976303,0.6138524413108826,-0.6485560536384583,0.7503424882888794,0.1279120594263077,0,0,0,-1,60863.912084,3,2,1561238324.08027,1561238131.651496,23,2.314067,0,0,18.8331,0,0,1561238323.767679,60862.734125,0,-0.5310059,74.40141,2650659446,177292352,1,1,0.46,-160,-160,0
1561238326.019642,85,0,0,1561238318.874369,4.603123184803567,-74.06473843912211,2644.437,0.08684977,-1,34.38091659545898,200,-9999,1561238326.004933,4.452713012695312,21.91260147094727,8.76318359375,110.9078216552734,118.4515075683594,15,60865.85820150001,-0.3018341064453125,0.89361572265625,-0.0225067138671875,60865.8480695,-0.692522550909807,-0.9020464833556819,0.8336349349576175,60865.8366255,42.62217712402344,22.03065490722656,-525.2916259765625,60865.8531355,-1.786695138942756,-1.804329260995987,-0.8613117372166877,-0.67966228723526,-0.8945422768592834,0.8633334636688232,0.3363043665885925,0.1411741375923157,-0.1538517475128174,1,-0.7177834510803223,-0.2452836036682129,-0.2335909307003021,0.6083239912986755,-0.6337592005729675,0.7586977481842041,0.1507542580366135,0,0,0,-1,60863.912084,3,2,1561238324.08027,1561238131.651496,23,2.314067,0,0,18.8331,0,0,1561238323.767679,60862.734125,0,-0.5310059,74.40141,2650659446,177292352,1,1,0.46,-160,-160,0
1561238326.039881,86,0,0,1561238318.874369,4.603123184803567,-74.06473843912211,2644.437,0.08684977,-1,34.38091659545898,200,-9999,1561238326.033857,5.325122833251953,21.33107376098633,9.60418701171875,110.2336807250977,117.7773666381836,15,60865.87846550001,-0.324371337890625,0.8912811279296875,-0.0645294189453125,60865.8683335,-0.6288564892581546,-0.8095618229160643,0.9681605226813351,60865.85673650001,42.79234313964844,21.812255859375,-525.504638671875,60865.8733995,-1.813694552414505,-1.842019390498368,-0.8762948566960554,-0.6140987277030945,-0.7806106805801392,0.9924757480621338,0.3065323829650879,0.1233049631118774,-0.2129669189453125,1,-0.7260138392448425,-0.2421474754810333,-0.2233148962259293,0.6036545634269714,-0.6166062951087952,0.7683728337287903,0.1714629828929901,0,0,0,-1,60863.912084,3,2,1561238324.08027,1561238131.651496,23,2.314067,0,0,18.8331,0,0,1561238323.767679,60862.734125,0,-0.5310059,74.40141,2650659446,177292352,1,1,0.46,-160,-160,0
1561238326.060287,87,0,0,1561238318.874369,4.603123184803567,-74.06473843912211,2644.437,0.08684977,-1,34.38091659545898,200,-9999,1561238326.033857,5.325122833251953,21.33107376098633,9.60418701171875,110.2336807250977,117.7773666381836,15,60865.8987285,-0.3440704345703125,0.8836517333984375,-0.10101318359375,60865.8885965,-0.5563809570366293,-0.6402974293011351,1.061057973089915,60865.87687850001,43.64334106445312,21.40400695800781,-525.0370483398438,60865.89366250001,-1.8408876862291,-1.877077669464633,-0.8931029869317298,-0.5487945079803467,-0.6043352484703064,1.07460606098175,0.2635132074356079,0.1082469820976257,-0.270805835723877,1,-0.7335927486419678,-0.2374158948659897,-0.213282123208046,0.5999883413314819,-0.5978179574012756,0.7790210843086243,0.1890492588281631,0,0,0,-1,60863.912084,3,2,1561238324.08027,1561238131.651496,23,2.314067,0,0,18.8331,0,0,1561238323.767679,60862.734125,0,-0.5310059,74.40141,2650659446,177292352,1,1,0.46,-160,-160,0
1561238326.08395,88,0,0,1561238318.874369,4.603123184803567,-74.06473843912211,2644.437,0.08684977,-1,34.38091659545898,200,-9999,1561238326.060298,6.159931182861328,20.9327392578125,9.70849609375,109.9736251831055,117.5173110961914,15,60865.9189925,-0.361572265625,0.8717193603515625,-0.1405029296875,60865.90886050001,-0.5071990296055909,-0.475072784743747,1.126855628878067,60865.8969895,43.96778869628906,21.153564453125,-525.151123046875,60865.9139265,-1.868608245152216,-1.909405593320518,-0.9110259523422591,-0.4923752248287201,-0.4483573436737061,1.135852813720703,0.2267825603485107,0.08927679061889648,-0.3252910375595093,1,-0.7405043244361877,-0.2312022000551224,-0.2039115130901337,0.5971758365631104,-0.5781314373016357,0.790132999420166,0.2036022245883942,0,0,0,-1,60863.912084,3,2,1561238324.08027,1561238131.651496,23,2.314067,0,0,18.8331,0,0,1561238323.767679,60862.734125,0,-0.5310059,74.40141,2650659446,177292352,1,1,0.46,-160,-160,0
1561238326.100569,89,0,0,1561238318.874369,4.603123184803567,-74.06473843912211,2644.437,0.08684977,-1,34.38091659545898,200,-9999,1561238326.084708,6.566600799560547,20.65845108032227,9.80389404296875,109.8575286865234,117.4012145996094,15,60865.9392565,-0.386993408203125,0.865447998046875,-0.1736907958984375,60865.92912450001,-0.4260897954461376,-0.3299187874256322,1.189374667048222,60865.91713050001,44.62738037109375,20.77818298339844,-524.9103393554688,60865.9341905,-1.896325585472028,-1.939027580455986,-0.9300754593348332,-0.4060869514942169,-0.2971347868442535,1.205143809318542,0.1847467422485352,0.06744509935379028,-0.3706651926040649,1,-0.7466791272163391,-0.223739355802536,-0.1950829178094864,0.5952761173248291,-0.5577020645141602,0.8016650676727295,0.2151780426502228,0,0,0,-1,60863.912084,3,2,1561238324.08027,1561238131.651496,23,2.314067,0,0,18.8331,0,0,1561238323.767679,60862.734125,0,-0.5310059,74.40141,2650659446,177292352,1,1,0.46,-160,-160,0
1561238326.120899,90,0,0,1561238318.874369,4.603123184803567,-74.06473843912211,2644.437,0.08684977,-1,34.38091659545898,200,-9999,1561238326.111048,7.599769592285156,20.05020904541016,9.95135498046875,109.8526916503906,117.3963775634766,15,60865.9595195,-0.416015625,0.858795166015625,-0.19970703125,60865.9493875,-0.3283930624371258,-0.165157266581809,1.265390605622899,60865.9372415,44.80706787109375,20.71522521972656,-524.7537231445312,60865.95442350001,-1.923552957566501,-1.96534592668062,-0.950747889965312,-0.3092307150363922,-0.1248091086745262,1.27846884727478,0.1386493444442749,0.04555517435073853,-0.4113490581512451,1,-0.7519931197166443,-0.2149109840393066,-0.1867697983980179,0.5945054888725281,-0.5364307165145874,0.8138502836227417,0.2233607620000839,0,0,0,-1,60863.912084,3,2,1561238324.08027,1561238131.651496,23,2.314067,0,0,18.8331,0,0,1561238323.767679,60862.734125,0,-0.5310059,74.40141,2650659446,177292352,1,1,0.46,-160,-160,0
1561238326.141096,91,0,0,1561238318.874369,4.603123184803567,-74.06473843912211,2644.437,0.08684977,-1,34.38091659545898,200,-9999,1561238326.135167,8.01336669921875,19.72053909301758,9.925048828125,110.0081329345703,117.5518188476562,15,60865.97978350001,-0.4494171142578125,0.8654022216796875,-0.22271728515625,60865.9696515,-0.2419822734956518,0.02322276470549096,1.33105696756931,60865.9573835,45.46192932128906,20.19952392578125,-524.96435546875,60865.97468750001,-1.950538891416056,-1.988111614532202,-0.9730410706608941,-0.2228385508060455,0.05695109814405441,1.343395113945007,0.08184242248535156,0.03623771667480469,-0.439009428024292,1,-0.756436824798584,-0.2045838236808777,-0.1791952103376389,0.5948427319526672,-0.5144901275634766,0.8266010284423828,0.2281024158000946,0,0,0,-1,60863.912084,3,2,1561238324.08027,1561238131.651496,23,2.314067,0,0,18.8331,0,0,1561238323.767679,60862.734125,0,-0.5310059,74.40141,2650659446,177292352,1,1,0.46,-160,-160,0
1561238326.172285,92,0,0,1561238318.874369,4.603123184803567,-74.06473843912211,2644.437,0.08684977,-1,34.38091659545898,200,-9999,1561238326.162159,8.541904449462891,19.13225555419922,9.9063720703125,110.3027496337891,117.846435546875,15,60866.0000165,-0.484344482421875,0.8693389892578125,-0.243865966796875,60865.9899155,-0.1230819845196471,0.1743885818683507,1.373102954859481,60865.97752550001,46.07061767578125,19.80087280273438,-524.8703002929688,60865.9949505,-1.976567868649848,-2.007129268371855,-0.9967970828598574,-0.08216904848814011,0.1928548663854599,1.37277615070343,0.02604064345359802,0.02456748485565186,-0.4653655290603638,1,-0.7599167823791504,-0.1930451244115829,-0.1723196655511856,0.5962936282157898,-0.4921203553676605,0.8397361040115356,0.2294798791408539,0,0,0,-1,60863.912084,3,2,1561238324.08027,1561238131.651496,23,2.314067,0,0,18.8331,0,0,1561238323.767679,60862.734125,0,-0.5310059,74.40141,2650659446,177292352,1,1,0.46,-160,-160,0
1561238326.18167,93,0,0,1561238318.874369,4.603123184803567,-74.06473843912211,2644.437,0.08684977,-1,34.38091659545898,200,-9999,1561238326.162159,8.541904449462891,19.13225555419922,9.9063720703125,110.3027496337891,117.846435546875,15,60866.0202805,-0.5230255126953125,0.8618011474609375,-0.2453460693359375,60866.01014850001,0.07610968184504753,0.2375784703170968,1.355552723275858,60865.9976365,46.59251403808594,19.25492858886719,-524.917724609375,60866.0152145,-1.998022995232373,-2.020814699271656,-1.021881644909122,0.1341968029737473,0.2465833574533463,1.342840671539307,-0.02962058782577515,0.01495063304901123,-0.4742105007171631,1,-0.7619868516921997,-0.1812583208084106,-0.1657456755638123,0.5992077589035034,-0.4698148369789124,0.853091299533844,0.2269570827484131,0,0,0,-1,60863.912084,3,2,1561238324.08027,1561238131.651496,23,2.314067,0,0,18.8331,0,0,1561238323.767679,60862.734125,0,-0.5310059,74.40141,2650659446,177292352,1,1,0.46,-160,-160,0
1561238326.201819,94,0,0,1561238318.874369,4.603123184803567,-74.06473843912211,2644.437,0.08684977,-1,34.38091659545898,200,-9999,1561238326.185774,8.969192504882812,18.80870056152344,9.9678955078125,110.5475234985352,118.0912094116211,15,60866.04054350001,-0.5753631591796875,0.8521575927734375,-0.2175445556640625,60866.0304125,0.2884853271861794,0.3429280630345603,1.305017643694951,60866.0177775,46.81092834472656,18.62060546875,-525.0890502929688,60866.0354785,-2.012508910394847,-2.027111654152764,-1.047939280840364,0.3178502321243286,0.3694054186344147,1.29369068145752,-0.1017689108848572,-0.007188916206359863,-0.4513620138168335,1,-0.7623940706253052,-0.1696309447288513,-0.1596561819314957,0.6037306189537048,-0.4482646286487579,0.8663960099220276,0.2200387567281723,0,0,0,-1,60863.912084,3,2,1561238324.08027,1561238131.651496,23,2.314067,0,0,18.8331,0,0,1561238323.767679,60862.734125,0,-0.5310059,74.40141,2650659446,177292352,1,1,0.46,-160,-160,0
1561238326.224211,95,0,0,1561238318.874369,4.603123184803567,-74.06473843912211,2644.437,0.08684977,-1,34.38091659545898,200,-9999,1561238326.212318,9.800319671630859,17.89416885375977,9.60430908203125,110.8568496704102,118.4005355834961,15,60866.06080750001,-0.64825439453125,0.8469696044921875,-0.1698150634765625,60866.0506755,0.3722958056393001,0.5409695101244497,1.249005240700077,60866.0378885,47.30900573730469,18.23593139648438,-525.3253173828125,60866.0557415,-2.02242581717989,-2.026135538717039,-1.074057427557533,0.3620565831661224,0.620627760887146,1.210795044898987,-0.1836281716823578,-0.03224802017211914,-0.4080926179885864,1,-0.7615599036216736,-0.1575259268283844,-0.154983252286911,0.6092554926872253,-0.4280051290988922,0.8791413307189941,0.2095758020877838,0,0,0,-1,60863.912084,3,2,1561238324.08027,1561238131.651496,23,2.314067,0,0,18.8331,0,0,1561238323.767679,60862.734125,0,-0.5310059,74.40141,2650659446,177292352,1,1,0.46,-160,-160,0
1561238326.249012,96,0,0,1561238318.874369,4.603123184803567,-74.06473843912211,2644.437,0.08684977,-1,34.38091659545898,200,-9999,1561238326.237062,10.14762496948242,17.1937141418457,9.54803466796875,111.6266708374023,119.1703567504883,15,60866.0810715,-0.710723876953125,0.8345794677734375,-0.133544921875,60866.0709395,0.2883801323231213,0.8468218434112539,1.064197573699009,60866.0580305,47.52873229980469,17.82926940917969,-525.38525390625,60866.07600550001,-2.031341049472172,-2.018476894894932,-1.097097305327178,0.2667298018932343,0.9135997295379639,1.005732417106628,-0.2663098573684692,-0.05213361978530884,-0.3511258363723755,1,-0.7601333260536194,-0.1446797698736191,-0.1535220891237259,0.6145698428153992,-0.4112261533737183,0.8898869752883911,0.1974698156118393,0,0,0,-1,60863.912084,3,2,1561238324.08027,1561238131.651496,23,2.314067,0,0,18.8331,0,0,1561238323.767679,60862.734125,0,-0.5310059,74.40141,2650659446,177292352,1,1,0.46,-160,-160,0
1561238326.262871,97,0,0,1561238318.874369,4.603123184803567,-74.06473843912211,2644.437,0.08684977,-1,34.38091659545898,200,-9999,1561238326.237062,10.14762496948242,17.1937141418457,9.54803466796875,111.6266708374023,119.1703567504883,15,60866.1013345,-0.768890380859375,0.860992431640625,-0.0967254638671875,60866.0912035,0.2763668789618829,1.058125832729738,0.8738894137824922,60866.07817250001,47.9801025390625,17.12895202636719,-525.2350463867188,60866.09626950001,-2.038050768904371,-2.004004828923985,-1.116146704667272,0.2941774129867554,1.056639432907104,0.8389804363250732,-0.3400972485542297,-0.05725890398025513,-0.2964692115783691,1,-0.7581652998924255,-0.1317542493343353,-0.1552078723907471,0.6194648742675781,-0.3985807001590729,0.8984149694442749,0.1843476146459579,0,0,0,-1,60863.912084,3,2,1561238324.08027,1561238131.651496,23,2.314067,0,0,18.8331,0,0,1561238323.767679,60863.681781,0,-0.6816406,74.4028,2650659446,177292352,1,1,0.46,-160,-160,0
1561238326.28341,98,0,0,1561238318.874369,4.603123184803567,-74.06473843912211,2644.437,0.08684977,-1,34.38091659545898,200,-9999,1561238326.262873,10.26096725463867,16.85373306274414,9.5238037109375,112.8311996459961,120.374885559082,15,60866.1215985,-0.8278350830078125,0.86907958984375,-0.0583953857421875,60866.11146650001,0.4038444108607058,0.9967660685820943,0.7599220980936413,60866.0982835,47.98918151855469,17.15165710449219,-525.249267578125,60866.1165325,-2.03757057924,-1.983026217785703,-1.133672277840654,0.4393042325973511,0.9544305205345154,0.7177101969718933,-0.4154720902442932,-0.03391784429550171,-0.2480868101119995,1,-0.7552638053894043,-0.1199250295758247,-0.1575715094804764,0.6247925758361816,-0.3878726661205292,0.9059728980064392,0.169610857963562,0,0,0,-1,60863.912084,3,2,1561238324.08027,1561238131.651496,23,2.314067,0,0,18.8331,0,0,1561238323.767679,60863.681781,0,-0.6816406,74.4028,2650659446,177292352,1,1,0.46,-160,-160,0
1561238326.304501,99,0,0,1561238318.874369,4.603123184803567,-74.06473843912211,2644.437,0.08684977,-1,34.38091659545898,200,-9999,1561238326.287258,10.34959030151367,16.48285675048828,9.57244873046875,113.8957290649414,121.4394149780273,15,60866.1418625,-0.886444091796875,0.858795166015625,-0.032623291015625,60866.1317305,0.553346018658375,0.8368999704540546,0.5660282580854413,60866.1184245,48.25239562988281,16.648193359375,-525.7030029296875,60866.1367965,-2.026259591969593,-1.955061416162448,-1.149202475008203,0.5828409194946289,0.7919033765792847,0.4975631833076477,-0.4756378531455994,-0.04920238256454468,-0.1988769769668579,1,-0.75132817029953,-0.1104939207434654,-0.1597138345241547,0.6307048797607422,-0.3793731033802032,0.9124378561973572,0.1534058451652527,0,0,0,-1,60863.912084,3,2,1561238324.08027,1561238131.651496,23,2.314067,0,0,18.8331,0,0,1561238323.767679,60863.681781,0,-0.6816406,74.4028,2650659446,177292352,1,1,0.46,-160,-160,0
1561238326.335511,100,0,0,1561238318.874369,4.603123184803567,-74.06473843912211,2644.437,0.08684977,-1,34.38091659545898,200,-9999,1561238326.313568,10.43744659423828,15.94429302215576,9.4134521484375,114.6040344238281,122.1477203369141,15,60866.16212650001,-0.946685791015625,0.854583740234375,-0.0022735595703125,60866.1519945,0.7046146338393117,0.687248693003123,0.2689712806147328,60866.1385355,48.19059753417969,16.24247741699219,-525.2579956054688,60866.1570605,-2.001440114829865,-1.917819682212676,-1.160509952090157,0.744917094707489,0.6487741470336914,0.1838348358869553,-0.5411035418510437,-0.06289589405059814,-0.153326153755188,1,-0.7462830543518066,-0.1043544784188271,-0.1622263789176941,0.6370670795440674,-0.3750951886177063,0.9170066118240356,0.1356565058231354,0,0,0,-1,60863.912084,3,2,1561238324.08027,1561238131.651496,23,2.314067,0,0,18.8331,0,0,1561238323.767679,60863.681781,0,-0.6816406,74.4028,2650659446,177292352,1,1,0.46,-160,-160,0
1561238326.344191,101,0,0,1561238318.874369,4.603123184803567,-74.06473843912211,2644.437,0.08684977,-1,34.38091659545898,200,-9999,1561238326.341008,10.5728645324707,15.9220666885376,9.1463623046875,114.9678497314453,122.5115356445312,15,60866.18238950001,-0.9937896728515625,0.8738861083984375,0.04925537109375,60866.1722575,0.8847505836561623,0.5574283782933575,-0.06584026636559298,60866.1586775,48.40255737304688,16.26844787597656,-525.5813598632812,60866.1773235,-1.961124281446232,-1.86893205686095,-1.166172002687595,0.9276802539825439,0.5140317678451538,-0.1493383347988129,-0.5962427854537964,-0.05810534954071045,-0.09387803077697754,1,-0.7398983240127563,-0.1018282920122147,-0.1656658500432968,0.6440001726150513,-0.3763066530227661,0.9192503690719604,0.1156370639801025,0,0,0,-1,60863.912084,3,2,1561238324.08027,1561238131.651496,23,2.314067,0,0,18.8331,0,0,1561238323.767679,60863.681781,0,-0.6816406,74.4028,2650659446,177292352,1,1,0.46,-160,-160,0
1561238326.364277,102,0,0,1561238318.874369,4.603123184803567,-74.06473843912211,2644.437,0.08684977,-1,34.38091659545898,200,-9999,1561238326.341008,10.5728645324707,15.9220666885376,9.1463623046875,114.9678497314453,122.5115356445312,15,60866.2026535,-1.018569946289062,0.8956451416015625,0.11541748046875,60866.1925215,1.086192621141974,0.4038910161797821,-0.3798144420288118,60866.1787885,48.14164733886719,16.30288696289062,-525.7686157226562,60866.19758750001,-1.905858567995588,-1.809275006484336,-1.165749351568422,1.137717127799988,0.3558612763881683,-0.4579361081123352,-0.6235451102256775,-0.03256344795227051,-0.01244437694549561,1,-0.7320777773857117,-0.1029839515686035,-0.1698570400476456,0.6516172289848328,-0.38290935754776,0.9190838932991028,0.09308712929487228,0,0,0,-1,60866.1931015,3,1,1561238326.361288,1561238131.651496,23,2.314067,0,0,18.8331,0,0,1561238326.36147,60863.681781,0,-0.6816406,74.4028,2650659446,177292352,1,1,0.46,-160,-160,0
1561238326.41194,103,0,0,1561238318.874369,4.603123184803567,-74.06473843912211,2644.437,0.08684977,-1,34.38091659545898,200,-9999,1561238326.390677,10.37636184692383,16.56270599365234,8.6700439453125,114.6069793701172,122.1506652832031,15,60866.2229175,-1.04205322265625,0.918243408203125,0.18572998046875,60866.21278550001,1.278789768015414,0.302116450909641,-0.6679977667473762,60866.1989305,48.05714416503906,16.72163391113281,-526.0337524414062,60866.2178205,-1.838266888109894,-1.740890222020429,-1.158879343516988,1.303375244140625,0.2908929288387299,-0.7385736703872681,-0.6351349949836731,-0.008808016777038574,0.0862196683883667,1,-0.7227278351783752,-0.1074732840061188,-0.1748471260070801,0.6599564552307129,-0.3945891559123993,0.9163550138473511,0.06777206063270569,0,0,0,-1,60866.1931015,3,1,1561238326.361288,1561238131.651496,23,2.314067,0,0,18.8331,0,0,1561238326.36147,60863.681781,0,-0.6816406,74.4028,2650659446,177292352,1,1,0.46,-160,-160,0
1561238326.414196,104,0,0,1561238318.874369,4.603123184803567,-74.06473843912211,2644.437,0.08684977,-1,34.38091659545898,200,-9999,1561238326.390677,10.37636184692383,16.56270599365234,8.6700439453125,114.6069793701172,122.1506652832031,15,60866.2431805,-1.042251586914062,0.9330291748046875,0.2303009033203125,60866.23304850001,1.325408402897251,0.2978972047946284,-0.9594921996492362,60866.2190715,47.81489562988281,17.33415222167969,-526.4273681640625,60866.2380845,-1.767223063515792,-1.670068463611099,-1.144668342262231,1.304901003837585,0.2955787777900696,-1.047064423561096,-0.6371487975120544,0.01397222280502319,0.1698030233383179,1,-0.7123283743858337,-0.114331029355526,-0.1814498603343964,0.6682758927345276,-0.4113131165504456,0.9105730652809143,0.04096659272909164,0,0,0,-1,60866.1931015,3,1,1561238326.361288,1561238131.651496,23,2.314067,0,0,18.8331,0,0,1561238326.36147,60863.681781,0,-0.6816406,74.4028,2650659446,177292352,1,1,0.46,-160,-160,0
1561238326.424813,105,0,0,1561238318.874369,4.603123184803567,-74.06473843912211,2644.437,0.08684977,-1,34.38091659545898,200,-9999,1561238326.414871,10.00519561767578,17.64928436279297,8.22406005859375,114.2172546386719,121.7609405517578,15,60866.2634135,-1.025222778320312,0.9532928466796875,0.2687530517578125,60866.2533125,1.250246273768054,0.2915013571206942,-1.274878383322415,60866.2391825,47.6728515625,17.84150695800781,-526.789794921875,60866.25834750001,-1.702942230288633,-1.605940825004659,-1.12206826898693,1.235168814659119,0.2629449367523193,-1.348294258117676,-0.6009174585342407,0.03860610723495483,0.2321627140045166,1,-0.7017168998718262,-0.123349167406559,-0.1901941448450089,0.6754292249679565,-0.4335521459579468,0.9009996056556702,0.01524324901401997,0,0,0,-1,60866.1931015,3,1,1561238326.361288,1561238131.651496,23,2.314067,0,0,18.8331,0,0,1561238326.36147,60863.681781,0,-0.6816406,74.4028,2650659446,177292352,1,1,0.46,-160,-160,0
1561238326.445089,106,0,0,1561238318.874369,4.603123184803567,-74.06473843912211,2644.437,0.08684977,-1,34.38091659545898,200,-9999,1561238326.439164,9.701091766357422,18.25539779663086,7.5767822265625,113.6624755859375,121.2061614990234,15,60866.2836775,-0.9939117431640625,0.9739990234375,0.3248748779296875,60866.2735455,1.262112254321011,0.1238271369926513,-1.570391526309205,60866.2593245,47.32127380371094,18.4444580078125,-527.090087890625,60866.27861150001,-1.645862543764873,-1.551443080603462,-1.0918820231744,1.284143805503845,0.05090778321027756,-1.658023357391357,-0.5494480133056641,0.08447384834289551,0.3023594617843628,1,-0.6908366084098816,-0.1352254301309586,-0.2000609785318375,0.6814942955970764,-0.4607296288013458,0.887495756149292,-0.008917727507650852,0,0,0,-1,60866.1931015,3,1,1561238326.361288,1561238131.651496,23,2.314067,0,0,18.8331,0,0,1561238326.36147,60863.681781,0,-0.6816406,74.4028,2650659446,177292352,1,1,0.46,-160,-160,0
1561238326.484838,107,0,0,1561238318.874369,4.603123184803567,-74.06473843912211,2644.437,0.08684977,-1,34.38091659545898,200,-9999,1561238326.483197,9.232257843017578,18.96136474609375,7.093994140625,112.6028823852539,120.1465682983398,15,60866.3039415,-0.9378814697265625,0.9746551513671875,0.4097442626953125,60866.29380950001,1.371105051409703,-0.1120138870292778,-1.934277335542143,60866.2794355,47.10285949707031,19.09403991699219,-527.3525390625,60866.2988755,-1.592408215672743,-1.505756008754128,-1.053397802924133,1.388546586036682,-0.1746811270713806,-2.024620771408081,-0.4772504568099976,0.1067975163459778,0.4012577533721924,1,-0.6790076494216919,-0.1512442082166672,-0.2104591131210327,0.6868628859519958,-0.4935747683048248,0.8691088557243347,-0.0321476012468338,0,0,0,-1,60866.1931015,3,1,1561238326.361288,1561238131.651496,23,2.314067,0,0,18.8331,0,0,1561238326.36147,60863.681781,0,-0.6816406,74.4028,2650659446,177292352,1,1,0.46,-160,-160,0
1561238326.488491,108,0,0,1561238318.874369,4.603123184803567,-74.06473843912211,2644.437,0.08684977,-1,34.38091659545898,200,-9999,1561238326.483197,9.232257843017578,18.96136474609375,7.093994140625,112.6028823852539,120.1465682983398,15,60866.3242045,-0.8348846435546875,0.95745849609375,0.4891815185546875,60866.31407350001,1.390121086857305,-0.3245607736285018,-2.243076190259011,60866.2995775,46.34407043457031,20.05021667480469,-527.9694213867188,60866.3191385,-1.544936788611018,-1.470690722000006,-1.007156800647862,1.368232846260071,-0.3749609887599945,-2.306109428405762,-0.36350417137146,0.1194664835929871,0.5005373358726501,1,-0.6663668155670166,-0.1710508018732071,-0.2214680463075638,0.6911214590072632,-0.5315916538238525,0.8453162312507629,-0.05339378118515015,0,0,0,-1,60866.1931015,3,1,1561238326.361288,1561238131.651496,23,2.314067,0,0,18.8331,0,0,1561238326.36147,60863.681781,0,-0.6816406,74.4028,2650659446,177292352,1,1,0.46,-160,-160,0
1561238326.505793,109,0,0,1561238318.874369,4.603123184803567,-74.06473843912211,2644.437,0.08684977,-1,34.38091659545898,200,-9999,1561238326.483197,9.232257843017578,18.96136474609375,7.093994140625,112.6028823852539,120.1465682983398,15,60866.34446850001,-0.652435302734375,0.910247802734375,0.5751953125,60866.3343365,1.281217239349022,-0.4272807610856211,-2.37943776123823,60866.3197185,45.52400207519531,20.71925354003906,-528.6632080078125,60866.3394025,-1.50724104494703,-1.447756034885187,-0.9565685645380884,1.231461644172668,-0.4260920584201813,-2.401339292526245,-0.1839499473571777,0.1177788376808167,0.598976731300354,1,-0.6538083553314209,-0.192790761590004,-0.2328790128231049,0.6936379671096802,-0.5719704627990723,0.8172187805175781,-0.0707327127456665,0,0,0,-1,60866.1931015,3,1,1561238326.361288,1561238131.651496,23,2.314067,0,0,18.8331,0,0,1561238326.36147,60863.681781,0,-0.6816406,74.4028,2650659446,177292352,1,1,0.46,-160,-160,0
1561238326.525956,110,0,0,1561238318.874369,4.603123184803567,-74.06473843912211,2644.437,0.08684977,-1,34.38091659545898,200,-9999,1561238326.51621,6.607913970947266,21.37955474853516,5.36798095703125,109.6497802734375,117.1934661865234,15,60866.36473250001,-0.4471893310546875,0.92327880859375,0.6585693359375,60866.3546005,1.009715689382604,-0.348903131256262,-2.368750495783742,60866.3398295,44.42515563964844,21.36518859863281,-529.292236328125,60866.3596665,-1.481243398561606,-1.434590115188294,-0.9057138059781354,0.901213526725769,-0.3284659087657928,-2.305173873901367,0.06804287433624268,0.1440728306770325,0.7092694640159607,1,-0.6421857476234436,-0.2137738019227982,-0.2449525594711304,0.6941875815391541,-0.6114082932472229,0.7868658900260925,-0.08379645645618439,0,0,0,-1,60866.1931015,3,1,1561238326.361288,1561238131.651496,23,2.314067,0,0,18.8331,0,0,1561238326.36147,60863.681781,0,-0.6816406,74.4028,2650659446,177292352,1,1,0.46,-160,-160,0
1561238326.564228,111,0,0,1561238318.874369,4.603123184803567,-74.06473843912211,2644.437,0.08684977,-1,34.38091659545898,200,-9999,1561238326.540516,5.608146667480469,22.09906768798828,4.62994384765625,108.6858596801758,116.2295455932617,15,60866.3849955,-0.300445556640625,0.9581451416015625,0.6496429443359375,60866.3748645,0.4446453703412647,-0.2927320038604198,-1.961349699603344,60866.3599715,43.48542785644531,22.05595397949219,-529.7698974609375,60866.37992950001,-1.471312557963145,-1.43305525319788,-0.8622119672418199,0.2557823061943054,-0.3064191937446594,-1.813876390457153,0.2817420959472656,0.1806422472000122,0.7557654976844788,1,-0.6340395212173462,-0.2309053987264633,-0.2562757134437561,0.6920978426933289,-0.6445960998535156,0.7592839002609253,-0.08935316652059555,0,0,0,-1,60866.1931015,3,1,1561238326.361288,1561238131.651496,23,2.314067,0,0,18.8331,0,0,1561238326.36147,60863.681781,0,-0.6816406,74.4028,2650659446,177292352,1,1,0.46,-160,-160,0
1561238326.566728,112,0,0,1561238318.874369,4.603123184803567,-74.06473843912211,2644.437,0.08684977,-1,34.38091659545898,200,-9999,1561238326.540516,5.608146667480469,22.09906768798828,4.62994384765625,108.6858596801758,116.2295455932617,15,60866.4052595,-0.2398529052734375,0.9474334716796875,0.576416015625,60866.39512750001,-0.276404695849362,-0.3068094733825786,-1.311876348766341,60866.38008250001,42.25758361816406,22.85408020019531,-530.1122436523438,60866.40019350001,-1.480369781765189,-1.44610068723862,-0.8326894843185959,-0.4245213866233826,-0.2989729940891266,-1.146040797233582,0.4057469367980957,0.218386173248291,0.7056067585945129,1,-0.6320164799690247,-0.2423028349876404,-0.2649020850658417,0.6867833733558655,-0.667664110660553,0.7397437691688538,-0.08368901163339615,0,0,0,-1,60866.1931015,3,1,1561238326.361288,1561238131.651496,23,2.314067,0,0,18.8331,0,0,1561238326.36147,60863.681781,0,-0.6816406,74.4028,2650659446,177292352,1,1,0.46,-160,-160,0
1561238326.586855,113,0,0,1561238318.874369,4.603123184803567,-74.06473843912211,2644.437,0.08684977,-1,34.38091659545898,200,-9999,1561238326.566739,4.687427520751953,22.50945663452148,4.7982177734375,108.5249862670898,116.0686721801758,15,60866.4255235,-0.231597900390625,0.8979034423828125,0.470947265625,60866.41539150001,-0.6702625189383796,-0.2642846497284114,-0.7316513115419051,60866.4002245,42.10580444335938,23.13262939453125,-529.9254150390625,60866.4204575,-1.501144940912523,-1.467043739099968,-0.8166172410789264,-0.7011939883232117,-0.2751196026802063,-0.6376742124557495,0.449425995349884,0.1955588459968567,0.5931277871131897,1,-0.634783923625946,-0.248181089758873,-0.2705990076065063,0.6798762083053589,-0.6810086369514465,0.7288338541984558,-0.07091103494167328,0,0,0,-1,60866.1931015,3,1,1561238326.361288,1561238131.651496,23,2.314067,0,0,18.8331,0,0,1561238326.36147,60863.681781,0,-0.6816406,74.4028,2650659446,177292352,1,1,0.46,-160,-160,0
1561238326.607043,114,0,0,1561238318.874369,4.603123184803567,-74.06473843912211,2644.437,0.08684977,-1,34.38091659545898,200,-9999,1561238326.590998,4.016380310058594,22.90218353271484,5.4449462890625,108.8876113891602,116.4312973022461,15,60866.4457865,-0.2447052001953125,0.8634796142578125,0.3900604248046875,60866.4356555,-0.7158718157670767,-0.3118156835997096,-0.4336209486927727,60866.4203655,41.52250671386719,23.12074279785156,-529.6002197265625,60866.4407205,-1.523465061631771,-1.489384289692083,-0.807873081352727,-0.7217075228691101,-0.3387747406959534,-0.3877405226230621,0.4503298997879028,0.1514484882354736,0.4819473624229431,1,-0.639252245426178,-0.2515119314193726,-0.2738774120807648,0.6731191873550415,-0.6887485384941101,0.7228190302848816,-0.05619663000106812,0,0,0,-1,60866.1931015,3,1,1561238326.361288,1561238131.651496,23,2.314067,0,0,18.8331,0,0,1561238326.36147,60863.681781,0,-0.6816406,74.4028,2650659446,177292352,1,1,0.46,-160,-160,0
1561238326.642673,115,0,0,1561238318.874369,4.603123184803567,-74.06473843912211,2644.437,0.08684977,-1,34.38091659545898,200,-9999,1561238326.617648,3.675281524658203,22.98444747924805,5.87347412109375,109.2534255981445,116.7971115112305,15,60866.46605050001,-0.2651824951171875,0.867523193359375,0.322967529296875,60866.4559185,-0.7747391274505152,-0.4157902862463652,-0.2478891647934476,60866.44047650001,41.33132934570312,23.24072265625,-528.9664306640625,60866.4609845,-1.546199872963258,-1.513694181564485,-0.8029232509201413,-0.8093209862709045,-0.4409237504005432,-0.2024614810943604,0.4396904706954956,0.1435253620147705,0.3961025476455688,1,-0.644724428653717,-0.253987044095993,-0.2752977311611176,0.6663573980331421,-0.6934746503829956,0.7193896770477295,-0.03964198380708694,0,0,0,-1,60866.1931015,3,1,1561238326.361288,1561238131.651496,23,2.314067,0,0,18.8331,0,0,1561238326.36147,60863.681781,0,-0.6816406,74.4028,2650659446,177292352,1,1,0.46,-160,-160,0
1561238326.64756,116,0,0,1561238318.874369,4.603123184803567,-74.06473843912211,2644.437,0.08684977,-1,34.38091659545898,200,-9999,1561238326.641897,3.344821929931641,23.0263557434082,6.33807373046875,109.6298599243164,117.1735458374023,15,60866.48631450001,-0.26519775390625,0.8760223388671875,0.2642059326171875,60866.4761825,-0.9155383237541325,-0.5028596749254158,-0.06819183760813294,60866.4606185,41.04148864746094,23.49317932128906,-528.5852661132812,60866.4812175,-1.572010991311837,-1.542059451507637,-0.801365238019057,-0.9540456533432007,-0.5403363108634949,-0.03753458335995674,0.4281666874885559,0.1548624038696289,0.3150647282600403,1,-0.651695728302002,-0.2555338442325592,-0.2751639783382416,0.6589992642402649,-0.6954396367073059,0.7183066010475159,-0.01999026350677013,0,0,0,-1,60866.1931015,3,1,1561238326.361288,1561238131.651496,23,2.314067,0,0,18.8331,0,0,1561238326.36147,60863.681781,0,-0.6816406,74.4028,2650659446,177292352,1,1,0.46,-160,-160,0
1561238326.667891,117,0,0,1561238318.874369,4.603123184803567,-74.06473843912211,2644.437,0.08684977,-1,34.38091659545898,200,-9999,1561238326.641897,3.344821929931641,23.0263557434082,6.33807373046875,109.6298599243164,117.1735458374023,15,60866.5065775,-0.25933837890625,0.894012451171875,0.2005767822265625,60866.4964465,-1.039145217324634,-0.6338762815968449,0.05109434340982423,60866.4807605,40.90725708007812,23.25192260742188,-528.0069580078125,60866.5014815,-1.601515093461765,-1.575519236934157,-0.802013493345638,-1.06693422794342,-0.6679648756980896,0.0789659321308136,0.4314438104629517,0.1652300357818604,0.2317322492599487,1,-0.6601502299308777,-0.2565998733043671,-0.2736398577690125,0.6507529020309448,-0.6952530741691589,0.7187574505805969,0.003283641999587417,0,0,0,-1,60866.1931015,3,1,1561238326.361288,1561238131.651496,23,2.314067,0,0,18.8331,0,0,1561238326.36147,60863.681781,0,-0.6816406,74.4028,2650659446,177292352,1,1,0.46,-160,-160,0
1561238326.688249,118,0,0,1561238318.874369,4.603123184803567,-74.06473843912211,2644.437,0.08684977,-1,34.38091659545898,200,-9999,1561238326.670676,3.298164367675781,22.89993667602539,6.95166015625,110.0173645019531,117.5610504150391,15,60866.5268415,-0.255859375,0.914398193359375,0.1216583251953125,60866.51670950001,-1.092994334566036,-0.7729931590398592,0.208581173419987,60866.5008715,41.03228759765625,23.1357421875,-527.8154296875,60866.5217455,-1.633403782357096,-1.613493413769911,-0.8047553283856033,-1.095255613327026,-0.8149654865264893,0.2541907429695129,0.4363842010498047,0.1841241121292114,0.1332188844680786,1,-0.6697449684143066,-0.2573671638965607,-0.27042555809021,0.6419296860694885,-0.6926555633544922,0.7206610441207886,0.02959235943853855,0,0,0,-1,60866.1931015,3,1,1561238326.361288,1561238131.651496,23,2.314067,0,0,18.8331,0,0,1561238326.36147,60863.681781,0,-0.6816406,74.4028,2650659446,177292352,1,1,0.46,-160,-160,0
1561238326.725916,119,0,0,1561238318.874369,4.603123184803567,-74.06473843912211,2644.437,0.08684977,-1,34.38091659545898,200,-9999,1561238326.72042,4.043781280517578,22.35654067993164,8.45013427734375,110.3307266235352,117.8744125366211,15,60866.54707450001,-0.25274658203125,0.9311065673828125,0.0443572998046875,60866.5369425,-1.059759682058502,-0.9019692516840697,0.4146911996644895,60866.5210125,40.92628479003906,22.785400390625,-526.9456176757812,60866.5420085,-1.665518275418185,-1.654465583324816,-0.8106724400795766,-1.042912244796753,-0.9284483790397644,0.4689065217971802,0.4333964586257935,0.199672520160675,0.02429687976837158,1,-0.680005669593811,-0.2576493620872498,-0.2649070620536804,0.6332718729972839,-0.6866008043289185,0.7247506380081177,0.05758180841803551,0,0,0,-1,60866.1931015,3,1,1561238326.361288,1561238131.651496,23,2.314067,0,0,18.8331,0,0,1561238326.36147,60863.681781,0,-0.6816406,74.4028,2650659446,177292352,1,1,0.46,-160,-160,0
1561238326.72872,120,0,0,1561238318.874369,4.603123184803567,-74.06473843912211,2644.437,0.08684977,-1,34.38091659545898,200,-9999,1561238326.72042,4.043781280517578,22.35654067993164,8.45013427734375,110.3307266235352,117.8744125366211,15,60866.5673385,-0.2589111328125,0.9398040771484375,-0.0355377197265625,60866.5572065,-0.9741837941187673,-0.9401813522689626,0.6464645114374316,60866.54112350001,41.41082763671875,22.90475463867188,-526.420166015625,60866.56227250001,-1.696725915605781,-1.69628851388155,-0.820351394045242,-0.9561154842376709,-0.9399617314338684,0.6998616456985474,0.4219931364059448,0.2051989436149597,-0.08030605316162109,1,-0.6904016137123108,-0.2569513022899628,-0.2572390735149384,0.625419557094574,-0.6766012907028198,0.7313855290412903,0.08535671979188919,0,0,0,-1,60866.1931015,3,1,1561238326.361288,1561238131.651496,23,2.314067,0,0,18.8331,0,0,1561238326.36147,60863.681781,0,-0.6816406,74.4028,2650659446,177292352,1,1,0.46,-160,-160,0
1561238326.748941,121,0,0,1561238318.874369,4.603123184803567,-74.06473843912211,2644.437,0.08684977,-1,34.38091659545898,200,-9999,1561238326.743097,4.195919036865234,22.08682250976562,8.75482177734375,110.2776107788086,117.8212966918945,15,60866.5876025,-0.257049560546875,0.9290618896484375,-0.093292236328125,60866.5774705,-0.8887168294676174,-0.8381838804155819,0.8611363342704298,60866.5612655,41.8145751953125,22.58395385742188,-526.204345703125,60866.58253650001,-1.727265485660367,-1.736622989641206,-0.8338062864569248,-0.8788737058639526,-0.7966732978820801,0.9108079671859741,0.4015209078788757,0.1966847777366638,-0.1810040473937988,1,-0.7005001306533813,-0.2544944882392883,-0.2483219355344772,0.6187635660171509,-0.6628429293632507,0.7404947876930237,0.1109357550740242,0,0,0,-1,60866.1931015,3,1,1561238326.361288,1561238131.651496,23,2.314067,0,0,18.8331,0,0,1561238326.36147,60863.681781,0,-0.6816406,74.4028,2650659446,177292352,1,1,0.46,-160,-160,0
1561238326.769285,122,0,0,1561238318.874369,4.603123184803567,-74.06473843912211,2644.437,0.08684977,-1,34.38091659545898,200,-9999,1561238326.743097,4.195919036865234,22.08682250976562,8.75482177734375,110.2776107788086,117.8212966918945,15,60866.6078655,-0.2721405029296875,0.924896240234375,-0.143798828125,60866.59773350001,-0.8406113517491891,-0.6495188908916434,1.06606844436479,60866.58137650001,42.04681396484375,22.19903564453125,-525.9064331054688,60866.6027995,-1.758545382448494,-1.774212302685415,-0.8507867631800199,-0.8233675360679626,-0.6021760106086731,1.112233519554138,0.3828422427177429,0.1726695895195007,-0.2553238868713379,1,-0.7101668119430542,-0.2495335638523102,-0.2391656488180161,0.6133482456207275,-0.6457969546318054,0.7517994046211243,0.1332077980041504,0,0,0,-1,60866.1931015,3,1,1561238326.361288,1561238131.651496,23,2.314067,0,0,18.8331,0,0,1561238326.36147,60863.681781,0,-0.6816406,74.4028,2650659446,177292352,1,1,0.46,-160,-160,0
