loggingTime,loggingSample,identifierForVendor,deviceID,locationTimestamp_since1970,locationLatitude,locationLongitude,locationAltitude,locationSpeed,locationCourse,locationVerticalAccuracy,locationHorizontalAccuracy,locationFloor,locationHeadingTimestamp_since1970,locationHeadingX,locationHeadingY,locationHeadingZ,locationTrueHeading,locationMagneticHeading,locationHeadingAccuracy,accelerometerTimestamp_sinceReboot,accelerometerAccelerationX,accelerometerAccelerationY,accelerometerAccelerationZ,gyroTimestamp_sinceReboot,gyroRotationX,gyroRotationY,gyroRotationZ,magnetometerTimestamp_sinceReboot,magnetometerX,magnetometerY,magnetometerZ,motionTimestamp_sinceReboot,motionYaw,motionRoll,motionPitch,motionRotationRateX,motionRotationRateY,motionRotationRateZ,motionUserAccelerationX,motionUserAccelerationY,motionUserAccelerationZ,motionAttitudeReferenceFrame,motionQuaternionX,motionQuaternionY,motionQuaternionZ,motionQuaternionW,motionGravityX,motionGravityY,motionGravityZ,motionMagneticFieldX,motionMagneticFieldY,motionMagneticFieldZ,motionMagneticFieldCalibrationAccuracy,activityTimestamp_sinceReboot,activity,activityActivityConfidence,activityActivityStartDate,pedometerStartDate,pedometerNumberofSteps,pedometerAverageActivePace,pedometerCurrentPace,pedometerCurrentCadence,pedometerDistance,pedometerFloorAscended,pedometerFloorDescended,pedometerEndDate,altimeterTimestamp_sinceReboot,altimeterReset,altimeterRelativeAltitude,altimeterPressure,IP_en0,IP_pdp_ip0,deviceOrientation,batteryState,batteryLevel,avAudioRecorderPeakPower,avAudioRecorderAveragePower,label
1561841793.690192,1,0,0,1561841792.99884,4.634625040930356,-74.15084025829485,2555.801,0.2,189.140625,4,10,-9999,1561841793.673213,-13.02050018310547,-26.04780960083008,3.628662109375,145.5873870849609,153.0804901123047,15,169609.9597941667,-0.5016021728515625,0.0928955078125,-0.8275909423828125,169609.9597941667,-1.065903328377205,-1.076817228840459,1.703929081268503,169609.9351051667,-86.61698913574219,-52.8133544921875,-559.0459594726562,169609.9547281667,-0.1186149275120942,-0.6952781140856462,0.2403506216567041,-1.163736820220947,-1.145881652832031,1.600146412849426,0.1467666029930115,0.2865051031112671,-0.07579159736633301,1,0.09246911853551865,-0.3443081974983215,-0.09609599411487579,0.9293367862701416,-0.6221847534179688,-0.2380431890487671,-0.745802640914917,0,0,0,-1,169608.26866725,4,2,1561841792.215166,1561841239.621676,42,1.91319,0,0,42.10339,0,0,1561841755.596066,169606.664642,0,0.09521484,75.19205,0,182478453,1,1,0.99,-0.09999833,-38.50711,0
1561841793.692219,2,0,0,1561841792.99884,4.634625040930356,-74.15084025829485,2555.801,0.2,189.140625,4,10,-9999,1561841793.673213,-13.02050018310547,-26.04780960083008,3.628662109375,145.5873870849609,153.0804901123047,15,169609.9800571667,-0.5546875,0.1382293701171875,-0.794647216796875,169609.9800571667,-0.5377550746887241,-0.686073440014071,2.098190373262667,169609.9552161667,-87.12846374511719,-52.46058654785156,-559.1588745117188,169609.9749911667,-0.1028704026133003,-0.7187508417520787,0.20204733507501,-0.686398983001709,-0.7950615882873535,2.005832195281982,0.1173408031463623,0.3232187628746033,-0.07736331224441528,1,0.07629524171352386,-0.3542875945568085,-0.08330440521240234,0.9282885789871216,-0.6450508236885071,-0.200675442814827,-0.7373186945915222,0,0,0,-1,169608.26866725,4,2,1561841792.215166,1561841239.621676,42,1.91319,0,0,42.10339,0,0,1561841755.596066,169606.664642,0,0.09521484,75.19205,0,182478453,1,1,0.99,-0.09999833,-38.50711,0
1561841793.698219,3,0,0,1561841792.99884,4.634625040930356,-74.15084025829485,2555.801,0.2,189.140625,4,10,-9999,1561841793.696661,-13.99678802490234,-25.71311950683594,3.4775390625,143.52099609375,151.0140991210938,15,169610.0003211667,-0.6297149658203125,0.093048095703125,-0.727935791015625,169610.0003211667,0.06802565635611199,-0.4064122307837602,2.334670555946215,169609.9753271667,-87.91543579101562,-52.41604614257812,-559.5957641601562,169609.9952551667,-0.0748108703715555,-0.7361205897207019,0.1670601797452316,-0.07396062463521957,-0.4453341960906982,2.294510126113892,0.08048170804977417,0.292459100484848,-0.03967010974884033,1,0.06438212096691132,-0.3612121641635895,-0.0647692084312439,0.9280008673667908,-0.6620704531669617,-0.1662841737270355,-0.7307614088058472,0,0,0,-1,169608.26866725,4,2,1561841792.215166,1561841239.621676,42,1.91319,0,0,42.10339,0,0,1561841755.596066,169606.664642,0,0.09521484,75.19205,0,182478453,1,1,0.99,-0.09999833,-39.40206,0
1561841793.719011,4,0,0,1561841792.99884,4.634625040930356,-74.15084025829485,2555.801,0.2,189.140625,4,10,-9999,1561841793.696661,-13.99678802490234,-25.71311950683594,3.4775390625,143.52099609375,151.0140991210938,15,169610.0205851667,-0.7518463134765625,0.0178680419921875,-0.68316650390625,169610.0205851667,0.2766598266817916,-0.4660878118580377,2.301308071706357,169609.9954081667,-89.35234069824219,-51.7825927734375,-559.5760498046875,169610.0155191667,-0.03750324665015081,-0.7504286666687217,0.1372561433059767,0.2794890701770782,-0.4538307189941406,2.328259229660034,-0.02213889360427856,0.1909027248620987,0.03106701374053955,1,0.05693686008453369,-0.3667413592338562,-0.04253107309341431,0.9276044964790344,-0.6755387187004089,-0.1368255764245987,-0.7245179414749146,0,0,0,-1,169608.26866725,4,2,1561841792.215166,1561841239.621676,42,1.91319,0,0,42.10339,0,0,1561841755.596066,169607.608943,0,0.005371094,75.19292,0,182478453,1,1,0.99,-0.09999833,-40.00326,0
1561841793.754432,5,0,0,1561841792.99884,4.634625040930356,-74.15084025829485,2555.801,0.2,189.140625,4,10,-9999,1561841793.747729,-17.6231689453125,-23.53734588623047,3.79779052734375,138.4478607177734,145.9409637451172,15,169610.0408481667,-0.8186492919921875,-0.0577850341796875,-0.649444580078125,169610.0408481667,0.0456987790413237,-0.5852781190767521,2.111443061795229,169610.0155191667,-90.49795532226562,-51.13824462890625,-559.321533203125,169610.0357521667,-0.0009620923613931392,-0.7650012904752095,0.1092105647570144,0.1160085126757622,-0.5539019107818604,2.162759304046631,-0.1045414209365845,0.08190925419330597,0.05135810375213623,1,0.05045473203063011,-0.3727095723152161,-0.02081645093858242,0.9263414740562439,-0.688412070274353,-0.1089936047792435,-0.7170838117599487,0,0,0,-1,169608.26866725,4,2,1561841792.215166,1561841239.621676,42,1.91319,0,0,42.10339,0,0,1561841755.596066,169607.608943,0,0.005371094,75.19292,0,182478453,1,1,0.99,-0.09999833,-40.76541,0
1561841793.758916,6,0,0,1561841792.99884,4.634625040930356,-74.15084025829485,2555.801,0.2,189.140625,4,10,-9999,1561841793.747729,-17.6231689453125,-23.53734588623047,3.79779052734375,138.4478607177734,145.9409637451172,15,169610.0610811667,-0.827362060546875,-0.034912109375,-0.59954833984375,169610.0610811667,-0.1596884652833313,-0.8072006642936,1.97119194404395,169610.0356301667,-91.81982421875,-50.12612915039062,-559.1710205078125,169610.0560151667,0.02883313395947274,-0.7806697251901397,0.0797614712254604,-0.1317360252141953,-0.7380589842796326,1.982574701309204,-0.1254016160964966,0.02637797594070435,0.0812152624130249,1,0.04234829172492027,-0.3796245157718658,-0.001847830601036549,0.9241690635681152,-0.7015179395675659,-0.07967692613601685,-0.7081837058067322,0,0,0,-1,169608.26866725,4,2,1561841792.215166,1561841239.621676,42,1.91319,0,0,42.10339,0,0,1561841755.596066,169607.608943,0,0.005371094,75.19292,0,182478453,1,1,0.99,-0.09999833,-40.76541,0
1561841793.779244,7,0,0,1561841792.99884,4.634625040930356,-74.15084025829485,2555.801,0.2,189.140625,4,10,-9999,1561841793.773417,-18.38536071777344,-22.75579833984375,3.9588623046875,136.5539398193359,144.0470428466797,15,169610.0813451667,-0.8526763916015625,-0.0385894775390625,-0.5440521240234375,169610.0813451667,-0.03063780412859858,-1.187983431694765,1.997454973449875,169610.0557101667,-92.50079345703125,-49.41685485839844,-558.8026733398438,169610.0762791667,0.05490710563298506,-0.8007973019973825,0.04918957785101006,-0.1050951108336449,-1.104696154594421,1.99030590057373,-0.1146525740623474,0.02135297283530235,0.119807243347168,1,0.03333508223295212,-0.3888991177082062,0.01568919792771339,0.9205433130264282,-0.7170429825782776,-0.04916974529623985,-0.6952924728393555,0,0,0,-1,169608.26866725,4,2,1561841792.215166,1561841239.621676,42,1.91319,0,0,42.10339,0,0,1561841755.596066,169607.608943,0,0.005371094,75.19292,0,182478453,1,1,0.99,-0.09999833,-41.65155,0
1561841793.799439,8,0,0,1561841792.99884,4.634625040930356,-74.15084025829485,2555.801,0.2,189.140625,4,10,-9999,1561841793.797909,-19.05150604248047,-21.97570037841797,4.24847412109375,134.5039978027344,141.9971008300781,15,169610.101623,-1.000167846679688,-0.090972900390625,-0.4357452392578125,169610.101623,0.2654399290092878,-1.171343468571731,1.876306443881625,169610.0758211667,-93.15486145019531,-48.76925659179688,-558.6702880859375,169610.096557,0.08338476050345708,-0.8264712798212014,0.02088432236314206,0.2329037189483643,-1.232944846153259,1.928398013114929,-0.1731233596801758,-0.04180030152201653,0.1832786798477173,1,0.02629156224429607,-0.40080526471138,0.03398024663329124,0.9151553511619568,-0.7353849411010742,-0.02088280394673347,-0.6773278117179871,0,0,0,-1,169608.26866725,4,2,1561841792.215166,1561841239.621676,42,1.91319,0,0,42.10339,0,0,1561841755.596066,169607.608943,0,0.005371094,75.19292,0,182478453,1,1,0.99,-0.09999833,-42.2026,0
1561841793.842151,9,0,0,1561841792.99884,4.634625040930356,-74.15084025829485,2555.801,0.2,189.140625,4,10,-9999,1561841793.82433,-20.61415100097656,-20.49293518066406,5.20489501953125,132.8221740722656,140.3152770996094,15,169610.121886,-1.066650390625,-0.1201019287109375,-0.5184783935546875,169610.121886,-0.2831001491459302,-0.9144088771358299,1.652490923761949,169610.095946,-94.19171142578125,-47.67385864257812,-558.0783081054688,169610.11682,0.1105472016621478,-0.8492010685939072,-0.004048640358678397,-0.06566274911165237,-0.9844391942024231,1.698498845100403,-0.3012704849243164,-0.1133473366498947,0.2255802154541016,1,0.02091694995760918,-0.4114287495613098,0.0511724054813385,0.9097638130187988,-0.7507467269897461,0.004048629198223352,-0.6605777144432068,0,0,0,-1,169608.26866725,4,2,1561841792.215166,1561841239.621676,42,1.91319,0,0,42.10339,0,0,1561841755.596066,169607.608943,0,0.005371094,75.19292,0,182478453,1,1,0.99,-1.214556,-43.28329,0
1561841793.847268,10,0,0,1561841792.99884,4.634625040930356,-74.15084025829485,2555.801,0.2,189.140625,4,10,-9999,1561841793.82433,-20.61415100097656,-20.49293518066406,5.20489501953125,132.8221740722656,140.3152770996094,15,169610.14215,-1.054977416992188,-0.1208343505859375,-0.5987091064453125,169610.14215,-0.9909308163176216,-0.5497446259162608,1.544405199340538,169610.116058,-95.01203918457031,-47.62179565429688,-557.6875,169610.137084,0.1242701310121753,-0.8658375297625615,-0.03527542246639267,-0.8733747005462646,-0.6560764908790588,1.542270302772522,-0.3022968173027039,-0.1650746166706085,0.05322372913360596,1,0.01006738748401403,-0.4196414947509766,0.063742496073246,0.9053930640220642,-0.7611644268035889,0.03526810556650162,-0.6475993394851685,0,0,0,-1,169608.26866725,4,2,1561841792.215166,1561841239.621676,42,1.91319,0,0,42.10339,0,0,1561841755.596066,169607.608943,0,0.005371094,75.19292,0,182478453,1,1,0.99,-1.214556,-43.28329,0
1561841793.860438,11,0,0,1561841792.99884,4.634625040930356,-74.15084025829485,2555.801,0.2,189.140625,4,10,-9999,1561841793.848764,-21.12572479248047,-19.79474258422852,5.17559814453125,132.3162536621094,139.8093566894531,15,169610.162414,-1.033523559570312,-0.0594940185546875,-0.565338134765625,169610.162414,-1.201322140330535,-0.1939641474609781,1.605632604382005,169610.136169,-95.38204956054688,-46.73924255371094,-557.494140625,169610.157348,0.1282085502904845,-0.8748109886079114,-0.07313910836802118,-1.176115989685059,-0.2654238045215607,1.5827476978302,-0.2917735576629639,-0.1675410866737366,0.06566685438156128,1,-0.005934020038694143,-0.424559623003006,0.07344579696655273,0.902396559715271,-0.7653706073760986,0.07307391613721848,-0.6394278407096863,0,0,0,-1,169608.26866725,4,2,1561841792.215166,1561841239.621676,42,1.91319,0,0,42.10339,0,0,1561841755.596066,169607.608943,0,0.005371094,75.19292,0,182478453,1,1,0.99,-1.771835,-43.6011,0
1561841793.880634,12,0,0,1561841792.99884,4.634625040930356,-74.15084025829485,2555.801,0.2,189.140625,4,10,-9999,1561841793.874896,-21.77284240722656,-19.34510803222656,4.928955078125,132.1488952636719,139.6419982910156,15,169610.182677,-0.961395263671875,0.0012054443359375,-0.56768798828125,169610.182677,-1.198806784680956,-0.3061359599428976,1.715709840666577,169610.156249,-95.88967895507812,-46.11639404296875,-557.8336181640625,169610.177612,0.1304228079193472,-0.8785687385312544,-0.1142348960355642,-1.22204852104187,-0.2220313400030136,1.682693719863892,-0.2303542494773865,-0.140323281288147,0.06727546453475952,1,-0.02388755045831203,-0.4270626902580261,0.08310876041650772,0.9000777006149292,-0.7648086547851562,0.1139866039156914,-0.634093701839447,0,0,0,-1,169608.26866725,4,2,1561841792.215166,1561841239.621676,42,1.91319,0,0,42.10339,0,0,1561841755.596066,169607.608943,0,0.005371094,75.19292,0,182478453,1,1,0.99,-2.329114,-44.45456,0
1561841793.923864,13,0,0,1561841792.99884,4.634625040930356,-74.15084025829485,2555.801,0.2,189.140625,4,10,-9999,1561841793.899827,-22.46895599365234,-18.75140762329102,4.556884765625,131.8236541748047,139.3167572021484,15,169610.202941,-0.947021484375,0.0089111328125,-0.5258941650390625,169610.202941,-0.9791977275030594,-0.8544443430832787,1.736740291162715,169610.17636,-96.44464111328125,-45.42985534667969,-558.2589111328125,169610.197845,0.1346569183374033,-0.8869658957758109,-0.1561084397703568,-1.05078387260437,-0.7132657766342163,1.753037929534912,-0.1757043600082397,-0.1424594074487686,0.0673980712890625,1,-0.04149219393730164,-0.4315508902072906,0.09396664798259735,0.8962212800979614,-0.7657324075698853,0.1554751545190811,-0.62408447265625,0,0,0,-1,169608.26866725,4,2,1561841792.215166,1561841239.621676,42,1.91319,0,0,42.10339,0,0,1561841755.596066,169607.608943,0,0.005371094,75.19292,0,182478453,1,1,0.99,-2.886393,-45.14965,0
1561841793.927078,14,0,0,1561841792.99884,4.634625040930356,-74.15084025829485,2555.801,0.2,189.140625,4,10,-9999,1561841793.899827,-22.46895599365234,-18.75140762329102,4.556884765625,131.8236541748047,139.3167572021484,15,169610.223174,-1.005706787109375,0.01220703125,-0.4477691650390625,169610.223174,-0.705799207892179,-1.214128483064399,1.444481264711893,169610.196471,-97.28787231445312,-44.74943542480469,-558.4756469726562,169610.218108,0.1416636223667665,-0.9053700807731454,-0.1940579818648211,-0.7625645995140076,-1.165985584259033,1.539049744606018,-0.2024772167205811,-0.1854417622089386,0.1194930076599121,1,-0.05609149858355522,-0.4403984546661377,0.1056106239557266,0.8898030519485474,-0.7718880772590637,0.1928422898054123,-0.6058058738708496,0,0,0,-1,169608.26866725,4,2,1561841792.215166,1561841239.621676,42,1.91319,0,0,42.10339,0,0,1561841755.596066,169607.608943,0,0.005371094,75.19292,0,182478453,1,1,0.99,-3.443672,-44.44159,0
1561841793.941314,15,0,0,1561841792.99884,4.634625040930356,-74.15084025829485,2555.801,0.2,189.140625,4,10,-9999,1561841793.925653,-23.62793731689453,-17.5938835144043,4.79638671875,131.3179321289062,138.81103515625,15,169610.243438,-1.0816650390625,0.0343170166015625,-0.428009033203125,169610.243438,-0.6213951108320797,-1.139618562086163,0.9975349231888001,169610.216582,-97.95509338378906,-44.19610595703125,-557.993896484375,169610.238372,0.147372207961778,-0.9287643789161553,-0.2236570817799158,-0.6112946271896362,-1.184210896492004,1.101252675056458,-0.2614101767539978,-0.1984053552150726,0.1557016372680664,1,-0.06674067676067352,-0.4512107968330383,0.1152566373348236,0.8824229836463928,-0.7809329628944397,0.2217970937490463,-0.5839089751243591,0,0,0,-1,169608.26866725,4,2,1561841792.215166,1561841239.621676,42,1.91319,0,0,42.10339,0,0,1561841755.596066,169607.608943,0,0.005371094,75.19292,0,182478453,1,1,0.99,-3.443672,-44.44159,0
1561841793.961702,16,0,0,1561841792.99884,4.634625040930356,-74.15084025829485,2555.801,0.2,189.140625,4,10,-9999,1561841793.949851,-23.81656646728516,-17.06267547607422,5.12811279296875,131.1192932128906,138.6123962402344,15,169610.263702,-1.0753173828125,0.0537872314453125,-0.54071044921875,169610.263702,-0.8872792551111927,-1.011692820175879,0.7390402519863299,169610.236694,-98.18202209472656,-43.62644958496094,-557.8916015625,169610.258636,0.1472296956678283,-0.951256894826864,-0.2467048359512407,-0.800497829914093,-1.037354350090027,0.7731738686561584,-0.2987001538276672,-0.2045980840921402,0.08796632289886475,1,-0.07566509395837784,-0.4612322151660919,0.1210750788450241,0.8757171630859375,-0.7894956469535828,0.2442099004983902,-0.563079297542572,0,0,0,-1,169608.26866725,4,2,1561841792.215166,1561841239.621676,42,1.91319,0,0,42.10339,0,0,1561841755.596066,169607.608943,0,0.005371094,75.19292,0,182478453,1,1,0.99,-4.000951,-45.20216,0
1561841794.008564,17,0,0,1561841792.99884,4.634625040930356,-74.15084025829485,2555.801,0.2,189.140625,4,10,-9999,1561841793.979378,-23.93381500244141,-16.50367736816406,5.42156982421875,131.5994415283203,139.0925445556641,15,169610.283965,-1.009613037109375,0.0938262939453125,-0.6358642578125,169610.283965,-1.172142416898755,-0.9740767350429461,0.7192367198043917,169610.256774,-98.22720336914062,-43.08599853515625,-557.33544921875,169610.278899,0.139124360104528,-0.9737610612587716,-0.270073017243281,-1.132271289825439,-0.9880563020706177,0.7120359539985657,-0.2469475865364075,-0.1916064918041229,-0.05929028987884521,1,-0.0864708349108696,-0.4707606434822083,0.1237055361270905,0.869255006313324,-0.7970282435417175,0.2668018043041229,-0.5418144464492798,0,0,0,-1,169608.26866725,4,2,1561841792.215166,1561841239.621676,42,1.91319,0,0,42.10339,0,0,1561841755.596066,169607.608943,0,0.005371094,75.19292,0,182478453,1,1,0.99,-5.115509,-46.66292,0
1561841794.012798,18,0,0,1561841792.99884,4.634625040930356,-74.15084025829485,2555.801,0.2,189.140625,4,10,-9999,1561841793.979378,-23.93381500244141,-16.50367736816406,5.42156982421875,131.5994415283203,139.0925445556641,15,169610.304229,-0.979248046875,0.132171630859375,-0.66534423828125,169610.304229,-1.181458953340179,-0.9799322273317034,0.6390582604459212,169610.276885,-98.54362487792969,-43.19331359863281,-557.4673461914062,169610.299163,0.1265143185905452,-0.9971265419932072,-0.2952410013845757,-1.197627067565918,-0.9816839098930359,0.6719644665718079,-0.1851348876953125,-0.1782385110855103,-0.1311396360397339,1,-0.09902359545230865,-0.4801837801933289,0.125106081366539,0.8625348806381226,-0.8035736083984375,0.2909704446792603,-0.5192357301712036,0,0,0,-1,169608.26866725,4,2,1561841792.215166,1561841239.621676,42,1.91319,0,0,42.10339,0,0,1561841755.596066,169607.608943,0,0.005371094,75.19292,0,182478453,1,1,0.99,-5.115509,-46.66292,0
1561841794.02254,19,0,0,1561841792.99884,4.634625040930356,-74.15084025829485,2555.801,0.2,189.140625,4,10,-9999,1561841794.002174,-24.29923248291016,-16.34736633300781,5.85565185546875,132.5084991455078,140.0016021728516,15,169610.324493,-1.015625,0.11883544921875,-0.6935882568359375,169610.324493,-1.084024009066322,-1.0670591402903,0.4668486769814734,169610.296996,-98.50651550292969,-42.54212951660156,-557.1246337890625,169610.319427,0.1123572916722769,-1.021743234838013,-0.3179933530511455,-1.116550922393799,-1.0423743724823,0.5142685770988464,-0.1778454184532166,-0.1779260635375977,-0.1850252151489258,1,-0.1107871159911156,-0.4897638559341431,0.1256523281335831,0.8556103706359863,-0.8102527260780334,0.3126611411571503,-0.4957151710987091,0,0,0,-1,169608.26866725,4,2,1561841792.215166,1561841239.621676,42,1.91319,0,0,42.10339,0,0,1561841755.596066,169607.608943,0,0.005371094,75.19292,0,182478453,1,1,0.99,-5.672788,-47.05024,0
1561841794.04429,20,0,0,1561841792.99884,4.634625040930356,-74.15084025829485,2555.801,0.2,189.140625,4,10,-9999,1561841794.033497,-24.22822570800781,-16.01147842407227,5.91424560546875,133.5391998291016,141.0323028564453,15,169610.344756,-1.1097412109375,0.0408172607421875,-0.697174072265625,169610.344756,-0.9154962458089092,-1.108501122645241,0.1604426725040417,169610.317107,-98.62127685546875,-42.4317626953125,-556.8311157226562,169610.33969,0.09741009070149127,-1.048772131538361,-0.3357333118711577,-0.9658625721931458,-1.131956219673157,0.252500057220459,-0.2439154982566833,-0.2406859993934631,-0.2298108339309692,1,-0.1204242184758186,-0.500099778175354,0.1251059174537659,0.8483789563179016,-0.8184167146682739,0.3294616341590881,-0.4707964360713959,0,0,0,-1,169608.26866725,4,2,1561841792.215166,1561841239.621676,42,1.91319,0,0,42.10339,0,0,1561841755.596066,169607.608943,0,0.005371094,75.19292,0,182478453,1,1,0.99,-6.230066,-47.0745,0
1561841794.072948,21,0,0,1561841793.998831,4.634625082839872,-74.15085090331188,2555.929,0.22,239.765625,4,10,-9999,1561841794.033497,-24.22822570800781,-16.01147842407227,5.91424560546875,133.5391998291016,141.0323028564453,15,169610.36502,-1.166900634765625,-0.03424072265625,-0.6485137939453125,169610.36502,-0.734470001239645,-0.8480604796342497,-0.4137785343589193,169610.337188,-98.90420532226562,-42.67835998535156,-556.809814453125,169610.359924,0.08140204982026714,-1.075587528299706,-0.3447902220348451,-0.7771552205085754,-0.9448939561843872,-0.2490530461072922,-0.3211907744407654,-0.3421191275119781,-0.2283356785774231,1,-0.1266715824604034,-0.5102261304855347,0.1222265958786011,0.8418338298797607,-0.8280859589576721,0.3379992544651031,-0.4472472071647644,0,0,0,-1,169608.26866725,4,2,1561841792.215166,1561841239.621676,42,1.91319,0,0,42.10339,0,0,1561841755.596066,169607.608943,0,0.005371094,75.19292,0,182478453,1,1,0.99,-6.787345,-47.29216,0
1561841794.083052,22,0,0,1561841793.998831,4.634625082839872,-74.15085090331188,2555.929,0.22,239.765625,4,10,-9999,1561841794.078594,-24.02393341064453,-16.0756721496582,6.28717041015625,135.9687652587891,143.4618682861328,15,169610.385253,-1.149200439453125,-0.0876617431640625,-0.60052490234375,169610.385253,-0.655858812182686,-0.4456911937013389,-0.9544569609762233,169610.357299,-98.49900817871094,-42.49125671386719,-556.4913940429688,169610.380187,0.06223220024713508,-1.097263588893929,-0.3412062753657411,-0.6593508720397949,-0.5438578128814697,-0.8574721813201904,-0.3182634115219116,-0.3849933445453644,-0.1908007860183716,1,-0.1288004964590073,-0.5182071328163147,0.1146589815616608,0.8376903533935547,-0.8386579751968384,0.3346240818500519,-0.4297435879707336,0,0,0,-1,169608.26866725,4,2,1561841792.215166,1561841239.621676,42,1.91319,0,0,42.10339,0,0,1561841755.596066,169607.608943,0,0.005371094,75.19292,0,182478453,1,1,0.99,-6.787345,-47.29216,0
1561841794.10333,23,0,0,1561841793.998831,4.634625082839872,-74.15085090331188,2555.929,0.22,239.765625,4,10,-9999,1561841794.101697,-23.91919708251953,-16.58426666259766,6.59442138671875,137.6592254638672,145.1523284912109,15,169610.405517,-1.16632080078125,-0.2263336181640625,-0.604248046875,169610.405517,-0.7939823305391007,-0.268944649003832,-1.347519564163743,169610.37741,-98.26449584960938,-42.90838623046875,-556.4888916015625,169610.400451,0.03911925548314063,-1.112947481962424,-0.3284831959868859,-0.7430449724197388,-0.3053478002548218,-1.231578707695007,-0.3031461238861084,-0.4762484431266785,-0.1776223182678223,1,-0.1286169737577438,-0.52370285987854,0.1027295887470245,0.8358466625213623,-0.8490450382232666,0.322607696056366,-0.4183859825134277,0,0,0,-1,169608.26866725,4,2,1561841792.215166,1561841239.621676,42,1.91319,0,0,42.10339,0,0,1561841755.596066,169607.608943,0,0.005371094,75.19292,0,182478453,1,1,0.99,-7.344624,-47.52781,0
1561841794.123516,24,0,0,1561841793.998831,4.634625082839872,-74.15085090331188,2555.929,0.22,239.765625,4,10,-9999,1561841794.101697,-23.91919708251953,-16.58426666259766,6.59442138671875,137.6592254638672,145.1523284912109,15,169610.42578,-1.2330322265625,-0.3135528564453125,-0.583831787109375,169610.42578,-1.107062216708271,0.01363272162011562,-2.078768472064938,169610.397521,-98.04891967773438,-43.50619506835938,-556.2496337890625,169610.420715,0.008293445643641423,-1.127092181512148,-0.3084172730215556,-1.022436857223511,-0.09274338185787201,-1.87513792514801,-0.3317850232124329,-0.5878984928131104,-0.1930645108222961,1,-0.1276567429304123,-0.5283821821212769,0.08551336079835892,0.8349872231483459,-0.8605520129203796,0.3035509586334229,-0.4090320467948914,0,0,0,-1,169608.26866725,4,2,1561841792.215166,1561841239.621676,42,1.91319,0,0,42.10339,0,0,1561841755.596066,169607.608943,0,0.005371094,75.19292,0,182478453,1,1,0.99,-7.901903,-41.07034,0
1561841794.155242,25,0,0,1561841793.998831,4.634625082839872,-74.15085090331188,2555.929,0.22,239.765625,4,10,-9999,1561841794.152351,-21.57773590087891,-19.50036239624023,5.666748046875,143.878173828125,151.3712768554688,15,169610.446044,-1.283187866210938,-0.298187255859375,-0.5860595703125,169610.446044,-1.503595717744491,0.5614667957703535,-2.957376208350723,169610.417602,-97.27497863769531,-44.36380004882812,-556.59765625,169610.440978,-0.03551706827311325,-1.137014521565066,-0.2765697891165088,-1.404543280601501,0.397789865732193,-2.740205526351929,-0.3997286558151245,-0.5928511023521423,-0.1725867390632629,1,-0.1256130635738373,-0.5310884714126587,0.05937876179814339,0.8358471989631653,-0.872900128364563,0.2730574011802673,-0.4043327867984772,0,0,0,-1,169608.26866725,4,2,1561841792.215166,1561841239.621676,42,1.91319,0,0,42.10339,0,0,1561841755.596066,169607.608943,0,0.005371094,75.19292,0,182478453,1,1,0.99,-8.459182,-41.60779,0
1561841794.164377,26,0,0,1561841793.998831,4.634625082839872,-74.15085090331188,2555.929,0.22,239.765625,4,10,-9999,1561841794.152351,-21.57773590087891,-19.50036239624023,5.666748046875,143.878173828125,151.3712768554688,15,169610.466308,-1.244552612304688,-0.1717376708984375,-0.606781005859375,169610.466308,-1.840857905559908,1.143775756547776,-3.750937226805373,169610.437713,-96.25886535644531,-45.66192626953125,-557.041748046875,169610.461242,-0.09364292485560717,-1.137240546142787,-0.2318133381889722,-1.767725467681885,1.008853197097778,-3.575302362442017,-0.38516765832901,-0.4803988635540009,-0.1842917203903198,1,-0.1223764419555664,-0.5297097563743591,0.02302953787147999,0.8389882445335388,-0.8832039833068848,0.2297427356243134,-0.4088631570339203,0,0,0,-1,169608.26866725,4,2,1561841792.215166,1561841239.621676,42,1.91319,0,0,42.10339,0,0,1561841755.596066,169607.608943,0,0.005371094,75.19292,0,182478453,1,1,0.99,-9.016461,-42.19176,0
1561841794.184281,27,0,0,1561841793.998831,4.634625082839872,-74.15085090331188,2555.929,0.22,239.765625,4,10,-9999,1561841794.179096,-20.25472259521484,-20.96754837036133,4.7474365234375,148.7574615478516,156.2505645751953,15,169610.486571,-1.178741455078125,0.0466461181640625,-0.640869140625,169610.486571,-2.082931259164841,1.548251070270722,-4.352377804221708,169610.457824,-95.16072082519531,-46.82785034179688,-557.5433959960938,169610.481506,-0.1636946583785215,-1.126254094541012,-0.1764098669928322,-2.024797677993774,1.44810962677002,-4.219244480133057,-0.3262764811515808,-0.2413532286882401,-0.1982421278953552,1,-0.1177135333418846,-0.5238876938819885,-0.02199503406882286,0.8433276414871216,-0.8887961506843567,0.1754962950944901,-0.4233704209327698,0,0,0,-1,169608.26866725,4,2,1561841792.215166,1561841239.621676,42,1.91319,0,0,42.10339,0,0,1561841755.596066,169607.608943,0,0.005371094,75.19292,0,182478453,1,1,0.99,-9.57374,-35.08959,0
1561841794.204546,28,0,0,1561841793.998831,4.634625082839872,-74.15085090331188,2555.929,0.22,239.765625,4,10,-9999,1561841794.202878,-18.49832916259766,-22.83941650390625,3.33502197265625,154.5299377441406,162.0230407714844,15,169610.506835,-1.116073608398438,0.276519775390625,-0.6958160400390625,169610.506835,-2.399156072265285,1.874468596413362,-4.742382565845598,169610.477935,-93.37823486328125,-48.76350402832031,-559.0721435546875,169610.501769,-0.2435997975102781,-1.104599980531158,-0.1142205435495391,-2.314091444015503,1.808075547218323,-4.682973384857178,-0.2634762525558472,0.04558882117271423,-0.2161415815353394,1,-0.1118728071451187,-0.5140068531036377,-0.0735413059592247,0.8472738862037659,-0.8874636888504028,0.1139723435044289,-0.4465628564357758,0,0,0,-1,169608.26866725,4,2,1561841792.215166,1561841239.621676,42,1.91319,0,0,42.10339,0,0,1561841755.596066,169607.608943,0,0.005371094,75.19292,0,182478453,1,1,0.99,-9.57374,-35.08959,0
1561841794.224866,29,0,0,1561841793.998831,4.634625082839872,-74.15085090331188,2555.929,0.22,239.765625,4,10,-9999,1561841794.202878,-18.49832916259766,-22.83941650390625,3.33502197265625,154.5299377441406,162.0230407714844,15,169610.527099,-1.026931762695312,0.529541015625,-0.7796173095703125,169610.527099,-2.64865112319605,1.980436841452051,-4.751642909588022,169610.498046,-91.56500244140625,-50.32844543457031,-560.436767578125,169610.522002,-0.3330883809861915,-1.073546221915882,-0.05196289161011213,-2.624367475509644,1.963823676109314,-4.792795658111572,-0.1908616423606873,0.3489546477794647,-0.2655919790267944,1,-0.1067592799663544,-0.5004189610481262,-0.1293124556541443,0.8493890166282654,-0.8777113556861877,0.05193950980901718,-0.4763666391372681,0,0,0,-1,169608.26866725,4,2,1561841792.215166,1561841239.621676,42,1.91319,0,0,42.10339,0,0,1561841755.596066,169607.608943,0,0.005371094,75.19292,0,182478453,1,1,0.99,-10.13102,-35.40527,0
1561841794.245088,30,0,0,1561841793.998831,4.634625082839872,-74.15085090331188,2555.929,0.22,239.765625,4,10,-9999,1561841794.229576,-13.87248992919922,-25.61518096923828,0.08624267578125,161.0852508544922,168.5783538818359,15,169610.547332,-0.929443359375,0.695068359375,-0.869964599609375,169610.547332,-2.429905462843558,1.805992333200809,-4.348538591194249,169610.518157,-88.9246826171875,-51.81465148925781,-562.2341918945312,169610.542266,-0.4260172405136944,-1.036368270152388,0.004236674102339365,-2.537621021270752,1.861559271812439,-4.489977359771729,-0.1240667700767517,0.6355690360069275,-0.30393385887146,1,-0.1029089987277985,-0.4844972193241119,-0.1846737861633301,0.8488626480102539,-0.8605523705482483,-0.004236661363393068,-0.5093443393707275,0,0,0,-1,169608.26866725,4,2,1561841792.215166,1561841239.621676,42,1.91319,0,0,42.10339,0,0,1561841755.596066,169607.608943,0,0.005371094,75.19292,0,182478453,1,1,0.99,-10.6883,-35.60928,0
1561841794.265136,31,0,0,1561841793.998831,4.634625082839872,-74.15085090331188,2555.929,0.22,239.765625,4,10,-9999,1561841794.253355,-11.34811401367188,-26.90273284912109,-1.41204833984375,167.4465942382812,174.939697265625,15,169610.567596,-0.81719970703125,0.7515716552734375,-0.923980712890625,169610.567596,-1.62844098122188,1.889286957350781,-3.656224565797795,169610.558379,-83.85762023925781,-53.84776306152344,-565.66455078125,169610.56253,-0.5095290572098392,-0.9977929519986758,0.0523437115266124,-1.881575584411621,1.803630828857422,-3.841911315917969,-0.03280735015869141,0.7883275151252747,-0.3720822930335999,1,-0.09830073267221451,-0.4686460793018341,-0.2333401441574097,0.8463216423988342,-0.8391256332397461,-0.05231981351971626,-0.5414156317710876,0,0,0,-1,169610.545928,3,1,1561841794.492427,1561841239.621676,42,1.91319,0,0,42.10339,0,0,1561841755.596066,169607.608943,0,0.005371094,75.19292,0,182478453,1,1,0.99,-11.24558,-33.37188,0
1561841794.285314,32,0,0,1561841793.998831,4.634625082839872,-74.15085090331188,2555.929,0.22,239.765625,4,10,-9999,1561841794.279713,-8.964530944824219,-27.48436737060547,-3.17303466796875,172.2106018066406,179.7037048339844,15,169610.587859,-0.6917877197265625,0.775177001953125,-0.911834716796875,169610.587859,-0.4787743123428482,2.43972453778268,-3.12504137373106,169610.57846,-81.90867614746094,-54.60821533203125,-566.5847778320312,169610.582793,-0.5720814562500255,-0.9526201228626381,0.09593071203184332,-0.773662805557251,2.262133836746216,-3.217018127441406,0.04991352558135986,0.8483623862266541,-0.3406258225440979,1,-0.08834183216094971,-0.4513902366161346,-0.2715522646903992,0.8454003930091858,-0.8111898303031921,-0.09578364342451096,-0.5768851637840271,0,0,0,-1,169610.545928,3,1,1561841794.492427,1561841239.621676,42,1.91319,0,0,42.10339,0,0,1561841755.596066,169607.608943,0,0.005371094,75.19292,0,182478453,1,1,0.99,-11.80286,-33.71885,0
1561841794.306222,33,0,0,1561841793.998831,4.634625082839872,-74.15085090331188,2555.929,0.22,239.765625,4,10,-9999,1561841794.304109,-6.827194213867188,-27.97287750244141,-3.88177490234375,175.1015625,182.5946655273438,15,169610.608123,-0.467803955078125,1.0921630859375,-0.9568939208984375,169610.608123,0.4878386474290419,2.623996909404642,-2.921988922734077,169610.598571,-79.80010986328125,-54.61447143554688,-567.0410766601562,169610.603057,-0.613559840645294,-0.8961224706374878,0.1431149873362915,0.2748559713363647,2.707428693771362,-2.982162952423096,0.1675040721893311,1.028323411941528,-0.2841634154319763,1,-0.06906284391880035,-0.431395411491394,-0.3010115325450897,0.8476558327674866,-0.7729271054267883,-0.142626941204071,-0.6182566285133362,0,0,0,-1,169610.545928,3,1,1561841794.492427,1561841239.621676,42,1.91319,0,0,42.10339,0,0,1561841755.596066,169607.608943,0,0.005371094,75.19292,0,182478453,1,1,0.99,-12.36013,-33.78425,0
1561841794.327571,34,0,0,1561841793.998831,4.634625082839872,-74.15085090331188,2555.929,0.22,239.765625,4,10,-9999,1561841794.304109,-6.827194213867188,-27.97287750244141,-3.88177490234375,175.1015625,182.5946655273438,15,169610.628387,-0.064361572265625,1.5728759765625,-1.173126220703125,169610.628387,1.539134004594944,1.15267098090475,-1.860277942544875,169610.618682,-77.92811584472656,-55.07080078125,-566.7669677734375,169610.623321,-0.6389096582006007,-0.8448463879136563,0.1950367223071769,1.200241565704346,1.651137113571167,-2.305245637893677,0.4675461649894714,1.530701398849487,-0.4144595861434937,1,-0.04382707551121712,-0.4152700006961823,-0.3229795396327972,0.8493022322654724,-0.7336899638175964,-0.1938025653362274,-0.6512600183486938,0,0,0,-1,169610.545928,3,1,1561841794.492427,1561841239.621676,42,1.91319,0,0,42.10339,0,0,1561841755.596066,169607.608943,0,0.005371094,75.19292,0,182478453,1,1,0.99,-12.91741,-34.59966,0
1561841794.346284,35,0,0,1561841793.998831,4.634625082839872,-74.15085090331188,2555.929,0.22,239.765625,4,10,-9999,1561841794.330291,-3.227134704589844,-28.85926818847656,-3.82073974609375,176.2435150146484,183.7366180419922,15,169610.64865,0.068206787109375,1.800918579101562,-1.211517333984375,169610.64865,3.866506167573798,-0.391381349591353,1.118598764234385,169610.638793,-76.98789978027344,-55.31201171875,-565.9133911132812,169610.643584,-0.6238993771189163,-0.8348419496866932,0.2405246793140217,3.128915071487427,-0.1970295906066895,0.2608493566513062,0.7827200889587402,1.980857491493225,-0.5902171730995178,1,-0.01914744637906551,-0.4167111814022064,-0.3248259425163269,0.8488069176673889,-0.7198538184165955,-0.2382122278213501,-0.6519703269004822,0,0,0,-1,169610.545928,3,1,1561841794.492427,1561841239.621676,42,1.91319,0,0,42.10339,0,0,1561841755.596066,169607.608943,0,0.005371094,75.19292,0,182478453,1,1,0.99,-13.47469,-35.16195,0
1561841794.36702,36,0,0,1561841793.998831,4.634625082839872,-74.15085090331188,2555.929,0.22,239.765625,4,10,-9999,1561841794.354706,-3.029510498046875,-28.98896026611328,-2.332763671875,171.8846282958984,179.3777313232422,15,169610.668914,-0.2537384033203125,1.740982055664062,-0.819976806640625,169610.668914,7.050369046617547,-0.2967075707356901,3.777313440557627,169610.658874,-78.20628356933594,-55.50596618652344,-563.21533203125,169610.663848,-0.5238686993745464,-0.8688327350955956,0.2742597970839323,6.313301086425781,-0.3907923698425293,3.321326494216919,0.6909551620483398,2.065512180328369,-0.4309508204460144,1,0.01180980354547501,-0.4348194301128387,-0.2882641851902008,0.8530512452125549,-0.7350378036499023,-0.2708344757556915,-0.6215851902961731,0,0,0,-1,169610.545928,3,1,1561841794.492427,1561841239.621676,42,1.91319,0,0,42.10339,0,0,1561841755.596066,169607.608943,0,0.005371094,75.19292,0,182478453,1,1,0.99,-13.47469,-35.16195,0
1561841794.386831,37,0,0,1561841793.998831,4.634625082839872,-74.15085090331188,2555.929,0.22,239.765625,4,10,-9999,1561841794.38105,-4.264785766601562,-28.73225021362305,0.75836181640625,159.9819793701172,167.4750823974609,15,169610.689178,-0.7920989990234375,1.532180786132812,-0.2531585693359375,169610.689178,8.976208955194101,-0.3426004942204806,4.124293503190743,169610.678985,-80.42254638671875,-55.0614013671875,-559.5028076171875,169610.684081,-0.3463244892371703,-0.9254124991389344,0.3076884884466756,8.623292922973633,-0.2682049572467804,4.219876289367676,0.2410110235214233,1.94073486328125,0.03481924533843994,1,0.05907341837882996,-0.4581291079521179,-0.2197378128767014,0.8592690229415894,-0.7613509893417358,-0.3028565049171448,-0.5732560753822327,0,0,0,-1,169610.545928,3,1,1561841794.492427,1561841239.621676,42,1.91319,0,0,42.10339,0,0,1561841755.596066,169607.608943,0,0.005371094,75.19292,0,182478453,1,1,0.99,-14.03197,-28.36265,0
1561841794.407082,38,0,0,1561841793.998831,4.634625082839872,-74.15085090331188,2555.929,0.22,239.765625,4,10,-9999,1561841794.405367,-6.645858764648438,-28.23482894897461,5.0836181640625,144.8573760986328,152.3504791259766,15,169610.709411,-1.184661865234375,1.332916259765625,0.3702392578125,169610.709411,10.04908790141455,-0.7168526579965528,3.131688091179679,169610.699096,-82.927734375,-53.74551391601562,-554.40380859375,169610.704345,-0.1361046487342298,-1.002185942594191,0.3501938058142479,9.804705619812012,-0.6142292022705078,3.406180620193481,-0.2314732670783997,1.789613008499146,0.5633670091629028,1,0.1202664077281952,-0.4823337197303772,-0.1422188431024551,0.8559579253196716,-0.7915064692497253,-0.3430798649787903,-0.5057803392410278,0,0,0,-1,169610.545928,3,1,1561841794.492427,1561841239.621676,42,1.91319,0,0,42.10339,0,0,1561841755.596066,169607.608943,0,0.005371094,75.19292,0,182478453,1,1,0.99,-14.58925,-28.55389,0
1561841794.427672,39,0,0,1561841793.998831,4.634625082839872,-74.15085090331188,2555.929,0.22,239.765625,4,10,-9999,1561841794.405367,-6.645858764648438,-28.23482894897461,5.0836181640625,144.8573760986328,152.3504791259766,15,169610.729674,-1.3001708984375,0.985015869140625,0.8429718017578125,169610.729674,11.4664392777857,-1.682460008140829,2.40446987758832,169610.719207,-84.11872863769531,-51.08096313476562,-549.4906616210938,169610.724609,0.09120535740475701,-1.1049430955207,0.4030643548832435,11.00300216674805,-1.41670835018158,2.520685434341431,-0.4417693614959717,1.572216391563416,1.024685025215149,1,0.1936536729335785,-0.5058692693710327,-0.06691937893629074,0.8379238247871399,-0.8218414783477783,-0.392238974571228,-0.4131890833377838,0,0,0,-1,169610.545928,3,1,1561841794.492427,1561841239.621676,42,1.91319,0,0,42.10339,0,0,1561841755.596066,169607.608943,0,0.005371094,75.19292,0,182478453,1,1,0.99,-15.14653,-28.60211,0
1561841794.447547,40,0,0,1561841793.998831,4.634625082839872,-74.15085090331188,2555.929,0.22,239.765625,4,10,-9999,1561841794.431682,-10.01417541503906,-23.5394287109375,14.88629150390625,127.8527450561523,135.3458557128906,15,169610.749938,-1.26287841796875,0.6593170166015625,1.4456787109375,169610.749938,12.88794412019293,-2.462704688512865,1.895734736665972,169610.739318,-84.56747436523438,-47.2781982421875,-543.871337890625,169610.744872,0.3563628774242614,-1.25426296639585,0.4529508163610851,12.74655151367188,-2.332019567489624,2.039613723754883,-0.4586054682731628,1.23599100112915,1.444206953048706,1,0.2802909910678864,-0.5305604934692383,0.01016710978001356,0.7998994588851929,-0.8544896245002747,-0.4376206994056702,-0.2798850536346436,0,0,0,-1,169610.545928,3,1,1561841794.492427,1561841239.621676,42,1.91319,0,0,42.10339,0,0,1561841755.596066,169607.608943,0,0.005371094,75.19292,0,182478453,1,1,0.99,-15.70381,-28.95953,0
1561841794.467861,41,0,0,1561841793.998831,4.634625082839872,-74.15085090331188,2555.929,0.22,239.765625,4,10,-9999,1561841794.456038,-10.08658599853516,-18.97652816772461,20.38275146484375,107.4577026367188,114.950813293457,15,169610.770202,-1.064041137695312,0.47332763671875,1.671173095703125,169610.770202,12.0027924644766,-2.324290619281522,1.389995918286071,169610.759429,-84.19889831542969,-41.52459716796875,-539.4776611328125,169610.765136,0.6467788890412783,-1.435496658111266,0.4763945227631181,12.35553741455078,-2.449470281600952,1.486465930938721,-0.2629610300064087,0.9918423295021057,1.675532102584839,1,0.3716269731521606,-0.549508273601532,0.08548399060964584,0.7433885335922241,-0.8805326223373413,-0.4585781395435333,-0.1198680996894836,0,0,0,-1,169610.545928,3,1,1561841794.492427,1561841239.621676,42,1.91319,0,0,42.10339,0,0,1561841755.596066,169607.608943,0,0.005371094,75.19292,0,182478453,1,1,0.99,-16.26109,-29.81909,0
1561841794.488068,42,0,0,1561841793.998831,4.634625082839872,-74.15085090331188,2555.929,0.22,239.765625,4,10,-9999,1561841794.482291,-9.564773559570312,-13.11187362670898,24.45025634765625,88.02436828613281,95.51747894287109,15,169610.790466,-0.8463897705078125,0.494964599609375,1.997055053710938,169610.790466,10.28398616641059,-1.988402089956369,1.204762944458918,169610.77951,-83.53471374511719,-35.54888916015625,-536.4307861328125,169610.7854,0.9117309636212572,-1.601366585602225,0.4616524213561858,10.78666496276855,-2.076996326446533,1.225876688957214,-0.08587461709976196,0.9462063908576965,1.825539469718933,1,0.4506524503231049,-0.5573107600212097,0.1509166955947876,0.6808385848999023,-0.894899308681488,-0.4454281628131866,0.02736582793295383,0,0,0,-1,169610.545928,3,1,1561841794.492427,1561841239.621676,42,1.91319,0,0,42.10339,0,0,1561841755.596066,169607.608943,0,0.005371094,75.19292,0,182478453,1,1,0.99,-16.81837,-30.0665,0
1561841794.508501,43,0,0,1561841793.998831,4.634625082839872,-74.15085090331188,2555.929,0.22,239.765625,4,10,-9999,1561841794.506709,-8.897216796875,-7.205657958984375,26.8948974609375,73.27558135986328,80.76869201660156,15,169610.810729,-0.4896392822265625,0.4648895263671875,1.978790283203125,169610.810729,7.432719616952441,-1.777167875458445,1.643329116979859,169610.799621,-82.38560485839844,-29.60470581054688,-535.0077514648438,169610.805663,1.123560765065717,-1.731536505765747,0.4175301452001027,8.241775512695312,-1.835580110549927,1.436426162719727,0.2587090730667114,0.8521134853363037,1.889573812484741,1,0.5105556845664978,-0.5590015053749084,0.2041368037462234,0.6206272840499878,-0.9023095965385437,-0.4055040180683136,0.1462995857000351,0,0,0,-1,169610.545928,3,1,1561841794.492427,1561841239.621676,42,1.91319,0,0,42.10339,0,0,1561841755.596066,169607.608943,0,0.005371094,75.19292,0,182478453,1,1,0.99,-17.37564,-30.80774,0
1561841794.528723,44,0,0,1561841793.998831,4.634625082839872,-74.15085090331188,2555.929,0.22,239.765625,4,10,-9999,1561841794.506709,-8.897216796875,-7.205657958984375,26.8948974609375,73.27558135986328,80.76869201660156,15,169610.830993,-0.384490966796875,0.5278472900390625,1.75518798828125,169610.830993,4.124727332132317,-1.076166352270044,2.715395266435616,169610.819732,-81.50999450683594,-25.68820190429688,-534.5780029296875,169610.825927,1.256335942001221,-1.815376951849418,0.3527506682678405,4.937086582183838,-1.330856561660767,2.437688589096069,0.4914909601211548,0.8681092262268066,1.644815683364868,1,0.5433334708213806,-0.5642768740653992,0.2442531436681747,0.5715948343276978,-0.9104973077774048,-0.3454804122447968,0.2272392958402634,0,0,0,-1,169610.545928,3,1,1561841794.492427,1561841239.621676,42,1.91319,0,0,42.10339,0,0,1561841755.596066,169607.608943,0,0.005371094,75.19292,0,182478453,1,1,0.99,-17.37564,-30.80774,0
1561841794.548994,45,0,0,1561841793.998831,4.634625082839872,-74.15085090331188,2555.929,0.22,239.765625,4,10,-9999,1561841794.532956,-6.975502014160156,1.831205368041992,28.12744140625,65.68186187744141,73.17497253417969,15,169610.851257,-0.4570159912109375,0.5156097412109375,1.497238159179688,169610.851257,1.256606435083381,0.1614022094447973,3.81571622347657,169610.839812,-80.71722412109375,-22.91184997558594,-534.5391235351562,169610.84616,1.309076881079486,-1.847584884592504,0.2767680344273707,1.89737069606781,-0.1311381161212921,3.541993618011475,0.5342776775360107,0.7812895178794861,1.349222898483276,1,0.5470750331878662,-0.5763185024261475,0.2761546671390533,0.540651798248291,-0.9253299236297607,-0.2732481062412262,0.2628682255744934,0,0,0,-1,169610.545928,3,1,1561841794.492427,1561841239.621676,42,1.91319,0,0,42.10339,0,0,1561841755.596066,169607.608943,0,0.005371094,75.19292,0,182478453,1,1,0.99,-17.93292,-31.63614,0
1561841794.56911,46,0,0,1561841793.998831,4.634625082839872,-74.15085090331188,2555.929,0.22,239.765625,4,10,-9999,1561841794.557863,-6.454338073730469,4.075660705566406,28.127685546875,64.5855712890625,72.07868194580078,15,169610.87149,-0.6482086181640625,0.4832611083984375,1.365570068359375,169610.87149,-0.6642645475313032,0.6048030846086679,4.447168229533116,169610.859924,-80.58157348632812,-21.85726928710938,-534.4322509765625,169610.866424,1.300951195598364,-1.839352149552431,0.1945258340940325,-0.2930977046489716,0.6087232232093811,4.364242553710938,0.3884754180908203,0.7091704607009888,1.147456288337708,1,0.5262304544448853,-0.5943474769592285,0.3038163483142853,0.5268093943595886,-0.9459704756736755,-0.19330133497715,0.2603348195552826,0,0,0,-1,169610.545928,3,1,1561841794.492427,1561841239.621676,42,1.91319,0,0,42.10339,0,0,1561841755.596066,169607.608943,0,0.005371094,75.19292,0,182478453,1,1,0.99,-18.4902,-32.51332,0
1561841794.589422,47,0,0,1561841793.998831,4.634625082839872,-74.15085090331188,2555.929,0.22,239.765625,4,10,-9999,1561841794.583615,-6.004508972167969,4.894199371337891,28.227783203125,67.24148559570312,74.73459625244141,15,169610.891753,-0.8289794921875,0.3970794677734375,1.295669555664062,169610.891753,-1.444835997769092,0.2173219344337361,4.537378284085697,169610.880035,-80.30117797851562,-21.50141906738281,-534.55517578125,169610.886687,1.259328268255577,-1.82290020556054,0.1115458557902509,-1.347068190574646,0.3153043687343597,4.535475730895996,0.2259060144424438,0.5465716123580933,1.086046934127808,1,0.4923174977302551,-0.6177129745483398,0.324572890996933,0.5202947854995728,-0.9623715281486511,-0.1113146841526031,0.2478916794061661,0,0,0,-1,169610.545928,3,1,1561841794.492427,1561841239.621676,42,1.91319,0,0,42.10339,0,0,1561841755.596066,169607.608943,0,0.005371094,75.19292,0,182478453,1,1,0.99,-19.04748,-29.74281,0
1561841794.612199,48,0,0,1561841793.998831,4.634625082839872,-74.15085090331188,2555.929,0.22,239.765625,4,10,-9999,1561841794.608446,-5.229408264160156,5.106777191162109,28.5592041015625,70.99010467529297,78.48321533203125,15,169610.912017,-0.94415283203125,0.2535247802734375,1.248275756835938,169610.912017,-1.705656940183746,0.1009740190464633,4.695503473809151,169610.900146,-79.77717590332031,-21.42666625976562,-534.1967163085938,169610.906951,1.207296718113132,-1.81607258507176,0.02950418789921095,-1.58771812915802,0.07735332101583481,4.617826461791992,0.08340227603912354,0.3756760656833649,1.018984913825989,1,0.4549004435539246,-0.6437584161758423,0.3396605551242828,0.513099730014801,-0.969648003578186,-0.02949990704655647,0.2427186220884323,0,0,0,-1,169610.545928,3,1,1561841794.492427,1561841239.621676,42,1.91319,0,0,42.10339,0,0,1561841755.596066,169607.608943,0,0.005371094,75.19292,0,182478453,1,1,0.99,-19.60476,-30.49396,0
1561841794.632041,49,0,0,1561841793.998831,4.634625082839872,-74.15085090331188,2555.929,0.22,239.765625,4,10,-9999,1561841794.608446,-5.229408264160156,5.106777191162109,28.5592041015625,70.99010467529297,78.48321533203125,15,169610.932281,-1.063873291015625,0.0551300048828125,1.206634521484375,169610.932281,-3.171805683524524,0.2334630874845973,5.034970226374936,169610.920257,-79.39469909667969,-21.69091796875,-534.29150390625,169610.927215,1.144525404765045,-1.814328839465863,-0.0545685794800642,-2.667106628417969,0.1967833042144775,4.936807632446289,-0.0397111177444458,0.09581857919692993,0.9951579570770264,1,0.4123142957687378,-0.6711062788963318,0.3515188694000244,0.5060114860534668,-0.969047486782074,0.05454150214791298,0.2407734394073486,0,0,0,-1,169610.545928,3,1,1561841794.492427,1561841239.621676,42,1.91319,0,0,42.10339,0,0,1561841755.596066,169607.608943,0,0.005371094,75.19292,0,182478453,1,1,0.99,-20.16204,-31.3518,0
1561841794.650184,50,0,0,1561841793.998831,4.634625082839872,-74.15085090331188,2555.929,0.22,239.765625,4,10,-9999,1561841794.634694,-4.818466186523438,4.222389221191406,28.96209716796875,76.18319702148438,83.67630767822266,15,169610.952544,-1.357345581054688,-0.15484619140625,1.118408203125,169610.952544,-6.005657289982429,0.8221314106290203,5.533372302267777,169610.940337,-78.68092346191406,-23.35089111328125,-533.6033935546875,169610.947478,1.04338638969891,-1.817884588621593,-0.1372928175147059,-5.186648845672607,0.5642486810684204,5.429032802581787,-0.2005519866943359,-0.200170636177063,0.927290678024292,1,0.3556506931781769,-0.7033154964447021,0.3524657487869263,0.5046065449714661,-0.9605045914649963,0.1368619054555893,0.2422802001237869,0,0,0,-1,169610.545928,3,1,1561841794.492427,1561841239.621676,42,1.91319,0,0,42.10339,0,0,1561841755.596066,169607.608943,0,0.005371094,75.19292,0,182478453,1,1,0.99,-19.25678,-23.04796,0
1561841794.67046,51,0,0,1561841793.998831,4.634625082839872,-74.15085090331188,2555.929,0.22,239.765625,4,10,-9999,1561841794.658627,-4.293266296386719,2.342287063598633,29.180419921875,85.95182800292969,93.44493865966797,15,169610.972808,-1.820587158203125,-0.322601318359375,0.9296875,169610.972808,-9.583445902722993,2.339090870723529,5.401126646753276,169610.960448,-78.69723510742188,-26.25389099121094,-533.7498779296875,169610.967742,0.8776545347295341,-1.823439994994436,-0.2111830178083153,-8.673440933227539,1.914946436882019,5.482734680175781,-0.6494171619415283,-0.4337073564529419,0.7922556400299072,1,0.2755927741527557,-0.7390901446342468,0.3341672122478485,0.5158745646476746,-0.9467437267303467,0.2096167802810669,0.2444112449884415,0,0,0,-1,169610.545928,3,1,1561841794.492427,1561841239.621676,42,1.91319,0,0,42.10339,0,0,1561841755.596066,169608.553018,0,0.005371094,75.19292,0,182478453,1,1,0.99,-12.6117,-17.60001,0
1561841794.69077,52,0,0,1561841793.998831,4.634625082839872,-74.15085090331188,2555.929,0.22,239.765625,4,10,-9999,1561841794.68509,-4.771041870117188,-1.231822967529297,29.145263671875,102.2077102661133,109.7008209228516,15,169610.993072,-2.391921997070312,-0.3669281005859375,0.5469818115234375,169610.993072,-13.18201995513941,3.249600880023483,4.480117657487903,169610.98056,-80.43806457519531,-31.07106018066406,-534.0174560546875,169610.988006,0.6377115872309715,-1.826585534365292,-0.2604152922137106,-12.37550163269043,3.185105562210083,4.851080417633057,-1.160996437072754,-0.6499684453010559,0.5452402830123901,1,0.1706745177507401,-0.7701359391212463,0.2875502705574036,0.5432085990905762,-0.9348439574241638,0.2574818730354309,0.244478315114975,0,0,0,-1,169610.545928,3,1,1561841794.492427,1561841239.621676,42,1.91319,0,0,42.10339,0,0,1561841755.596066,169608.553018,0,0.005371094,75.19292,0,182478453,1,1,0.99,-12.6117,-17.60001,0
1561841794.713778,53,0,0,1561841793.998831,4.634625082839872,-74.15085090331188,2555.929,0.22,239.765625,4,10,-9999,1561841794.711443,-8.836799621582031,-13.07114410400391,24.9639892578125,123.4992599487305,130.9923706054688,15,169611.013335,-2.702606201171875,-0.03082275390625,-0.083160400390625,169611.013335,-14.17649437360349,2.286753097400747,2.049771707800046,169611.000671,-82.50849914550781,-37.64431762695312,-536.3151245117188,169611.008239,0.3404803029764975,-1.842114554670331,-0.2655035376208971,-14.30309200286865,2.750592231750488,2.745300531387329,-1.664318323135376,-0.5054982304573059,-0.02243554592132568,1,0.05479287356138229,-0.7913932204246521,0.205461859703064,0.5731315612792969,-0.9296605587005615,0.2623952031135559,0.2586109638214111,0,0,0,-1,169610.545928,3,1,1561841794.492427,1561841239.621676,42,1.91319,0,0,42.10339,0,0,1561841755.596066,169608.553018,0,0.005371094,75.19292,0,182478453,1,1,0.99,-12.6117,-18.46061,0
1561841794.731413,54,0,0,1561841793.998831,4.634625082839872,-74.15085090331188,2555.929,0.22,239.765625,4,10,-9999,1561841794.711443,-8.836799621582031,-13.07114410400391,24.9639892578125,123.4992599487305,130.9923706054688,15,169611.033569,-2.7015380859375,0.399871826171875,-0.95477294921875,169611.033569,-10.88764062964111,-0.1278085628223198,-0.5630212828986328,169611.020782,-84.05082702636719,-43.92308044433594,-540.9069213867188,169611.028503,0.06096046891332564,-1.876872699521648,-0.2141140998980044,-12.1014518737793,0.38062584400177,0.009710571728646755,-1.808820605278015,0.009380966424942017,-0.8324333429336548,1,-0.03868406265974045,-0.803568959236145,0.104060485959053,0.5847665071487427,-0.9317494630813599,0.2124818414449692,0.2944390475749969,0,0,0,-1,169610.545928,3,1,1561841794.492427,1561841239.621676,42,1.91319,0,0,42.10339,0,0,1561841755.596066,169608.553018,0,0.005371094,75.19292,0,182478453,1,1,0.99,-12.6117,-17.36641,0
1561841794.751546,55,0,0,1561841793.998831,4.634625082839872,-74.15085090331188,2555.929,0.22,239.765625,4,10,-9999,1561841794.736013,-9.912574768066406,-18.86582946777344,20.743408203125,141.5415649414062,149.03466796875,15,169611.053832,-2.649017333984375,0.6392669677734375,-1.307754516601562,169611.053832,-5.069841657688433,-0.8257077696568876,-2.178357381028451,169611.040893,-83.81114196777344,-48.53579711914062,-544.8863525390625,169611.048766,-0.1162840809970933,-1.917665249601189,-0.133724765738266,-6.513376235961914,-0.9554982781410217,-1.850996136665344,-1.729102492332458,0.4360551238059998,-1.481588363647461,1,-0.08577477931976318,-0.8130821585655212,0.02128732576966286,0.5754015445709229,-0.9320456385612488,0.1333265751600266,0.3369198143482208,0,0,0,-1,169610.545928,3,1,1561841794.492427,1561841239.621676,42,1.91319,0,0,42.10339,0,0,1561841755.596066,169608.553018,0,0.005371094,75.19292,0,182478453,1,1,0.99,-11.64637,-11.64637,0
1561841794.771828,56,0,0,1561841793.998831,4.634625082839872,-74.15085090331188,2555.929,0.22,239.765625,4,10,-9999,1561841794.76214,-9.114021301269531,-22.68565368652344,17.23663330078125,149.0966033935547,156.5897064208984,15,169611.074096,-2.332412719726562,0.4811248779296875,-1.395217895507812,169611.074096,-1.175274560656797,1.668865103408192,-3.303235080164916,169611.061004,-82.49690246582031,-50.64122009277344,-546.9341430664062,169611.06903,-0.1735131154343318,-1.930082383180199,-0.05903153949571977,-1.806143045425415,0.8211838006973267,-3.055745601654053,-1.577262401580811,0.5086601972579956,-1.755107283592224,1,-0.08793985098600388,-0.8171678781509399,-0.02514494583010674,0.5690966248512268,-0.9345174431800842,0.0589972622692585,0.3509935140609741,0,0,0,-1,169610.545928,3,1,1561841794.492427,1561841239.621676,42,1.91319,0,0,42.10339,0,0,1561841755.596066,169608.553018,0,0.005371094,75.19292,0,182478453,1,1,0.99,-11.64637,-12.22191,0
1561841794.792136,57,0,0,1561841793.998831,4.634625082839872,-74.15085090331188,2555.929,0.22,239.765625,4,10,-9999,1561841794.786551,-7.678672790527344,-24.40840148925781,15.5924072265625,149.1940307617188,156.6871337890625,15,169611.0943757917,-2.049102783203125,0.4611663818359375,-1.141998291015625,169611.0943757917,-0.4111952681015425,4.708768146566618,-3.840644476544147,169611.081115,-81.35279846191406,-51.30738830566406,-547.8568725585938,169611.089294,-0.1673437366866943,-1.879095342414935,0.0137087043578586,-0.4515981376171112,4.131961345672607,-3.78939151763916,-1.237851142883301,0.4568387866020203,-1.61630654335022,1,-0.06343625485897064,-0.8047861456871033,-0.0548345260322094,0.5876123905181885,-0.9527615904808044,-0.01370827481150627,0.3034097850322723,0,0,0,-1,169610.545928,3,1,1561841794.492427,1561841239.621676,42,1.91319,0,0,42.10339,0,0,1561841755.596066,169608.553018,0,0.005371094,75.19292,0,182478453,1,1,0.99,-11.64637,-13.20626,0
1561841794.812312,58,0,0,1561841793.998831,4.634625082839872,-74.15085090331188,2555.929,0.22,239.765625,4,10,-9999,1561841794.786551,-7.678672790527344,-24.40840148925781,15.5924072265625,149.1940307617188,156.6871337890625,15,169611.1146387917,-1.739852905273438,0.5790557861328125,-0.670135498046875,169611.1146387917,0.001779790556499955,4.938169647072735,-3.746825838714509,169611.1012417917,-80.66413879394531,-52.2457275390625,-548.4290771484375,169611.1095727917,-0.1541766825296122,-1.780274506926938,0.09056621192263578,-0.17213374376297,5.158999443054199,-3.791104555130005,-0.9218805432319641,0.6179234981536865,-1.117543458938599,1,-0.031386598944664,-0.7762496471405029,-0.08349002152681351,0.624083936214447,-0.9741308093070984,-0.09044245630502701,0.2070972621440887,0,0,0,-1,169610.545928,3,1,1561841794.492427,1561841239.621676,42,1.91319,0,0,42.10339,0,0,1561841755.596066,169608.553018,0,0.005371094,75.19292,0,182478453,1,1,0.99,-11.64637,-14.27854,0
1561841794.832605,59,0,0,1561841793.998831,4.634625082839872,-74.15085090331188,2555.929,0.22,239.765625,4,10,-9999,1561841794.811052,-6.208541870117188,-25.66381072998047,13.927490234375,148.2505798339844,155.7436828613281,15,169611.1349027917,-1.438568115234375,0.5891571044921875,-0.389678955078125,169611.1349027917,0.7936102869348166,2.943052396427732,-3.727593554586393,169611.1213527917,-79.823974609375,-52.69841003417969,-549.3187866210938,169611.1298367917,-0.137585905396144,-1.691991279617636,0.1644452479646989,0.6147211194038391,3.495138645172119,-3.696438074111938,-0.5981195569038391,0.7585995197296143,-0.6080827713012695,1,0.003036152105778456,-0.7480805516242981,-0.1067585498094559,0.6549570560455322,-0.9792730212211609,-0.1637050807476044,0.1192674562335014,0,0,0,-1,169610.545928,3,1,1561841794.492427,1561841239.621676,42,1.91319,0,0,42.10339,0,0,1561841755.596066,169608.553018,0,0.005371094,75.19292,0,182478453,1,1,0.99,-11.64637,-14.27854,0
1561841794.852863,60,0,0,1561841793.998831,4.634625082839872,-74.15085090331188,2555.929,0.22,239.765625,4,10,-9999,1561841794.837366,-5.430587768554688,-26.25698852539062,13.3995361328125,146.8337554931641,154.3268585205078,15,169611.1551667917,-1.312850952148438,0.68511962890625,-0.36322021484375,169611.1551667917,1.278434236009889,1.213306631552001,-3.903492947741146,169611.1414637917,-79.09584045410156,-52.86529541015625,-549.2645874023438,169611.1501007917,-0.1110899476680516,-1.648009382485003,0.2391222488640921,1.177586674690247,1.50256359577179,-3.889536142349243,-0.3737097978591919,0.8487884402275085,-0.4311579465866089,1,0.04044700041413307,-0.7320073843002319,-0.124841071665287,0.6685386896133423,-0.9686515927314758,-0.2368499487638474,0.07494153827428818,0,0,0,-1,169610.545928,3,1,1561841794.492427,1561841239.621676,42,1.91319,0,0,42.10339,0,0,1561841755.596066,169608.553018,0,0.005371094,75.19292,0,182478453,1,1,0.99,-11.64637,-15.09777,0
1561841794.873131,61,0,0,1561841793.998831,4.634625082839872,-74.15085090331188,2555.929,0.22,239.765625,4,10,-9999,1561841794.863591,-4.206741333007812,-26.10039138793945,13.5682373046875,144.603271484375,152.0963745117188,15,169611.1754297917,-1.163589477539062,0.742828369140625,-0.476104736328125,169611.1754297917,1.697443751381942,1.046350665969953,-3.577096457173252,169611.1615747917,-77.43313598632812,-52.86146545410156,-548.6219482421875,169611.1703337917,-0.07653857546131476,-1.635480383415019,0.3151550597433795,1.583423972129822,0.9278447031974792,-3.736666440963745,-0.3035592436790466,1.038342237472534,-0.4726798534393311,1,0.07967013120651245,-0.7241411209106445,-0.1402506083250046,0.6705237627029419,-0.9487600922584534,-0.3099639117717743,0.0614553838968277,0,0,0,-1,169610.545928,3,1,1561841794.492427,1561841239.621676,42,1.91319,0,0,42.10339,0,0,1561841755.596066,169608.553018,0,0.005371094,75.19292,0,182478453,1,1,0.99,-11.64637,-16.20653,0
1561841794.895597,62,0,0,1561841793.998831,4.634625082839872,-74.15085090331188,2555.929,0.22,239.765625,4,10,-9999,1561841794.887526,-2.450912475585938,-26.24168395996094,14.18646240234375,141.6360778808594,149.1291809082031,15,169611.1956627917,-0.9769744873046875,0.83099365234375,-0.5810089111328125,169611.1956627917,2.08993510651564,1.951823306068021,-2.790653269364057,169611.1816857917,-75.93861389160156,-52.40370178222656,-547.8313598632812,169611.1905967917,-0.03361727761461589,-1.624564381601254,0.381296619966569,1.973313927650452,1.708394765853882,-2.980784177780151,-0.1581193804740906,1.154961109161377,-0.5731979608535767,1,0.1183457896113396,-0.7147975564002991,-0.1488792598247528,0.6729737520217896,-0.9268414974212646,-0.3721242845058441,0.04988254606723785,0,0,0,-1,169610.545928,3,1,1561841794.492427,1561841239.621676,42,1.91319,0,0,42.10339,0,0,1561841755.596066,169608.553018,0,0.005371094,75.19292,0,182478453,1,1,0.99,-11.64637,-16.872,0
1561841794.913694,63,0,0,1561841793.998831,4.634625082839872,-74.15085090331188,2555.929,0.22,239.765625,4,10,-9999,1561841794.912589,-0.6269454956054688,-25.31580352783203,16.11407470703125,137.7065887451172,145.1996917724609,15,169611.2159267917,-0.793365478515625,0.9099578857421875,-0.55859375,169611.2159267917,3.100850816285434,2.438320785572099,-2.18372897694714,169611.2017667917,-74.98414611816406,-51.92230224609375,-547.2158203125,169611.2108607917,0.01950348951540264,-1.602696612823318,0.4326437636623022,2.753481864929199,2.412028312683105,-2.322941064834595,0.04922890663146973,1.283957481384277,-0.6326242685317993,1,0.1561666429042816,-0.7000643014907837,-0.1475401073694229,0.6809946894645691,-0.9073984622955322,-0.4192724227905273,0.0289560928940773,0,0,0,-1,169610.545928,3,1,1561841794.492427,1561841239.621676,42,1.91319,0,0,42.10339,0,0,1561841755.596066,169608.553018,0,0.005371094,75.19292,0,182478453,1,1,0.99,-11.64637,-17.17743,0
1561841794.934102,64,0,0,1561841793.998831,4.634625082839872,-74.15085090331188,2555.929,0.22,239.765625,4,10,-9999,1561841794.912589,-0.6269454956054688,-25.31580352783203,16.11407470703125,137.7065887451172,145.1996917724609,15,169611.2361907917,-0.790435791015625,1.04718017578125,-0.3995513916015625,169611.2361907917,5.028926981229328,1.991591225361739,-1.912932365721267,169611.2218777917,-74.75997924804688,-51.23695373535156,-545.9282836914062,169611.2311247917,0.1006328965326262,-1.590654022554172,0.4732727999107796,4.477268695831299,2.165172815322876,-1.920450925827026,0.1091593503952026,1.432883024215698,-0.5093271732330322,1,0.1988227367401123,-0.6850594282150269,-0.1329677551984787,0.6881007552146912,-0.8899058103561401,-0.455801784992218,0.0176738016307354,0,0,0,-1,169610.545928,3,1,1561841794.492427,1561841239.621676,42,1.91319,0,0,42.10339,0,0,1561841755.596066,169608.553018,0,0.005371094,75.19292,0,182478453,1,1,0.99,-11.64637,-14.01707,0
1561841794.957916,65,0,0,1561841793.998831,4.634625082839872,-74.15085090331188,2555.929,0.22,239.765625,4,10,-9999,1561841794.938671,-0.4136734008789062,-24.0267333984375,17.79742431640625,130.8593139648438,138.3524169921875,15,169611.2564537917,-0.7960052490234375,1.135482788085938,-0.094390869140625,169611.2564537917,7.597644922203304,1.147385937721488,-2.349628999156973,169611.2419887917,-74.35554504394531,-49.53094482421875,-543.5843505859375,169611.2513877917,0.231731703164272,-1.616941113809904,0.5103924579731041,6.905083179473877,1.330777168273926,-2.200392961502075,0.05477523803710938,1.598886489868164,-0.3132902383804321,1,0.2540669441223145,-0.6749627590179443,-0.1040921211242676,0.6848649978637695,-0.8716239929199219,-0.4885197281837463,0.04024947807192802,0,0,0,-1,169610.545928,3,1,1561841794.492427,1561841239.621676,42,1.91319,0,0,42.10339,0,0,1561841755.596066,169608.553018,0,0.005371094,75.19292,0,182478453,1,1,0.99,-11.64637,-14.85383,0
1561841794.974378,66,0,0,1561841793.998831,4.634625082839872,-74.15085090331188,2555.929,0.22,239.765625,4,10,-9999,1561841794.962729,0.03525543212890625,-22.03579330444336,20.08624267578125,118.7807922363281,126.2739028930664,15,169611.2767177917,-0.72119140625,1.183578491210938,0.3563385009765625,169611.2767177917,10.10867559817286,0.6259682910559637,-2.975780249379825,169611.2620997917,-73.92851257324219,-46.60154724121094,-540.57470703125,169611.2716517917,0.4302093092355882,-1.697056980458859,0.547095938606213,9.57242488861084,0.72984778881073,-2.832428455352783,0.08707815408706665,1.66825008392334,0.03155386447906494,1,0.3286748826503754,-0.6676416993141174,-0.06216153502464294,0.6651040315628052,-0.8472405076026917,-0.5202092528343201,0.1075452342629433,0,0,0,-1,169610.545928,3,1,1561841794.492427,1561841239.621676,42,1.91319,0,0,42.10339,0,0,1561841755.596066,169608.553018,0,0.005371094,75.19292,0,182478453,1,1,0.99,-11.64637,-15.9364,0
1561841794.994796,67,0,0,1561841793.998831,4.634625082839872,-74.15085090331188,2555.929,0.22,239.765625,4,10,-9999,1561841794.989527,0.5166091918945312,-18.66059875488281,23.18603515625,100.8368530273438,108.329963684082,15,169611.2969817917,-0.5809173583984375,1.295120239257812,0.7248077392578125,169611.2969817917,11.40408189349371,0.1476696192838037,-3.166323033788378,169611.2822107917,-73.24404907226562,-42.11912536621094,-537.1631469726562,169611.2919157917,0.6902714082018273,-1.824950241227408,0.5684268865937846,11.1976261138916,0.2795138955116272,-3.225521564483643,0.1557950973510742,1.767417669296265,0.3202760219573975,1,0.4183163642883301,-0.6564725041389465,-0.01004451233893633,0.6276578307151794,-0.8156766295433044,-0.5383069515228271,0.211889460682869,0,0,0,-1,169610.545928,3,1,1561841794.492427,1561841239.621676,42,1.91319,0,0,42.10339,0,0,1561841755.596066,169608.553018,0,0.005371094,75.19292,0,182478453,1,1,0.99,-11.64637,-15.9364,0
1561841795.01494,68,0,0,1561841793.998831,4.634625082839872,-74.15085090331188,2555.929,0.22,239.765625,4,10,-9999,1561841795.013351,1.840461730957031,-7.715579986572266,28.3226318359375,80.92677307128906,88.41988372802734,15,169611.3172447917,-0.2958984375,1.429885864257812,1.158981323242188,169611.3172447917,10.93098837007211,-0.9026773862179217,-2.152597955384659,169611.3023217917,-72.63870239257812,-36.20651245117188,-534.8902587890625,169611.3121797917,0.9712562804179836,-1.976619634437174,0.5503198529872483,11.2717399597168,-0.5685718655586243,-2.470562219619751,0.3084869384765625,1.914164662361145,0.6353120803833008,1,0.5073125958442688,-0.6409982442855835,0.04644537344574928,0.5741062760353088,-0.7831268906593323,-0.5229598879814148,0.3364896476268768,0,0,0,-1,169610.545928,3,1,1561841794.492427,1561841239.621676,42,1.91319,0,0,42.10339,0,0,1561841755.596066,169608.553018,0,0.005371094,75.19292,0,182478453,1,1,0.99,-11.64637,-16.80645,0
1561841795.035233,69,0,0,1561841793.998831,4.634625082839872,-74.15085090331188,2555.929,0.22,239.765625,4,10,-9999,1561841795.013351,1.840461730957031,-7.715579986572266,28.3226318359375,80.92677307128906,88.41988372802734,15,169611.3375087917,0.059356689453125,1.309967041015625,1.347305297851562,169611.3375087917,8.587416730814523,-1.158682800749495,-1.094147217001932,169611.3224327917,-71.87094116210938,-29.90301513671875,-533.7144165039062,169611.3324127917,1.206767639591881,-2.116848759569657,0.4877372988679047,9.281876564025879,-1.370131254196167,-1.33972442150116,0.6669967174530029,1.851455926895142,0.7778551578521729,1,0.5774027705192566,-0.629275381565094,0.09666016697883606,0.5111509561538696,-0.7549331188201904,-0.4686282277107239,0.4587629437446594,0,0,0,-1,169610.545928,3,1,1561841794.492427,1561841239.621676,42,1.91319,0,0,42.10339,0,0,1561841755.596066,169608.553018,0,0.005371094,75.19292,0,182478453,1,1,0.99,-11.64637,-17.61631,0
1561841795.055482,70,0,0,1561841794.998821,4.63461447973236,-74.15085442371121,2555.978,0.22,225.3515625,4,10,-9999,1561841795.039506,2.541458129882812,-1.754709243774414,28.9786376953125,65.79901123046875,73.29212188720703,15,169611.3577417917,0.17071533203125,1.243789672851562,1.525787353515625,169611.3577417917,4.827080675890042,0.7956577251808695,0.07128936027200411,169611.3425437917,-71.44538879394531,-24.96751403808594,-533.9146728515625,169611.3526757917,1.36146693483036,-2.199271579539676,0.4146600842176594,5.880300521850586,0.2176089584827423,-0.2619235813617706,0.8791804313659668,1.659196019172668,0.9309971332550049,1,0.6213914155960083,-0.6188028454780579,0.137025773525238,0.4606297314167023,-0.7403712272644043,-0.4028788506984711,0.5380885004997253,0,0,0,-1,169610.545928,3,1,1561841794.492427,1561841239.621676,42,1.91319,0,0,42.10339,0,0,1561841755.596066,169608.553018,0,0.005371094,75.19292,0,182478453,1,1,0.99,-11.64637,-18.37862,0
1561841795.075613,71,0,0,1561841794.998821,4.63461447973236,-74.15085442371121,2555.978,0.22,225.3515625,4,10,-9999,1561841795.067911,2.855758666992188,2.844194412231445,28.91876220703125,58.52879333496094,66.02190399169922,15,169611.3780057917,0.21295166015625,1.253250122070312,1.62518310546875,169611.3780057917,1.119031794227632,2.551439618137651,1.676780018167908,169611.3626557917,-71.89889526367188,-21.923095703125,-534.2063598632812,169611.3729397917,1.423166644578687,-2.196149934635182,0.361644351895271,1.881308078765869,2.289510250091553,1.22305154800415,0.9530003070831299,1.606421947479248,1.02213716506958,1,0.6339496970176697,-0.6098092794418335,0.1712252050638199,0.4437592923641205,-0.7583134174346924,-0.3538126945495605,0.5475191473960876,0,0,0,-1,169610.545928,3,1,1561841794.492427,1561841239.621676,42,1.91319,0,0,42.10339,0,0,1561841755.596066,169608.553018,0,0.005371094,75.19292,0,182478453,1,1,0.99,-11.64637,-19.12661,0
1561841795.105346,72,0,0,1561841794.998821,4.63461447973236,-74.15085442371121,2555.978,0.22,225.3515625,4,10,-9999,1561841795.090066,0.9344482421875,5.779106140136719,28.5721435546875,58.74141693115234,66.23452758789062,15,169611.3982697917,0.1338043212890625,1.189682006835938,1.609298706054688,169611.3982697917,-0.4503272245269488,2.191954948922177,3.452989954582251,169611.3827667917,-73.26908874511719,-20.81291198730469,-534.0398559570312,169611.3932037917,1.408442798356355,-2.139939232597398,0.3186725882052952,-0.2636157274246216,2.446085453033447,3.02877950668335,0.982035219669342,1.553769469261169,1.118685245513916,1,0.618791401386261,-0.6107257008552551,0.2008624523878098,0.4514041244983673,-0.7999520897865295,-0.3133062720298767,0.5117773413658142,0,0,0,-1,169610.545928,3,1,1561841794.492427,1561841239.621676,42,1.91319,0,0,42.10339,0,0,1561841755.596066,169608.553018,0,0.005371094,75.19292,0,182478453,1,1,0.99,-11.64637,-20.20295,0
1561841795.116189,73,0,0,1561841794.998821,4.63461447973236,-74.15085442371121,2555.978,0.22,225.3515625,4,10,-9999,1561841795.114528,0.5957107543945312,5.845901489257812,28.68084716796875,62.34710693359375,69.84021759033203,15,169611.4185327917,-0.117889404296875,1.027053833007812,1.480209350585938,169611.4185327917,-0.4415696855983322,0.855598823415828,4.599243516208237,169611.4028467917,-73.82858276367188,-20.68370056152344,-534.12890625,169611.4134667917,1.358417861811155,-2.088713170363913,0.2580038865751724,-0.5258095264434814,1.131702423095703,4.402497291564941,0.8746403455734253,1.361825227737427,1.085951209068298,1,0.5889036655426025,-0.6265261173248291,0.2264687269926071,0.457569032907486,-0.8400944471359253,-0.2551510035991669,0.4786849915981293,0,0,0,-1,169610.545928,3,1,1561841794.492427,1561841239.621676,42,1.91319,0,0,42.10339,0,0,1561841755.596066,169608.553018,0,0.005371094,75.19292,0,182478453,1,1,0.99,-11.64637,-21.15067,0
1561841795.136497,74,0,0,1561841794.998821,4.63461447973236,-74.15085442371121,2555.978,0.22,225.3515625,4,10,-9999,1561841795.114528,0.5957107543945312,5.845901489257812,28.68084716796875,62.34710693359375,69.84021759033203,15,169611.4387967917,-0.4590606689453125,0.9217681884765625,1.4052734375,169611.4387967917,-0.2898536593542622,0.3295523364596373,4.997018050312435,169611.4229577917,-73.90705871582031,-21.13343811035156,-534.1314697265625,169611.4337307917,1.304592734240164,-2.063122121648377,0.1778982461340581,-0.2492745965719223,0.3908377289772034,4.932117462158203,0.5865814685821533,1.151784420013428,0.9666831493377686,1,0.5550681352615356,-0.651542603969574,0.2498798966407776,0.4527157545089722,-0.8673279285430908,-0.1769613772630692,0.4652167856693268,0,0,0,-1,169610.545928,3,1,1561841794.492427,1561841239.621676,42,1.91319,0,0,42.10339,0,0,1561841755.596066,169608.553018,0,0.005371094,75.19292,0,182478453,1,1,0.99,-11.64637,-22.2091,0
1561841795.156697,75,0,0,1561841794.998821,4.63461447973236,-74.15085442371121,2555.978,0.22,225.3515625,4,10,-9999,1561841795.140746,0.623138427734375,5.595815658569336,28.9449462890625,66.17410278320312,73.66721343994141,15,169611.4590607917,-0.8001251220703125,0.7809600830078125,1.362350463867188,169611.4590607917,-1.06592356840149,0.4181972512395788,5.28180264884784,169611.4430687917,-73.51087951660156,-21.18844604492188,-534.0331420898438,169611.4539947917,1.24846228198674,-2.049385160651376,0.09159797267954457,-0.7812423706054688,0.3244142532348633,5.177159309387207,0.2596569061279297,0.944955050945282,0.9195926189422607,1,0.5182345509529114,-0.6787717938423157,0.2714890837669373,0.4438416957855225,-0.8839244842529297,-0.09146993607282639,0.458596408367157,0,0,0,-1,169610.545928,3,1,1561841794.492427,1561841239.621676,42,1.91319,0,0,42.10339,0,0,1561841755.596066,169608.553018,0,0.005371094,75.19292,0,182478453,1,1,0.99,-11.64637,-22.2091,0
1561841795.195545,76,0,0,1561841794.998821,4.63461447973236,-74.15085442371121,2555.978,0.22,225.3515625,4,10,-9999,1561841795.19209,1.2828369140625,2.483631134033203,29.6468505859375,78.59568023681641,86.08879089355469,15,169611.4793237917,-1.104232788085938,0.595458984375,1.308685302734375,169611.4793237917,-2.835884663634071,1.198063496420714,5.818503111744892,169611.4631797917,-72.94740295410156,-21.61270141601562,-533.8330078125,169611.4742577917,1.172156855402421,-2.034296385574029,0.007330501081036029,-2.297152280807495,0.9271898865699768,5.683855533599854,-0.06253159046173096,0.6901764869689941,0.898923397064209,1,0.4720743298530579,-0.7075878977775574,0.2882162630558014,0.4397687911987305,-0.894469141960144,-0.007330435328185558,0.4470696151256561,0,0,0,-1,169610.545928,3,1,1561841794.492427,1561841239.621676,42,1.91319,0,0,42.10339,0,0,1561841755.596066,169608.553018,0,0.005371094,75.19292,0,182478453,1,1,0.99,-11.64637,-23.22699,0
1561841795.197287,77,0,0,1561841794.998821,4.63461447973236,-74.15085442371121,2555.978,0.22,225.3515625,4,10,-9999,1561841795.19209,1.2828369140625,2.483631134033203,29.6468505859375,78.59568023681641,86.08879089355469,15,169611.4995877917,-1.374526977539062,0.3891754150390625,1.239776611328125,169611.4995877917,-5.360134738622558,2.343966586047246,6.305216040981158,169611.4832917917,-72.78147888183594,-23.34564208984375,-533.2943725585938,169611.4944917917,1.056755641552242,-2.008134896323267,-0.0700782881406997,-4.71668529510498,2.080514430999756,6.1596999168396,-0.3262454271316528,0.4393632113933563,0.8537088632583618,1,0.4088137447834015,-0.7376425862312317,0.2960149943828583,0.4484751224517822,-0.9036586880683899,0.07002094388008118,0.4224905371665955,0,0,0,-1,169610.545928,3,1,1561841794.492427,1561841239.621676,42,1.91319,0,0,42.10339,0,0,1561841755.596066,169608.553018,0,0.005371094,75.19292,0,182478453,1,1,0.99,-11.64637,-23.22699,0
1561841795.217496,78,0,0,1561841794.998821,4.63461447973236,-74.15085442371121,2555.978,0.22,225.3515625,4,10,-9999,1561841795.215868,0.1533126831054688,-0.6656990051269531,29.758056640625,90.58629608154297,98.07940673828125,15,169611.5198207917,-1.8543701171875,0.1350555419921875,1.117172241210938,169611.5198207917,-7.533029177306929,2.843185453446415,6.536682023964305,169611.5034027917,-73.482177734375,-25.98576354980469,-533.2744140625,169611.5147547917,0.8924031030323644,-1.975002875986191,-0.1396165320955035,-7.104425430297852,2.785658359527588,6.590346813201904,-0.6886832118034363,0.1244169473648071,0.8024168014526367,1,0.3246541619300842,-0.7676789164543152,0.2896229028701782,0.4705182313919067,-0.9104683995246887,0.1391633898019791,0.3894625008106232,0,0,0,-1,169610.545928,3,1,1561841794.492427,1561841239.621676,42,1.91319,0,0,42.10339,0,0,1561841755.596066,169608.553018,0,0.005371094,75.19292,0,182478453,1,1,0.99,-11.64637,-18.27025,0
1561841795.237982,79,0,0,1561841794.998821,4.63461447973236,-74.15085442371121,2555.978,0.22,225.3515625,4,10,-9999,1561841795.215868,0.1533126831054688,-0.6656990051269531,29.758056640625,90.58629608154297,98.07940673828125,15,169611.5400847917,-2.219558715820312,-0.1656341552734375,0.9452362060546875,169611.5400847917,-8.347666718944575,2.83061826257844,5.246069418605592,169611.5234827917,-75.43400573730469,-30.11122131347656,-533.5633544921875,169611.5350187917,0.6949773564993827,-1.950794176730477,-0.197130727384548,-8.251484870910645,2.865471601486206,5.704361915588379,-1.16266918182373,-0.2122291028499603,0.6750530004501343,1,0.2286798506975174,-0.7934563159942627,0.2666630148887634,0.4970146417617798,-0.9106797575950623,0.195856437087059,0.3637348115444183,0,0,0,-1,169610.545928,3,1,1561841794.492427,1561841239.621676,42,1.91319,0,0,42.10339,0,0,1561841755.596066,169608.553018,0,0.005371094,75.19292,0,182478453,1,1,0.99,-11.64637,-19.29721,0
1561841795.272699,80,0,0,1561841794.998821,4.63461447973236,-74.15085442371121,2555.978,0.22,225.3515625,4,10,-9999,1561841795.266887,-3.766021728515625,-9.242813110351562,27.85528564453125,118.2653198242188,125.758430480957,15,169611.5603477917,-2.3443603515625,-0.2920379638671875,0.5171051025390625,169611.5603477917,-8.222899752403235,1.821388333778666,3.195882790307713,169611.5435937917,-77.41510009765625,-34.25291442871094,-534.3473510742188,169611.5552827917,0.4977938472410299,-1.939089071703726,-0.2244342149919581,-8.342743873596191,2.187880516052246,3.690189838409424,-1.362213850021362,-0.4803062677383423,0.4185526371002197,1,0.1404638588428497,-0.8097943067550659,0.2279668748378754,0.5220479965209961,-0.9095451831817627,0.2225548028945923,0.3509938418865204,0,0,0,-1,169610.545928,3,1,1561841794.492427,1561841239.621676,42,1.91319,0,0,42.10339,0,0,1561841755.596066,169608.553018,0,0.005371094,75.19292,0,182478453,1,1,0.99,-11.64637,-20.20333,0
1561841795.279319,81,0,0,1561841794.998821,4.63461447973236,-74.15085442371121,2555.978,0.22,225.3515625,4,10,-9999,1561841795.266887,-3.766021728515625,-9.242813110351562,27.85528564453125,118.2653198242188,125.758430480957,15,169611.5806117917,-2.3956298828125,-0.3436737060546875,0.0276336669921875,169611.5806117917,-7.410052920282559,0.6795476300789409,1.343074215672183,169611.5637047917,-79.51324462890625,-38.82046508789062,-535.9708251953125,169611.5755457917,0.3218641956726253,-1.948305235268804,-0.2167526844419101,-7.633504867553711,0.8458427786827087,1.779259324073792,-1.51666533946991,-0.5408955812454224,-0.1029161214828491,1,0.07178675383329391,-0.8214846849441528,0.177824929356575,0.5370174646377563,-0.9078341722488403,0.2150594294071198,0.3599808514118195,0,0,0,-1,169610.545928,3,1,1561841794.492427,1561841239.621676,42,1.91319,0,0,42.10339,0,0,1561841755.596066,169608.553018,0,0.005371094,75.19292,0,182478453,1,1,0.99,-11.64637,-21.29088,0
1561841795.298649,82,0,0,1561841794.998821,4.63461447973236,-74.15085442371121,2555.978,0.22,225.3515625,4,10,-9999,1561841795.293262,-5.834953308105469,-16.76555633544922,23.79656982421875,129.0495910644531,136.5426940917969,15,169611.6008757917,-2.25457763671875,-0.2919158935546875,-0.3493804931640625,169611.6008757917,-6.38836578916783,0.4762408471978558,-0.05412608599477044,169611.5838157917,-80.18624877929688,-42.30380249023438,-538.3050537109375,169611.5958097917,0.1769560319732368,-1.964900160291448,-0.1801483785972804,-6.676911354064941,0.4877823889255524,0.2436077445745468,-1.405657768249512,-0.4986793398857117,-0.5507405996322632,1,0.0234802383929491,-0.8296578526496887,0.1233763247728348,0.5439621210098267,-0.9083986878395081,0.1791755557060242,0.3777669370174408,0,0,0,-1,169610.545928,3,1,1561841794.492427,1561841239.621676,42,1.91319,0,0,42.10339,0,0,1561841755.596066,169608.553018,0,0.005371094,75.19292,0,182478453,1,1,0.99,-11.64637,-21.99208,0
1561841795.319378,83,0,0,1561841794.998821,4.63461447973236,-74.15085442371121,2555.978,0.22,225.3515625,4,10,-9999,1561841795.317064,-5.895225524902344,-19.63617706298828,21.6304931640625,136.9344329833984,144.4275360107422,15,169611.6211387917,-2.141372680664062,-0.2800140380859375,-0.6036529541015625,169611.6211387917,-5.191551315298362,0.6987175962375493,-1.066021306413496,169611.6039277917,-80.33114624023438,-45.38348388671875,-540.6202392578125,169611.6160737917,0.06446575255618291,-1.972147621260778,-0.1262850700720152,-5.48039436340332,0.5861377120018005,-0.8378881216049194,-1.29314112663269,-0.4035223126411438,-0.8872770071029663,1,-0.007991746999323368,-0.8328937292098999,0.07034303992986679,0.548886239528656,-0.9132034778594971,0.1259496808052063,0.3875516653060913,0,0,0,-1,169610.545928,3,1,1561841794.492427,1561841239.621676,42,1.91319,0,0,42.10339,0,0,1561841755.596066,169608.553018,0,0.005371094,75.19292,0,182478453,1,1,0.99,-11.64637,-21.99208,0
1561841795.346173,84,0,0,1561841794.998821,4.63461447973236,-74.15085442371121,2555.978,0.22,225.3515625,4,10,-9999,1561841795.343948,-5.606964111328125,-21.76416397094727,19.626953125,142.3524322509766,149.8455352783203,15,169611.6414027917,-2.017044067382812,-0.238494873046875,-0.703155517578125,169611.6414027917,-4.344473009474134,1.165215534903459,-1.974755253582476,169611.6240387917,-80.09442138671875,-47.65263366699219,-542.564697265625,169611.6363367917,-0.01846142132247372,-1.963443978746248,-0.06306061111038261,-4.525359630584717,1.067047595977783,-1.748969912528992,-1.154307246208191,-0.3310852348804474,-1.045846343040466,1,-0.02518532425165176,-0.8308449983596802,0.02108469419181347,0.5555338263511658,-0.9220629334449768,0.06301882117986679,0.3818754255771637,0,0,0,-1,169610.545928,3,1,1561841794.492427,1561841239.621676,42,1.91319,0,0,42.10339,0,0,1561841755.596066,169608.553018,0,0.005371094,75.19292,0,182478453,1,1,0.99,-11.64637,-17.38764,0
1561841795.36102,85,0,0,1561841794.998821,4.63461447973236,-74.15085442371121,2555.978,0.22,225.3515625,4,10,-9999,1561841795.343948,-5.606964111328125,-21.76416397094727,19.626953125,142.3524322509766,149.8455352783203,15,169611.6616667917,-1.886703491210938,-0.17645263671875,-0.71435546875,169611.6616667917,-3.619094507563802,1.587229095985122,-2.921645907585675,169611.6441187917,-79.79432678222656,-49.77474975585938,-544.8564453125,169611.6565697917,-0.08002978520278972,-1.939916156501736,0.009916783122779393,-3.79635763168335,1.449985384941101,-2.684223890304565,-1.023867130279541,-0.1950241774320602,-1.089811444282532,1,-0.0301966555416584,-0.8243037462234497,-0.02670216746628284,0.5647110939025879,-0.9325995445251465,-0.009916620329022408,0.3607770204544067,0,0,0,-1,169610.545928,3,1,1561841794.492427,1561841239.621676,42,1.91319,0,0,42.10339,0,0,1561841755.596066,169608.553018,0,0.005371094,75.19292,0,182478453,1,1,0.99,-11.64637,-17.38764,0
1561841795.379559,86,0,0,1561841794.998821,4.63461447973236,-74.15085442371121,2555.978,0.22,225.3515625,4,10,-9999,1561841795.367875,-5.04827880859375,-23.62956237792969,17.5113525390625,146.0097503662109,153.5028533935547,15,169611.6818997917,-1.684783935546875,-0.0630035400390625,-0.653289794921875,169611.6818997917,-3.004883806404429,2.186100788213965,-3.683757390411471,169611.6642297917,-78.81846618652344,-51.03050231933594,-546.7548217773438,169611.6768337917,-0.1240377038902075,-1.902618719283286,0.09385877259994488,-3.14789080619812,2.034368991851807,-3.547580718994141,-0.8525494933128357,-0.03448332101106644,-1.008414745330811,1,-0.02322070300579071,-0.8134046792984009,-0.07406787574291229,0.5764960646629333,-0.9412890076637268,-0.09372102469205856,0.3243327438831329,0,0,0,-1,169610.545928,3,1,1561841794.492427,1561841239.621676,42,1.91319,0,0,42.10339,0,0,1561841755.596066,169608.553018,0,0.005371094,75.19292,0,182478453,1,1,0.99,-11.64637,-18.00243,0
1561841795.399851,87,0,0,1561841794.998821,4.63461447973236,-74.15085442371121,2555.978,0.22,225.3515625,4,10,-9999,1561841795.394468,-3.048286437988281,-26.27008438110352,13.99853515625,148.4659576416016,155.9590606689453,15,169611.7021637917,-1.50042724609375,0.1030120849609375,-0.5907135009765625,169611.7021637917,-2.481217386514442,2.634451414579857,-3.843416560922811,169611.6843407917,-77.92507934570312,-52.54258728027344,-548.3809814453125,169611.6970977917,-0.1568128156935946,-1.851605127864714,0.1839769096529817,-2.604751586914062,2.527175903320312,-3.856836318969727,-0.6395660638809204,0.206652969121933,-0.8935955762863159,1,-0.007270790170878172,-0.7976058721542358,-0.1200691983103752,0.5910630226135254,-0.9446166753768921,-0.182940810918808,0.2724559903144836,0,0,0,-1,169610.545928,3,1,1561841794.492427,1561841239.621676,42,1.91319,0,0,42.10339,0,0,1561841755.596066,169608.553018,0,0.005371094,75.19292,0,182478453,1,1,0.99,-11.64637,-18.9054,0
1561841795.42272,88,0,0,1561841794.998821,4.63461447973236,-74.15085442371121,2555.978,0.22,225.3515625,4,10,-9999,1561841795.41847,-1.246978759765625,-26.93473052978516,12.4351806640625,150.5195617675781,158.0126647949219,15,169611.7224267917,-1.405654907226562,0.2122344970703125,-0.5562286376953125,169611.7224267917,-2.163396540972713,2.933017339124204,-3.720342832202543,169611.7044517917,-76.15489196777344,-53.12078857421875,-549.9755249023438,169611.7173607917,-0.1854172445424737,-1.790060285797635,0.2709350828359536,-2.234826326370239,2.886866569519043,-3.752522945404053,-0.496696949005127,0.4239130616188049,-0.7736177444458008,1,0.01254407130181789,-0.777580201625824,-0.1622953414916992,0.6073481440544128,-0.9404520988464355,-0.2676325142383575,0.2095766514539719,0,0,0,-1,169610.545928,3,1,1561841794.492427,1561841239.621676,42,1.91319,0,0,42.10339,0,0,1561841755.596066,169608.553018,0,0.005371094,75.19292,0,182478453,1,1,0.99,-11.64637,-19.66724,0
1561841795.440341,89,0,0,1561841794.998821,4.63461447973236,-74.15085442371121,2555.978,0.22,225.3515625,4,10,-9999,1561841795.41847,-1.246978759765625,-26.93473052978516,12.4351806640625,150.5195617675781,158.0126647949219,15,169611.7426907917,-1.380874633789062,0.312042236328125,-0.5869293212890625,169611.7426907917,-1.60446347666346,2.826449350208029,-3.69620260850152,169611.7245637917,-74.9775390625,-53.73483276367188,-551.2025756835938,169611.7376247917,-0.2139065484090736,-1.722340681008733,0.3525464382787774,-1.808367133140564,2.863906383514404,-3.689689874649048,-0.4627015590667725,0.610349178314209,-0.711656928062439,1,0.03387820720672607,-0.7547796368598938,-0.2007451504468918,0.6235873699188232,-0.9277403354644775,-0.3452887535095215,0.1416800618171692,0,0,0,-1,169610.545928,3,1,1561841794.492427,1561841239.621676,42,1.91319,0,0,42.10339,0,0,1561841755.596066,169608.553018,0,0.005371094,75.19292,0,182478453,1,1,0.99,-11.64637,-20.39685,0
1561841795.461011,90,0,0,1561841794.998821,4.63461447973236,-74.15085442371121,2555.978,0.22,225.3515625,4,10,-9999,1561841795.444853,0.0056610107421875,-27.44989395141602,11.25909423828125,152.4383239746094,159.9314270019531,15,169611.7629547917,-1.384185791015625,0.4745330810546875,-0.6307220458984375,169611.7629547917,-0.6591707193143086,2.844755919541234,-3.766958537607181,169611.7446747917,-73.35426330566406,-54.23538208007812,-552.212890625,169611.7578887917,-0.2339457630063296,-1.65786850359771,0.4308014391928914,-0.8928940892219543,2.801873922348022,-3.762767314910889,-0.4820789694786072,0.8045620918273926,-0.6752079725265503,1,0.05937933921813965,-0.7321081757545471,-0.233525812625885,0.637147843837738,-0.9051890969276428,-0.4175991415977478,0.07901657372713089,0,0,0,-1,169610.545928,3,1,1561841794.492427,1561841239.621676,42,1.91319,0,0,42.10339,0,0,1561841755.596066,169608.553018,0,0.005371094,75.19292,0,182478453,1,1,0.99,-11.64637,-21.38586,0
1561841795.48089,91,0,0,1561841794.998821,4.63461447973236,-74.15085442371121,2555.978,0.22,225.3515625,4,10,-9999,1561841795.468998,1.333000183105469,-27.88409042358398,10.47735595703125,153.2618713378906,160.7549743652344,15,169611.7832177917,-1.293731689453125,0.5763092041015625,-0.7798919677734375,169611.7832177917,0.2812915964496574,3.140722066229446,-3.582343683469035,169611.7647857917,-72.16636657714844,-54.35475158691406,-552.7122802734375,169611.7781517917,-0.2389847076019331,-1.597034124234198,0.5071205761275915,0.02444562502205372,3.023549795150757,-3.668909549713135,-0.4840035438537598,1.020528554916382,-0.7273092269897461,1,0.0911276638507843,-0.7093393206596375,-0.2589297592639923,0.649221658706665,-0.8738455772399902,-0.4856622219085693,0.02293304540216923,0,0,0,-1,169610.545928,3,1,1561841794.492427,1561841239.621676,42,1.91319,0,0,42.10339,0,0,1561841755.596066,169608.553018,0,0.005371094,75.19292,0,182478453,1,1,0.99,-11.64637,-21.38586,0
1561841795.503444,92,0,0,1561841794.998821,4.63461447973236,-74.15085442371121,2555.978,0.22,225.3515625,4,10,-9999,1561841795.495473,4.1580810546875,-27.68595504760742,10.344970703125,152.5699768066406,160.0630798339844,15,169611.8034817917,-1.0731201171875,0.6513671875,-0.81109619140625,169611.8034817917,1.50129554551099,3.425317047695238,-3.054679858782839,169611.7848967917,-70.6190185546875,-54.40467834472656,-552.8060302734375,169611.7984157917,-0.2258264891325296,-1.538502369577908,0.5775757748095823,1.150809645652771,3.387717962265015,-3.221046686172485,-0.3537949323654175,1.15453028678894,-0.7755614519119263,1,0.1281698197126389,-0.6855998039245605,-0.2744341790676117,0.6619753241539001,-0.83735191822052,-0.5459945797920227,-0.02705081179738045,0,0,0,-1,169610.545928,3,1,1561841794.492427,1561841239.621676,42,1.91319,0,0,42.10339,0,0,1561841755.596066,169608.553018,0,0.005371094,75.19292,0,182478453,1,1,0.99,-11.64637,-21.77418,0
1561841795.521389,93,0,0,1561841794.998821,4.63461447973236,-74.15085442371121,2555.978,0.22,225.3515625,4,10,-9999,1561841795.519636,5.09661865234375,-26.77275848388672,11.5452880859375,149.2621612548828,156.7552642822266,15,169611.8237457917,-0.904266357421875,0.77813720703125,-0.7645416259765625,169611.8237457917,3.157772156160352,3.465702820361853,-2.389957513860152,169611.8050077917,-69.336669921875,-53.55812072753906,-551.9443359375,169611.8186487917,-0.1828916797015974,-1.493740710390484,0.6380944673995619,2.715992212295532,3.453150510787964,-2.539893865585327,-0.1764614582061768,1.306023597717285,-0.7489281892776489,1,0.1703032255172729,-0.6633857488632202,-0.2758240103721619,0.674416184425354,-0.8008487224578857,-0.5956659317016602,-0.06183231994509697,0,0,0,-1,169610.545928,3,1,1561841794.492427,1561841239.621676,42,1.91319,0,0,42.10339,0,0,1561841755.596066,169608.553018,0,0.005371094,75.19292,0,182478453,1,1,0.99,-11.64637,-22.58123,0
1561841795.541612,94,0,0,1561841794.998821,4.63461447973236,-74.15085442371121,2555.978,0.22,225.3515625,4,10,-9999,1561841795.519636,5.09661865234375,-26.77275848388672,11.5452880859375,149.2621612548828,156.7552642822266,15,169611.8439787917,-0.823394775390625,0.83941650390625,-0.5679931640625,169611.8439787917,4.915142891023474,3.512799226343251,-1.946941199157688,169611.8250877917,-68.89869689941406,-52.99205017089844,-550.374267578125,169611.8389127917,-0.09548633052837881,-1.477399385208761,0.6904291477810185,4.488844871520996,3.502614259719849,-2.042965412139893,-0.09017539024353027,1.453930497169495,-0.6114019155502319,1,0.2196694165468216,-0.6448212265968323,-0.2607968151569366,0.6840584874153137,-0.7676126956939697,-0.6368681192398071,-0.07190186530351639,0,0,0,-1,169610.545928,3,1,1561841794.492427,1561841239.621676,42,1.91319,0,0,42.10339,0,0,1561841755.596066,169608.553018,0,0.005371094,75.19292,0,182478453,1,1,0.99,-11.64637,-23.39312,0
1561841795.561945,95,0,0,1561841794.998821,4.63461447973236,-74.15085442371121,2555.978,0.22,225.3515625,4,10,-9999,1561841795.546072,5.468490600585938,-25.82875442504883,13.18035888671875,141.8477783203125,149.3408813476562,15,169611.8642417917,-0.910888671875,0.8746337890625,-0.26251220703125,169611.8642417917,6.527467486592631,3.572737128784901,-1.689371710117912,169611.8451997917,-68.78208923339844,-51.53721618652344,-547.7325439453125,169611.8591767917,0.04249096148707895,-1.496373826562591,0.7375170674241366,6.127588272094727,3.576491594314575,-1.727875113487244,-0.1076723337173462,1.545377016067505,-0.3805146217346191,1,0.2776091992855072,-0.6288219094276428,-0.2306445389986038,0.6887084245681763,-0.7380918264389038,-0.6724522709846497,-0.05503227561712265,0,0,0,-1,169610.545928,3,1,1561841794.492427,1561841239.621676,42,1.91319,0,0,42.10339,0,0,1561841755.596066,169608.553018,0,0.005371094,75.19292,0,182478453,1,1,0.99,-11.64637,-23.65414,0
1561841795.585278,96,0,0,1561841794.998821,4.63461447973236,-74.15085442371121,2555.978,0.22,225.3515625,4,10,-9999,1561841795.57357,5.421478271484375,-24.46261978149414,15.93768310546875,129.8168640136719,137.3099670410156,15,169611.8845057917,-1.016448974609375,0.8269500732421875,0.228302001953125,169611.8845057917,8.249277830368252,3.14949371991184,-1.819878055124482,169611.8653107917,-69.31777954101562,-49.50874328613281,-544.409912109375,169611.8794397917,0.2339651678451184,-1.557461102365551,0.7786682753082482,7.789854526519775,3.308614492416382,-1.763056874275208,-0.2479153275489807,1.555817127227783,-0.03156900405883789,1,0.3441786766052246,-0.6138361692428589,-0.1879189759492874,0.6851515769958496,-0.7117862105369568,-0.702332079410553,-0.009492391720414162,0,0,0,-1,169610.545928,3,1,1561841794.492427,1561841239.621676,42,1.91319,0,0,42.10339,0,0,1561841755.596066,169608.553018,0,0.005371094,75.19292,0,182478453,1,1,0.99,-11.64637,-22.95952,0
1561841795.602486,97,0,0,1561841794.998821,4.63461447973236,-74.15085442371121,2555.978,0.22,225.3515625,4,10,-9999,1561841795.596635,4.295272827148438,-18.88464736938477,22.62091064453125,112.436653137207,119.9297637939453,15,169611.9047697917,-1.0885009765625,0.793792724609375,0.7266845703125,169611.9047697917,9.925042118896403,2.781273616004797,-1.98994272864698,169611.8854217917,-70.00103759765625,-46.74441528320312,-541.1470947265625,169611.8997037917,0.488168486224634,-1.678439922143057,0.8090020127749228,9.596466064453125,2.762467861175537,-1.981677055358887,-0.3770371079444885,1.524471521377563,0.4178652763366699,1,0.4204400777816772,-0.600256085395813,-0.1357604265213013,0.6667022109031677,-0.6862258911132812,-0.7235987186431885,0.07415445148944855,0,0,0,-1,169610.545928,3,1,1561841794.492427,1561841239.621676,42,1.91319,0,0,42.10339,0,0,1561841755.596066,169608.553018,0,0.005371094,75.19292,0,182478453,1,1,0.99,-11.64637,-23.72845,0
1561841795.622637,98,0,0,1561841794.998821,4.63461447973236,-74.15085442371121,2555.978,0.22,225.3515625,4,10,-9999,1561841795.620992,3.560737609863281,-14.12710952758789,25.9598388671875,91.24226379394531,98.73537445068359,15,169611.9250337917,-0.9858245849609375,0.7200775146484375,0.9391632080078125,169611.9250337917,9.30667635380429,3.666062016548439,-1.877624442305106,169611.9055327917,-70.55448913574219,-42.05055236816406,-537.8592529296875,169611.9199677917,0.7864528448597449,-1.836667871641399,0.810919679923495,9.782872200012207,3.203664302825928,-1.961827993392944,-0.4106271862983704,1.496191740036011,0.7101835012435913,1,0.5009834766387939,-0.5826756954193115,-0.07572083920240402,0.6354297399520874,-0.6646291613578796,-0.7249209880828857,0.1809908151626587,0,0,0,-1,169610.545928,3,1,1561841794.492427,1561841239.621676,42,1.91319,0,0,42.10339,0,0,1561841755.596066,169609.497155,0,0.3039551,75.19008,0,182478453,1,1,0.99,-11.64637,-24.77703,0
1561841795.644463,99,0,0,1561841794.998821,4.63461447973236,-74.15085442371121,2555.978,0.22,225.3515625,4,10,-9999,1561841795.620992,3.560737609863281,-14.12710952758789,25.9598388671875,91.24226379394531,98.73537445068359,15,169611.9452967917,-0.8292083740234375,0.662841796875,1.418075561523438,169611.9452967917,5.751713162134577,5.607260641447589,-0.3322732881453713,169611.9256437917,-71.47471618652344,-37.21603393554688,-535.3360595703125,169611.9402307917,1.03569866095939,-1.929329549790367,0.7866028073464573,6.815698623657227,5.312554836273193,-0.7941994071006775,-0.2003639936447144,1.393504977226257,0.8930283784866333,1,0.5654709339141846,-0.5515028238296509,-0.01319831050932407,0.613117516040802,-0.6613455414772034,-0.7079581022262573,0.247825488448143,0,0,0,-1,169610.545928,3,1,1561841794.492427,1561841239.621676,42,1.91319,0,0,42.10339,0,0,1561841755.596066,169609.497155,0,0.3039551,75.19008,0,182478453,1,1,0.99,-11.64637,-24.77703,0
1561841795.66557,100,0,0,1561841794.998821,4.63461447973236,-74.15085442371121,2555.978,0.22,225.3515625,4,10,-9999,1561841795.647195,2.191665649414062,-9.090877532958984,28.1021728515625,76.10395812988281,83.59706878662109,15,169611.9655607917,-0.66357421875,0.4749298095703125,1.79931640625,169611.9655607917,1.908094999917247,5.635883764211543,0.5424936372163021,169611.9457547917,-73.64199829101562,-33.10517883300781,-533.7874755859375,169611.9604947917,1.161314212546215,-1.901561194657001,0.7543653913327618,2.73141074180603,5.800014019012451,0.4527168571949005,-0.08854949474334717,1.285213947296143,1.342716813087463,1,0.5940102934837341,-0.5152489542961121,0.04571956396102905,0.6161006689071655,-0.6892062425613403,-0.6848263740539551,0.2366594225168228,0,0,0,-1,169610.545928,3,1,1561841794.492427,1561841239.621676,42,1.91319,0,0,42.10339,0,0,1561841755.596066,169609.497155,0,0.3039551,75.19008,0,182478453,1,1,0.99,-11.64637,-25.77116,0
1561841795.683556,101,0,0,1561841794.998821,4.63461447973236,-74.15085442371121,2555.978,0.22,225.3515625,4,10,-9999,1561841795.671705,-0.3855972290039062,-5.685413360595703,28.89471435546875,71.48018646240234,78.97329711914062,15,169611.9858247917,-0.542816162109375,0.2835235595703125,1.903366088867188,169611.9858247917,-0.5320529804787554,4.36900711470038,0.5729562053451734,169611.9658657917,-76.81809997558594,-30.39443969726562,-533.8560180664062,169611.9807277917,1.189520340868771,-1.8130352867215,0.7363169576936928,-0.05286149680614471,4.703771591186523,0.5591322779655457,0.1135703325271606,1.029138088226318,1.747038125991821,1,0.5953792929649353,-0.4841399490833282,0.08756951242685318,0.6351878046989441,-0.7193137407302856,-0.6715635061264038,0.1777359843254089,0,0,0,-1,169610.545928,3,1,1561841794.492427,1561841239.621676,42,1.91319,0,0,42.10339,0,0,1561841755.596066,169609.497155,0,0.3039551,75.19008,0,182478453,1,1,0.99,-12.20365,-26.70934,0
1561841795.703705,102,0,0,1561841794.998821,4.63461447973236,-74.15085442371121,2555.978,0.22,225.3515625,4,10,-9999,1561841795.697959,-5.511009216308594,-3.995365142822266,27.066650390625,72.8291015625,80.32221221923828,15,169612.0060577917,-0.49639892578125,0.24395751953125,1.758270263671875,169612.0060577917,-1.713514596980025,3.045209924262626,1.127158430294009,169611.9859767917,-79.201171875,-30.01576232910156,-535.448486328125,169612.0009917917,1.162714626671561,-1.713326497003493,0.7263073522614405,-1.511710166931152,3.377957582473755,0.9006142020225525,0.2441397905349731,0.9146016836166382,1.723680138587952,1,0.5823505520820618,-0.4625663757324219,0.1118896082043648,0.6590756773948669,-0.7400504350662231,-0.6641134023666382,0.106199637055397,0,0,0,-1,169610.545928,3,1,1561841794.492427,1561841239.621676,42,1.91319,0,0,42.10339,0,0,1561841755.596066,169609.497155,0,0.3039551,75.19008,0,182478453,1,1,0.99,-12.76093,-27.64391,0
1561841795.723935,103,0,0,1561841794.998821,4.63461447973236,-74.15085442371121,2555.978,0.22,225.3515625,4,10,-9999,1561841795.722261,-7.642219543457031,-5.10887336730957,26.1263427734375,76.642822265625,84.13593292236328,15,169612.0263207917,-0.4807281494140625,0.1918792724609375,1.59686279296875,169612.0263207917,-2.158228943193523,1.499619618237003,2.159412984614172,169612.0060877917,-81.52438354492188,-31.37928771972656,-536.7554321289062,169612.0212547917,1.109957004374176,-1.624520708441504,0.7018096646305457,-2.089409351348877,1.919693946838379,1.908291578292847,0.2580109834671021,0.8759779334068298,1.636573553085327,1,0.5601203441619873,-0.4547189474105835,0.1283044070005417,0.6804659366607666,-0.7625733017921448,-0.6456007361412048,0.04100824147462845,0,0,0,-1,169610.545928,3,1,1561841794.492427,1561841239.621676,42,1.91319,0,0,42.10339,0,0,1561841755.596066,169609.497155,0,0.3039551,75.19008,0,182478453,1,1,0.99,-13.31821,-28.5603,0
1561841795.745696,104,0,0,1561841794.998821,4.63461447973236,-74.15085442371121,2555.978,0.22,225.3515625,4,10,-9999,1561841795.722261,-7.642219543457031,-5.10887336730957,26.1263427734375,76.642822265625,84.13593292236328,15,169612.0465847917,-0.5701141357421875,0.0948638916015625,1.401153564453125,169612.0465847917,-2.44454592462016,0.004675978241961126,2.841121503601603,169612.0261987917,-83.2095947265625,-32.41342163085938,-536.9967041015625,169612.0415187917,1.050989476063521,-1.565612865487963,0.6550390273519591,-2.344949722290039,0.2874460518360138,2.724674940109253,0.302351713180542,0.7478773593902588,1.510992288589478,1,0.532277524471283,-0.463276743888855,0.1404569149017334,0.6944977045059204,-0.7930133938789368,-0.6091901659965515,-0.004110591020435095,0,0,0,-1,169610.545928,3,1,1561841794.492427,1561841239.621676,42,1.91319,0,0,42.10339,0,0,1561841755.596066,169609.497155,0,0.3039551,75.19008,0,182478453,1,1,0.99,-13.87548,-29.54834,0
1561841795.764513,105,0,0,1561841794.998821,4.63461447973236,-74.15085442371121,2555.978,0.22,225.3515625,4,10,-9999,1561841795.748484,-9.20526123046875,-6.09381103515625,25.6995849609375,80.91571807861328,88.40882873535156,15,169612.0668487917,-0.8249969482421875,-0.02423095703125,1.15216064453125,169612.0668487917,-3.307781895094008,-0.5083998489411077,2.914678012909591,169612.0462797917,-84.73277282714844,-33.47685241699219,-537.099853515625,169612.0617827917,0.9870573896940554,-1.531394067384711,0.5954750580231496,-3.026238203048706,-0.4427581131458282,2.933939218521118,0.1280208230018616,0.6006665229797363,1.31845498085022,1,0.5001178383827209,-0.4832971692085266,0.1474432945251465,0.703254222869873,-0.8272395730018616,-0.5609021186828613,-0.03261198848485947,0,0,0,-1,169610.545928,3,1,1561841794.492427,1561841239.621676,42,1.91319,0,0,42.10339,0,0,1561841755.596066,169609.497155,0,0.3039551,75.19008,0,182478453,1,1,0.99,-14.43276,-30.27015,0
1561841795.784721,106,0,0,1561841794.998821,4.63461447973236,-74.15085442371121,2555.978,0.22,225.3515625,4,10,-9999,1561841795.772921,-10.22713470458984,-6.992012023925781,25.738037109375,86.19313812255859,93.68624877929688,15,169612.0871117917,-1.055084228515625,-0.2129669189453125,0.849945068359375,169612.0871117917,-4.782273523181677,-0.7309362527892189,2.866594106795993,169612.0663907917,-84.86216735839844,-34.22224426269531,-537.0767822265625,169612.0820457917,0.9034985854702516,-1.498214789424867,0.532797840106648,-4.367000579833984,-0.6638545393943787,2.862359285354614,-0.07889741659164429,0.4135239720344543,1.058040976524353,1,0.4602356553077698,-0.5069024562835693,0.147108867764473,0.7138571739196777,-0.8591213822364807,-0.5079453587532043,-0.0624660812318325,0,0,0,-1,169610.545928,3,1,1561841794.492427,1561841239.621676,42,1.91319,0,0,42.10339,0,0,1561841755.596066,169609.497155,0,0.3039551,75.19008,0,182478453,1,1,0.99,-14.43276,-30.27015,0
1561841795.804989,107,0,0,1561841794.998821,4.63461447973236,-74.15085442371121,2555.978,0.22,225.3515625,4,10,-9999,1561841795.799228,-10.65682983398438,-9.808940887451172,25.01495361328125,93.93439483642578,101.4275054931641,15,169612.10738,-1.387176513671875,-0.4873046875,0.4367218017578125,169612.10738,-6.355255239967093,-1.377995181781956,2.785700855000945,169612.086506,-84.99729919433594,-35.82415771484375,-537.58154296875,169612.102314,0.7897912999570307,-1.462061555439509,0.4652050591695707,-6.029100894927979,-1.228111267089844,2.85641884803772,-0.3116217255592346,0.09647899866104126,0.7664827108383179,1,0.4083353579044342,-0.533636748790741,0.136646568775177,0.7278886437416077,-0.8884515166282654,-0.4486060738563538,-0.09698811173439026,0,0,0,-1,169610.545928,3,1,1561841794.492427,1561841239.621676,42,1.91319,0,0,42.10339,0,0,1561841755.596066,169609.497155,0,0.3039551,75.19008,0,182478453,1,1,0.99,-14.99004,-30.41797,0
1561841795.825265,108,0,0,1561841794.998821,4.63461447973236,-74.15085442371121,2555.978,0.22,225.3515625,4,10,-9999,1561841795.823666,-10.56780242919922,-12.17549133300781,24.34124755859375,103.9222717285156,111.4153823852539,15,169612.127644,-1.730010986328125,-0.7128448486328125,0.09429931640625,169612.127644,-7.205072606972467,-1.187188211793267,1.733912546717269,169612.106617,-84.99478149414062,-37.68165588378906,-538.3589477539062,169612.122578,0.6512104614144212,-1.432788605107854,0.3969850929976197,-7.018704414367676,-1.365010261535645,2.089146375656128,-0.6686145663261414,-0.2197446227073669,0.3721106052398682,1,0.3468361496925354,-0.5623779892921448,0.113825336098671,0.7419431209564209,-0.9134624600410461,-0.3866396546363831,-0.1268713623285294,0,0,0,-1,169610.545928,3,1,1561841794.492427,1561841239.621676,42,1.91319,0,0,42.10339,0,0,1561841755.596066,169609.497155,0,0.3039551,75.19008,0,182478453,1,1,0.99,-15.54732,-15.54732,0
1561841795.845822,109,0,0,1561841794.998821,4.63461447973236,-74.15085442371121,2555.978,0.22,225.3515625,4,10,-9999,1561841795.823666,-10.56780242919922,-12.17549133300781,24.34124755859375,103.9222717285156,111.4153823852539,15,169612.147907,-1.833419799804688,-0.8177642822265625,-0.288665771484375,169612.147907,-8.417565110179231,0.1148123367027331,0.2463194976469548,169612.126728,-84.82728576660156,-40.84619140625,-539.673095703125,169612.142811,0.4955526024785586,-1.395005133366303,0.346765269437988,-8.036223411560059,-0.299807608127594,0.5791912078857422,-0.8880279064178467,-0.4593979716300964,0.07477092742919922,1,0.2833488583564758,-0.5809257626533508,0.07772886753082275,0.7590762972831726,-0.9259827136993408,-0.3398573994636536,-0.1644773632287979,0,0,0,-1,169610.545928,3,1,1561841794.492427,1561841239.621676,42,1.91319,0,0,42.10339,0,0,1561841755.596066,169609.497155,0,0.3039551,75.19008,0,182478453,1,1,0.99,-15.30535,-16.26695,0
1561841795.865775,110,0,0,1561841794.998821,4.63461447973236,-74.15085442371121,2555.978,0.22,225.3515625,4,10,-9999,1561841795.849752,-10.39153289794922,-15.10793685913086,22.74420166015625,115.691535949707,123.1846466064453,15,169612.168141,-1.748031616210938,-0.7113800048828125,-0.49658203125,169612.168141,-9.968168284324712,1.96783369790936,-0.9331314322313049,169612.146839,-84.89053344726562,-43.77033996582031,-541.5886840820312,169612.163075,0.3102707951139004,-1.324061022778817,0.3105584715530725,-9.635800361633301,1.476498484611511,-0.6435877680778503,-0.8905770182609558,-0.4728824496269226,-0.1925541162490845,1,0.2143591940402985,-0.5811817646026611,0.02647749148309231,0.7845870852470398,-0.9233267903327942,-0.3055904507637024,-0.2325557917356491,0,0,0,-1,169610.545928,3,1,1561841794.492427,1561841239.621676,42,1.91319,0,0,42.10339,0,0,1561841755.596066,169609.497155,0,0.3039551,75.19008,0,182478453,1,1,0.99,-15.30535,-16.75645,0
1561841795.886028,111,0,0,1561841794.998821,4.63461447973236,-74.15085442371121,2555.978,0.22,225.3515625,4,10,-9999,1561841795.874106,-10.80907440185547,-22.21154022216797,16.06817626953125,130.24462890625,137.7377319335938,15,169612.188404,-1.454086303710938,-0.55242919921875,-0.5161895751953125,169612.188404,-10.83807920175473,3.260909993592504,-2.05376511785462,169612.16695,-85.15005493164062,-47.53001403808594,-545.4766845703125,169612.183338,0.09608537972943365,-1.214792743283089,0.2729080629432422,-10.67825889587402,3.047227382659912,-1.775289058685303,-0.7005404829978943,-0.3652936518192291,-0.1629789471626282,1,0.1387252956628799,-0.5594095587730408,-0.03847968205809593,0.8162938356399536,-0.9026089310646057,-0.2695330083370209,-0.3356324732303619,0,0,0,-1,169610.545928,3,1,1561841794.492427,1561841239.621676,42,1.91319,0,0,42.10339,0,0,1561841755.596066,169609.497155,0,0.3039551,75.19008,0,182478453,1,1,0.99,-15.30535,-17.55534,0
1561841795.906281,112,0,0,1561841794.998821,4.63461447973236,-74.15085442371121,2555.978,0.22,225.3515625,4,10,-9999,1561841795.900715,-10.36995697021484,-25.32277679443359,10.5870361328125,146.53369140625,154.0267944335938,15,169612.208668,-1.20098876953125,-0.3139801025390625,-0.57415771484375,169612.208668,-11.38486984938988,3.585165835276192,-3.153422415151925,169612.187061,-84.88619995117188,-50.85737609863281,-550.5804443359375,169612.203602,-0.1336312659811626,-1.089750749242348,0.2256505006928262,-11.25479316711426,3.555163621902466,-2.896465063095093,-0.4584265351295471,-0.2263175696134567,-0.09357953071594238,1,0.06168229505419731,-0.5202953219413757,-0.1149590909481049,0.8439623117446899,-0.8640373945236206,-0.2237404137849808,-0.4509761333465576,0,0,0,-1,169610.545928,3,1,1561841794.492427,1561841239.621676,42,1.91319,0,0,42.10339,0,0,1561841755.596066,169609.497155,0,0.3039551,75.19008,0,182478453,1,1,0.99,-15.30535,-18.6179,0
1561841795.927538,113,0,0,1561841794.998821,4.63461447973236,-74.15085442371121,2555.978,0.22,225.3515625,4,10,-9999,1561841795.924894,-9.299514770507812,-27.44833755493164,4.04425048828125,163.675537109375,171.1686401367188,15,169612.228932,-1.033859252929688,0.089141845703125,-0.7068328857421875,169612.228932,-11.69493743405006,3.556542179880021,-3.923441355886384,169612.207173,-84.18148803710938,-53.46891784667969,-556.8175659179688,169612.223866,-0.3729096962840416,-0.9707272745928998,0.1639388667391856,-11.67491817474365,3.557312250137329,-3.77007269859314,-0.2917259335517883,0.03613032400608063,-0.07121360301971436,1,-0.01502725481987,-0.4703298509120941,-0.2009521722793579,0.8591753244400024,-0.8142310976982117,-0.1632055193185806,-0.5571280121803284,0,0,0,-1,169610.545928,3,1,1561841794.492427,1561841239.621676,42,1.91319,0,0,42.10339,0,0,1561841755.596066,169609.497155,0,0.3039551,75.19008,0,182478453,1,1,0.99,-15.30535,-19.34946,0
1561841795.946957,114,0,0,1561841794.998821,4.63461447973236,-74.15085442371121,2555.978,0.22,225.3515625,4,10,-9999,1561841795.924894,-9.299514770507812,-27.44833755493164,4.04425048828125,163.675537109375,171.1686401367188,15,169612.249195,-0.864654541015625,0.567657470703125,-0.9391021728515625,169612.249195,-10.8595421496119,3.21227454681715,-4.117942396623122,169612.227284,-82.35371398925781,-54.84194946289062,-563.775146484375,169612.244129,-0.6110052168145782,-0.8692958207209284,0.0860363360954097,-11.28671264648438,3.413583517074585,-4.165131568908691,-0.193235456943512,0.4140552282333374,-0.1657993793487549,1,-0.08933538943529129,-0.4129533171653748,-0.2898243069648743,0.8587726950645447,-0.761049211025238,-0.0859302282333374,-0.6429774761199951,0,0,0,-1,169610.545928,3,1,1561841794.492427,1561841239.621676,42,1.91319,0,0,42.10339,0,0,1561841755.596066,169609.497155,0,0.3039551,75.19008,0,182478453,1,1,0.99,-15.30535,-19.34946,0
1561841795.967089,115,0,0,1561841794.998821,4.63461447973236,-74.15085442371121,2555.978,0.22,225.3515625,4,10,-9999,1561841795.95116,-7.239715576171875,-28.08232498168945,-2.966064453125,180.2445983886719,187.7377014160156,15,169612.269459,-0.6739044189453125,0.8623504638671875,-1.262252807617188,169612.269459,-7.338403234315066,1.728249867291433,-3.503625701652364,169612.247364,-79.51708984375,-54.27154541015625,-570.1210327148438,169612.264393,-0.8171211336376835,-0.8019767441965501,0.008187576726513501,-8.451616287231445,2.101450204849243,-3.701809644699097,-0.06765389442443848,0.763528048992157,-0.4051998853683472,1,-0.1516130268573761,-0.3596963882446289,-0.3672374486923218,0.8442562222480774,-0.718707799911499,-0.008187484927475452,-0.6952639818191528,0,0,0,-1,169610.545928,3,1,1561841794.492427,1561841239.621676,42,1.91319,0,0,42.10339,0,0,1561841755.596066,169609.497155,0,0.3039551,75.19008,0,182478453,1,1,0.99,-15.30535,-20.06933,0
1561841795.987381,116,0,0,1561841794.998821,4.63461447973236,-74.15085442371121,2555.978,0.22,225.3515625,4,10,-9999,1561841795.975485,-2.03546142578125,-25.8702278137207,-13.32159423828125,192.2450408935547,199.7381439208984,15,169612.289723,-0.4809417724609375,0.963531494140625,-1.426559448242188,169612.289723,-2.764096226973786,1.154980474202067,-2.689566065971265,169612.267475,-77.06488037109375,-52.67970275878906,-575.1654052734375,169612.284657,-0.9525889601219864,-0.7736922441340744,-0.03242417036288188,-3.811387300491333,1.131942987442017,-2.876948118209839,0.1621590256690979,0.8835666179656982,-0.6661440134048462,1,-0.1862936913967133,-0.3283518254756927,-0.4191173613071442,0.8257241249084473,-0.6984139084815979,0.03241848945617676,-0.7149595022201538,0,0,0,-1,169610.545928,3,1,1561841794.492427,1561841239.621676,42,1.91319,0,0,42.10339,0,0,1561841755.596066,169609.497155,0,0.3039551,75.19008,0,182478453,1,1,0.99,-15.30535,-21.0077,0
1561841796.007593,117,0,0,1561841794.998821,4.63461447973236,-74.15085442371121,2555.978,0.22,225.3515625,4,10,-9999,1561841796.002302,-0.045867919921875,-24.82211685180664,-14.80487060546875,197.7352294921875,205.2283325195312,15,169612.309986,-0.5220794677734375,1.0645751953125,-1.440475463867188,169612.309986,-0.2516231829578476,1.743420298124961,-2.331967447439785,169612.287586,-74.95564270019531,-51.64735412597656,-577.3116455078125,169612.30489,-1.018386444537367,-0.749786583451147,-0.02561209061056595,-0.6189488768577576,1.56652557849884,-2.374177217483521,0.1820677518844604,0.9863993525505066,-0.698444128036499,1,-0.1888895034790039,-0.3138847053050995,-0.4494849443435669,0.8147149085998535,-0.6812590956687927,0.02560929022729397,-0.7315943241119385,0,0,0,-1,169610.545928,3,1,1561841794.492427,1561841239.621676,42,1.91319,0,0,42.10339,0,0,1561841755.596066,169609.497155,0,0.3039551,75.19008,0,182478453,1,1,0.99,-15.30535,-21.79414,0
1561841796.027739,118,0,0,1561841794.998821,4.63461447973236,-74.15085442371121,2555.978,0.22,225.3515625,4,10,-9999,1561841796.002302,-0.045867919921875,-24.82211685180664,-14.80487060546875,197.7352294921875,205.2283325195312,15,169612.330219,-0.46697998046875,1.102249145507812,-1.343505859375,169612.330219,0.09293846308936723,2.367248206612828,-2.173699512281902,169612.307697,-72.95333862304688,-51.1468505859375,-578.0411376953125,169612.325153,-1.054637614691495,-0.7114428176697308,0.00412463953736445,0.1344545930624008,2.246053457260132,-2.244330644607544,0.140287458896637,1.093205451965332,-0.6562668681144714,1,-0.1735831648111343,-0.3019301295280457,-0.4723341166973114,0.8096959590911865,-0.652921736240387,-0.004124627914279699,-0.7574141621589661,0,0,0,-1,169610.545928,3,1,1561841794.492427,1561841239.621676,42,1.91319,0,0,42.10339,0,0,1561841755.596066,169609.497155,0,0.3039551,75.19008,0,182478453,1,1,0.99,-15.30535,-22.81411,0
1561841796.048242,119,0,0,1561841795.998811,4.634608193304981,-74.15086104541471,2556.314,0.35,244.6875,4,10,-9999,1561841796.027129,1.881820678710938,-24.56233596801758,-15.01690673828125,200.3082427978516,207.8013458251953,15,169612.350483,-0.2315826416015625,1.172225952148438,-1.323486328125,169612.350483,-0.2488058248406528,2.657503736975583,-1.5088171113777,169612.327809,-71.24946594238281,-51.10890197753906,-578.0218505859375,169612.345417,-1.086897529025465,-0.6615560998579615,0.03010533429244179,-0.2118282467126846,2.581238985061646,-1.745450139045715,0.2282485961914062,1.170374870300293,-0.5343793630599976,1,-0.1557361036539078,-0.2853181064128876,-0.4931883215904236,0.8069109320640564,-0.6140670776367188,-0.03010078705847263,-0.7886796593666077,0,0,0,-1,169610.545928,3,1,1561841794.492427,1561841239.621676,42,1.91319,0,0,42.10339,0,0,1561841755.596066,169609.497155,0,0.3039551,75.19008,0,182478453,1,1,0.99,-15.30535,-23.64823,0
1561841796.068483,120,0,0,1561841795.998811,4.634608193304981,-74.15086104541471,2556.314,0.35,244.6875,4,10,-9999,1561841796.053228,3.761375427246094,-24.39551544189453,-14.9986572265625,202.4878540039062,209.98095703125,15,169612.370747,0.02459716796875,1.20263671875,-1.3013916015625,169612.370747,0.1612410881988475,2.703758584052515,-0.06214379877256299,169612.34792,-69.44125366210938,-50.84770202636719,-577.4169311523438,169612.365681,-1.108453794744077,-0.6063959272323349,0.04128107218268022,-0.0287867896258831,2.718758106231689,-0.4922677576541901,0.4874844551086426,1.233316421508789,-0.4787516593933105,1,-0.140352725982666,-0.2641921043395996,-0.5074132084846497,0.8081060647964478,-0.5694241523742676,-0.04126934707164764,-0.8210073113441467,0,0,0,-1,169610.545928,3,1,1561841794.492427,1561841239.621676,42,1.91319,0,0,42.10339,0,0,1561841755.596066,169609.497155,0,0.3039551,75.19008,0,182478453,1,1,0.99,-15.30535,-18.39581,0
1561841796.088611,121,0,0,1561841795.998811,4.634608193304981,-74.15086104541471,2556.314,0.35,244.6875,4,10,-9999,1561841796.076845,6.520126342773438,-24.3088493347168,-14.51971435546875,202.8061370849609,210.2992401123047,15,169612.39101,0.105682373046875,1.208709716796875,-1.256134033203125,169612.39101,1.279419072981,2.590199530958774,1.759888221041575,169612.368031,-68.20027160644531,-50.63395690917969,-577.314697265625,169612.385944,-1.097077407859701,-0.5525407593738607,0.04430977769883006,0.971285879611969,2.640598297119141,1.305159330368042,0.6172930002212524,1.253813743591309,-0.4452196955680847,1,-0.1240120381116867,-0.2438070178031921,-0.5067005753517151,0.8175780177116394,-0.5243364572525024,-0.04429528117179871,-0.8503583073616028,0,0,0,-1,169610.545928,3,1,1561841794.492427,1561841239.621676,42,1.91319,0,0,42.10339,0,0,1561841755.596066,169609.497155,0,0.3039551,75.19008,0,182478453,1,1,0.99,-15.30535,-18.91243,0
1561841796.10891,122,0,0,1561841795.998811,4.634608193304981,-74.15086104541471,2556.314,0.35,244.6875,4,10,-9999,1561841796.103121,6.523628234863281,-24.56152725219727,-13.6956787109375,199.4812469482422,206.9743499755859,15,169612.411274,-0.0182342529296875,1.156967163085938,-1.179229736328125,169612.411274,2.324747351408471,2.399866337328009,3.283723963070668,169612.388111,-67.45361328125,-50.80256652832031,-577.0955200195312,169612.406208,-1.043302868031977,-0.5039308311638151,0.04975206909860515,2.104978322982788,2.425002813339233,2.940306901931763,0.5410507917404175,1.234072923660278,-0.3489030599594116,1,-0.1033104658126831,-0.2280857264995575,-0.4878050982952118,0.8362715840339661,-0.4822739660739899,-0.04973154515028,-0.8746076822280884,0,0,0,-1,169610.545928,3,1,1561841794.492427,1561841239.621676,42,1.91319,0,0,42.10339,0,0,1561841755.596066,169609.497155,0,0.3039551,75.19008,0,182478453,1,1,0.99,-15.30535,-18.91243,0
1561841796.129174,123,0,0,1561841795.998811,4.634608193304981,-74.15086104541471,2556.314,0.35,244.6875,4,10,-9999,1561841796.127645,5.557388305664062,-25.48031616210938,-12.3751220703125,193.1062774658203,200.5993804931641,15,169612.431538,-0.207489013671875,1.12359619140625,-1.097946166992188,169612.431538,2.718847788472795,2.318650576724953,4.408967314224801,169612.408222,-68.36666870117188,-51.62928771972656,-575.890380859375,169612.426472,-0.9558153486841301,-0.4608920116662228,0.06025551751390262,2.680223226547241,2.302422046661377,4.168039321899414,0.3397683501243591,1.19617486000061,-0.2393158674240112,1,-0.07896292209625244,-0.2162163704633713,-0.453670471906662,0.8609287738800049,-0.4439400732517242,-0.06021906062960625,-0.8940306901931763,0,0,0,-1,169610.545928,3,1,1561841794.492427,1561841239.621676,42,1.91319,0,0,42.10339,0,0,1561841755.596066,169609.497155,0,0.3039551,75.19008,0,182478453,1,1,0.99,-15.30535,-19.66477,0
