loggingTime,loggingSample,identifierForVendor,deviceID,locationTimestamp_since1970,locationLatitude,locationLongitude,locationAltitude,locationSpeed,locationCourse,locationVerticalAccuracy,locationHorizontalAccuracy,locationFloor,locationHeadingTimestamp_since1970,locationHeadingX,locationHeadingY,locationHeadingZ,locationTrueHeading,locationMagneticHeading,locationHeadingAccuracy,accelerometerTimestamp_sinceReboot,accelerometerAccelerationX,accelerometerAccelerationY,accelerometerAccelerationZ,gyroTimestamp_sinceReboot,gyroRotationX,gyroRotationY,gyroRotationZ,magnetometerTimestamp_sinceReboot,magnetometerX,magnetometerY,magnetometerZ,motionTimestamp_sinceReboot,motionYaw,motionRoll,motionPitch,motionRotationRateX,motionRotationRateY,motionRotationRateZ,motionUserAccelerationX,motionUserAccelerationY,motionUserAccelerationZ,motionAttitudeReferenceFrame,motionQuaternionX,motionQuaternionY,motionQuaternionZ,motionQuaternionW,motionGravityX,motionGravityY,motionGravityZ,motionMagneticFieldX,motionMagneticFieldY,motionMagneticFieldZ,motionMagneticFieldCalibrationAccuracy,activityTimestamp_sinceReboot,activity,activityActivityConfidence,activityActivityStartDate,pedometerStartDate,pedometerNumberofSteps,pedometerAverageActivePace,pedometerCurrentPace,pedometerCurrentCadence,pedometerDistance,pedometerFloorAscended,pedometerFloorDescended,pedometerEndDate,altimeterTimestamp_sinceReboot,altimeterReset,altimeterRelativeAltitude,altimeterPressure,IP_en0,IP_pdp_ip0,deviceOrientation,batteryState,batteryLevel,avAudioRecorderPeakPower,avAudioRecorderAveragePower,label
1561841800.642513,1,0,0,1561841799.998773,4.634600649592127,-74.1508615483289,2556.755,0.52,97.734375,4,30,-9999,1561841800.624675,-12.68768310546875,-22.28992462158203,16.60260009765625,149.6847076416016,157.1778106689453,15,169616.9090146667,-1.272247314453125,-0.09307861328125,-0.0890045166015625,169616.9090146667,-1.150758032293746,0.2965965169182337,-0.4452224773494849,169616.8918326667,-87.12167358398438,-48.62638854980469,-546.2703857421875,169616.9039486667,-0.1659849044184749,-1.858562444559305,-0.2083156734201517,-1.374347448348999,0.2255520969629288,-0.3410467803478241,-0.3999544978141785,-0.3428291082382202,-0.3862107992172241,1,-0.1280587911605835,-0.7889477014541626,0.03367503359913826,0.600023627281189,-0.9381497502326965,0.2068122774362564,0.277675062417984,0,0,0,-1,169613.1440169167,3,1,1561841797.090516,1561841239.621676,42,1.91319,0,0,42.10339,0,0,1561841755.596066,169614.217587,0,-0.2878418,75.19567,0,182478453,5,1,0.99,-38.90592,-39.36262,1
1561841800.64569,2,0,0,1561841799.998773,4.634600649592127,-74.1508615483289,2556.755,0.52,97.734375,4,30,-9999,1561841800.624675,-12.68768310546875,-22.28992462158203,16.60260009765625,149.6847076416016,157.1778106689453,15,169616.9292776667,-1.164230346679688,-0.0162353515625,-0.0235595703125,169616.9292776667,-0.3812078079111412,0.5812138689371821,-0.7609077340130797,169616.9119436667,-86.86671447753906,-48.84030151367188,-546.6943969726562,169616.9242126667,-0.1816366845180616,-1.85426222336542,-0.1924795649120854,-0.5482057929039001,0.5156819224357605,-0.6993353962898254,-0.278448224067688,-0.2400298416614532,-0.3329305648803711,1,-0.1296399384737015,-0.787688672542572,0.02237063460052013,0.6018633842468262,-0.9423617124557495,0.1912932544946671,0.2745199203491211,0,0,0,-1,169613.1440169167,3,1,1561841797.090516,1561841239.621676,42,1.91319,0,0,42.10339,0,0,1561841755.596066,169614.217587,0,-0.2878418,75.19567,0,182478453,5,1,0.99,-38.90592,-39.36262,1
1561841800.648549,3,0,0,1561841799.998773,4.634600649592127,-74.1508615483289,2556.755,0.52,97.734375,4,30,-9999,1561841800.624675,-12.68768310546875,-22.28992462158203,16.60260009765625,149.6847076416016,157.1778106689453,15,169616.9495416667,-1.047866821289062,0.0433349609375,0.0466461181640625,169616.9495416667,0.09689512152089796,0.6844563686001749,-0.9494267823092817,169616.9320556667,-86.77261352539062,-49.3526611328125,-547.193359375,169616.9444756667,-0.1820748633487642,-1.841992318274531,-0.1751589149733782,-0.006589965894818306,0.6709263920783997,-0.9135353565216064,-0.1545774340629578,-0.1637513041496277,-0.2541871070861816,1,-0.1248080357909203,-0.7850576043128967,0.01456040795892477,0.6065438985824585,-0.9487093091011047,0.1742646247148514,0.2637849748134613,0,0,0,-1,169613.1440169167,3,1,1561841797.090516,1561841239.621676,42,1.91319,0,0,42.10339,0,0,1561841755.596066,169614.217587,0,-0.2878418,75.19567,0,182478453,5,1,0.99,-38.90592,-39.36262,1
1561841800.66749,4,0,0,1561841799.998773,4.634600649592127,-74.1508615483289,2556.755,0.52,97.734375,4,30,-9999,1561841800.663095,-12.23802947998047,-23.07576751708984,15.44366455078125,149.572509765625,157.0656127929688,15,169616.9698056667,-0.9384307861328125,0.1021881103515625,0.1260223388671875,169616.9698056667,0.5173059922585507,0.5494388950231197,-1.035860740752239,169616.9521666667,-86.68135070800781,-49.5784912109375,-547.211669921875,169616.9647396667,-0.1728946598966622,-1.827107056887617,-0.1570602494133812,0.4113700091838837,0.6066133975982666,-1.026153564453125,-0.04185861349105835,-0.07240043580532074,-0.1628382205963135,1,-0.1158913671970367,-0.7821545600891113,0.009289408102631569,0.6121414303779602,-0.9554253220558167,0.1564153134822845,0.2503931224346161,0,0,0,-1,169613.1440169167,3,1,1561841797.090516,1561841239.621676,42,1.91319,0,0,42.10339,0,0,1561841755.596066,169614.217587,0,-0.2878418,75.19567,0,182478453,5,1,0.99,-38.90592,-40.25436,1
1561841800.687745,5,0,0,1561841799.998773,4.634600649592127,-74.1508615483289,2556.755,0.52,97.734375,4,30,-9999,1561841800.686291,-11.7022705078125,-23.42836761474609,15.69287109375,148.3042449951172,155.7973480224609,15,169616.9900686667,-0.8756561279296875,0.1160125732421875,0.1914520263671875,169616.9900686667,0.8304950680324141,0.2734424617688668,-0.9383195363508883,169616.9722776667,-86.27236938476562,-49.89152526855469,-547.353271484375,169616.9850036667,-0.1556219749162888,-1.814928656973731,-0.1398985357457501,0.7769818305969238,0.3407000005245209,-0.9919171929359436,0.06415390968322754,-0.03018972277641296,-0.07649588584899902,1,-0.1040047779679298,-0.7802944779396057,0.007158210035413504,0.6166621446609497,-0.960867166519165,0.1394426375627518,0.2393529266119003,0,0,0,-1,169613.1440169167,3,1,1561841797.090516,1561841239.621676,42,1.91319,0,0,42.10339,0,0,1561841755.596066,169614.217587,0,-0.2878418,75.19567,0,182478453,5,1,0.99,-37.72971,-38.97948,1
1561841800.71266,6,0,0,1561841799.998773,4.634600649592127,-74.1508615483289,2556.755,0.52,97.734375,4,30,-9999,1561841800.686291,-11.7022705078125,-23.42836761474609,15.69287109375,148.3042449951172,155.7973480224609,15,169617.0103326667,-0.829498291015625,0.0988311767578125,0.20452880859375,169617.0103326667,0.7816463020537446,0.04205983572783942,-0.5924039392054771,169616.9923576667,-85.96745300292969,-49.74516296386719,-546.9556884765625,169617.0052666667,-0.1348511404061106,-1.808096635608949,-0.1268736766483569,0.82733154296875,0.07779378443956375,-0.7013455629348755,0.1131504774093628,-0.01670080423355103,-0.03114831447601318,1,-0.09195496141910553,-0.7798328399658203,0.008121538907289505,0.6191437840461731,-0.9641636610031128,0.126533567905426,0.2331899404525757,0,0,0,-1,169613.1440169167,3,1,1561841797.090516,1561841239.621676,42,1.91319,0,0,42.10339,0,0,1561841755.596066,169614.217587,0,-0.2878418,75.19567,0,182478453,5,1,0.99,-37.72971,-39.24595,1
1561841800.728443,7,0,0,1561841799.998773,4.634600649592127,-74.1508615483289,2556.755,0.52,97.734375,4,30,-9999,1561841800.712434,-11.47335052490234,-23.22159194946289,15.96502685546875,146.8721160888672,154.3652191162109,15,169617.0305966667,-0.818115234375,0.0918426513671875,0.217041015625,169617.0305966667,0.4075193068489061,-0.02685851222566713,-0.1665639482695888,169617.0124686667,-85.5211181640625,-49.75732421875,-546.9058837890625,169617.0255306667,-0.1186557420062643,-1.805837987798176,-0.1206200372421232,0.5236209034919739,-0.02744049206376076,-0.2701294720172882,0.1445309519767761,-0.02891235053539276,-0.02068114280700684,1,-0.08373154699802399,-0.7801184058189392,0.01058506406843662,0.6199130415916443,-0.9654385447502136,0.1203277632594109,0.2311913967132568,0,0,0,-1,169613.1440169167,3,1,1561841797.090516,1561841239.621676,42,1.91319,0,0,42.10339,0,0,1561841755.596066,169614.217587,0,-0.2878418,75.19567,0,182478453,5,1,0.99,-37.72971,-39.24595,1
1561841800.748658,8,0,0,1561841799.998773,4.634600649592127,-74.1508615483289,2556.755,0.52,97.734375,4,30,-9999,1561841800.737341,-11.09557342529297,-23.10497283935547,16.013427734375,146.109130859375,153.6022338867188,15,169617.0508596667,-0.848236083984375,0.080047607421875,0.2205352783203125,169617.0508596667,-0.1221623949952428,0.03992930685577603,0.1118008341420715,169617.0325796667,-85.397705078125,-49.61033630371094,-546.1026611328125,169617.0457636667,-0.1127563113411591,-1.805549729334595,-0.1201297756887293,0.01144709158688784,0.008002718910574913,0.05861007422208786,0.1384903192520142,-0.03301853686571121,-0.01313817501068115,1,-0.08128117024898529,-0.7802927494049072,0.01220954209566116,0.6199899315834045,-0.9655624628067017,0.1198410466313362,0.2309268116950989,0,0,0,-1,169613.1440169167,3,1,1561841797.090516,1561841239.621676,42,1.91319,0,0,42.10339,0,0,1561841755.596066,169614.217587,0,-0.2878418,75.19567,0,182478453,5,1,0.99,-37.72971,-39.58144,1
1561841800.768837,9,0,0,1561841799.998773,4.634600649592127,-74.1508615483289,2556.755,0.52,97.734375,4,30,-9999,1561841800.763215,-11.04018402099609,-23.16232681274414,16.3382568359375,146.3614196777344,153.8545227050781,15,169617.0710936667,-0.9028472900390625,0.0693206787109375,0.234130859375,169617.0710936667,-0.5620577512162421,0.1539035467634612,0.2436773755294872,169617.0526916667,-85.114990234375,-49.65151977539062,-546.5086669921875,169617.0660276667,-0.1183256775756771,-1.804838947947005,-0.1217151103270143,-0.4806326329708099,0.1315097510814667,0.2039310485124588,0.08930426836013794,-0.04653993248939514,-0.002382278442382812,1,-0.08394469320774078,-0.7797764539718628,0.01107500772923231,0.6203057169914246,-0.9655402302742004,0.1214148104190826,0.2301960587501526,0,0,0,-1,169613.1440169167,3,1,1561841797.090516,1561841239.621676,42,1.91319,0,0,42.10339,0,0,1561841755.596066,169614.217587,0,-0.2878418,75.19567,0,182478453,5,1,0.99,-37.72971,-40.18058,1
1561841800.799442,10,0,0,1561841799.998773,4.634600649592127,-74.1508615483289,2556.755,0.52,97.734375,4,30,-9999,1561841800.790266,-11.33921051025391,-23.19097900390625,16.2042236328125,147.3416595458984,154.8347625732422,15,169617.0913566667,-0.9551544189453125,0.0525665283203125,0.2246551513671875,169617.0913566667,-0.7119084994328208,0.1814089408179085,0.3580614759289356,169617.0727716667,-85.56611633300781,-49.77748107910156,-546.7056884765625,169617.0862906667,-0.1318341643125066,-1.803359501890705,-0.1242795455219657,-0.7002917528152466,0.1646871417760849,0.3404508233070374,0.03555071353912354,-0.06211599707603455,0.0004616975784301758,1,-0.09000264853239059,-0.7786186337471008,0.00782395713031292,0.6209601163864136,-0.9655739068984985,0.123959869146347,0.2286949008703232,0,0,0,-1,169613.1440169167,3,1,1561841797.090516,1561841239.621676,42,1.91319,0,0,42.10339,0,0,1561841755.596066,169614.217587,0,-0.2878418,75.19567,0,182478453,5,1,0.99,-37.72971,-40.39991,1
1561841800.809283,11,0,0,1561841799.998773,4.634600649592127,-74.1508615483289,2556.755,0.52,97.734375,4,30,-9999,1561841800.790266,-11.33921051025391,-23.19097900390625,16.2042236328125,147.3416595458984,154.8347625732422,15,169617.1116222917,-0.9907684326171875,0.05499267578125,0.22406005859375,169617.1116222917,-0.694878915842309,0.2155139143696813,0.3146173290664729,169617.0928842917,-86.022216796875,-49.72651672363281,-546.935546875,169617.1065562917,-0.1476707758601198,-1.801555972344835,-0.1278541220114755,-0.7114293575286865,0.205366924405098,0.3346339464187622,-0.01009976863861084,-0.0758855938911438,0.001161813735961914,1,-0.09726586192846298,-0.7771515250205994,0.004219556227326393,0.6217371821403503,-0.9655471444129944,0.1275060772895813,0.2268502861261368,0,0,0,-1,169613.1440169167,3,1,1561841797.090516,1561841239.621676,42,1.91319,0,0,42.10339,0,0,1561841755.596066,169614.217587,0,-0.2878418,75.19567,0,182478453,5,1,0.99,-37.72971,-40.5159,1
1561841800.829788,12,0,0,1561841799.998773,4.634600649592127,-74.1508615483289,2556.755,0.52,97.734375,4,30,-9999,1561841800.813837,-11.60134887695312,-23.13677215576172,15.60601806640625,148.4618225097656,155.9549255371094,15,169617.1318862917,-1.018997192382812,0.0650787353515625,0.19879150390625,169617.1318862917,-0.5599405381496292,0.2423300823340162,0.1497037417244062,169617.1129952917,-85.87101745605469,-49.93447875976562,-547.4005126953125,169617.1268202917,-0.1622808516559633,-1.79907145428331,-0.1301847469584832,-0.6085788607597351,0.2291692048311234,0.1960425078868866,-0.03705286979675293,-0.07067427039146423,-0.01524591445922852,1,-0.103655993938446,-0.7755300402641296,0.00046116768498905,0.6227427124977112,-0.9658157825469971,0.129817321896553,0.2243828177452087,0,0,0,-1,169613.1440169167,3,1,1561841797.090516,1561841239.621676,42,1.91319,0,0,42.10339,0,0,1561841755.596066,169614.217587,0,-0.2878418,75.19567,0,182478453,5,1,0.99,-37.72971,-41.05419,1
1561841800.850038,13,0,0,1561841799.998773,4.634600649592127,-74.1508615483289,2556.755,0.52,97.734375,4,30,-9999,1561841800.838218,-11.59381103515625,-23.40150451660156,15.21484375,149.3506927490234,156.8437957763672,15,169617.1521492917,-1.020156860351562,0.0756683349609375,0.1857757568359375,169617.1521492917,-0.2739484623759819,0.2466222990628969,-0.05718845493225255,169617.1331062917,-86.09478759765625,-50.2144775390625,-547.591796875,169617.1470832917,-0.1726266156479858,-1.795532316427393,-0.1297138521404035,-0.3639374375343323,0.24219711124897,-0.01479623280465603,-0.06185555458068848,-0.05816814303398132,-0.02998256683349609,1,-0.107516385614872,-0.7739048004150391,-0.003134564263746142,0.6241007447242737,-0.9666631817817688,0.129350408911705,0.2209768295288086,0,0,0,-1,169613.1440169167,3,1,1561841797.090516,1561841239.621676,42,1.91319,0,0,42.10339,0,0,1561841755.596066,169614.217587,0,-0.2878418,75.19567,0,182478453,5,1,0.99,-37.72971,-41.20899,1
1561841800.886116,14,0,0,1561841799.998773,4.634600649592127,-74.1508615483289,2556.755,0.52,97.734375,4,30,-9999,1561841800.865132,-11.86034393310547,-23.64840316772461,14.7501220703125,149.6657867431641,157.1588897705078,15,169617.1724132917,-0.9781341552734375,0.097869873046875,0.1890106201171875,169617.1724132917,0.1280399915210476,0.1762772957134349,-0.1381738521010172,169617.1532172917,-85.998779296875,-50.38569641113281,-547.93408203125,169617.1673472917,-0.1757377837991377,-1.791369848805076,-0.1270043735130962,0.02485743910074234,0.1952298730611801,-0.1412407159805298,-0.03140038251876831,-0.04237367212772369,-0.03300607204437256,1,-0.1078756153583527,-0.7725777626037598,-0.005387739278376102,0.625665545463562,-0.9679129719734192,0.1266632229089737,0.2170270979404449,0,0,0,-1,169613.1440169167,3,1,1561841797.090516,1561841239.621676,42,1.91319,0,0,42.10339,0,0,1561841755.596066,169614.217587,0,-0.2878418,75.19567,0,182478453,5,1,0.99,-37.72971,-42.04187,1
1561841800.890372,15,0,0,1561841799.998773,4.634600649592127,-74.1508615483289,2556.755,0.52,97.734375,4,30,-9999,1561841800.88904,-11.67720031738281,-23.68807983398438,14.8001708984375,149.2829437255859,156.7760467529297,15,169617.1926772917,-0.957427978515625,0.1164703369140625,0.200164794921875,169617.1926772917,0.4544628473837328,0.09503570244780464,-0.07214237076915649,169617.1732982917,-86.07424926757812,-50.44869995117188,-548.1697387695312,169617.1876112917,-0.1708858470438944,-1.787821751773859,-0.1252223428884329,0.3871365785598755,0.103466659784317,-0.0953906774520874,0.001076698303222656,-0.01658844947814941,-0.01954793930053711,1,-0.1054427847266197,-0.771817147731781,-0.004751593340188265,0.6270228028297424,-0.9688959717750549,0.124895341694355,0.2136397808790207,0,0,0,-1,169613.1440169167,3,1,1561841797.090516,1561841239.621676,42,1.91319,0,0,42.10339,0,0,1561841755.596066,169614.217587,0,-0.2878418,75.19567,0,182478453,5,1,0.99,-37.72971,-42.04187,1
1561841800.911173,16,0,0,1561841799.998773,4.634600649592127,-74.1508615483289,2556.755,0.52,97.734375,4,30,-9999,1561841800.88904,-11.67720031738281,-23.68807983398438,14.8001708984375,149.2829437255859,156.7760467529297,15,169617.2129402917,-0.968902587890625,0.1199493408203125,0.2151947021484375,169617.2129402917,0.5309269959698699,0.1200784714422558,-0.07167392073341154,169617.1934092917,-86.29295349121094,-50.27041625976562,-547.774658203125,169617.2078442917,-0.160917163999621,-1.784806928624693,-0.1257171458053671,0.5382893085479736,0.09101398289203644,-0.05794237181544304,0.01577019691467285,-0.003682151436805725,-0.004039525985717773,1,-0.1017454043030739,-0.7713625431060791,-0.001586988102644682,0.6282079219818115,-0.9694750308990479,0.1253862529993057,0.2107045948505402,0,0,0,-1,169613.1440169167,3,1,1561841797.090516,1561841239.621676,42,1.91319,0,0,42.10339,0,0,1561841755.596066,169614.217587,0,-0.2878418,75.19567,0,182478453,5,1,0.99,-37.72971,-42.55094,1
1561841800.931103,17,0,0,1561841799.998773,4.634600649592127,-74.1508615483289,2556.755,0.52,97.734375,4,30,-9999,1561841800.915184,-11.72235107421875,-23.53549575805664,15.119140625,148.5267944335938,156.0198974609375,15,169617.2331732917,-0.9933013916015625,0.1069183349609375,0.2395782470703125,169617.2331732917,0.4031543858222662,0.3001145527182285,-0.2030069109423422,169617.2135202917,-86.04469299316406,-49.79296875,-547.74267578125,169617.2281082917,-0.150528813401873,-1.78023758056521,-0.1254766444810452,0.4370692372322083,0.2428184300661087,-0.1668810993432999,-0.01579463481903076,-0.01487237215042114,0.01985645294189453,1,-0.09766615927219391,-0.7704548835754395,0.001359376707114279,0.6299672722816467,-0.9704571962356567,0.1251476407051086,0.2062788158655167,0,0,0,-1,169613.1440169167,3,1,1561841797.090516,1561841239.621676,42,1.91319,0,0,42.10339,0,0,1561841755.596066,169614.217587,0,-0.2878418,75.19567,0,182478453,5,1,0.99,-37.72971,-43.26608,1
1561841800.967233,18,0,0,1561841799.998773,4.634600649592127,-74.1508615483289,2556.755,0.52,97.734375,4,30,-9999,1561841800.939689,-11.68630981445312,-23.30243301391602,15.24237060546875,147.8553466796875,155.3484497070312,15,169617.2534372917,-0.97808837890625,0.130767822265625,0.259674072265625,169617.2534372917,0.319290910463453,0.3738929033450206,-0.2998375839648602,169617.2336312917,-86.22439575195312,-49.9622802734375,-547.601318359375,169617.2483712917,-0.1420041650329384,-1.772463426709871,-0.1220625240874838,0.3285726010799408,0.3735442161560059,-0.2943032383918762,-0.01595884561538696,-0.00167296826839447,0.05568873882293701,1,-0.09332750737667084,-0.768567681312561,0.002356252633035183,0.6329203844070435,-0.972444474697113,0.1217596456408501,0.1988126039505005,0,0,0,-1,169613.1440169167,3,1,1561841797.090516,1561841239.621676,42,1.91319,0,0,42.10339,0,0,1561841755.596066,169614.217587,0,-0.2878418,75.19567,0,182478453,5,1,0.99,-35.86267,-35.86267,1
1561841800.971607,19,0,0,1561841799.998773,4.634600649592127,-74.1508615483289,2556.755,0.52,97.734375,4,30,-9999,1561841800.967069,-12.22401428222656,-23.30071640014648,15.5369873046875,147.2941589355469,154.7872619628906,15,169617.2737012917,-0.9512176513671875,0.1462554931640625,0.2577056884765625,169617.2737012917,0.3718164366430858,0.2266171655864396,-0.2322454902342131,169617.2537122917,-86.44711303710938,-49.75067138671875,-547.4678344726562,169617.2686352917,-0.1343111863694713,-1.764673909700038,-0.1174933709302588,0.3480791747570038,0.2728277146816254,-0.2627359926700592,0.0102047324180603,0.01941923052072525,0.066963791847229,1,-0.08894997090101242,-0.7666527032852173,0.002675845986232162,0.6358649730682373,-0.9744991660118103,0.1172232329845428,0.1913369297981262,0,0,0,-1,169613.1440169167,3,1,1561841797.090516,1561841239.621676,42,1.91319,0,0,42.10339,0,0,1561841755.596066,169614.217587,0,-0.2878418,75.19567,0,182478453,5,1,0.99,-35.86267,-35.86267,1
1561841800.991802,20,0,0,1561841799.998773,4.634600649592127,-74.1508615483289,2556.755,0.52,97.734375,4,30,-9999,1561841800.990225,-11.80504608154297,-23.387939453125,15.5897216796875,146.6827697753906,154.1758728027344,15,169617.2939642917,-0.9287872314453125,0.1479644775390625,0.2480010986328125,169617.2939642917,0.4052534893934667,0.03722699729767263,-0.121163709586463,169617.2738232917,-86.16754150390625,-49.77937316894531,-547.387939453125,169617.2888992917,-0.1258250362768756,-1.760444480194656,-0.1148927944813221,0.4073696732521057,0.0640803650021553,-0.1498365998268127,0.03689038753509521,0.03530792891979218,0.06778013706207275,1,-0.08488582074642181,-0.7657869458198547,0.004190880805253983,0.6374536156654358,-0.9755958318710327,0.1146401911973953,0.1872704923152924,0,0,0,-1,169613.1440169167,3,1,1561841797.090516,1561841239.621676,42,1.91319,0,0,42.10339,0,0,1561841755.596066,169614.217587,0,-0.2878418,75.19567,0,182478453,5,1,0.99,-35.86267,-36.35685,1
1561841801.012104,21,0,0,1561841799.998773,4.634600649592127,-74.1508615483289,2556.755,0.52,97.734375,4,30,-9999,1561841800.990225,-11.80504608154297,-23.387939453125,15.5897216796875,146.6827697753906,154.1758728027344,15,169617.3142282917,-0.9469146728515625,0.152862548828125,0.2408905029296875,169617.3142282917,0.3337337656871707,0.02280784420765661,-0.05548323288627482,169617.2939342917,-86.289794921875,-49.81289672851562,-547.0757446289062,169617.3091622917,-0.1176991093560049,-1.759344957882891,-0.1143326331695823,0.3531493246555328,0.0007075225003063679,-0.06232540309429169,0.0433385968208313,0.03545242547988892,0.05722892284393311,1,-0.08160027861595154,-0.7657977938652039,0.006520142313092947,0.6378500461578369,-0.9758642315864563,0.1140837073326111,0.1862097382545471,0,0,0,-1,169613.1440169167,3,1,1561841797.090516,1561841239.621676,42,1.91319,0,0,42.10339,0,0,1561841755.596066,169614.217587,0,-0.2878418,75.19567,0,182478453,3,1,0.99,-35.86267,-37.20998,1
1561841801.045769,22,0,0,1561841799.998773,4.634600649592127,-74.1508615483289,2556.755,0.52,97.734375,4,30,-9999,1561841801.040967,-11.82952880859375,-22.92044067382812,15.698974609375,145.7525634765625,153.2456665039062,15,169617.3344922917,-0.9741973876953125,0.1365509033203125,0.24334716796875,169617.3344922917,0.2324039483190728,0.1059543966010205,-0.09402742965910064,169617.3140452917,-86.30232238769531,-49.63636779785156,-546.91943359375,169617.3294262917,-0.1113129523561583,-1.758089386641996,-0.1141361466323715,0.2586512863636017,0.08148066699504852,-0.08533351123332977,0.01005458831787109,0.03552556037902832,0.05890798568725586,1,-0.07909774780273438,-0.7656616568565369,0.008431505411863327,0.6383060216903687,-0.9761190414428711,0.1138884946703911,0.1849884539842606,0,0,0,-1,169613.1440169167,3,1,1561841797.090516,1561841239.621676,42,1.91319,0,0,42.10339,0,0,1561841755.596066,169614.217587,0,-0.2878418,75.19567,0,182478453,3,1,0.99,-35.86267,-37.64888,1
1561841801.05243,23,0,0,1561841799.998773,4.634600649592127,-74.1508615483289,2556.755,0.52,97.734375,4,30,-9999,1561841801.040967,-11.82952880859375,-22.92044067382812,15.698974609375,145.7525634765625,153.2456665039062,15,169617.3547552917,-0.974853515625,0.12060546875,0.2392425537109375,169617.3547552917,0.170064939838607,0.1308637412248586,-0.1042776703787066,169617.3341262917,-86.078125,-49.55511474609375,-547.130859375,169617.3496902917,-0.1067568844321998,-1.755635022559888,-0.1129592091433566,0.1721901595592499,0.1335079222917557,-0.1104130372405052,0.002336084842681885,0.01261655986309052,0.05627501010894775,1,-0.07699199020862579,-0.7651016712188721,0.009338127449154854,0.639221727848053,-0.9767013192176819,0.1127191409468651,0.1826166659593582,0,0,0,-1,169613.1440169167,3,1,1561841797.090516,1561841239.621676,42,1.91319,0,0,42.10339,0,0,1561841755.596066,169614.217587,0,-0.2878418,75.19567,0,182478453,3,1,0.99,-35.86267,-37.64888,1
1561841801.072646,24,0,0,1561841800.998763,4.634608277124013,-74.15085987194827,2556.547,0.73,74.1796875,4,30,-9999,1561841801.040967,-11.82952880859375,-22.92044067382812,15.698974609375,145.7525634765625,153.2456665039062,15,169617.3750192917,-0.97283935546875,0.1139984130859375,0.2374725341796875,169617.3750192917,0.2124424906844929,0.07511818697121102,-0.09245909409315298,169617.3542372917,-86.13758850097656,-49.53883361816406,-546.68603515625,169617.3699232917,-0.1029097058980419,-1.753330521505245,-0.1116887455061804,0.1917643994092941,0.08485595136880875,-0.09966052323579788,0.001627922058105469,0.005730822682380676,0.05749332904815674,1,-0.07512845098972321,-0.7645595669746399,0.009992679581046104,0.6400816440582275,-0.977259635925293,0.1114566847681999,0.1803912371397018,0,0,0,-1,169613.1440169167,3,1,1561841797.090516,1561841239.621676,42,1.91319,0,0,42.10339,0,0,1561841755.596066,169614.217587,0,-0.2878418,75.19567,0,182478453,3,1,0.99,-35.86267,-38.57571,1
1561841801.093301,25,0,0,1561841800.998763,4.634608277124013,-74.15085987194827,2556.547,0.73,74.1796875,4,30,-9999,1561841801.09133,-11.66461944580078,-23.06940841674805,15.9969482421875,145.1186065673828,152.6117095947266,15,169617.3952832917,-0.960174560546875,0.120849609375,0.2270050048828125,169617.3952832917,0.2648865241347693,0.04442259224695772,-0.05194841917141264,169617.3743482917,-86.060791015625,-49.7838134765625,-546.8291625976562,169617.3901862917,-0.09812001363125236,-1.752016495106038,-0.110954224086652,0.2540877163410187,0.03850283846259117,-0.0712006539106369,0.01181685924530029,0.004248268902301788,0.05359017848968506,1,-0.07307107746601105,-0.764343798160553,0.01119539327919483,0.6405574679374695,-0.9775761365890503,0.1107267066836357,0.1791216433048248,0,0,0,-1,169613.1440169167,3,1,1561841797.090516,1561841239.621676,42,1.91319,0,0,42.10339,0,0,1561841755.596066,169614.217587,0,-0.2878418,75.19567,0,182478453,3,1,0.99,-35.86267,-39.11131,1
1561841801.113298,26,0,0,1561841800.998763,4.634608277124013,-74.15085987194827,2556.547,0.73,74.1796875,4,30,-9999,1561841801.09133,-11.66461944580078,-23.06940841674805,15.9969482421875,145.1186065673828,152.6117095947266,15,169617.4155162917,-0.9544525146484375,0.12548828125,0.21368408203125,169617.4155162917,0.2415090297699447,0.08632050778052033,0.01200393229742316,169617.3944592917,-86.13960266113281,-49.49870300292969,-546.6470336914062,169617.4104502917,-0.09279580959168401,-1.750832792880479,-0.1113245834228653,0.251340389251709,0.06386572122573853,-0.008673093281686306,0.02048677206039429,0.01369159668684006,0.04224264621734619,1,-0.07116165012121201,-0.7641429901123047,0.01300065778195858,0.640977680683136,-0.9777469038963318,0.1110947802662849,0.1779569834470749,0,0,0,-1,169613.1440169167,3,1,1561841797.090516,1561841239.621676,42,1.91319,0,0,42.10339,0,0,1561841755.596066,169614.217587,0,-0.2878418,75.19567,0,182478453,3,1,0.99,-35.86267,-39.9114,1
1561841801.13354,27,0,0,1561841800.998763,4.634608277124013,-74.15085987194827,2556.547,0.73,74.1796875,4,30,-9999,1561841801.117464,-11.61255645751953,-23.04067611694336,16.04534912109375,144.7491912841797,152.2422943115234,15,169617.4357802917,-0.97601318359375,0.121124267578125,0.2090911865234375,169617.4357802917,0.1760932712821104,0.113297796990805,0.007579889094583528,169617.4145392917,-86.21144104003906,-49.24203491210938,-546.3231201171875,169617.4307142917,-0.08844715444073706,-1.74884462107851,-0.1125282975458253,0.1874644607305527,0.1050616204738617,0.02203262038528919,0.02078282833099365,0.01205290853977203,0.03124070167541504,1,-0.06989818811416626,-0.7636155486106873,0.0147867277264595,0.6417062878608704,-0.9779666662216187,0.1122909635305405,0.1759889274835587,0,0,0,-1,169613.1440169167,3,1,1561841797.090516,1561841239.621676,42,1.91319,0,0,42.10339,0,0,1561841755.596066,169614.217587,0,-0.2878418,75.19567,0,182478453,3,1,0.99,-35.86267,-40.56448,1
1561841801.153765,28,0,0,1561841800.998763,4.634608277124013,-74.15085987194827,2556.547,0.73,74.1796875,4,30,-9999,1561841801.141876,-11.64676666259766,-22.84709167480469,16.11962890625,144.4819488525391,151.9750518798828,15,169617.4560432917,-1.009323120117188,0.101043701171875,0.227691650390625,169617.4560432917,0.1371157781999287,0.1076439059965668,-0.1340813724538924,169617.4346512917,-86.06028747558594,-49.33514404296875,-546.5560913085938,169617.4509772917,-0.08513192332643914,-1.74660971481316,-0.1124931399996934,0.140427440404892,0.1046304553747177,-0.1045112013816833,-0.02171480655670166,-0.0004091039299964905,0.04659450054168701,1,-0.06863874942064285,-0.7630140781402588,0.01576023735105991,0.6425340175628662,-0.9783614873886108,0.1122560277581215,0.173803523182869,0,0,0,-1,169613.1440169167,3,1,1561841797.090516,1561841239.621676,42,1.91319,0,0,42.10339,0,0,1561841755.596066,169614.217587,0,-0.2878418,75.19567,0,182478453,3,1,0.99,-35.86267,-40.9259,1
1561841801.174581,29,0,0,1561841800.998763,4.634608277124013,-74.15085987194827,2556.547,0.73,74.1796875,4,30,-9999,1561841801.168369,-11.71639251708984,-22.90348052978516,16.2137451171875,144.2510070800781,151.7441101074219,15,169617.4763072917,-0.9956207275390625,0.0968017578125,0.22283935546875,169617.4763072917,0.1278703481596096,0.07630861997847645,-0.1997234996343835,169617.4547622917,-86.2080078125,-49.34962463378906,-546.7958984375,169617.4712412917,-0.08194543841499542,-1.744660396399797,-0.1098040017800412,0.1282685101032257,0.07892856001853943,-0.1970957368612289,-0.0262112021446228,-0.01400243490934372,0.05437064170837402,1,-0.06657911092042923,-0.7625883817672729,0.01568898558616638,0.6432573795318604,-0.9789921045303345,0.1095834821462631,0.17194764316082,0,0,0,-1,169613.1440169167,3,1,1561841797.090516,1561841239.621676,42,1.91319,0,0,42.10339,0,0,1561841755.596066,169614.217587,0,-0.2878418,75.19567,0,182478453,3,1,0.99,-35.86267,-41.37134,1
1561841801.1948,30,0,0,1561841800.998763,4.634608277124013,-74.15085987194827,2556.547,0.73,74.1796875,4,30,-9999,1561841801.19326,-11.59886169433594,-22.94278335571289,16.31695556640625,144.0193939208984,151.5124969482422,15,169617.4965712917,-0.970672607421875,0.110443115234375,0.217254638671875,169617.4965712917,0.1292133802973365,0.02834508874614937,-0.1396412538616508,169617.4748732917,-85.9063720703125,-49.50506591796875,-546.4765014648438,169617.4915052917,-0.07872092789395199,-1.743397556708391,-0.1064766959047399,0.1280093938112259,0.03621970862150192,-0.1671263873577118,-0.002478301525115967,-0.004194319248199463,0.05108988285064697,1,-0.06429458409547806,-0.7623992562294006,0.01541196927428246,0.6437203884124756,-0.9795621037483215,0.1062756180763245,0.1707728356122971,0,0,0,-1,169613.1440169167,3,1,1561841797.090516,1561841239.621676,42,1.91319,0,0,42.10339,0,0,1561841755.596066,169614.217587,0,-0.2878418,75.19567,0,182478453,3,1,0.99,-35.86267,-41.37134,1
1561841801.214683,31,0,0,1561841800.998763,4.634608277124013,-74.15085987194827,2556.547,0.73,74.1796875,4,30,-9999,1561841801.19326,-11.59886169433594,-22.94278335571289,16.31695556640625,144.0193939208984,151.5124969482422,15,169617.5168342917,-0.94866943359375,0.12493896484375,0.198760986328125,169617.5168342917,0.116693327380656,0.02000566610867524,-0.02766465108763412,169617.4949532917,-86.06988525390625,-49.46916198730469,-546.3218383789062,169617.5117682917,-0.07587925342656252,-1.74298718734647,-0.1047191816154147,0.1164747029542923,0.005464461166411638,-0.05729708820581436,0.01935005187988281,0.01401764154434204,0.03737640380859375,1,-0.06265152245759964,-0.7624146342277527,0.01564138941466808,0.6438586115837097,-0.9798145294189453,0.1045278906822205,0.1704025715589523,0,0,0,-1,169613.1440169167,3,1,1561841797.090516,1561841239.621676,42,1.91319,0,0,42.10339,0,0,1561841755.596066,169614.217587,0,-0.2878418,75.19567,0,182478453,3,1,0.99,-35.86267,-39.21232,1
1561841801.235458,32,0,0,1561841800.998763,4.634608277124013,-74.15085987194827,2556.547,0.73,74.1796875,4,30,-9999,1561841801.219075,-11.59261322021484,-22.87347793579102,16.45086669921875,143.8280029296875,151.3211059570312,15,169617.5370982917,-0.9456329345703125,0.1274261474609375,0.18414306640625,169617.5370982917,0.08909312479140183,0.09846745182848074,0.08121336375807538,169617.5150642917,-86.03607177734375,-49.55360412597656,-546.470458984375,169617.5320322917,-0.07372970735695177,-1.742299353215351,-0.1050924200196196,0.09600511193275452,0.07273377478122711,0.05381451919674873,0.03838002681732178,0.0208333432674408,0.01965487003326416,1,-0.06195732578635216,-0.762248158454895,0.01645482890307903,0.6441026329994202,-0.9798930883407593,0.1048990786075592,0.169721931219101,0,0,0,-1,169613.1440169167,3,1,1561841797.090516,1561841239.621676,42,1.91319,0,0,42.10339,0,0,1561841755.596066,169614.217587,0,-0.2878418,75.19567,0,182478453,3,1,0.99,-35.86267,-40.01176,1
1561841801.257252,33,0,0,1561841800.998763,4.634608277124013,-74.15085987194827,2556.547,0.73,74.1796875,4,30,-9999,1561841801.245295,-11.58133697509766,-22.79407501220703,16.46331787109375,143.70751953125,151.2006225585938,15,169617.5573622917,-0.970428466796875,0.12677001953125,0.1870880126953125,169617.5573622917,0.06219333356883847,0.09913537262987261,0.08635938993243548,169617.5351752917,-86.0274658203125,-49.51171875,-546.3997192382812,169617.5522652917,-0.07252670515621601,-1.740435014952158,-0.1070147566353693,0.06034965440630913,0.1033412218093872,0.09367192536592484,0.02120602130889893,0.02285857498645782,0.01297152042388916,1,-0.06213143095374107,-0.761623203754425,0.01751937717199326,0.6447967290878296,-0.9800072908401489,0.1068106144666672,0.1678604334592819,0,0,0,-1,169613.1440169167,3,1,1561841797.090516,1561841239.621676,42,1.91319,0,0,42.10339,0,0,1561841755.596066,169614.217587,0,-0.2878418,75.19567,0,182478453,3,1,0.99,-35.86267,-40.62089,1
1561841801.279488,34,0,0,1561841800.998763,4.634608277124013,-74.15085987194827,2556.547,0.73,74.1796875,4,30,-9999,1561841801.270178,-11.78034210205078,-22.83487319946289,16.635986328125,143.6313629150391,151.1244659423828,15,169617.5775952917,-1.0018310546875,0.1125335693359375,0.1968994140625,169617.5775952917,0.08943081361762388,0.04643993677269275,-0.007650995495688644,169617.5552872917,-86.25885009765625,-49.40858459472656,-546.61181640625,169617.5725292917,-0.0714410495991684,-1.738898867671044,-0.1084490232712163,0.07790946960449219,0.05862275511026382,0.01992739178240299,-0.003271162509918213,0.01081250607967377,0.0274118185043335,1,-0.0621924065053463,-0.7611153721809387,0.01836959458887577,0.6453666090965271,-0.9801120162010193,0.1082365661859512,0.1663290113210678,0,0,0,-1,169613.1440169167,3,1,1561841797.090516,1561841239.621676,42,1.91319,0,0,42.10339,0,0,1561841755.596066,169615.16165,0,-0.2878418,75.19567,0,182478453,3,1,0.99,-35.67688,-35.67688,1
1561841801.295833,35,0,0,1561841800.998763,4.634608277124013,-74.15085987194827,2556.547,0.73,74.1796875,4,30,-9999,1561841801.270178,-11.78034210205078,-22.83487319946289,16.635986328125,143.6313629150391,151.1244659423828,15,169617.5978592917,-1.001007080078125,0.103179931640625,0.1981353759765625,169617.5978592917,0.144185938261871,-0.02416525741527,-0.08704808339032997,169617.5753672917,-86.16348266601562,-49.21566772460938,-546.2462768554688,169617.5927932917,-0.06931656768726945,-1.738491054940855,-0.1080743326100533,0.1279513239860535,-0.01661154627799988,-0.08486133813858032,-0.02690643072128296,-0.001144096255302429,0.03296232223510742,1,-0.06126737594604492,-0.7610613107681274,0.0188995748758316,0.6455034017562866,-0.9802194833755493,0.1078640669584274,0.1659360229969025,0,0,0,-1,169613.1440169167,3,1,1561841797.090516,1561841239.621676,42,1.91319,0,0,42.10339,0,0,1561841755.596066,169615.16165,0,-0.2878418,75.19567,0,182478453,3,1,0.99,-35.67688,-36.57816,1
1561841801.315993,36,0,0,1561841800.998763,4.634608277124013,-74.15085987194827,2556.547,0.73,74.1796875,4,30,-9999,1561841801.294794,-11.66423797607422,-22.58797073364258,16.51580810546875,143.4693908691406,150.9624938964844,15,169617.6181222917,-0.9901580810546875,0.1069793701171875,0.187530517578125,169617.6181222917,0.1486786910208347,-0.007780957756884511,-0.0440857023690627,169617.5954782917,-86.1993408203125,-49.27304077148438,-546.17724609375,169617.6130562917,-0.06609097036792984,-1.738883000862692,-0.1070766281173002,0.1539168804883957,-0.02560584060847759,-0.05992509797215462,-0.01732903718948364,-0.0001368969678878784,0.02625834941864014,1,-0.05971537902951241,-0.76131671667099,0.01957145892083645,0.6453276872634888,-0.9802600741386414,0.106872133910656,0.1663381457328796,0,0,0,-1,169613.1440169167,3,1,1561841797.090516,1561841239.621676,42,1.91319,0,0,42.10339,0,0,1561841755.596066,169615.16165,0,-0.2878418,75.19567,0,182478453,3,1,0.99,-35.67688,-37.22863,1
1561841801.366723,37,0,0,1561841800.998763,4.634608277124013,-74.15085987194827,2556.547,0.73,74.1796875,4,30,-9999,1561841801.344832,-11.81900787353516,-22.64931488037109,16.6732177734375,143.1174011230469,150.6105041503906,15,169617.6383862917,-0.9671783447265625,0.1069183349609375,0.1777801513671875,169617.6383862917,0.06199972175758971,0.04200417566105677,0.002856240269109983,169617.6155892917,-86.40376281738281,-49.33610534667969,-546.0540771484375,169617.6333202917,-0.06340899332164104,-1.738744102827388,-0.1068900991320569,0.08862230181694031,0.02071984671056271,-0.0153554966673255,0.006258070468902588,-0.001217924058437347,0.01671707630157471,1,-0.05863587930798531,-0.7613570094108582,0.02036152780056,0.6453547477722168,-0.9803028702735901,0.1066866666078568,0.1662053316831589,0,0,0,-1,169613.1440169167,3,1,1561841797.090516,1561841239.621676,42,1.91319,0,0,42.10339,0,0,1561841755.596066,169615.16165,0,-0.2878418,75.19567,0,182478453,3,1,0.99,-35.67688,-38.55537,1
1561841801.369238,38,0,0,1561841800.998763,4.634608277124013,-74.15085987194827,2556.547,0.73,74.1796875,4,30,-9999,1561841801.344832,-11.81900787353516,-22.64931488037109,16.6732177734375,143.1174011230469,150.6105041503906,15,169617.6586502917,-0.970458984375,0.1125640869140625,0.1721649169921875,169617.6586502917,-0.01871190245111474,0.09511932570603313,0.03689916216748388,169617.6357002917,-86.05821228027344,-49.2923583984375,-546.0552978515625,169617.6535842917,-0.06271895905973815,-1.737717640853073,-0.107275052005025,-0.007377196103334427,0.08221143484115601,0.02967589348554611,0.01343721151351929,0.002839639782905579,0.007750868797302246,1,-0.05850754678249359,-0.7610341310501099,0.02070112153887749,0.6457363367080688,-0.9804324507713318,0.1070694178342819,0.1651921570301056,0,0,0,-1,169613.1440169167,3,1,1561841797.090516,1561841239.621676,42,1.91319,0,0,42.10339,0,0,1561841755.596066,169615.16165,0,-0.2878418,75.19567,0,182478453,3,1,0.99,-35.67688,-38.55537,1
1561841801.376969,39,0,0,1561841800.998763,4.634608277124013,-74.15085987194827,2556.547,0.73,74.1796875,4,30,-9999,1561841801.371053,-11.64862060546875,-22.67664337158203,16.521240234375,143.1460571289062,150.63916015625,15,169617.6789132917,-0.9783782958984375,0.111114501953125,0.1749114990234375,169617.6789132917,-0.0062211443064251,0.09862644254555848,0.007350857240836713,169617.6558112917,-86.05650329589844,-49.1634521484375,-546.2681884765625,169617.6738472917,-0.06327371681806279,-1.736082478147807,-0.1077845744090707,-0.0198794063180685,0.09225661307573318,0.01744825579226017,0.00872337818145752,0.003919973969459534,0.009012341499328613,1,-0.0588994063436985,-0.7604740262031555,0.02066829614341259,0.6463612914085388,-0.9806472659111023,0.107575997710228,0.1635797619819641,0,0,0,-1,169613.1440169167,3,1,1561841797.090516,1561841239.621676,42,1.91319,0,0,42.10339,0,0,1561841755.596066,169615.16165,0,-0.2878418,75.19567,0,182478453,3,1,0.99,-35.67688,-38.55537,1
1561841801.397001,40,0,0,1561841800.998763,4.634608277124013,-74.15085987194827,2556.547,0.73,74.1796875,4,30,-9999,1561841801.395408,-11.77834320068359,-22.72185516357422,16.47412109375,143.1194305419922,150.6125335693359,15,169617.6991772917,-0.9929351806640625,0.1102447509765625,0.1798858642578125,169617.6991772917,0.0625640455925775,0.1039988374125753,-0.06159864969742377,169617.6759222917,-86.24458312988281,-49.25502014160156,-546.1439208984375,169617.6941112917,-0.0630466385851198,-1.734285279848683,-0.1074959396447562,0.04225746914744377,0.09858987480401993,-0.05229354277253151,-0.009782969951629639,0.005442902445793152,0.01691937446594238,1,-0.05873867124319077,-0.7599084377288818,0.02057884261012077,0.6470435857772827,-0.9809702038764954,0.1072890311479568,0.1618221253156662,0,0,0,-1,169613.1440169167,3,1,1561841797.090516,1561841239.621676,42,1.91319,0,0,42.10339,0,0,1561841755.596066,169615.16165,0,-0.2878418,75.19567,0,182478453,3,1,0.99,-35.67688,-39.27059,1
1561841801.446411,41,0,0,1561841800.998763,4.634608277124013,-74.15085987194827,2556.547,0.73,74.1796875,4,30,-9999,1561841801.421829,-11.84908294677734,-22.50408554077148,16.52783203125,142.9708099365234,150.4639129638672,15,169617.7194412917,-0.9758758544921875,0.1075439453125,0.1722259521484375,169617.7194412917,0.1087358020434993,0.08305014596190302,-0.06696811508724153,169617.6960342917,-86.20866394042969,-49.10023498535156,-546.1982421875,169617.7143442917,-0.06132984344559762,-1.732368607895246,-0.1063149052748156,0.1015189215540886,0.079212985932827,-0.07900530844926834,-0.005321800708770752,0.001917481422424316,0.01534628868103027,1,-0.05772553384304047,-0.7593739032745361,0.0206289105117321,0.6477603912353516,-0.9814030528068542,0.1061147376894951,0.159961923956871,0,0,0,-1,169613.1440169167,3,1,1561841797.090516,1561841239.621676,42,1.91319,0,0,42.10339,0,0,1561841755.596066,169615.16165,0,-0.2878418,75.19567,0,182478453,3,1,0.99,-35.67688,-36.78553,1
1561841801.449466,42,0,0,1561841800.998763,4.634608277124013,-74.15085987194827,2556.547,0.73,74.1796875,4,30,-9999,1561841801.446148,-11.90087890625,-22.58106994628906,16.63067626953125,142.8234252929688,150.3165283203125,15,169617.7396742917,-0.9608001708984375,0.11614990234375,0.16693115234375,169617.7396742917,0.09679285613503892,0.1002805318986067,-0.001216531985948196,169617.7161452917,-86.16029357910156,-49.30055236816406,-546.320068359375,169617.7346082917,-0.05902597347933451,-1.730631562730825,-0.1055440621318995,0.1025916412472725,0.0840519443154335,-0.02647765725851059,0.01532924175262451,0.006590262055397034,0.01178932189941406,1,-0.05662029981613159,-0.7588999271392822,0.02103241719305515,0.6484001278877258,-0.9817599058151245,0.1053482219576836,0.1582699120044708,0,0,0,-1,169613.1440169167,3,1,1561841797.090516,1561841239.621676,42,1.91319,0,0,42.10339,0,0,1561841755.596066,169615.16165,0,-0.2878418,75.19567,0,182478453,3,1,0.99,-35.67688,-36.78553,1
1561841801.457743,43,0,0,1561841800.998763,4.634608277124013,-74.15085987194827,2556.547,0.73,74.1796875,4,30,-9999,1561841801.446148,-11.90087890625,-22.58106994628906,16.63067626953125,142.8234252929688,150.3165283203125,15,169617.7599372917,-0.9589080810546875,0.12200927734375,0.1577911376953125,169617.7599372917,0.05255375568718765,0.1350712694310748,0.06845282739496071,169617.7362562917,-85.99276733398438,-49.10708618164062,-546.0760498046875,169617.7548712917,-0.05744028700528974,-1.728430920761821,-0.1061742319385779,0.05942047759890556,0.1227436885237694,0.05445953458547592,0.02365070581436157,0.01333360373973846,0.006666898727416992,1,-0.05624609813094139,-0.758212149143219,0.02172436565160751,0.649213969707489,-0.9820399880409241,0.1059748604893684,0.1560985743999481,0,0,0,-1,169613.1440169167,3,1,1561841797.090516,1561841239.621676,42,1.91319,0,0,42.10339,0,0,1561841755.596066,169615.16165,0,-0.2878418,75.19567,0,182478453,3,1,0.99,-35.67688,-36.93158,1
1561841801.478174,44,0,0,1561841800.998763,4.634608277124013,-74.15085987194827,2556.547,0.73,74.1796875,4,30,-9999,1561841801.472632,-11.91021728515625,-22.23803329467773,16.51708984375,142.7591705322266,150.2522735595703,15,169617.7802012917,-0.9813995361328125,0.11737060546875,0.156982421875,169617.7802012917,0.04417491826558036,0.1471870544942813,0.04341618367101678,169617.7563362917,-86.25740051269531,-48.76107788085938,-546.3082885742188,169617.7751352917,-0.05669474105623261,-1.725754009148369,-0.1076459479765865,0.04082974791526794,0.1400478482246399,0.05625903233885765,0.0144493579864502,0.01454058289527893,0.0009588003158569336,1,-0.05646957829594612,-0.7573200464248657,0.02245019748806953,0.6502103209495544,-0.9822990894317627,0.1074381768703461,0.1534449309110641,0,0,0,-1,169613.1440169167,3,1,1561841797.090516,1561841239.621676,42,1.91319,0,0,42.10339,0,0,1561841755.596066,169615.16165,0,-0.2878418,75.19567,0,182478453,3,1,0.99,-34.88354,-37.42812,1
1561841801.526747,45,0,0,1561841800.998763,4.634608277124013,-74.15085987194827,2556.547,0.73,74.1796875,4,30,-9999,1561841801.52419,-12.06866455078125,-22.37078857421875,16.41485595703125,142.5646514892578,150.0577545166016,15,169617.8004652917,-0.9930419921875,0.1109771728515625,0.1696929931640625,169617.8004652917,0.06870742559517229,0.1353636845187655,-0.01059565271298926,169617.7764472917,-86.41854858398438,-49.11537170410156,-546.45458984375,169617.7953992917,-0.05582358069019859,-1.72287920631374,-0.1082745003563332,0.06103355064988136,0.1392667442560196,-0.007077593356370926,-0.007198810577392578,0.004531539976596832,0.01577162742614746,1,-0.05637628212571144,-0.7563906311988831,0.02289102599024773,0.6512840986251831,-0.9826693534851074,0.1080630645155907,0.1506101489067078,0,0,0,-1,169613.1440169167,3,1,1561841797.090516,1561841239.621676,42,1.91319,0,0,42.10339,0,0,1561841755.596066,169615.16165,0,-0.2878418,75.19567,0,182478453,3,1,0.99,-34.88354,-38.62513,1
1561841801.52952,46,0,0,1561841800.998763,4.634608277124013,-74.15085987194827,2556.547,0.73,74.1796875,4,30,-9999,1561841801.52419,-12.06866455078125,-22.37078857421875,16.41485595703125,142.5646514892578,150.0577545166016,15,169617.8207282917,-0.9878082275390625,0.103729248046875,0.171539306640625,169617.8207282917,0.0937906746381926,0.0769826660503755,-0.01512355919834198,169617.7965582917,-86.44552612304688,-49.03366088867188,-546.1339111328125,169617.8156622917,-0.05425929578758244,-1.720486646371598,-0.1081659774257469,0.08929155021905899,0.08613506704568863,-0.01972388103604317,-0.00872194766998291,-0.0001670867204666138,0.02420973777770996,1,-0.05577734857797623,-0.7556580305099487,0.02329256385564804,0.6521711349487305,-0.9830383062362671,0.1079551801085472,0.1482603400945663,0,0,0,-1,169613.1440169167,3,1,1561841797.090516,1561841239.621676,42,1.91319,0,0,42.10339,0,0,1561841755.596066,169615.16165,0,-0.2878418,75.19567,0,182478453,3,1,0.99,-34.88354,-38.62513,1
1561841801.538778,47,0,0,1561841800.998763,4.634608277124013,-74.15085987194827,2556.547,0.73,74.1796875,4,30,-9999,1561841801.52419,-12.06866455078125,-22.37078857421875,16.41485595703125,142.5646514892578,150.0577545166016,15,169617.8409922917,-0.978851318359375,0.1062774658203125,0.1651153564453125,169617.8409922917,0.06865522763780672,0.04216103584926244,-0.01479572406815322,169617.8166702917,-86.50032043457031,-49.08283996582031,-546.36376953125,169617.8359262917,-0.05247902311176981,-1.719168454948708,-0.1081163415432626,0.07526498287916183,0.04140426963567734,-0.01812040060758591,-0.001319944858551025,-0.005534619092941284,0.02100348472595215,1,-0.05510426685214043,-0.7552788257598877,0.02381796203553677,0.6526484489440918,-0.983238160610199,0.1079058349132538,0.1469651758670807,0,0,0,-1,169613.1440169167,3,1,1561841797.090516,1561841239.621676,42,1.91319,0,0,42.10339,0,0,1561841755.596066,169615.16165,0,-0.2878418,75.19567,0,182478453,3,1,0.99,-34.88354,-38.62513,1
1561841801.55906,48,0,0,1561841800.998763,4.634608277124013,-74.15085987194827,2556.547,0.73,74.1796875,4,30,-9999,1561841801.547597,-11.96106719970703,-22.7288703918457,16.7540283203125,142.4544830322266,149.9475860595703,15,169617.8612562917,-0.9759063720703125,0.117889404296875,0.15716552734375,169617.8612562917,0.02850594367599015,0.06054776633127851,0.004387291579796537,169617.8367812917,-86.25881958007812,-49.27626037597656,-546.1337280273438,169617.8561902917,-0.05133062488389598,-1.718314928556696,-0.1080833335648785,0.03563554584980011,0.04545813426375389,-0.006404888816177845,0.008559286594390869,0.005698151886463165,0.015616774559021,1,-0.05467015132308006,-0.7550327181816101,0.02415687404572964,0.6529573798179626,-0.9833670258522034,0.1078730151057243,0.146126464009285,0,0,0,-1,169613.1440169167,3,1,1561841797.090516,1561841239.621676,42,1.91319,0,0,42.10339,0,0,1561841755.596066,169615.16165,0,-0.2878418,75.19567,0,182478453,3,1,0.99,-34.88354,-38.87289,1
1561841801.60375,49,0,0,1561841800.998763,4.634608277124013,-74.15085987194827,2556.547,0.73,74.1796875,4,30,-9999,1561841801.57375,-11.99418640136719,-22.55865097045898,16.68353271484375,142.4137115478516,149.9068145751953,15,169617.8815192917,-0.97076416015625,0.1185760498046875,0.1548004150390625,169617.8815192917,0.02127705921307907,0.08417533152246151,0.01412221062847218,169617.8568922917,-86.43183898925781,-49.24577331542969,-546.2662963867188,169617.8764232917,-0.05089605867039137,-1.717103197353444,-0.1082935252333371,0.01516702398657799,0.07536623626947403,0.01189502235502005,0.009231805801391602,0.01020415127277374,0.009716391563415527,1,-0.05458926036953926,-0.7546427845954895,0.02434522844851017,0.6534076333045959,-0.9835207462310791,0.1080819815397263,0.144931435585022,0,0,0,-1,169613.1440169167,3,1,1561841797.090516,1561841239.621676,42,1.91319,0,0,42.10339,0,0,1561841755.596066,169615.16165,0,-0.2878418,75.19567,0,182478453,3,1,0.99,-34.88354,-40.43837,1
1561841801.606807,50,0,0,1561841800.998763,4.634608277124013,-74.15085987194827,2556.547,0.73,74.1796875,4,30,-9999,1561841801.602806,-12.10376739501953,-22.71548843383789,16.64825439453125,142.3755035400391,149.8686065673828,15,169617.9017832917,-0.977569580078125,0.1125640869140625,0.1594085693359375,169617.9017832917,0.0513955469291122,0.075150943852619,0.0002314286987278858,169617.8770032917,-86.5565185546875,-49.14595031738281,-546.2736206054688,169617.8966872917,-0.05045014704297582,-1.71565475248126,-0.1085105501298531,0.0377194732427597,0.06798820942640305,0.00138246058486402,0.01024156808853149,0.008706659078598022,0.01419627666473389,1,-0.05450946465134621,-0.7541753053665161,0.02453351579606533,0.6539468765258789,-0.983706533908844,0.108297735452652,0.1435033529996872,0,0,0,-1,169613.1440169167,3,1,1561841797.090516,1561841239.621676,42,1.91319,0,0,42.10339,0,0,1561841755.596066,169615.16165,0,-0.2878418,75.19567,0,182478453,3,1,0.99,-34.88354,-40.43837,1
1561841801.619743,51,0,0,1561841800.998763,4.634608277124013,-74.15085987194827,2556.547,0.73,74.1796875,4,30,-9999,1561841801.602806,-12.10376739501953,-22.71548843383789,16.64825439453125,142.3755035400391,149.8686065673828,15,169617.9220162917,-0.99072265625,0.10772705078125,0.1685638427734375,169617.9220162917,0.07780398493055593,0.0692491125608944,-0.02198119900529602,169617.8971142917,-86.52435302734375,-49.261474609375,-546.1043090820312,169617.9169502917,-0.04930162597756168,-1.714248617546285,-0.1085006672126404,0.07143855094909668,0.06854694336652756,-0.01628601551055908,-0.003717005252838135,0.001010790467262268,0.0215609073638916,1,-0.05409064143896103,-0.7537468075752258,0.02486729808151722,0.6544626951217651,-0.9839081764221191,0.1082879081368446,0.1421200931072235,0,0,0,-1,169613.1440169167,3,1,1561841797.090516,1561841239.621676,42,1.91319,0,0,42.10339,0,0,1561841755.596066,169615.16165,0,-0.2878418,75.19567,0,182478453,3,1,0.99,-34.88354,-40.75624,1
1561841801.640053,52,0,0,1561841800.998763,4.634608277124013,-74.15085987194827,2556.547,0.73,74.1796875,4,30,-9999,1561841801.624686,-12.24088287353516,-22.64865875244141,16.73193359375,142.2772216796875,149.7703247070312,15,169617.9422802917,-0.9739227294921875,0.10845947265625,0.16644287109375,169617.9422802917,0.0796650019003033,0.02022511058249777,-0.017880463558792,169617.9172252917,-86.53273010253906,-49.05108642578125,-546.292236328125,169617.9372142917,-0.04767661844041719,-1.713115954901609,-0.1081867313653527,0.07863175123929977,0.02891830727458,-0.0271913930773735,0.004030406475067139,-9.617209434509277e-05,0.02694308757781982,1,-0.05339008569717407,-0.7534286379814148,0.02525021322071552,0.6548720002174377,-0.9841024279594421,0.1079758107662201,0.1410104334354401,0,0,0,-1,169613.1440169167,3,1,1561841797.090516,1561841239.621676,42,1.91319,0,0,42.10339,0,0,1561841755.596066,169615.16165,0,-0.2878418,75.19567,0,182478453,3,1,0.99,-34.88354,-40.98722,1
1561841801.678262,53,0,0,1561841800.998763,4.634608277124013,-74.15085987194827,2556.547,0.73,74.1796875,4,30,-9999,1561841801.675072,-12.02275085449219,-22.40506362915039,16.76165771484375,142.0878295898438,149.5809326171875,15,169617.9625442917,-0.96929931640625,0.1128692626953125,0.1614837646484375,169617.9625442917,0.05635408656273073,0.01362366687240935,0.01607377507528225,169617.9373062917,-86.45954895019531,-48.77622985839844,-546.3597412109375,169617.9574782917,-0.04616567179857674,-1.712854465797902,-0.1081920545149599,0.06177899986505508,0.001290674787014723,0.003579035634174943,0.01198595762252808,0.001317605376243591,0.02332472801208496,1,-0.05282597988843918,-0.7533829808235168,0.02574004977941513,0.6549511551856995,-0.9841386079788208,0.1079811006784439,0.1407530009746552,0,0,0,-1,169613.1440169167,3,1,1561841797.090516,1561841239.621676,42,1.91319,0,0,42.10339,0,0,1561841755.596066,169615.16165,0,-0.2878418,75.19567,0,182478453,3,1,0.99,-34.88354,-41.26975,1
1561841801.68121,54,0,0,1561841800.998763,4.634608277124013,-74.15085987194827,2556.547,0.73,74.1796875,4,30,-9999,1561841801.675072,-12.02275085449219,-22.40506362915039,16.76165771484375,142.0878295898438,149.5809326171875,15,169617.9828072917,-0.9723358154296875,0.1190338134765625,0.152313232421875,169617.9828072917,0.01774943603316011,0.08225785553760445,0.06161942235392639,169617.9574172917,-86.50302124023438,-49.06130981445312,-546.173828125,169617.9777412917,-0.04538977381656929,-1.712358365759437,-0.1088452248902054,0.02030586078763008,0.05713529884815216,0.0459912084043026,0.0156322717666626,0.008740171790122986,0.01736855506896973,1,-0.05275349691510201,-0.7532227039337158,0.02622763067483902,0.6551218628883362,-0.9841381311416626,0.108630433678627,0.1402547508478165,0,0,0,-1,169613.1440169167,3,1,1561841797.090516,1561841239.621676,42,1.91319,0,0,42.10339,0,0,1561841755.596066,169615.16165,0,-0.2878418,75.19567,0,182478453,3,1,0.99,-34.88354,-41.26975,1
1561841801.70092,55,0,0,1561841800.998763,4.634608277124013,-74.15085987194827,2556.547,0.73,74.1796875,4,30,-9999,1561841801.675072,-12.02275085449219,-22.40506362915039,16.76165771484375,142.0878295898438,149.5809326171875,15,169618.0030712917,-0.972015380859375,0.12237548828125,0.1515960693359375,169618.0030712917,0.04593446879779571,0.1415275708617539,0.05792961266362161,169617.9775282917,-86.78620910644531,-48.92794799804688,-546.2691040039062,169617.9980052917,-0.04521458555370701,-1.710541741626079,-0.11009303736614,0.02823568880558014,0.1253175586462021,0.06182157248258591,0.01088303327560425,0.01020063459873199,0.01043224334716797,1,-0.05311936140060425,-0.7525969743728638,0.02670771442353725,0.6557918190956116,-0.9842565059661865,0.1098707765340805,0.1384477466344833,0,0,0,-1,169613.1440169167,3,1,1561841797.090516,1561841239.621676,42,1.91319,0,0,42.10339,0,0,1561841755.596066,169615.16165,0,-0.2878418,75.19567,0,182478453,3,1,0.99,-34.88354,-41.27757,1
1561841801.721233,56,0,0,1561841800.998763,4.634608277124013,-74.15085987194827,2556.547,0.73,74.1796875,4,30,-9999,1561841801.699821,-12.38607025146484,-22.65152359008789,16.5726318359375,142.0692291259766,149.5623321533203,15,169618.0233352917,-0.9687042236328125,0.1273956298828125,0.161590576171875,169618.0233352917,0.1296112565641944,0.1371791614338725,0.044667070435027,169617.9976392917,-86.61213684082031,-48.91015625,-545.8701171875,169618.0182692917,-0.04408734278317672,-1.707733649647911,-0.1112953843157523,0.102505125105381,0.1393843740224838,0.04456828162074089,0.01264691352844238,0.01379691064357758,0.0222022533416748,1,-0.05312690138816833,-0.7516715526580811,0.02745617553591728,0.6568208336830139,-0.9845097661018372,0.1110657602548599,0.1356651782989502,0,0,0,-1,169613.1440169167,3,1,1561841797.090516,1561841239.621676,42,1.91319,0,0,42.10339,0,0,1561841755.596066,169615.16165,0,-0.2878418,75.19567,0,182478453,3,1,0.99,-34.88354,-41.84695,1
1561841801.763365,57,0,0,1561841800.998763,4.634608277124013,-74.15085987194827,2556.547,0.73,74.1796875,4,30,-9999,1561841801.750075,-12.40760040283203,-22.3283805847168,16.67095947265625,141.7104339599609,149.2035369873047,15,169618.0435982917,-0.95172119140625,0.1297149658203125,0.167449951171875,169618.0435982917,0.1839048553915308,0.0525183356446896,0.07751236879119226,169618.0177502917,-86.77388000488281,-48.7320556640625,-546.2095336914062,169618.0385322917,-0.04132333782945771,-1.705265007507258,-0.1126527337376237,0.1754650771617889,0.07621551305055618,0.06262318044900894,0.02439475059509277,0.01791070401668549,0.03298473358154297,1,-0.05256819352507591,-0.7508952021598816,0.02881021983921528,0.6576952338218689,-0.9846913814544678,0.112414613366127,0.1332140415906906,0,0,0,-1,169613.1440169167,3,1,1561841797.090516,1561841239.621676,42,1.91319,0,0,42.10339,0,0,1561841755.596066,169615.16165,0,-0.2878418,75.19567,0,182478453,3,1,0.99,-34.88354,-38.54301,1
1561841801.766568,58,0,0,1561841800.998763,4.634608277124013,-74.15085987194827,2556.547,0.73,74.1796875,4,30,-9999,1561841801.750075,-12.40760040283203,-22.3283805847168,16.67095947265625,141.7104339599609,149.2035369873047,15,169618.0638622917,-0.95782470703125,0.12286376953125,0.167144775390625,169618.0638622917,0.1486709678536735,-0.0630111903396018,0.1317923854969693,169618.0378612917,-86.71583557128906,-48.66522216796875,-546.2266845703125,169618.0587662917,-0.0380405069469632,-1.704741080151122,-0.1149051258651232,0.1600994467735291,-0.05040234699845314,0.1158163622021675,0.03628057241439819,0.01371975243091583,0.03481650352478027,1,-0.05208243429660797,-0.7507458925247192,0.03072341158986092,0.6578176617622375,-0.9845075011253357,0.1146524399518967,0.1326639503240585,0,0,0,-1,169613.1440169167,3,1,1561841797.090516,1561841239.621676,42,1.91319,0,0,42.10339,0,0,1561841755.596066,169615.16165,0,-0.2878418,75.19567,0,182478453,3,1,0.99,-34.88354,-38.54301,1
1561841801.782039,59,0,0,1561841800.998763,4.634608277124013,-74.15085987194827,2556.547,0.73,74.1796875,4,30,-9999,1561841801.777358,-12.28035736083984,-22.07521820068359,16.81365966796875,141.5397338867188,149.0328369140625,15,169618.0840952917,-0.988128662109375,0.1086883544921875,0.160064697265625,169618.0840952917,0.03655002174857449,-0.04186595760048165,0.1231229972004343,169618.0579722917,-86.69358825683594,-48.599853515625,-545.9755249023438,169618.0790292917,-0.03598407711809552,-1.706027004752712,-0.1179051681045011,0.06585283577442169,-0.06967271864414215,0.1326541900634766,0.008786380290985107,-0.0005362331867218018,0.03086626529693604,1,-0.05227385461330414,-0.7511383891105652,0.03256160765886307,0.6572657823562622,-0.9839909076690674,0.1176321804523468,0.1338828653097153,0,0,0,-1,169613.1440169167,3,1,1561841797.090516,1561841239.621676,42,1.91319,0,0,42.10339,0,0,1561841755.596066,169615.16165,0,-0.2878418,75.19567,0,182478453,3,1,0.99,-34.88354,-38.90633,1
1561841801.802324,60,0,0,1561841800.998763,4.634608277124013,-74.15085987194827,2556.547,0.73,74.1796875,4,30,-9999,1561841801.800846,-12.27462005615234,-22.12194061279297,16.73931884765625,141.5622100830078,149.0553131103516,15,169618.104373875,-1.003326416015625,0.1006622314453125,0.152374267578125,169618.104373875,-0.06348256985254583,0.06211343873613609,0.05381050140559605,169618.0780832917,-86.66329956054688,-48.96113586425781,-546.1315307617188,169618.0992932917,-0.03619377368011774,-1.706538889247889,-0.1199589938440049,-0.05024660378694534,0.03427685424685478,0.06545198708772659,-0.01490002870559692,-0.01534715294837952,0.01908886432647705,1,-0.05301737412810326,-0.7512429356575012,0.03327903151512146,0.6570508480072021,-0.9836809039115906,0.119671493768692,0.1343535780906677,0,0,0,-1,169613.1440169167,3,1,1561841797.090516,1561841239.621676,42,1.91319,0,0,42.10339,0,0,1561841755.596066,169615.16165,0,-0.2878418,75.19567,0,182478453,3,1,0.99,-34.88354,-39.89365,1
1561841801.846272,61,0,0,1561841800.998763,4.634608277124013,-74.15085987194827,2556.547,0.73,74.1796875,4,30,-9999,1561841801.828606,-12.42342376708984,-22.19621276855469,16.73443603515625,141.6520690917969,149.1451721191406,15,169618.124636875,-0.9969940185546875,0.10113525390625,0.1519775390625,169618.124636875,-0.03940066937939531,0.09248945412957987,0.03420564104097774,169618.098208875,-86.84846496582031,-48.52894592285156,-546.118896484375,169618.119571875,-0.03767055804846897,-1.705492941024045,-0.1206945817255374,-0.05965714901685715,0.08619198203086853,0.0315193235874176,-0.01748752593994141,-0.0213264524936676,0.01802384853363037,1,-0.05383040010929108,-0.7508386373519897,0.0330425538122654,0.6574585437774658,-0.9837331771850586,0.1204017624258995,0.1333127468824387,0,0,0,-1,169613.1440169167,3,1,1561841797.090516,1561841239.621676,42,1.91319,0,0,42.10339,0,0,1561841755.596066,169615.16165,0,-0.2878418,75.19567,0,182478453,3,1,0.99,-34.88354,-39.18611,1
1561841801.848905,62,0,0,1561841800.998763,4.634608277124013,-74.15085987194827,2556.547,0.73,74.1796875,4,30,-9999,1561841801.828606,-12.42342376708984,-22.19621276855469,16.73443603515625,141.6520690917969,149.1451721191406,15,169618.144900875,-0.9834442138671875,0.1096954345703125,0.145538330078125,169618.144900875,0.03986592362183215,0.03189854458864209,0.04264493221932984,169618.118319875,-86.62498474121094,-48.70892333984375,-545.8839721679688,169618.139834875,-0.03821923722442568,-1.704258174580011,-0.1213604880351047,0.01749409548938274,0.04372255131602287,0.03967738524079323,-0.008690536022186279,-0.01495318114757538,0.01750993728637695,1,-0.05427514016628265,-0.7503984570503235,0.03307917341589928,0.6579225659370422,-0.9838173985481262,0.1210628002882004,0.1320872753858566,0,0,0,-1,169613.1440169167,3,1,1561841797.090516,1561841239.621676,42,1.91319,0,0,42.10339,0,0,1561841755.596066,169615.16165,0,-0.2878418,75.19567,0,182478453,3,1,0.99,-34.88354,-39.18611,1
1561841801.863012,63,0,0,1561841800.998763,4.634608277124013,-74.15085987194827,2556.547,0.73,74.1796875,4,30,-9999,1561841801.851327,-12.43665313720703,-22.25368881225586,16.5517578125,141.6268005371094,149.1199035644531,15,169618.165164875,-0.97998046875,0.117950439453125,0.1409759521484375,169618.165164875,0.08957968432255931,-0.01676246853317674,0.04469716415534489,169618.138430875,-86.94589233398438,-48.61921691894531,-546.1776123046875,169618.160098875,-0.03731048800484542,-1.704139012132404,-0.1222982076842818,0.07799232751131058,-0.02130757831037045,0.0399884432554245,0.004624724388122559,-0.007033854722976685,0.01135563850402832,1,-0.05424384400248528,-0.7503566145896912,0.03372741863131523,0.6579399704933167,-0.9837201833724976,0.1219935715198517,0.1319548934698105,0,0,0,-1,169613.1440169167,3,1,1561841797.090516,1561841239.621676,42,1.91319,0,0,42.10339,0,0,1561841755.596066,169615.16165,0,-0.2878418,75.19567,0,182478453,3,1,0.99,-34.88354,-39.18611,1
1561841801.883293,64,0,0,1561841800.998763,4.634608277124013,-74.15085987194827,2556.547,0.73,74.1796875,4,30,-9999,1561841801.851327,-12.43665313720703,-22.25368881225586,16.5517578125,141.6268005371094,149.1199035644531,15,169618.185427875,-0.983978271484375,0.1186981201171875,0.13555908203125,169618.185427875,0.1103488787157603,0.001846635899860944,0.05872429993290125,169618.158541875,-87.12202453613281,-48.50181579589844,-546.0716552734375,169618.180362875,-0.03558344948167698,-1.704460483383482,-0.1233880513954967,0.103224977850914,-0.01469921041280031,0.05336363613605499,0.003122448921203613,-0.004987433552742004,0.004877448081970215,1,-0.05394790694117546,-0.7504773736000061,0.03471390530467033,0.6577752828598022,-0.9835454225540161,0.1230752021074295,0.1322533339262009,0,0,0,-1,169613.1440169167,3,1,1561841797.090516,1561841239.621676,42,1.91319,0,0,42.10339,0,0,1561841755.596066,169615.16165,0,-0.2878418,75.19567,0,182478453,3,1,0.99,-34.88354,-40.02285,1
1561841801.922343,65,0,0,1561841800.998763,4.634608277124013,-74.15085987194827,2556.547,0.73,74.1796875,4,30,-9999,1561841801.882503,-12.54145050048828,-22.09856796264648,16.8111572265625,141.5090484619141,149.0021514892578,15,169618.205691875,-0.9956817626953125,0.1171875,0.142669677734375,169618.205691875,0.1056622478294388,0.04096793968090694,0.0272606495502691,169618.178622875,-87.099365234375,-48.48538208007812,-546.0928955078125,169618.200625875,-0.03350320194031906,-1.704134648113727,-0.1246282153634509,0.1100208312273026,0.02666234225034714,0.04019403830170631,-0.004768550395965576,-0.005333065986633301,0.006469488143920898,1,-0.05358000844717026,-0.7503901720046997,0.03585555404424667,0.6578435897827148,-0.9834364652633667,0.1243058443069458,0.1319124549627304,0,0,0,-1,169613.1440169167,3,1,1561841797.090516,1561841239.621676,42,1.91319,0,0,42.10339,0,0,1561841755.596066,169615.16165,0,-0.2878418,75.19567,0,182478453,3,1,0.99,-34.88354,-36.56084,1
1561841801.925321,66,0,0,1561841800.998763,4.634608277124013,-74.15085987194827,2556.547,0.73,74.1796875,4,30,-9999,1561841801.882503,-12.54145050048828,-22.09856796264648,16.8111572265625,141.5090484619141,149.0021514892578,15,169618.225955875,-0.991790771484375,0.1134796142578125,0.1464385986328125,169618.225955875,0.0549282301151023,0.04994731992832711,-0.01816648705986652,169618.198733875,-86.88859558105469,-48.55659484863281,-546.0209350585938,169618.220858875,-0.03166850946309425,-1.703209241358852,-0.124976577289672,0.06863077729940414,0.0450647845864296,-0.01542102079838514,-0.01413494348526001,-0.01117187738418579,0.01493847370147705,1,-0.05302286148071289,-0.7501245737075806,0.03656541556119919,0.6581525206565857,-0.9835151433944702,0.1246514916419983,0.1309965997934341,0,0,0,-1,169613.1440169167,3,1,1561841797.090516,1561841239.621676,42,1.91319,0,0,42.10339,0,0,1561841755.596066,169615.16165,0,-0.2878418,75.19567,0,182478453,3,1,0.99,-34.88354,-36.56084,1
1561841801.944533,67,0,0,1561841800.998763,4.634608277124013,-74.15085987194827,2556.547,0.73,74.1796875,4,30,-9999,1561841801.931529,-12.62845611572266,-22.00732803344727,17.17767333984375,141.2431945800781,148.7362976074219,15,169618.246188875,-0.97882080078125,0.1165618896484375,0.1438446044921875,169618.246188875,0.01204947235206351,0.01981311956186251,-0.01117941762393463,169618.218844875,-86.949951171875,-48.53436279296875,-545.7977294921875,169618.241122875,-0.03081852611232746,-1.702394503587944,-0.1246312142178137,0.0153071079403162,0.0254221074283123,-0.01645858772099018,-0.003655850887298584,-0.008067362010478973,0.01524591445922852,1,-0.05260561406612396,-0.7498887181282043,0.03669394180178642,0.6584475040435791,-0.9836640954017639,0.124308817088604,0.1302008777856827,0,0,0,-1,169613.1440169167,3,1,1561841797.090516,1561841239.621676,42,1.91319,0,0,42.10339,0,0,1561841755.596066,169615.16165,0,-0.2878418,75.19567,0,182478453,3,1,0.99,-34.88354,-37.0063,1
1561841801.964184,68,0,0,1561841800.998763,4.634608277124013,-74.15085987194827,2556.547,0.73,74.1796875,4,30,-9999,1561841801.952595,-12.62177276611328,-21.99188232421875,16.867431640625,141.2127075195312,148.705810546875,15,169618.266452875,-0.9670257568359375,0.1171875,0.1388397216796875,169618.266452875,0.01905678181228001,-0.006532467837855363,0.006621950050482025,169618.238955875,-86.9793701171875,-48.6771240234375,-545.8250732421875,169618.261386875,-0.03058659501526993,-1.702303019822581,-0.1244254584679794,0.01158027909696102,-0.009267693385481834,-0.003299376694485545,0.01225048303604126,-0.00647464394569397,0.01226556301116943,1,-0.05245273932814598,-0.7498705387115479,0.03669062629342079,0.6584805250167847,-0.983701229095459,0.1241046562790871,0.1301142275333405,0,0,0,-1,169613.1440169167,3,1,1561841797.090516,1561841239.621676,42,1.91319,0,0,42.10339,0,0,1561841755.596066,169615.16165,0,-0.2878418,75.19567,0,182478453,3,1,0.99,-34.88354,-37.52272,1
1561841802.0006,69,0,0,1561841800.998763,4.634608277124013,-74.15085987194827,2556.547,0.73,74.1796875,4,30,-9999,1561841801.980594,-12.66421508789062,-21.98347091674805,17.07525634765625,141.1825714111328,148.6756744384766,15,169618.286715875,-0.9685821533203125,0.1246185302734375,0.1338043212890625,169618.286715875,0.03619022868530478,0.002678873740510706,0.04347583847943456,169618.259066875,-87.27861022949219,-48.129150390625,-545.7369384765625,169618.281649875,-0.03014086535176484,-1.702486956791489,-0.1246982739444921,0.03428399562835693,-0.005610641092061996,0.03056058660149574,0.01872372627258301,-0.005738265812397003,0.004139184951782227,1,-0.05237184837460518,-0.7499350309371948,0.03694465011358261,0.6583993434906006,-0.9836437702178955,0.1243753582239151,0.1302907168865204,0,0,0,-1,169613.1440169167,3,1,1561841797.090516,1561841239.621676,42,1.91319,0,0,42.10339,0,0,1561841755.596066,169615.16165,0,-0.2878418,75.19567,0,182478453,3,1,0.99,-34.88354,-38.37292,1
1561841802.004806,70,0,0,1561841800.998763,4.634608277124013,-74.15085987194827,2556.547,0.73,74.1796875,4,30,-9999,1561841802.003285,-12.69058227539062,-21.86420440673828,17.1737060546875,141.1532135009766,148.6463165283203,15,169618.306979875,-0.9795379638671875,0.13427734375,0.13482666015625,169618.306979875,0.007513842699549563,0.008107993938746241,0.06455289429464867,169618.279177875,-87.0863037109375,-48.50022888183594,-545.8773803710938,169618.301913875,-0.029715359130786,-1.702469829650338,-0.1256929693399511,0.01344129629433155,0.006182102486491203,0.06005136668682098,0.00779956579208374,0.00653471052646637,0.005576133728027344,1,-0.05253936722874641,-0.7499122619628906,0.03745786100625992,0.6583829522132874,-0.983522891998291,0.1253622621297836,0.1302575767040253,0,0,0,-1,169613.1440169167,3,1,1561841797.090516,1561841239.621676,42,1.91319,0,0,42.10339,0,0,1561841755.596066,169615.16165,0,-0.2878418,75.19567,0,182478453,3,1,0.99,-34.88354,-38.37292,1
1561841802.025042,71,0,0,1561841800.998763,4.634608277124013,-74.15085987194827,2556.547,0.73,74.1796875,4,30,-9999,1561841802.003285,-12.69058227539062,-21.86420440673828,17.1737060546875,141.1532135009766,148.6463165283203,15,169618.327243875,-0.9871978759765625,0.12982177734375,0.1319732666015625,169618.327243875,-0.02624518622662188,0.003579022188957488,0.03733245847683977,169618.299289875,-87.04396057128906,-48.35462951660156,-545.8614501953125,169618.322177875,-0.0299761159433843,-1.702559721414464,-0.1267508854526629,-0.02099044620990753,-0.005704650655388832,0.04320793971419334,0.003032445907592773,0.005561500787734985,0.002560257911682129,1,-0.05298294499516487,-0.7499046921730042,0.03777172416448593,0.6583380699157715,-0.9833791255950928,0.1264117658138275,0.1303284764289856,0,0,0,-1,169613.1440169167,3,1,1561841797.090516,1561841239.621676,42,1.91319,0,0,42.10339,0,0,1561841755.596066,169615.16165,0,-0.2878418,75.19567,0,182478453,3,1,0.99,-34.88354,-39.07921,1
1561841802.045212,72,0,0,1561841800.998763,4.634608277124013,-74.15085987194827,2556.547,0.73,74.1796875,4,30,-9999,1561841802.030488,-12.89145660400391,-22.01272201538086,16.97711181640625,141.1812744140625,148.6743774414062,15,169618.347506875,-0.9936370849609375,0.122161865234375,0.1324462890625,169618.347506875,-0.01482821463345219,0.01881762994639089,-0.004410461081280227,169618.319400875,-87.11309814453125,-48.44049072265625,-546.0188598632812,169618.342440875,-0.03058873604381323,-1.702641421563395,-0.1271210593953298,-0.02052199654281139,0.009485487826168537,0.003089280566200614,-0.009079098701477051,-0.001763701438903809,0.001387476921081543,1,-0.05333268642425537,-0.7499046325683594,0.03771127387881279,0.6583133935928345,-0.9833220243453979,0.1267789602279663,0.1304026693105698,0,0,0,-1,169613.1440169167,3,1,1561841797.090516,1561841239.621676,42,1.91319,0,0,42.10339,0,0,1561841755.596066,169615.16165,0,-0.2878418,75.19567,0,182478453,3,1,0.99,-34.88354,-37.11823,1
1561841802.074792,73,0,0,1561841801.998753,4.634616072293962,-74.15085475898734,2556.586,0.76,60.8203125,4,30,-9999,1561841802.030488,-12.89145660400391,-22.01272201538086,16.97711181640625,141.1812744140625,148.6743774414062,15,169618.367770875,-0.9792327880859375,0.1158905029296875,0.1298828125,169618.367770875,0.01440210885903951,0.0163643259502099,-0.02664173091293468,169618.339480875,-87.28982543945312,-48.64431762695312,-546.1041259765625,169618.362704875,-0.03072070419522392,-1.702474924229556,-0.1267258626731918,0.006720542907714844,0.009773907251656055,-0.03069132007658482,-0.006078183650970459,-0.009016335010528564,0.001712441444396973,1,-0.05325549840927124,-0.7498577237129211,0.03751496970653534,0.6583842635154724,-0.9833933115005493,0.1263869404792786,0.1302455067634583,0,0,0,-1,169613.1440169167,3,1,1561841797.090516,1561841239.621676,42,1.91319,0,0,42.10339,0,0,1561841755.596066,169615.16165,0,-0.2878418,75.19567,0,182478453,3,1,0.99,-34.88354,-37.70732,1
1561841802.085826,74,0,0,1561841801.998753,4.634616072293962,-74.15085475898734,2556.586,0.76,60.8203125,4,30,-9999,1561841802.030488,-12.89145660400391,-22.01272201538086,16.97711181640625,141.1812744140625,148.6743774414062,15,169618.388034875,-0.972564697265625,0.123382568359375,0.129364013671875,169618.388034875,0.01915665035315798,0.02915442340142444,-0.0007701861872509157,169618.359591875,-87.10453796386719,-48.18296813964844,-545.6843872070312,169618.382937875,-0.03037651982951367,-1.702154750475975,-0.1263117465735426,0.01781181059777737,0.021329365670681,-0.0102574173361063,0.009792983531951904,-0.007079660892486572,-0.0003446340560913086,1,-0.052996426820755,-0.749773383140564,0.03746425732970238,0.6585041284561157,-0.9834867715835571,0.1259761303663254,0.1299374997615814,0,0,0,-1,169613.1440169167,3,1,1561841797.090516,1561841239.621676,42,1.91319,0,0,42.10339,0,0,1561841755.596066,169615.16165,0,-0.2878418,75.19567,0,182478453,3,1,0.99,-34.88354,-38.63263,1
1561841802.106401,75,0,0,1561841801.998753,4.634616072293962,-74.15085475898734,2556.586,0.76,60.8203125,4,30,-9999,1561841802.103871,-12.81508636474609,-21.62899398803711,16.9136962890625,141.1847839355469,148.6778869628906,15,169618.408297875,-0.9690093994140625,0.127166748046875,0.1272125244140625,169618.408297875,0.01458240486483788,0.0387215633014251,0.01577603366541139,169618.379702875,-87.34843444824219,-48.50640869140625,-545.8392333984375,169618.403201875,-0.03005938497674999,-1.701645839827398,-0.1263996877745223,0.01392119750380516,0.02906717732548714,0.009972486644983292,0.01288455724716187,-0.001109153032302856,-0.0008192062377929688,1,-0.05291599407792091,-0.7496116757392883,0.03758823126554489,0.6586876511573792,-0.9835418462753296,0.1260633766651154,0.1294355392456055,0,0,0,-1,169613.1440169167,3,1,1561841797.090516,1561841239.621676,42,1.91319,0,0,42.10339,0,0,1561841755.596066,169615.16165,0,-0.2878418,75.19567,0,182478453,3,1,0.99,-34.88354,-39.49922,1
1561841802.126092,76,0,0,1561841801.998753,4.634616072293962,-74.15085475898734,2556.586,0.76,60.8203125,4,30,-9999,1561841802.103871,-12.81508636474609,-21.62899398803711,16.9136962890625,141.1847839355469,148.6778869628906,15,169618.428530875,-0.980499267578125,0.1318817138671875,0.132293701171875,169618.428530875,0.02075907438105865,0.04807618294643743,0.01757313476899686,169618.399813875,-86.892822265625,-48.23359680175781,-546.0136108398438,169618.423465875,-0.02982851318793525,-1.700901576871859,-0.1267179377743685,0.01609140820801258,0.04214116930961609,0.01548336632549763,0.008866548538208008,0.004190385341644287,0.001123547554016113,1,-0.05294810608029366,-0.7493634819984436,0.0377640500664711,0.658957302570343,-0.983597993850708,0.1263790875673294,0.1286982595920563,0,0,0,-1,169613.1440169167,3,1,1561841797.090516,1561841239.621676,42,1.91319,0,0,42.10339,0,0,1561841755.596066,169615.16165,0,-0.2878418,75.19567,0,182478453,3,1,0.99,-34.88354,-39.51331,1
1561841802.146585,77,0,0,1561841801.998753,4.634616072293962,-74.15085475898734,2556.586,0.76,60.8203125,4,30,-9999,1561841802.130318,-12.77194976806641,-21.90205383300781,17.16888427734375,141.138916015625,148.6320190429688,15,169618.448794875,-0.988555908203125,0.1326751708984375,0.1326904296875,169618.448794875,0.01081056981295865,0.05983430547524628,-0.02493011728034076,169618.419925875,-86.91252136230469,-48.43148803710938,-545.9468994140625,169618.443728875,-0.02949857801353176,-1.69996389500543,-0.1268632430229731,0.01257496979087591,0.0473303385078907,-0.01477227453142405,0.0006526708602905273,0.004931241273880005,0.003452062606811523,1,-0.05289003252983093,-0.7490590214729309,0.03790249302983284,0.6593001484870911,-0.9837000966072083,0.1265232264995575,0.1277735531330109,0,0,0,-1,169613.1440169167,3,1,1561841797.090516,1561841239.621676,42,1.91319,0,0,42.10339,0,0,1561841755.596066,169615.16165,0,-0.2878418,75.19567,0,182478453,3,1,0.99,-34.88354,-39.51331,1
1561841802.167181,78,0,0,1561841801.998753,4.634616072293962,-74.15085475898734,2556.586,0.76,60.8203125,4,30,-9999,1561841802.154827,-12.46600341796875,-21.72389984130859,16.88092041015625,141.1200561523438,148.6131591796875,15,169618.469058875,-0.9969329833984375,0.1279754638671875,0.136627197265625,169618.469058875,-0.05672186910927067,0.09204177675033756,-0.08005595394832694,169618.440036875,-87.04560852050781,-48.38801574707031,-545.8956298828125,169618.463992875,-0.02947737762028061,-1.698743891696212,-0.1259379848167732,-0.03540027886629105,0.07828452438116074,-0.07197724282741547,-0.0100783109664917,0.005055665969848633,0.009489655494689941,1,-0.05260062962770462,-0.7486836910247803,0.03753029927611351,0.6597706079483032,-0.9839707612991333,0.1256053447723389,0.1265881955623627,0,0,0,-1,169613.1440169167,3,1,1561841797.090516,1561841239.621676,42,1.91319,0,0,42.10339,0,0,1561841755.596066,169615.16165,0,-0.2878418,75.19567,0,182478453,3,1,0.99,-34.88354,-39.96456,1
1561841802.186822,79,0,0,1561841801.998753,4.634616072293962,-74.15085475898734,2556.586,0.76,60.8203125,4,30,-9999,1561841802.181589,-12.70934295654297,-21.70928192138672,16.779541015625,141.2039947509766,148.6970977783203,15,169618.489321875,-0.9894866943359375,0.1201629638671875,0.134368896484375,169618.489321875,-0.1600863415501891,0.1637271490764365,-0.08574979235891635,169618.460147875,-87.14959716796875,-48.41069030761719,-546.0068359375,169618.484256875,-0.03099789104702316,-1.696821329540276,-0.123997068809298,-0.1411086022853851,0.1416935920715332,-0.09162604063749313,-0.01040524244308472,-0.0005563944578170776,0.01080191135406494,1,-0.05256576463580132,-0.7480642795562744,0.03625037521123886,0.6605472564697266,-0.9844525456428528,0.1236795634031296,0.1247266530990601,0,0,0,-1,169613.1440169167,3,1,1561841797.090516,1561841239.621676,42,1.91319,0,0,42.10339,0,0,1561841755.596066,169615.16165,0,-0.2878418,75.19567,0,182478453,3,1,0.99,-34.88354,-40.51235,1
1561841802.207034,80,0,0,1561841801.998753,4.634616072293962,-74.15085475898734,2556.586,0.76,60.8203125,4,30,-9999,1561841802.205434,-12.65322113037109,-21.97851181030273,16.87518310546875,141.4467010498047,148.9398040771484,15,169618.509585875,-0.9723968505859375,0.1248931884765625,0.131683349609375,169618.509585875,-0.2027472527360594,0.1920884831052353,-0.05138116585922577,169618.500369875,-87.12722778320312,-48.55204772949219,-546.1030883789062,169618.504519875,-0.03434891569065582,-1.693856740756769,-0.1219413223969646,-0.1997482180595398,0.1824085414409637,-0.06694813072681427,0.004446864128112793,0.0001257956027984619,0.01231670379638672,1,-0.05319256708025932,-0.7470541000366211,0.03429447486996651,0.6617436408996582,-0.9850682020187378,0.1216393411159515,0.1218385547399521,0,0,0,-1,169613.1440169167,3,1,1561841797.090516,1561841239.621676,42,1.91319,0,0,42.10339,0,0,1561841755.596066,169615.16165,0,-0.2878418,75.19567,0,182478453,3,1,0.99,-34.88354,-39.0701,1
1561841802.228801,81,0,0,1561841801.998753,4.634616072293962,-74.15085475898734,2556.586,0.76,60.8203125,4,30,-9999,1561841802.205434,-12.65322113037109,-21.97851181030273,16.87518310546875,141.4467010498047,148.9398040771484,15,169618.529849875,-0.970001220703125,0.14215087890625,0.1301422119140625,169618.529849875,-0.1771635957242132,0.1557400626511798,-0.002513757752925793,169618.520480875,-86.98095703125,-48.45249938964844,-546.2633666992188,169618.524783875,-0.03830334000281899,-1.690770794413324,-0.120667133082486,-0.1889746636152267,0.1589362323284149,-0.01549905072897673,0.0181240439414978,0.01373498141765594,0.01317191123962402,1,-0.05429911240935326,-0.745962381362915,0.0324253998696804,0.6629782319068909,-0.9855923056602478,0.1203745156526566,0.118816539645195,0,0,0,-1,169613.1440169167,3,1,1561841797.090516,1561841239.621676,42,1.91319,0,0,42.10339,0,0,1561841755.596066,169616.105725,0,0.1005859,75.19201,0,182478453,3,1,0.99,-34.88354,-39.60277,1
1561841802.247587,82,0,0,1561841801.998753,4.634616072293962,-74.15085475898734,2556.586,0.76,60.8203125,4,30,-9999,1561841802.231778,-12.69029235839844,-21.72011947631836,16.6136474609375,141.7167663574219,149.2098693847656,15,169618.550113875,-0.9874420166015625,0.1455841064453125,0.1269683837890625,169618.550113875,-0.1358587661654113,0.1220044695426011,0.01251845502002647,169618.540591875,-87.43843078613281,-48.718994140625,-546.454833984375,169618.545047875,-0.04169737817916507,-1.688486282342999,-0.1203223630887147,-0.1447941511869431,0.1173712089657784,0.01009525824338198,0.004915177822113037,0.02484995126724243,0.01313018798828125,1,-0.0554865375161171,-0.7451214790344238,0.03110802546143532,0.6638883352279663,-0.9859027862548828,0.1200322434306145,0.1165695488452911,0,0,0,-1,169613.1440169167,3,1,1561841797.090516,1561841239.621676,42,1.91319,0,0,42.10339,0,0,1561841755.596066,169616.105725,0,0.1005859,75.19201,0,182478453,3,1,0.99,-34.88354,-40.13484,1
1561841802.267889,83,0,0,1561841801.998753,4.634616072293962,-74.15085475898734,2556.586,0.76,60.8203125,4,30,-9999,1561841802.257764,-12.69925689697266,-22.21825408935547,16.34197998046875,141.9310760498047,149.4241790771484,15,169618.570376875,-0.986602783203125,0.1356201171875,0.1168060302734375,169618.570376875,-0.1539118025628404,0.1393024997709927,0.001102815007401812,169618.560672875,-87.39259338378906,-48.54551696777344,-546.326904296875,169618.565280875,-0.04455983290096279,-1.686467893995707,-0.1200886105875317,-0.1496078073978424,0.1282832473516464,-0.003189920913428068,9.506940841674805e-05,0.02222862839698792,0.008510112762451172,1,-0.05650587379932404,-0.7443778514862061,0.03001352772116661,0.664686381816864,-0.9861637353897095,0.1198001801967621,0.1145825982093811,0,0,0,-1,169613.1440169167,3,1,1561841797.090516,1561841239.621676,42,1.91319,0,0,42.10339,0,0,1561841755.596066,169616.105725,0,0.1005859,75.19201,0,182478453,3,1,0.99,-34.88354,-40.22463,1
1561841802.288115,84,0,0,1561841801.998753,4.634616072293962,-74.15085475898734,2556.586,0.76,60.8203125,4,30,-9999,1561841802.28241,-13.10078430175781,-22.09372329711914,16.2137451171875,142.1544342041016,149.6475372314453,15,169618.590609875,-0.98138427734375,0.12286376953125,0.11199951171875,169618.590609875,-0.144857587488789,0.1499080061800153,0.01116556918626621,169618.580783875,-87.44706726074219,-48.82908630371094,-546.4141235351562,169618.585543875,-0.04777340948396965,-1.684162119538001,-0.1197300565648592,-0.156864657998085,0.1417889446020126,0.003445877460762858,0.001863956451416016,0.008912734687328339,-0.0003290176391601562,1,-0.05761624872684479,-0.7435300946235657,0.02874530106782913,0.6655952930450439,-0.9864678978919983,0.1194441989064217,0.1123132705688477,0,0,0,-1,169613.1440169167,3,1,1561841797.090516,1561841239.621676,42,1.91319,0,0,42.10339,0,0,1561841755.596066,169616.105725,0,0.1005859,75.19201,0,182478453,3,1,0.99,-34.88354,-40.89214,1
1561841802.308408,85,0,0,1561841801.998753,4.634616072293962,-74.15085475898734,2556.586,0.76,60.8203125,4,30,-9999,1561841802.307008,-12.99154663085938,-22.1457405090332,16.361328125,142.3234558105469,149.8165588378906,15,169618.610873875,-0.97686767578125,0.1176605224609375,0.113555908203125,169618.610873875,-0.04347956690496067,0.1056201698842156,0.04616669644485061,169618.600894875,-87.40040588378906,-48.60688781738281,-546.47802734375,169618.605807875,-0.05032935617759013,-1.681747882597754,-0.1197940972786537,-0.07586834579706192,0.1234043315052986,0.03305064141750336,0.007312595844268799,0.0004110336303710938,0.004235744476318359,1,-0.05862131342291832,-0.7426498532295227,0.02784779295325279,0.6665277481079102,-0.9867285490036011,0.1195077821612358,0.1099305227398872,0,0,0,-1,169613.1440169167,3,1,1561841797.090516,1561841239.621676,42,1.91319,0,0,42.10339,0,0,1561841755.596066,169616.105725,0,0.1005859,75.19201,0,182478453,3,1,0.99,-34.88354,-40.89214,1
1561841802.328829,86,0,0,1561841801.998753,4.634616072293962,-74.15085475898734,2556.586,0.76,60.8203125,4,30,-9999,1561841802.307008,-12.99154663085938,-22.1457405090332,16.361328125,142.3234558105469,149.8165588378906,15,169618.631137875,-0.9730224609375,0.1153717041015625,0.12176513671875,169618.631137875,0.07124195600460069,0.004268780911288011,0.05554155611414755,169618.621005875,-87.20932006835938,-48.77864074707031,-546.9562377929688,169618.626071875,-0.05073571867609962,-1.680404604096144,-0.1208235718439773,0.04508630931377411,0.02163909003138542,0.05346164107322693,0.01397418975830078,-0.006073638796806335,0.007497429847717285,1,-0.05913297832012177,-0.7421583533287048,0.02805595844984055,0.6670210957527161,-0.9867525100708008,0.1205298155546188,0.1085914596915245,0,0,0,-1,169613.1440169167,3,1,1561841797.090516,1561841239.621676,42,1.91319,0,0,42.10339,0,0,1561841755.596066,169616.105725,0,0.1005859,75.19201,0,182478453,3,1,0.99,-34.88354,-40.85618,1
1561841802.34892,87,0,0,1561841801.998753,4.634616072293962,-74.15085475898734,2556.586,0.76,60.8203125,4,30,-9999,1561841802.332972,-13.11787414550781,-22.0450439453125,16.2135009765625,142.2946014404297,149.7877044677734,15,169618.651400875,-0.9784393310546875,0.114898681640625,0.1207122802734375,169618.651400875,0.1250817521821876,-0.04792864382204704,0.05278545070202455,169618.641116875,-87.47930908203125,-48.65948486328125,-546.6083984375,169618.646334875,-0.04911478235393681,-1.68068843479809,-0.1221652419035466,0.116480328142643,-0.05354514345526695,0.05180035904049873,0.01166057586669922,-0.005696430802345276,0.01359808444976807,1,-0.0589732863008976,-0.7422593832015991,0.02910414151847363,0.666877806186676,-0.9865598678588867,0.1218615993857384,0.1088536828756332,0,0,0,-1,169613.1440169167,3,1,1561841797.090516,1561841239.621676,42,1.91319,0,0,42.10339,0,0,1561841755.596066,169616.105725,0,0.1005859,75.19201,0,182478453,3,1,0.99,-34.88354,-40.92759,1
1561841802.369196,88,0,0,1561841801.998753,4.634616072293962,-74.15085475898734,2556.586,0.76,60.8203125,4,30,-9999,1561841802.362317,-13.00396728515625,-22.20238494873047,16.32855224609375,142.1338806152344,149.6269836425781,15,169618.671664875,-0.98077392578125,0.1139984130859375,0.1209259033203125,169618.671664875,0.1314432450780599,-0.02566275289622156,0.02377483799946438,169618.661227875,-87.80577087402344,-48.62399291992188,-546.50048828125,169618.666598875,-0.04666156496601104,-1.681394101344516,-0.1233682867394414,0.1302360892295837,-0.03822318091988564,0.03172412142157555,0.004814803600311279,-0.007516033947467804,0.01070570945739746,1,-0.05845189467072487,-0.742529571056366,0.03039040975272655,0.666565477848053,-0.9863364100456238,0.1230555847287178,0.1095335781574249,0,0,0,-1,169613.1440169167,3,1,1561841797.090516,1561841239.621676,42,1.91319,0,0,42.10339,0,0,1561841755.596066,169616.105725,0,0.1005859,75.19201,0,182478453,3,1,0.99,-34.88354,-41.17309,1
1561841802.389902,89,0,0,1561841801.998753,4.634616072293962,-74.15085475898734,2556.586,0.76,60.8203125,4,30,-9999,1561841802.383772,-13.12541198730469,-22.24202728271484,16.2882080078125,141.9543151855469,149.4474182128906,15,169618.691928875,-0.995269775390625,0.1096649169921875,0.13055419921875,169618.691928875,0.1004901226763959,0.02448536937829753,-0.01072934339971124,169618.681338875,-87.82086181640625,-48.84144592285156,-546.4188232421875,169618.686862875,-0.04420982515390994,-1.681466233496651,-0.123865118325508,0.1109327003359795,0.008086529560387135,-0.005906078964471817,-0.001128613948822021,-0.01133549213409424,0.01457810401916504,1,-0.05770554393529892,-0.7426096200942993,0.03139451518654823,0.6664947867393494,-0.986267626285553,0.1235486268997192,0.1095979586243629,0,0,0,-1,169613.1440169167,3,1,1561841797.090516,1561841239.621676,42,1.91319,0,0,42.10339,0,0,1561841755.596066,169616.105725,0,0.1005859,75.19201,0,182478453,3,1,0.99,-34.88354,-41.50212,1
1561841802.411451,90,0,0,1561841801.998753,4.634616072293962,-74.15085475898734,2556.586,0.76,60.8203125,4,30,-9999,1561841802.408078,-13.1461181640625,-22.1544189453125,16.357666015625,141.8072814941406,149.3003845214844,15,169618.712191875,-0.9850311279296875,0.109222412109375,0.1331939697265625,169618.712191875,0.1011849414047976,0.02524703345006019,0.00748854266919381,169618.701449875,-87.32879638671875,-48.62991333007812,-546.4066772460938,169618.707125875,-0.04217847882073147,-1.680805508986528,-0.1238299663480556,0.09577318280935287,0.02485299110412598,-0.004129217937588692,-0.005400896072387695,-0.01537470519542694,0.02305698394775391,1,-0.05695017427206039,-0.7424486875534058,0.03203954547643661,0.6667082905769348,-0.9863440990447998,0.1235137432813644,0.10894675552845,0,0,0,-1,169613.1440169167,3,1,1561841797.090516,1561841239.621676,42,1.91319,0,0,42.10339,0,0,1561841755.596066,169616.105725,0,0.1005859,75.19201,0,182478453,3,1,0.99,-35.44082,-42.45393,1
1561841802.430005,91,0,0,1561841801.998753,4.634616072293962,-74.15085475898734,2556.586,0.76,60.8203125,4,30,-9999,1561841802.408078,-13.1461181640625,-22.1544189453125,16.357666015625,141.8072814941406,149.3003845214844,15,169618.732455875,-0.975341796875,0.113922119140625,0.13629150390625,169618.732455875,0.09477151686766878,-0.02272874832328126,0.03066976206167953,169618.721560875,-87.33331298828125,-48.78097534179688,-546.5601196289062,169618.727359875,-0.04024282013216003,-1.680500394177842,-0.12425515222626,0.09886191785335541,-0.01662361063063145,0.02479697205126286,0.00635981559753418,-0.01176831126213074,0.02627813816070557,1,-0.05637792870402336,-0.7423890829086304,0.03283439204096794,0.6667846441268921,-0.9863250255584717,0.1239356622099876,0.108640044927597,0,0,0,-1,169613.1440169167,3,1,1561841797.090516,1561841239.621676,42,1.91319,0,0,42.10339,0,0,1561841755.596066,169616.105725,0,0.1005859,75.19201,0,182478453,3,1,0.99,-35.9981,-41.18382,1
1561841802.450765,92,0,0,1561841801.998753,4.634616072293962,-74.15085475898734,2556.586,0.76,60.8203125,4,30,-9999,1561841802.434219,-13.09042358398438,-21.95820999145508,16.49951171875,141.6662445068359,149.1593475341797,15,169618.752688875,-0.987060546875,0.1151885986328125,0.136566162109375,169618.752688875,0.08782013379034395,-0.03399897974038758,0.01795263522433315,169618.741671875,-87.45578002929688,-48.90591430664062,-546.291748046875,169618.747622875,-0.03839809229034349,-1.680975054200098,-0.1249919487275495,0.08844523131847382,-0.04448080807924271,0.02312637120485306,0.00859755277633667,-0.01120238751173019,0.02835309505462646,1,-0.05593011900782585,-0.7425771951675415,0.03373676538467407,0.666567862033844,-0.9861823916435242,0.1246667429804802,0.1090981364250183,0,0,0,-1,169613.1440169167,3,1,1561841797.090516,1561841239.621676,42,1.91319,0,0,42.10339,0,0,1561841755.596066,169616.105725,0,0.1005859,75.19201,0,182478453,3,1,0.99,-36.55538,-40.11164,1
1561841802.470525,93,0,0,1561841801.998753,4.634616072293962,-74.15085475898734,2556.586,0.76,60.8203125,4,30,-9999,1561841802.458775,-13.13878631591797,-22.23406600952148,16.36187744140625,141.5401000976562,149.033203125,15,169618.772952875,-0.9949188232421875,0.114593505859375,0.1363525390625,169618.772952875,0.05625554960239779,-0.02343501864437027,-0.03283464571180494,169618.761782875,-87.45938110351562,-48.71453857421875,-546.190185546875,169618.767886875,-0.03680263539346426,-1.681580948283866,-0.1251155389081116,0.06676816195249557,-0.02964646741747856,-0.02523130737245083,-0.008070051670074463,-0.01036371290683746,0.02592623233795166,1,-0.05536840856075287,-0.7428198456764221,0.03433124348521233,0.6663141846656799,-0.9861010909080505,0.124789372086525,0.1096939668059349,0,0,0,-1,169613.1440169167,3,1,1561841797.090516,1561841239.621676,42,1.91319,0,0,42.10339,0,0,1561841755.596066,169616.105725,0,0.1005859,75.19201,0,182478453,3,1,0.99,-36.55538,-40.11164,1
1561841802.490812,94,0,0,1561841801.998753,4.634616072293962,-74.15085475898734,2556.586,0.76,60.8203125,4,30,-9999,1561841802.485006,-13.01631164550781,-22.12543487548828,16.65838623046875,141.4491577148438,148.9422607421875,15,169618.793216875,-0.988250732421875,0.1162261962890625,0.130706787109375,169618.793216875,0.04310379487515049,-0.01202630285057982,-0.03673271459935393,169618.781894875,-87.48703002929688,-48.51646423339844,-546.0752563476562,169618.788150875,-0.03564934205395691,-1.682070639691448,-0.1244004456463988,0.04365325719118118,-0.02262238040566444,-0.04107285290956497,-0.007806658744812012,-0.008814938366413116,0.02406013011932373,1,-0.05469397827982903,-0.743035614490509,0.03446272388100624,0.6661224365234375,-0.9861356019973755,0.1240798309445381,0.1101867109537125,0,0,0,-1,169613.1440169167,3,1,1561841797.090516,1561841239.621676,42,1.91319,0,0,42.10339,0,0,1561841755.596066,169616.105725,0,0.1005859,75.19201,0,182478453,3,1,0.99,-37.11266,-38.30383,1
1561841802.511762,95,0,0,1561841801.998753,4.634616072293962,-74.15085475898734,2556.586,0.76,60.8203125,4,30,-9999,1561841802.485006,-13.01631164550781,-22.12543487548828,16.65838623046875,141.4491577148438,148.9422607421875,15,169618.813479875,-0.9750213623046875,0.1244354248046875,0.1335296630859375,169618.813479875,0.05715143699310045,-0.00338381248105468,-0.01625833213882474,169618.802005875,-87.31634521484375,-48.84477233886719,-546.4223022460938,169618.808413875,-0.03473019069179083,-1.682358746665447,-0.1237215227169788,0.04543384909629822,-0.01186294481158257,-0.02723000943660736,0.005550563335418701,-0.00409766286611557,0.02057754993438721,1,-0.054121945053339,-0.7431762218475342,0.03452392295002937,0.6660090684890747,-0.986187219619751,0.1234061270952225,0.1104801669716835,0,0,0,-1,169613.1440169167,3,1,1561841797.090516,1561841239.621676,42,1.91319,0,0,42.10339,0,0,1561841755.596066,169616.105725,0,0.1005859,75.19201,0,182478453,3,1,0.99,-36.50451,-38.82598,1
1561841802.531487,96,0,0,1561841801.998753,4.634616072293962,-74.15085475898734,2556.586,0.76,60.8203125,4,30,-9999,1561841802.511152,-12.918701171875,-22.26586532592773,16.550537109375,141.3776702880859,148.8707733154297,15,169618.833743875,-0.97137451171875,0.132965087890625,0.1289825439453125,169618.833743875,0.07279937261007903,-0.01982936484451199,0.03519500538594218,169618.822116875,-87.27397155761719,-48.75550842285156,-546.3865966796875,169618.828677875,-0.03349421252835535,-1.68261524251676,-0.1237227802211342,0.06782224774360657,-0.02148041874170303,0.02249200642108917,0.01312094926834106,0.006048187613487244,0.02084338665008545,1,-0.05365859717130661,-0.743294894695282,0.03494285419583321,0.6658922433853149,-0.9861586689949036,0.1234073787927628,0.1107330918312073,0,0,0,-1,169613.1440169167,3,1,1561841797.090516,1561841239.621676,42,1.91319,0,0,42.10339,0,0,1561841755.596066,169616.105725,0,0.1005859,75.19201,0,182478453,3,1,0.99,-35.93259,-39.51388,1
1561841802.551524,97,0,0,1561841801.998753,4.634616072293962,-74.15085475898734,2556.586,0.76,60.8203125,4,30,-9999,1561841802.539738,-13.00535583496094,-22.25170135498047,16.61273193359375,141.2825622558594,148.7756652832031,15,169618.854007875,-0.976348876953125,0.140045166015625,0.1276702880859375,169618.854007875,0.06208307869970919,-0.03066709890058945,0.04262629009169928,169618.842227875,-87.72906494140625,-48.6634521484375,-546.0695190429688,169618.848941875,-0.03221091081961688,-1.683138523561483,-0.1245780599915728,0.06191360577940941,-0.03699476644396782,0.04053151607513428,0.01417851448059082,0.01308828592300415,0.01711976528167725,1,-0.05345642194151878,-0.7434790134429932,0.03570253774523735,0.6656627655029297,-0.9859955310821533,0.1242560744285583,0.1112372651696205,0,0,0,-1,169613.1440169167,3,1,1561841797.090516,1561841239.621676,42,1.91319,0,0,42.10339,0,0,1561841755.596066,169616.105725,0,0.1005859,75.19201,0,182478453,3,1,0.99,-35.93259,-40.03281,1
1561841802.571835,98,0,0,1561841801.998753,4.634616072293962,-74.15085475898734,2556.586,0.76,60.8203125,4,30,-9999,1561841802.562053,-13.07520294189453,-21.95233917236328,16.5853271484375,141.1986694335938,148.6917724609375,15,169618.874270875,-0.9879913330078125,0.12994384765625,0.12677001953125,169618.874270875,0.03058294301014295,-0.02779487966493899,0.01436828671319551,169618.862338875,-87.38360595703125,-48.48191833496094,-546.196533203125,169618.869204875,-0.03124518774230105,-1.683947660457007,-0.1252867772975531,0.03733422607183456,-0.04150562733411789,0.01837641187012196,0.002464592456817627,0.01127120107412338,0.01566040515899658,1,-0.0533180944621563,-0.7437537908554077,0.03630946204066277,0.6653338670730591,-0.9858172535896301,0.1249592676758766,0.1120250448584557,0,0,0,-1,169613.1440169167,3,1,1561841797.090516,1561841239.621676,42,1.91319,0,0,42.10339,0,0,1561841755.596066,169616.105725,0,0.1005859,75.19201,0,182478453,3,1,0.99,-35.93259,-40.58131,1
1561841802.59212,99,0,0,1561841801.998753,4.634616072293962,-74.15085475898734,2556.586,0.76,60.8203125,4,30,-9999,1561841802.58781,-12.94572448730469,-21.90316772460938,16.60595703125,141.15966796875,148.6527709960938,15,169618.894534875,-0.9865875244140625,0.123565673828125,0.1222381591796875,169618.894534875,-0.0007885619987724624,-0.00445493587148455,-0.00600702615478273,169618.882449875,-87.31988525390625,-48.49388122558594,-546.1195678710938,169618.889468875,-0.03084822530639251,-1.684511545114695,-0.1254017070845917,0.002380239544436336,-0.01502581685781479,-0.006807504221796989,-0.001320898532867432,-0.0003479570150375366,0.011871337890625,1,-0.05319833382964134,-0.7439486384391785,0.03649933263659477,0.6651151776313782,-0.9857396483421326,0.1250732988119125,0.1125792786478996,0,0,0,-1,169613.1440169167,3,1,1561841797.090516,1561841239.621676,42,1.91319,0,0,42.10339,0,0,1561841755.596066,169616.105725,0,0.1005859,75.19201,0,182478453,3,1,0.99,-35.93259,-36.86967,1
1561841802.61255,100,0,0,1561841801.998753,4.634616072293962,-74.15085475898734,2556.586,0.76,60.8203125,4,30,-9999,1561841802.610896,-12.72608184814453,-22.13174819946289,16.5694580078125,141.1632080078125,148.6563110351562,15,169618.914798875,-0.9815826416015625,0.1287841796875,0.1231231689453125,169618.914798875,-0.007188670730450888,-0.007984689580275572,0.001158741390293477,169618.902560875,-86.99234008789062,-48.78285217285156,-546.394287109375,169618.909701875,-0.03095245117216141,-1.684789615350787,-0.1252152440779216,-0.007779986597597599,-0.007886681705713272,-0.005411474965512753,0.0004867315292358398,0.001195080578327179,0.009092211723327637,1,-0.05317016690969467,-0.7440436482429504,0.03640258312225342,0.6650164723396301,-0.9857314825057983,0.1248882934451103,0.112856037914753,0,0,0,-1,169613.1440169167,3,1,1561841797.090516,1561841239.621676,42,1.91319,0,0,42.10339,0,0,1561841755.596066,169616.105725,0,0.1005859,75.19201,0,182478453,3,1,0.99,-35.93259,-37.28589,1
1561841802.632686,101,0,0,1561841801.998753,4.634616072293962,-74.15085475898734,2556.586,0.76,60.8203125,4,30,-9999,1561841802.610896,-12.72608184814453,-22.13174819946289,16.5694580078125,141.1632080078125,148.6563110351562,15,169618.935031875,-0.9791412353515625,0.1319427490234375,0.1243743896484375,169618.935031875,0.004784368898327352,-0.006384396081246958,0.01500877695535956,169618.922671875,-87.35536193847656,-48.56785583496094,-546.314453125,169618.929965875,-0.03108893499803775,-1.685195374259158,-0.1252870459690639,0.0009155008010566235,-0.01357599254697561,0.008627378381788731,0.00496375560760498,0.006693296134471893,0.01005136966705322,1,-0.05323738232254982,-0.7441728711128235,0.03639476373791695,0.6648668646812439,-0.985676646232605,0.1249595358967781,0.1132549643516541,0,0,0,-1,169613.1440169167,3,1,1561841797.090516,1561841239.621676,42,1.91319,0,0,42.10339,0,0,1561841755.596066,169616.105725,0,0.1005859,75.19201,0,182478453,3,1,0.99,-35.93259,-37.28589,1
1561841802.652916,102,0,0,1561841801.998753,4.634616072293962,-74.15085475898734,2556.586,0.76,60.8203125,4,30,-9999,1561841802.637201,-12.78892517089844,-21.93436813354492,16.635498046875,141.1659393310547,148.6590423583984,15,169618.955294875,-0.9789886474609375,0.1368408203125,0.1214752197265625,169618.955294875,-0.02845268045418857,0.04212934423229049,0.04163000152790063,169618.942782875,-87.36766052246094,-48.66629028320312,-546.2005615234375,169618.950228875,-0.03117857321121975,-1.685285474477564,-0.1256655490433793,-0.01446878165006638,0.02565929479897022,0.02869616262614727,0.008843183517456055,0.009918838739395142,0.009555935859680176,1,-0.05339464172720909,-0.7441896200180054,0.03650845214724541,0.6648292541503906,-0.9856193661689758,0.1253350675106049,0.1133383587002754,0,0,0,-1,169613.1440169167,3,1,1561841797.090516,1561841239.621676,42,1.91319,0,0,42.10339,0,0,1561841755.596066,169616.105725,0,0.1005859,75.19201,0,182478453,3,1,0.99,-35.93259,-38.27523,1
1561841802.673266,103,0,0,1561841801.998753,4.634616072293962,-74.15085475898734,2556.586,0.76,60.8203125,4,30,-9999,1561841802.662451,-12.87488555908203,-22.09710693359375,16.63739013671875,141.2034454345703,148.6965484619141,15,169618.975558875,-0.982513427734375,0.1352691650390625,0.1137237548828125,169618.975558875,-0.07498822471001516,0.08102108352737165,0.03848880302215217,169618.962893875,-87.12294006347656,-48.57310485839844,-546.14501953125,169618.970492875,-0.03218237573814919,-1.684501211740061,-0.1263825333902067,-0.06645980477333069,0.06908879429101944,0.04179305583238602,0.004264533519744873,0.01102334260940552,0.004174590110778809,1,-0.0540202297270298,-0.7438812851905823,0.03642084822058678,0.6651284694671631,-0.9856182932853699,0.126046359539032,0.1125551015138626,0,0,0,-1,169613.1440169167,3,1,1561841797.090516,1561841239.621676,42,1.91319,0,0,42.10339,0,0,1561841755.596066,169616.105725,0,0.1005859,75.19201,0,182478453,3,1,0.99,-35.93259,-39.00589,1
1561841802.697094,104,0,0,1561841801.998753,4.634616072293962,-74.15085475898734,2556.586,0.76,60.8203125,4,30,-9999,1561841802.687747,-12.7271728515625,-22.20631790161133,16.55096435546875,141.3129272460938,148.8060302734375,15,169618.995822875,-0.9913177490234375,0.1303863525390625,0.1173858642578125,169618.995822875,-0.06944139279159812,0.1023487428011622,0.007403587830420283,169618.983004875,-87.02139282226562,-48.43028259277344,-546.0797729492188,169618.990756875,-0.03379564267621928,-1.683048967872016,-0.1267286117367507,-0.07387112081050873,0.09862378239631653,0.01150678843259811,-0.002116620540618896,0.006956890225410461,0.005351662635803223,1,-0.05476120859384537,-0.7433441877365112,0.03597352281212807,0.6656925082206726,-0.9857373833656311,0.126389667391777,0.1111187413334846,0,0,0,-1,169613.1440169167,3,1,1561841797.090516,1561841239.621676,42,1.91319,0,0,42.10339,0,0,1561841755.596066,169616.105725,0,0.1005859,75.19201,0,182478453,3,1,0.99,-35.93259,-39.49886,1
1561841802.713784,105,0,0,1561841801.998753,4.634616072293962,-74.15085475898734,2556.586,0.76,60.8203125,4,30,-9999,1561841802.712054,-12.92769622802734,-22.35526275634766,16.45855712890625,141.3934936523438,148.8865966796875,15,169619.016085875,-0.9739837646484375,0.1291961669921875,0.1156463623046875,169619.016085875,-0.02137106879955886,0.0912095389096878,0.01708098259955022,169619.003115875,-87.16622924804688,-48.87249755859375,-546.5841064453125,169619.011019875,-0.03504953772622942,-1.681304938196902,-0.1266888814019028,-0.04043779894709587,0.09288040548563004,0.006869692355394363,0.002307355403900146,0.001381069421768188,0.005285143852233887,1,-0.05524501577019691,-0.7427300810813904,0.03549320623278618,0.6663634181022644,-0.9859346747398376,0.1263502538204193,0.1093999668955803,0,0,0,-1,169613.1440169167,3,1,1561841797.090516,1561841239.621676,42,1.91319,0,0,42.10339,0,0,1561841755.596066,169616.105725,0,0.1005859,75.19201,0,182478453,3,1,0.99,-35.93259,-40.24864,1
1561841802.734004,106,0,0,1561841801.998753,4.634616072293962,-74.15085475898734,2556.586,0.76,60.8203125,4,30,-9999,1561841802.712054,-12.92769622802734,-22.35526275634766,16.45855712890625,141.3934936523438,148.8865966796875,15,169619.036349875,-0.9735870361328125,0.1361846923828125,0.11358642578125,169619.036349875,0.02076493333545683,0.01634648277090637,0.03128122384796173,169619.023227875,-87.35200500488281,-48.85394287109375,-546.3073120117188,169619.031283875,-0.03530962120111403,-1.680019903698853,-0.1270845987102332,0.01348828431218863,0.02945749275386333,0.02887592278420925,0.01439094543457031,0.00611548125743866,0.005214810371398926,1,-0.05549594759941101,-0.7422829270362854,0.03551813960075378,0.6668394804000854,-0.9860249161720276,0.1267427951097488,0.1081274896860123,0,0,0,-1,169613.1440169167,3,1,1561841797.090516,1561841239.621676,42,1.91319,0,0,42.10339,0,0,1561841755.596066,169616.105725,0,0.1005859,75.19201,0,182478453,3,1,0.99,-35.93259,-40.9855,1
1561841802.754234,107,0,0,1561841801.998753,4.634616072293962,-74.15085475898734,2556.586,0.76,60.8203125,4,30,-9999,1561841802.738261,-12.97301483154297,-22.04172515869141,16.564208984375,141.3906402587891,148.8837432861328,15,169619.056613875,-0.9870147705078125,0.139068603515625,0.1174163818359375,169619.056613875,0.03002048338791821,-0.02480148659968993,0.02635304425077009,169619.043338875,-87.36866760253906,-48.54450988769531,-546.5560302734375,169619.051547875,-0.03489176864031523,-1.68007507770768,-0.1277021529480381,0.02958469651639462,-0.02619964256882668,0.02212800644338131,0.006662130355834961,0.01111817359924316,0.008480191230773926,1,-0.05554526671767235,-0.7422946691513062,0.0358886606991291,0.6668022871017456,-0.98594069480896,0.1273553520441055,0.1081733033061028,0,0,0,-1,169613.1440169167,3,1,1561841797.090516,1561841239.621676,42,1.91319,0,0,42.10339,0,0,1561841755.596066,169616.105725,0,0.1005859,75.19201,0,182478453,3,1,0.99,-35.93259,-41.58582,1
1561841802.774485,108,0,0,1561841801.998753,4.634616072293962,-74.15085475898734,2556.586,0.76,60.8203125,4,30,-9999,1561841802.762732,-12.90282440185547,-22.05544281005859,16.29425048828125,141.3553771972656,148.8484802246094,15,169619.076876875,-0.9890594482421875,0.13726806640625,0.117156982421875,169619.076876875,0.005739112149120758,-0.02955416388104534,0.01537229844415538,169619.063449875,-87.4920654296875,-48.59695434570312,-546.475830078125,169619.071780875,-0.03451958510894615,-1.680766387565037,-0.1282129071408354,0.01001179404556751,-0.04094556346535683,0.01662937924265862,-0.004174113273620605,0.01038271188735962,0.007531046867370605,1,-0.05556447803974152,-0.7425203323364258,0.03622189909219742,0.6665313243865967,-0.9858008027076721,0.1278619170188904,0.1088477075099945,0,0,0,-1,169613.1440169167,3,1,1561841797.090516,1561841239.621676,42,1.91319,0,0,42.10339,0,0,1561841755.596066,169616.105725,0,0.1005859,75.19201,0,182478453,3,1,0.99,-35.93259,-42.03252,1
1561841802.79653,109,0,0,1561841801.998753,4.634616072293962,-74.15085475898734,2556.586,0.76,60.8203125,4,30,-9999,1561841802.789218,-13.15827941894531,-22.00120162963867,16.39678955078125,141.3535308837891,148.8466339111328,15,169619.097110875,-0.9883575439453125,0.1264495849609375,0.1173095703125,169619.097110875,-0.02421772168874456,-0.007219030766877791,-0.01086409935086924,169619.083560875,-87.61369323730469,-48.88037109375,-546.4066772460938,169619.092044875,-0.03458504497337521,-1.681440662256114,-0.1283071540480439,-0.01802623085677624,-0.01959873177111149,-0.006947053596377373,-0.001101195812225342,0.003605887293815613,0.01011788845062256,1,-0.05560789257287979,-0.7427403926849365,0.03625389188528061,0.6662807464599609,-0.9857152700424194,0.1279553920030594,0.1095110550522804,0,0,0,-1,169613.1440169167,3,1,1561841797.090516,1561841239.621676,42,1.91319,0,0,42.10339,0,0,1561841755.596066,169616.105725,0,0.1005859,75.19201,0,182478453,3,1,0.99,-35.93259,-42.03252,1
1561841802.815023,110,0,0,1561841801.998753,4.634616072293962,-74.15085475898734,2556.586,0.76,60.8203125,4,30,-9999,1561841802.813359,-13.20633697509766,-21.99563217163086,16.68853759765625,141.3933868408203,148.8864898681641,15,169619.1173866667,-0.9818878173828125,0.123046875,0.1171722412109375,169619.1173866667,-0.03343838433092591,0.03247565159686226,-0.01413552643392258,169619.1036846667,-87.3525390625,-48.62332153320312,-546.31201171875,169619.1123206667,-0.03519370460959849,-1.681565155946016,-0.1279306935505756,-0.03887052834033966,0.02130768820643425,-0.02086473442614079,-0.002165436744689941,-0.00534386932849884,0.00588524341583252,1,-0.05570659041404724,-0.742776095867157,0.03591449558734894,0.6662511825561523,-0.9857495427131653,0.1275820285081863,0.1096391081809998,0,0,0,-1,169613.1440169167,3,1,1561841797.090516,1561841239.621676,42,1.91319,0,0,42.10339,0,0,1561841755.596066,169616.105725,0,0.1005859,75.19201,0,182478453,3,1,0.99,-35.93259,-42.17603,1
1561841802.835255,111,0,0,1561841801.998753,4.634616072293962,-74.15085475898734,2556.586,0.76,60.8203125,4,30,-9999,1561841802.813359,-13.20633697509766,-21.99563217163086,16.68853759765625,141.3933868408203,148.8864898681641,15,169619.1376506667,-0.973907470703125,0.1317138671875,0.119140625,169619.1376506667,0.01412647168621631,0.03427621480986483,0.0289176683805164,169619.1237956667,-87.59597778320312,-48.65351867675781,-546.2250366210938,169619.1325846667,-0.03567729807593723,-1.68106170818704,-0.12778938016245,-0.002375100972130895,0.03269137069582939,0.01361734420061111,0.009046494960784912,-9.199976921081543e-05,0.009446501731872559,1,-0.05584821850061417,-0.7425990700721741,0.03568674996495247,0.6664488911628723,-0.9858225584030151,0.127441868185997,0.1091448068618774,0,0,0,-1,169613.1440169167,3,1,1561841797.090516,1561841239.621676,42,1.91319,0,0,42.10339,0,0,1561841755.596066,169616.105725,0,0.1005859,75.19201,0,182478453,3,1,0.99,-35.93259,-42.43099,1
1561841802.87329,112,0,0,1561841801.998753,4.634616072293962,-74.15085475898734,2556.586,0.76,60.8203125,4,30,-9999,1561841802.864074,-13.02464294433594,-22.25303649902344,16.54547119140625,141.3475341796875,148.8406372070312,15,169619.1579146667,-0.966644287109375,0.1331939697265625,0.1192779541015625,169619.1579146667,0.05549921185281529,0.01000389831877365,0.05385950356965351,169619.1439066667,-87.50370788574219,-48.72523498535156,-546.4963989257812,169619.1528486667,-0.03527732464409151,-1.68060633758486,-0.1285295339924936,0.04599722474813461,0.008950887247920036,0.046445332467556,0.0157158374786377,0.005536824464797974,0.008349418640136719,1,-0.05595393478870392,-0.7424364686012268,0.0360826700925827,0.6665998101234436,-0.9857780933380127,0.1281759440898895,0.1086855083703995,0,0,0,-1,169613.1440169167,3,1,1561841797.090516,1561841239.621676,42,1.91319,0,0,42.10339,0,0,1561841755.596066,169616.105725,0,0.1005859,75.19201,0,182478453,3,1,0.99,-35.87888,-40.70449,1
1561841802.875782,113,0,0,1561841801.998753,4.634616072293962,-74.15085475898734,2556.586,0.76,60.8203125,4,30,-9999,1561841802.864074,-13.02464294433594,-22.25303649902344,16.54547119140625,141.3475341796875,148.8406372070312,15,169619.1781776667,-0.9783172607421875,0.13372802734375,0.121429443359375,169619.1781776667,0.04415094981576964,0.008502408096186976,0.04798243967606664,169619.1640176667,-87.3726806640625,-48.59190368652344,-546.199462890625,169619.1731116667,-0.03432131283215197,-1.680505126005126,-0.1296651382324212,0.05022552609443665,-0.002082588151097298,0.04742564260959625,0.01506286859512329,0.004395410418510437,0.01066243648529053,1,-0.0559784471988678,-0.7423956394195557,0.03682086616754532,0.6666029691696167,-0.9856439232826233,0.1293020993471146,0.1085697412490845,0,0,0,-1,169613.1440169167,3,1,1561841797.090516,1561841239.621676,42,1.91319,0,0,42.10339,0,0,1561841755.596066,169616.105725,0,0.1005859,75.19201,0,182478453,3,1,0.99,-35.87888,-40.70449,1
1561841802.896108,114,0,0,1561841801.998753,4.634616072293962,-74.15085475898734,2556.586,0.76,60.8203125,4,30,-9999,1561841802.890278,-13.12830352783203,-22.06448364257812,16.439208984375,141.3011779785156,148.7942810058594,15,169619.1984416667,-0.987457275390625,0.125640869140625,0.119842529296875,169619.1984416667,-0.008967129706405803,0.0278691818593522,0.03400403974645873,169619.1841286667,-87.30323791503906,-48.64503479003906,-546.1875,169619.1933756667,-0.03382321424910046,-1.680337388780051,-0.1305729093116781,0.003133647842332721,0.01429212279617786,0.03763426095247269,0.001414000988006592,-0.0005177408456802368,0.01515889167785645,1,-0.05609849467873573,-0.742326557636261,0.03731981292366982,0.6666419506072998,-0.9855448603630066,0.1302021890878677,0.1083915159106255,0,0,0,-1,169613.1440169167,3,1,1561841797.090516,1561841239.621676,42,1.91319,0,0,42.10339,0,0,1561841755.596066,169616.105725,0,0.1005859,75.19201,0,182478453,3,1,0.99,-35.87888,-41.41483,1
1561841802.916942,115,0,0,1561841801.998753,4.634616072293962,-74.15085475898734,2556.586,0.76,60.8203125,4,30,-9999,1561841802.914762,-13.16782379150391,-22.10748672485352,16.45068359375,141.3348388671875,148.8279418945312,15,169619.2187056667,-0.9880218505859375,0.125579833984375,0.121734619140625,169619.2187056667,-0.04492832653796378,0.04235304976385715,0.02814002534221326,169619.2042396667,-87.46969604492188,-48.67326354980469,-546.3404541015625,169619.2136396667,-0.03428382029080309,-1.679892267699551,-0.1310695986053269,-0.03720791637897491,0.03558622673153877,0.02137167006731033,-0.002233922481536865,-0.006152406334877014,0.01357519626617432,1,-0.05644290894269943,-0.7421503067016602,0.03733844310045242,0.666808009147644,-0.9855285286903381,0.130694642663002,0.1079457625746727,0,0,0,-1,169613.1440169167,3,1,1561841797.090516,1561841239.621676,42,1.91319,0,0,42.10339,0,0,1561841755.596066,169616.105725,0,0.1005859,75.19201,0,182478453,3,1,0.99,-35.87888,-41.99492,1
1561841802.95177,116,0,0,1561841801.998753,4.634616072293962,-74.15085475898734,2556.586,0.76,60.8203125,4,30,-9999,1561841802.940941,-13.19485473632812,-21.91592025756836,16.39385986328125,141.4067077636719,148.8998107910156,15,169619.2389686667,-0.98248291015625,0.1249237060546875,0.118896484375,169619.2389686667,-0.04099909866566086,0.04799282600431795,0.02307895400662668,169619.2243506667,-87.59394836425781,-48.63658142089844,-546.4734497070312,169619.2339026667,-0.03532133700387835,-1.679256338508627,-0.131430291586549,-0.04805976524949074,0.04361885413527489,0.02046220004558563,-0.002898931503295898,-0.004785746335983276,0.01182675361633301,1,-0.05695964768528938,-0.7418979406356812,0.03710852935910225,0.6670577526092529,-0.9855501651763916,0.1310522258281708,0.10731390863657,0,0,0,-1,169613.1440169167,3,1,1561841797.090516,1561841239.621676,42,1.91319,0,0,42.10339,0,0,1561841755.596066,169616.105725,0,0.1005859,75.19201,0,182478453,3,1,0.99,-35.87888,-42.43735,1
1561841802.956857,117,0,0,1561841801.998753,4.634616072293962,-74.15085475898734,2556.586,0.76,60.8203125,4,30,-9999,1561841802.940941,-13.19485473632812,-21.91592025756836,16.39385986328125,141.4067077636719,148.8998107910156,15,169619.2592326667,-0.979034423828125,0.12725830078125,0.1118316650390625,169619.2592326667,-0.01469905132058335,0.02341504493619468,0.03798333504725514,169619.2444616667,-87.65476989746094,-48.52983093261719,-546.443359375,169619.2541366667,-0.03610561963724447,-1.678697936268912,-0.131811880727467,-0.02349450066685677,0.02102166600525379,0.0273832231760025,0.007746517658233643,-0.005133524537086487,0.00940704345703125,1,-0.0573878325521946,-0.7416776418685913,0.0369727686047554,0.6672735810279846,-0.9855602383613586,0.131430521607399,0.106758177280426,0,0,0,-1,169613.1440169167,3,1,1561841797.090516,1561841239.621676,42,1.91319,0,0,42.10339,0,0,1561841755.596066,169616.105725,0,0.1005859,75.19201,0,182478453,3,1,0.99,-35.87888,-42.43735,1
1561841802.979472,118,0,0,1561841801.998753,4.634616072293962,-74.15085475898734,2556.586,0.76,60.8203125,4,30,-9999,1561841802.965326,-13.23065185546875,-21.97316741943359,16.44415283203125,141.4432220458984,148.9363250732422,15,169619.2794656667,-0.9831085205078125,0.1180267333984375,0.1107940673828125,169619.2794656667,-0.009514142994308078,0.02515249123136237,0.0512312298898543,169619.2645736667,-87.61000061035156,-48.42581176757812,-546.3106689453125,169619.2743996667,-0.03649358934807705,-1.678514868246167,-0.1325608676604932,-0.00970944669097662,0.01444711908698082,0.04732523858547211,0.006309747695922852,-0.008622556924819946,0.004059076309204102,1,-0.05778432264924049,-0.741582453250885,0.037116389721632,0.6673371195793152,-0.9854815006256104,0.1321729719638824,0.1065671294927597,0,0,0,-1,169613.1440169167,3,1,1561841797.090516,1561841239.621676,42,1.91319,0,0,42.10339,0,0,1561841755.596066,169616.105725,0,0.1005859,75.19201,0,182478453,3,1,0.99,-35.87888,-43.18715,1
1561841802.99743,119,0,0,1561841801.998753,4.634616072293962,-74.15085475898734,2556.586,0.76,60.8203125,4,30,-9999,1561841802.992334,-13.24018859863281,-21.95118713378906,16.46514892578125,141.4786529541016,148.9717559814453,15,169619.2997296667,-0.99566650390625,0.10614013671875,0.1240234375,169619.2997296667,-0.09616115432447213,0.08461262257345252,0.01709989104328978,169619.2846846667,-87.51400756835938,-48.45310974121094,-546.2637939453125,169619.2946636667,-0.0371343443278342,-1.677976895463431,-0.1333184301088003,-0.06547576934099197,0.06327830255031586,0.02840161509811878,-0.005436480045318604,-0.02316738665103912,0.0104135274887085,1,-0.05828398838639259,-0.7413609623908997,0.03716842457652092,0.6675367951393127,-0.9854387640953064,0.1329238563776016,0.1060262024402618,0,0,0,-1,169613.1440169167,3,1,1561841797.090516,1561841239.621676,42,1.91319,0,0,42.10339,0,0,1561841755.596066,169616.105725,0,0.1005859,75.19201,0,182478453,3,1,0.99,-35.87888,-43.46515,1
1561841803.037329,120,0,0,1561841801.998753,4.634616072293962,-74.15085475898734,2556.586,0.76,60.8203125,4,30,-9999,1561841803.020057,-13.17387390136719,-21.99725341796875,16.38427734375,141.704345703125,149.1974487304688,15,169619.3199926667,-0.9947052001953125,0.1145782470703125,0.132720947265625,169619.3199926667,-0.2780119135672248,0.1108833751465392,-0.04436453533519399,169619.3047956667,-87.79739379882812,-48.70829772949219,-546.4068603515625,169619.3149276667,-0.04006246394872484,-1.676626402692003,-0.1329468632829193,-0.2315350472927094,0.1038291975855827,-0.03133628517389297,-0.0115012526512146,-0.02307376265525818,0.02600634098052979,1,-0.05926999449729919,-0.7408355474472046,0.03601301088929176,0.6680963635444641,-0.9856300950050354,0.1325555741786957,0.1047004833817482,0,0,0,-1,169613.1440169167,3,1,1561841797.090516,1561841239.621676,42,1.91319,0,0,42.10339,0,0,1561841755.596066,169616.105725,0,0.1005859,75.19201,0,182478453,3,1,0.99,-35.87888,-44.49059,1
