loggingTime,loggingSample,identifierForVendor,deviceID,locationTimestamp_since1970,locationLatitude,locationLongitude,locationAltitude,locationSpeed,locationCourse,locationVerticalAccuracy,locationHorizontalAccuracy,locationFloor,locationHeadingTimestamp_since1970,locationHeadingX,locationHeadingY,locationHeadingZ,locationTrueHeading,locationMagneticHeading,locationHeadingAccuracy,accelerometerTimestamp_sinceReboot,accelerometerAccelerationX,accelerometerAccelerationY,accelerometerAccelerationZ,gyroTimestamp_sinceReboot,gyroRotationX,gyroRotationY,gyroRotationZ,magnetometerTimestamp_sinceReboot,magnetometerX,magnetometerY,magnetometerZ,motionTimestamp_sinceReboot,motionYaw,motionRoll,motionPitch,motionRotationRateX,motionRotationRateY,motionRotationRateZ,motionUserAccelerationX,motionUserAccelerationY,motionUserAccelerationZ,motionAttitudeReferenceFrame,motionQuaternionX,motionQuaternionY,motionQuaternionZ,motionQuaternionW,motionGravityX,motionGravityY,motionGravityZ,motionMagneticFieldX,motionMagneticFieldY,motionMagneticFieldZ,motionMagneticFieldCalibrationAccuracy,activityTimestamp_sinceReboot,activity,activityActivityConfidence,activityActivityStartDate,pedometerStartDate,pedometerNumberofSteps,pedometerAverageActivePace,pedometerCurrentPace,pedometerCurrentCadence,pedometerDistance,pedometerFloorAscended,pedometerFloorDescended,pedometerEndDate,altimeterTimestamp_sinceReboot,altimeterReset,altimeterRelativeAltitude,altimeterPressure,IP_en0,IP_pdp_ip0,deviceOrientation,batteryState,batteryLevel,avAudioRecorderPeakPower,avAudioRecorderAveragePower,label
1561841814.659459,1,0,0,1561841813.998636,4.634655131962742,-74.15086171596697,2554.297,0,292.1484375,4,50,-9999,1561841814.64241,-22.51029968261719,-15.66091537475586,12.2293701171875,121.6747207641602,129.1678314208984,15,169630.9494170417,-0.877532958984375,0.1388702392578125,-0.4424896240234375,169630.9494170417,-0.001466602812306636,0.01213522613916406,0.001561411347113457,169630.9262540417,-97.10546875,-42.25198364257812,-550.6643676757812,169630.9443510417,0.3072806709934597,-1.097735850206582,-0.1350799584498469,0.002135225106030703,0.002515706699341536,0.00176395452581346,0.003239154815673828,0.00169825553894043,0.009293258190155029,1,0.02276306785643101,-0.5232118368148804,0.1650557816028595,0.8357558846473694,-0.8820691108703613,0.1346695423126221,-0.45146244764328,0,0,0,-1,169630.6361850417,2,0,1561841814.582684,1561841239.621676,42,1.91319,0,0,42.10339,0,0,1561841755.596066,169628.381006,0,-0.05273438,75.19344,0,182478453,3,1,0.99,-38.98165,-47.00763,3
1561841814.667363,2,0,0,1561841813.998636,4.634655131962742,-74.15086171596697,2554.297,0,292.1484375,4,50,-9999,1561841814.666094,-22.61640930175781,-15.6133918762207,12.1053466796875,121.690544128418,129.1836547851562,15,169630.9696810417,-0.87921142578125,0.1389617919921875,-0.442047119140625,169630.9696810417,-0.0142774729200238,0.0003957457379857748,-0.008833439019683826,169630.9463350417,-96.99618530273438,-42.32748413085938,-550.6531982421875,169630.9646150417,0.3070969472725856,-1.097681768180684,-0.1350725902191641,-0.01412124279886484,-0.001852942630648613,-0.01001627184450626,0.003093540668487549,0.005367666482925415,0.009829699993133545,1,0.02271366305649281,-0.523190975189209,0.1649777591228485,0.8357856869697571,-0.882045567035675,0.1346622407436371,-0.4515105783939362,0,0,0,-1,169630.6361850417,2,0,1561841814.582684,1561841239.621676,42,1.91319,0,0,42.10339,0,0,1561841755.596066,169628.381006,0,-0.05273438,75.19344,0,182478453,3,1,0.99,-39.53893,-47.03687,3
1561841814.687665,3,0,0,1561841813.998636,4.634655131962742,-74.15086171596697,2554.297,0,292.1484375,4,50,-9999,1561841814.666094,-22.61640930175781,-15.6133918762207,12.1053466796875,121.690544128418,129.1836547851562,15,169630.9899440417,-0.87750244140625,0.1396636962890625,-0.4434356689453125,169630.9899440417,0.006016879850816023,0.003377953526656506,-0.01762400114581738,169630.9664460417,-96.79090881347656,-42.25979614257812,-550.7572021484375,169630.9848780417,0.3067317942295972,-1.097891851485512,-0.1349303527044444,-0.005421227775514126,-0.005218112841248512,-0.01785981468856335,0.003617346286773682,0.005523860454559326,0.008218705654144287,1,0.02269566990435123,-0.523276150226593,0.1647868305444717,0.8357704281806946,-0.8821573853492737,0.1345212906599045,-0.4513339400291443,0,0,0,-1,169630.6361850417,2,0,1561841814.582684,1561841239.621676,42,1.91319,0,0,42.10339,0,0,1561841755.596066,169628.381006,0,-0.05273438,75.19344,0,182478453,3,1,0.99,-40.09621,-42.87878,3
1561841814.715398,4,0,0,1561841813.998636,4.634655131962742,-74.15086171596697,2554.297,0,292.1484375,4,50,-9999,1561841814.692619,-22.61849975585938,-15.7617073059082,12.095947265625,121.7121353149414,129.2052459716797,15,169631.0102080417,-0.87664794921875,0.133331298828125,-0.4385986328125,169631.0102080417,0.02059049628405664,0.01028885655541213,-0.002105761473925654,169630.9865570417,-96.98454284667969,-42.34352111816406,-550.7702026367188,169631.0051120417,0.3067301329181771,-1.097917637622633,-0.1345278640847045,0.01851632818579674,0.003097340930253267,-0.01193348225206137,0.006255865097045898,0.001833349466323853,0.0099906325340271,1,0.02286770194768906,-0.5232677459716797,0.1646840572357178,0.8357913494110107,-0.8822172284126282,0.1341224610805511,-0.4513358771800995,0,0,0,-1,169630.6361850417,2,0,1561841814.582684,1561841239.621676,42,1.91319,0,0,42.10339,0,0,1561841755.596066,169628.381006,0,-0.05273438,75.19344,0,182478453,3,1,0.99,-40.16604,-43.62183,3
1561841814.728272,5,0,0,1561841813.998636,4.634655131962742,-74.15086171596697,2554.297,0,292.1484375,4,50,-9999,1561841814.716421,-22.64919281005859,-15.81950378417969,12.09271240234375,121.6988296508789,129.1919403076172,15,169631.0304720417,-0.8783111572265625,0.1285858154296875,-0.4359283447265625,169631.0304720417,0.01034265240943173,0.02071779538416242,0.01556298077820505,169631.0066370417,-97.09591674804688,-42.29327392578125,-550.6580810546875,169631.0253750417,0.3070205992372516,-1.097774519973888,-0.1343795755475037,0.01279053278267384,0.01081145368516445,0.008518530055880547,0.002745270729064941,-0.002887248992919922,0.01461207866668701,1,0.02299467101693153,-0.5231975317001343,0.1647695899009705,0.8358149528503418,-0.8821702599525452,0.1339755058288574,-0.4514711797237396,0,0,0,-1,169630.6361850417,2,0,1561841814.582684,1561841239.621676,42,1.91319,0,0,42.10339,0,0,1561841755.596066,169628.381006,0,-0.05273438,75.19344,0,182478453,3,1,0.99,-40.16604,-43.62183,3
1561841814.748474,6,0,0,1561841813.998636,4.634655131962742,-74.15086171596697,2554.297,0,292.1484375,4,50,-9999,1561841814.742835,-22.55188751220703,-15.8590087890625,12.181884765625,121.6826248168945,129.1757354736328,15,169631.0507050417,-0.88092041015625,0.1284942626953125,-0.4397430419921875,169631.0507050417,-0.004088218589380638,0.02126534130428272,0.01602344133067975,169631.0267480417,-97.07688903808594,-42.24882507324219,-550.6148681640625,169631.0456390417,0.3072374229151712,-1.097454356080096,-0.1345956889891043,-0.001752457348629832,0.01656175218522549,0.01505259517580271,0.001857578754425049,-0.0074806809425354,0.0150948166847229,1,0.02293353527784348,-0.5230715870857239,0.164918527007103,0.8358659744262695,-0.8819997906684875,0.1341896653175354,-0.4517403244972229,0,0,0,-1,169630.6361850417,2,0,1561841814.582684,1561841239.621676,42,1.91319,0,0,42.10339,0,0,1561841755.596066,169628.381006,0,-0.05273438,75.19344,0,182478453,3,1,0.99,-37.63421,-39.43449,3
1561841814.768609,7,0,0,1561841813.998636,4.634655131962742,-74.15086171596697,2554.297,0,292.1484375,4,50,-9999,1561841814.742835,-22.55188751220703,-15.8590087890625,12.181884765625,121.6826248168945,129.1757354736328,15,169631.0709680417,-0.8785400390625,0.132354736328125,-0.4420928955078125,169631.0709680417,0.007319431939973778,0.008651545117231414,0.01681173701334321,169631.0468600417,-97.13189697265625,-42.75437927246094,-550.71435546875,169631.0659030417,0.3072949128188662,-1.097228789003819,-0.1349009057481488,0.00110404915176332,0.00404702452942729,0.01465338747948408,0.002329528331756592,-0.003815844655036926,0.01028543710708618,1,0.02280076034367085,-0.5229912400245667,0.1650222688913345,0.8358994126319885,-0.8818613886833191,0.1344921141862869,-0.4519205689430237,0,0,0,-1,169630.6361850417,2,0,1561841814.582684,1561841239.621676,42,1.91319,0,0,42.10339,0,0,1561841755.596066,169628.381006,0,-0.05273438,75.19344,0,182478453,3,1,0.99,-37.10723,-37.55788,3
1561841814.801299,8,0,0,1561841813.998636,4.634655131962742,-74.15086171596697,2554.297,0,292.1484375,4,50,-9999,1561841814.767672,-22.73973083496094,-16.05961227416992,12.2080078125,121.6781387329102,129.1712493896484,15,169631.0912320417,-0.876007080078125,0.1350250244140625,-0.444549560546875,169631.0912320417,0.01798006578356097,0.01061269694396576,0.003482083125278604,169631.0669710417,-97.04229736328125,-42.33213806152344,-550.8554077148438,169631.0861660417,0.3075078350560946,-1.09714334439915,-0.1349934540975278,0.01302329264581203,0.006987154018133879,0.000537568936124444,0.004141509532928467,0.001631379127502441,0.008691906929016113,1,0.0228101909160614,-0.5229575037956238,0.1651356071233749,0.8358979821205139,-0.881811797618866,0.1345838308334351,-0.4519902765750885,0,0,0,-1,169630.6361850417,2,0,1561841814.582684,1561841239.621676,42,1.91319,0,0,42.10339,0,0,1561841755.596066,169628.381006,0,-0.05273438,75.19344,0,182478453,3,1,0.99,-35.53017,-38.10728,3
1561841814.809315,9,0,0,1561841813.998636,4.634655131962742,-74.15086171596697,2554.297,0,292.1484375,4,50,-9999,1561841814.800491,-22.59961700439453,-15.86602401733398,11.9432373046875,121.6623458862305,129.1554565429688,15,169631.111507875,-0.873016357421875,0.133514404296875,-0.4425811767578125,169631.111507875,0.02248453645132099,0.0193523926932788,0.02411039629681437,169631.0870510417,-97.14149475097656,-42.43186950683594,-550.736083984375,169631.1064300417,0.3078815506351045,-1.09697017658069,-0.1349112358123314,0.02006415836513042,0.01190974190831184,0.01419852022081614,0.008955895900726318,-0.0018882155418396,0.008071482181549072,1,0.02292840369045734,-0.5228769183158875,0.1652730107307434,0.8359180092811584,-0.8817433714866638,0.1345023512840271,-0.4521480202674866,0,0,0,-1,169630.6361850417,2,0,1561841814.582684,1561841239.621676,42,1.91319,0,0,42.10339,0,0,1561841755.596066,169628.381006,0,-0.05273438,75.19344,0,182478453,3,1,0.99,-35.53017,-38.65528,3
1561841814.829649,10,0,0,1561841813.998636,4.634655131962742,-74.15086171596697,2554.297,0,292.1484375,4,50,-9999,1561841814.800491,-22.59961700439453,-15.86602401733398,11.9432373046875,121.6623458862305,129.1554565429688,15,169631.131770875,-0.8740386962890625,0.1331634521484375,-0.4402008056640625,169631.131770875,0.01096796263338233,0.02573092982012758,0.02915522234975147,169631.107173875,-97.29486083984375,-42.24153137207031,-550.98095703125,169631.126705875,0.3084542192235783,-1.096626852891732,-0.1351430027224728,0.01410187408328056,0.01867896504700184,0.02793909981846809,0.008696496486663818,-0.00265192985534668,0.009428024291992188,1,0.02295159175992012,-0.522737979888916,0.165574848651886,0.8359444737434387,-0.8815602660179138,0.1347320079803467,-0.4524364471435547,0,0,0,-1,169630.6361850417,2,0,1561841814.582684,1561841239.621676,42,1.91319,0,0,42.10339,0,0,1561841755.596066,169628.381006,0,-0.05273438,75.19344,0,182478453,3,1,0.99,-35.53017,-36.61851,3
1561841814.849822,11,0,0,1561841813.998636,4.634655131962742,-74.15086171596697,2554.297,0,292.1484375,4,50,-9999,1561841814.846035,-22.51742553710938,-15.76620483398438,12.04339599609375,121.6058883666992,129.0989990234375,15,169631.152034875,-0.8787994384765625,0.134307861328125,-0.443878173828125,169631.152034875,-0.007115700116582717,0.01480291460309644,0.01914839455377873,169631.127284875,-97.02403259277344,-42.35272216796875,-550.7822265625,169631.146968875,0.3086860447349351,-1.096258678742859,-0.1355094080757809,-0.01075846888124943,0.01523230224847794,0.01652665622532368,0.003343582153320312,0.0007997006177902222,0.01131683588027954,1,0.0228265505284071,-0.5225990414619446,0.1657684743404388,0.8359963297843933,-0.8813496232032776,0.1350950598716736,-0.4527383744716644,0,0,0,-1,169630.6361850417,2,0,1561841814.582684,1561841239.621676,42,1.91319,0,0,42.10339,0,0,1561841755.596066,169628.381006,0,-0.05273438,75.19344,0,182478453,3,1,0.99,-35.53017,-37.33521,3
1561841814.883027,12,0,0,1561841813.998636,4.634655131962742,-74.15086171596697,2554.297,0,292.1484375,4,50,-9999,1561841814.86866,-22.51201629638672,-15.70860290527344,12.08544921875,121.5992813110352,129.0923919677734,15,169631.172298875,-0.8769073486328125,0.1352386474609375,-0.4476470947265625,169631.172298875,0.02309093823153203,-0.01421515495051595,0.01708790681838442,169631.147395875,-96.88664245605469,-42.3602294921875,-550.794921875,169631.167232875,0.3087315082018675,-1.096288025711081,-0.1358035313227864,0.01004428137093782,-0.01536129415035248,0.01275135856121778,0.003397822380065918,0.0002183765172958374,0.006557881832122803,1,0.02271632477641106,-0.5226249098777771,0.1658613830804825,0.8359647393226624,-0.8813275098800659,0.1353864818811417,-0.4526943564414978,0,0,0,-1,169630.6361850417,2,0,1561841814.582684,1561841239.621676,42,1.91319,0,0,42.10339,0,0,1561841755.596066,169628.381006,0,-0.05273438,75.19344,0,182478453,3,1,0.99,-35.53017,-38.16173,3
1561841814.890259,13,0,0,1561841813.998636,4.634655131962742,-74.15086171596697,2554.297,0,292.1484375,4,50,-9999,1561841814.86866,-22.51201629638672,-15.70860290527344,12.08544921875,121.5992813110352,129.0923919677734,15,169631.192561875,-0.8801116943359375,0.1302947998046875,-0.442779541015625,169631.192561875,0.0466801539030179,-0.00967419897582184,0.007502124790753214,169631.167476875,-96.83146667480469,-42.59619140625,-550.7669677734375,169631.187465875,0.3093551551231046,-1.096664702175232,-0.1357509061140892,0.04332207888364792,-0.0211131889373064,0.005433790385723114,0.002949118614196777,-0.003605231642723083,0.005618810653686523,1,0.02293283864855766,-0.5227726697921753,0.1661044359207153,0.8358182907104492,-0.8815044164657593,0.1353343427181244,-0.4523656368255615,0,0,0,-1,169630.6361850417,2,0,1561841814.582684,1561841239.621676,42,1.91319,0,0,42.10339,0,0,1561841755.596066,169628.381006,0,-0.05273438,75.19344,0,182478453,3,1,0.99,-35.53017,-38.16173,3
1561841814.911138,14,0,0,1561841813.998636,4.634655131962742,-74.15086171596697,2554.297,0,292.1484375,4,50,-9999,1561841814.895179,-22.58454895019531,-15.64085388183594,12.1195068359375,121.5478591918945,129.0409698486328,15,169631.212825875,-0.8795928955078125,0.1280517578125,-0.4375152587890625,169631.212825875,0.03599608424183801,0.007560980650843965,0.01224681258883839,169631.187587875,-96.96588134765625,-42.37619018554688,-550.7822265625,169631.207729875,0.3101597650613772,-1.096791595816717,-0.1354234085341971,0.03772491216659546,-0.002550690900534391,0.006365897133946419,0.001123189926147461,-0.005676358938217163,0.01297342777252197,1,0.02329236082732677,-0.522800624370575,0.1663565337657928,0.8357406258583069,-0.881601095199585,0.1350098550319672,-0.4522739350795746,0,0,0,-1,169630.6361850417,2,0,1561841814.582684,1561841239.621676,42,1.91319,0,0,42.10339,0,0,1561841755.596066,169628.381006,0,-0.05273438,75.19344,0,182478453,3,1,0.99,-35.53017,-38.73581,3
1561841814.930804,15,0,0,1561841813.998636,4.634655131962742,-74.15086171596697,2554.297,0,292.1484375,4,50,-9999,1561841814.919667,-22.47255706787109,-15.66103744506836,12.03076171875,121.4988327026367,128.991943359375,15,169631.233058875,-0.8769989013671875,0.13507080078125,-0.43865966796875,169631.233058875,0.01735422292739235,0.0153395415627474,0.02783962077125232,169631.207698875,-96.97955322265625,-42.36216735839844,-550.9984741210938,169631.227992875,0.3108070890071559,-1.096688707361178,-0.1353832114283615,0.02031209878623486,0.005153567995876074,0.02065428905189037,0.002912580966949463,-0.003866508603096008,0.01682025194168091,1,0.02347001060843468,-0.5227481126785278,0.1666180789470673,0.8357164263725281,-0.881559431552887,0.134970024228096,-0.4523671269416809,0,0,0,-1,169630.6361850417,2,0,1561841814.582684,1561841239.621676,42,1.91319,0,0,42.10339,0,0,1561841755.596066,169628.381006,0,-0.05273438,75.19344,0,182478453,3,1,0.99,-35.53017,-39.01722,3
1561841814.966948,16,0,0,1561841813.998636,4.634655131962742,-74.15086171596697,2554.297,0,292.1484375,4,50,-9999,1561841814.947756,-22.59058380126953,-15.73347854614258,12.2335205078125,121.463737487793,128.9568481445312,15,169631.253322875,-0.8760833740234375,0.134674072265625,-0.4453125,169631.253322875,0.007594536480578964,0.01597550443105833,0.0216008996016327,169631.227809875,-97.11044311523438,-42.37214660644531,-550.7584228515625,169631.248256875,0.3112634670392776,-1.096478198381535,-0.135716799912117,0.006326507776975632,0.005459298845380545,0.02377151884138584,0.004943966865539551,0.0005789697170257568,0.01040869951248169,1,0.02343052253127098,-0.5226709842681885,0.1668954491615295,0.8357104063034058,-0.8814240694046021,0.1353005617856979,-0.4525321125984192,0,0,0,-1,169630.6361850417,2,0,1561841814.582684,1561841239.621676,42,1.91319,0,0,42.10339,0,0,1561841755.596066,169628.381006,0,-0.05273438,75.19344,0,182478453,3,1,0.99,-35.53017,-40.40532,3
1561841814.971371,17,0,0,1561841813.998636,4.634655131962742,-74.15086171596697,2554.297,0,292.1484375,4,50,-9999,1561841814.969788,-22.5400390625,-15.72222518920898,12.1334228515625,121.4495315551758,128.9426422119141,15,169631.273586875,-0.8817596435546875,0.131744384765625,-0.444091796875,169631.273586875,-0.001074585499846973,0.01909060395812401,0.01429318557045527,169631.247920875,-96.84344482421875,-42.14019775390625,-550.5760498046875,169631.268520875,0.3114834339855575,-1.096241074577955,-0.135981586102345,-0.0001399132888764143,0.01171826012432575,0.01238810271024704,0.004224956035614014,-0.002140060067176819,0.008083641529083252,1,0.02335610426962376,-0.5225821733474731,0.1670569479465485,0.8357357978820801,-0.8812848329544067,0.1355628967285156,-0.4527247250080109,0,0,0,-1,169630.6361850417,2,0,1561841814.582684,1561841239.621676,42,1.91319,0,0,42.10339,0,0,1561841755.596066,169628.381006,0,-0.05273438,75.19344,0,182478453,3,1,0.99,-35.53017,-40.40532,3
1561841814.991404,18,0,0,1561841813.998636,4.634655131962742,-74.15086171596697,2554.297,0,292.1484375,4,50,-9999,1561841814.969788,-22.5400390625,-15.72222518920898,12.1334228515625,121.4495315551758,128.9426422119141,15,169631.293849875,-0.88037109375,0.1333465576171875,-0.4454193115234375,169631.293849875,0.008114385525362431,0.01724370174215406,-0.002401638671033457,169631.268001875,-96.900634765625,-42.11906433105469,-550.6676025390625,169631.288783875,0.3114836100553626,-1.096002783891795,-0.136122254187526,-0.0007692183135077357,0.01089108176529408,-0.00116525636985898,-0.001530468463897705,-0.003042355179786682,0.007979691028594971,1,0.02327669225633144,-0.5224894285202026,0.1670952886343002,0.8357883095741272,-0.8811599612236023,0.1357022672891617,-0.452925980091095,0,0,0,-1,169630.6361850417,2,0,1561841814.582684,1561841239.621676,42,1.91319,0,0,42.10339,0,0,1561841755.596066,169628.381006,0,-0.05273438,75.19344,0,182478453,3,1,0.99,-35.53017,-40.78251,3
1561841815.012151,19,0,0,1561841813.998636,4.634655131962742,-74.15086171596697,2554.297,0,292.1484375,4,50,-9999,1561841814.996237,-22.61297607421875,-15.50691604614258,12.05169677734375,121.450569152832,128.9436798095703,15,169631.314113875,-0.88140869140625,0.135009765625,-0.439697265625,169631.314113875,0.02995550225732028,0.003697532857466014,-0.01365296164440022,169631.288112875,-96.93464660644531,-42.08842468261719,-550.872802734375,169631.309047875,0.3116613224060535,-1.095897298418014,-0.1358432196722531,0.02696520835161209,0.0009220712818205357,-0.01282084733247757,8.815526962280273e-05,-0.0004312992095947266,0.009875237941741943,1,0.02343243733048439,-0.5224297046661377,0.1671003997325897,0.8358203172683716,-0.8811458349227905,0.1354258060455322,-0.4530362486839294,0,0,0,-1,169631.293453875,3,2,1561841815.239953,1561841239.621676,42,1.91319,0,0,42.10339,0,0,1561841755.596066,169628.381006,0,-0.05273438,75.19344,0,182478453,3,1,0.99,-35.53017,-41.54995,3
1561841815.045689,20,0,0,1561841813.998636,4.634655131962742,-74.15086171596697,2554.297,0,292.1484375,4,50,-9999,1561841815.022768,-22.63994598388672,-15.56695938110352,12.10382080078125,121.431526184082,128.9246368408203,15,169631.334377875,-0.8774566650390625,0.1331329345703125,-0.441192626953125,169631.334377875,0.01706313942024669,0.004851480557797348,-0.0228142357942728,169631.308223875,-96.96401977539062,-42.11497497558594,-550.7781372070312,169631.329311875,0.311911869101532,-1.095939465739944,-0.1352588370306143,0.01890088990330696,-0.002773863729089499,-0.02386311069130898,0.002923965454101562,-0.0003863424062728882,0.01312428712844849,1,0.02374883927404881,-0.5224159359931946,0.16705721616745,0.8358285427093506,-0.8812351226806641,0.1348467916250229,-0.4530351758003235,0,0,0,-1,169631.293453875,3,2,1561841815.239953,1561841239.621676,42,1.91319,0,0,42.10339,0,0,1561841755.596066,169628.381006,0,-0.05273438,75.19344,0,182478453,3,1,0.99,-35.53017,-40.46372,3
1561841815.052238,21,0,0,1561841814.998627,4.634672376544778,-74.15086496170836,2554.297,0.01209742,-1,10,200,-9999,1561841815.022768,-22.63994598388672,-15.56695938110352,12.10382080078125,121.431526184082,128.9246368408203,15,169631.354640875,-0.8741302490234375,0.1349029541015625,-0.4407501220703125,169631.354640875,-0.006941263065182527,0.0120590597319878,-0.01387613454374886,169631.328334875,-97.09042358398438,-42.24588012695312,-550.6837768554688,169631.349574875,0.3118253199135087,-1.095978496601959,-0.134755830131442,-0.0049658278003335,0.0009580240584909916,-0.02105054631829262,0.004756689071655273,-0.001932576298713684,0.01208329200744629,1,0.02394243702292442,-0.5224087238311768,0.1668936759233475,0.8358603119850159,-0.881313145160675,0.1343483626842499,-0.4530317783355713,0,0,0,-1,169631.293453875,3,2,1561841815.239953,1561841239.621676,42,1.91319,0,0,42.10339,0,0,1561841755.596066,169628.381006,0,-0.05273438,75.19344,0,182478453,3,1,0.99,-35.53017,-40.46372,3
1561841815.072424,22,0,0,1561841814.998627,4.634672376544778,-74.15086496170836,2554.297,0.01209742,-1,10,200,-9999,1561841815.056528,-22.69337463378906,-15.60795211791992,12.0955810546875,121.4340286254883,128.9271392822266,15,169631.374904875,-0.8766021728515625,0.1348419189453125,-0.4444427490234375,169631.374904875,-0.02815573799264473,0.01229155369515172,-0.02397297718456628,169631.348415875,-97.06593322753906,-42.27915954589844,-550.655517578125,169631.369808875,0.3113892966410534,-1.095965220476205,-0.1345791384312506,-0.02679788880050182,0.00455755228176713,-0.02096505835652351,0.005580484867095947,0.001523137092590332,0.01239573955535889,1,0.02390225417912006,-0.5223997831344604,0.1666670292615891,0.8359122276306152,-0.8813281655311584,0.1341732740402222,-0.4530543088912964,0,0,0,-1,169631.293453875,3,2,1561841815.239953,1561841239.621676,42,1.91319,0,0,42.10339,0,0,1561841755.596066,169628.381006,0,-0.05273438,75.19344,0,182478453,3,1,0.99,-35.53017,-40.95913,3
1561841815.09279,23,0,0,1561841814.998627,4.634672376544778,-74.15086496170836,2554.297,0.01209742,-1,10,200,-9999,1561841815.056528,-22.69337463378906,-15.60795211791992,12.0955810546875,121.4340286254883,128.9271392822266,15,169631.395168875,-0.8753662109375,0.1344146728515625,-0.4470672607421875,169631.395168875,-0.03193716042444824,0.007527691137217974,-0.03142183875351791,169631.368526875,-97.00601196289062,-42.14398193359375,-550.61376953125,169631.390071875,0.3105455750436353,-1.095961388558308,-0.1343292817224923,-0.03374367952346802,0.003817460034042597,-0.03481616079807281,0.006371438503265381,0.002152204513549805,0.007501125335693359,1,0.02378734759986401,-0.5223960876464844,0.1662513762712479,0.8360005617141724,-0.8813561797142029,0.133925661444664,-0.4530729651451111,0,0,0,-1,169631.293453875,3,2,1561841815.239953,1561841239.621676,42,1.91319,0,0,42.10339,0,0,1561841755.596066,169628.381006,0,-0.05273438,75.19344,0,182478453,3,1,0.99,-35.53017,-40.0985,3
1561841815.113098,24,0,0,1561841814.998627,4.634672376544778,-74.15086496170836,2554.297,0.01209742,-1,10,200,-9999,1561841815.097078,-22.69058227539062,-15.59098815917969,12.01007080078125,121.5341110229492,129.0272216796875,15,169631.415401875,-0.8714752197265625,0.130950927734375,-0.4524078369140625,169631.415401875,-0.04330086879581635,0.005268797900612764,-0.0185156274787759,169631.388637875,-97.19575500488281,-42.02053833007812,-550.786865234375,169631.410335875,0.3095990069382015,-1.096108278374068,-0.1340953425213051,-0.04188735783100128,0.001955111045390368,-0.02430173382163048,0.009517669677734375,3.419816493988037e-05,0.003525435924530029,1,0.02365132980048656,-0.5224573612213135,0.1657949090003967,0.8360568284988403,-0.8814506530761719,0.1336938291788101,-0.4529578387737274,0,0,0,-1,169631.293453875,3,2,1561841815.239953,1561841239.621676,42,1.91319,0,0,42.10339,0,0,1561841755.596066,169628.381006,0,-0.05273438,75.19344,0,182478453,3,1,0.99,-35.53017,-40.43401,3
1561841815.133318,25,0,0,1561841814.998627,4.634672376544778,-74.15086496170836,2554.297,0.01209742,-1,10,200,-9999,1561841815.121536,-22.62017059326172,-15.43562698364258,12.06903076171875,121.605598449707,129.0987091064453,15,169631.435665875,-0.8726348876953125,0.1303863525390625,-0.4510650634765625,169631.435665875,-0.02783056602354606,-0.01069525493775822,-0.001631186167673533,169631.408748875,-97.03030395507812,-42.15420532226562,-550.8058471679688,169631.430599875,0.3086179532015814,-1.096400305676396,-0.1342193713793245,-0.04177311062812805,-0.01484730467200279,-0.008786956779658794,0.01062697172164917,-0.003949195146560669,-0.001073062419891357,1,0.02336668036878109,-0.5225969552993774,0.1654126793146133,0.8360533118247986,-0.8815681338310242,0.1338167488574982,-0.452692836523056,0,0,0,-1,169631.293453875,3,2,1561841815.239953,1561841239.621676,42,1.91319,0,0,42.10339,0,0,1561841755.596066,169628.381006,0,-0.05273438,75.19344,0,182478453,3,1,0.99,-35.53017,-40.72171,3
1561841815.153573,26,0,0,1561841814.998627,4.634672376544778,-74.15086496170836,2554.297,0.01209742,-1,10,200,-9999,1561841815.147893,-22.68501281738281,-15.87765121459961,12.15814208984375,121.6347579956055,129.1278686523438,15,169631.455928875,-0.87298583984375,0.1233367919921875,-0.4407958984375,169631.455928875,0.03486530604299036,-0.02796905040023017,0.03434971805595102,169631.428859875,-96.99330139160156,-42.29623413085938,-550.734375,169631.450862875,0.3084150367337009,-1.09687713832958,-0.1343919036415625,0.02125965058803558,-0.03120710328221321,0.0177258774638176,0.007922947406768799,-0.005264580249786377,0.008459985256195068,1,0.02328003570437431,-0.5228069424629211,0.1653658747673035,0.8359336853027344,-0.8817633390426636,0.1339877247810364,-0.45226189494133,0,0,0,-1,169631.293453875,3,2,1561841815.239953,1561841239.621676,42,1.91319,0,0,42.10339,0,0,1561841755.596066,169628.381006,0,-0.05273438,75.19344,0,182478453,3,1,0.99,-35.53017,-40.83326,3
1561841815.173847,27,0,0,1561841814.998627,4.634672376544778,-74.15086496170836,2554.297,0.01209742,-1,10,200,-9999,1561841815.172363,-22.61841583251953,-15.68842315673828,12.140380859375,121.5721664428711,129.0652770996094,15,169631.476192875,-0.880279541015625,0.1281585693359375,-0.4430999755859375,169631.476192875,0.02328534899110782,-0.01691746450861935,0.03852875043850337,169631.448970875,-96.92375183105469,-42.37638854980469,-550.5450439453125,169631.471126875,0.3093257923763369,-1.097462314429496,-0.1347058274735608,0.0309306550770998,-0.03255892544984818,0.03809160366654396,0.006990313529968262,-0.01141977310180664,0.01076287031173706,1,0.02343373373150826,-0.5230559706687927,0.1658189594745636,0.8356838226318359,-0.8819903135299683,0.1342988163232803,-0.4517266154289246,0,0,0,-1,169631.293453875,3,2,1561841815.239953,1561841239.621676,42,1.91319,0,0,42.10339,0,0,1561841755.596066,169628.381006,0,-0.05273438,75.19344,0,182478453,3,1,0.99,-35.53017,-39.46841,3
1561841815.196112,28,0,0,1561841814.998627,4.634672376544778,-74.15086496170836,2554.297,0.01209742,-1,10,200,-9999,1561841815.172363,-22.61841583251953,-15.68842315673828,12.140380859375,121.5721664428711,129.0652770996094,15,169631.496456875,-0.88409423828125,0.1342315673828125,-0.4382781982421875,169631.496456875,-0.0033979272348321,-0.01002786676858436,0.005471464459567795,169631.469051875,-96.81632995605469,-42.14468383789062,-550.8212890625,169631.491390875,0.3097965017188437,-1.097798155097359,-0.1351228023962963,-0.005883020348846912,-0.01461427845060825,0.01355669740587473,-0.001407027244567871,-0.003577947616577148,0.009464561939239502,1,0.02340824715793133,-0.523210883140564,0.1661170572042465,0.8355283737182617,-0.8820921182632446,0.1347119957208633,-0.4514048397541046,0,0,0,-1,169631.293453875,3,2,1561841815.239953,1561841239.621676,42,1.91319,0,0,42.10339,0,0,1561841755.596066,169628.381006,0,-0.05273438,75.19344,0,182478453,3,1,0.99,-35.53017,-37.2224,3
1561841815.214408,29,0,0,1561841814.998627,4.634672376544778,-74.15086496170836,2554.297,0.01209742,-1,10,200,-9999,1561841815.198989,-22.64042663574219,-15.58451461791992,12.2630615234375,121.5573348999023,129.0504455566406,15,169631.516719875,-0.88287353515625,0.1417999267578125,-0.4347686767578125,169631.516719875,0.01995719657683579,-0.0118808942550615,-0.009165801523725713,169631.489162875,-97.07063293457031,-42.08834838867188,-550.5299072265625,169631.511653875,0.3097958139587523,-1.098139497269217,-0.1350414965144614,0.01548325456678867,-0.02187911421060562,-0.01268475968390703,-0.001792669296264648,0.001949995756149292,0.01594328880310059,1,0.02347083948552608,-0.5233495831489563,0.1660922318696976,0.8354445695877075,-0.8822557926177979,0.1346314251422882,-0.4511086642742157,0,0,0,-1,169631.293453875,3,2,1561841815.239953,1561841239.621676,42,1.91319,0,0,42.10339,0,0,1561841755.596066,169628.381006,0,-0.05273438,75.19344,0,182478453,3,1,0.99,-35.53017,-37.2224,3
1561841815.234685,30,0,0,1561841814.998627,4.634672376544778,-74.15086496170836,2554.297,0.01209742,-1,10,200,-9999,1561841815.222915,-22.56372833251953,-15.55564117431641,12.095703125,121.5492324829102,129.0423431396484,15,169631.536983875,-0.8760223388671875,0.1364288330078125,-0.440399169921875,169631.536983875,-0.004735100418160885,0.009670736866404737,0.008682970418094349,169631.509273875,-96.99656677246094,-42.14736938476562,-550.689453125,169631.531917875,0.3099736785939625,-1.098419339245321,-0.1347552034635642,0.004021542146801949,-0.003523010993376374,-0.002542643109336495,0.002945423126220703,0.009039103984832764,0.01225012540817261,1,0.02366176620125771,-0.5234505534172058,0.1660908460617065,0.8353762030601501,-0.8824162483215332,0.1343477368354797,-0.4508792757987976,0,0,0,-1,169631.293453875,3,2,1561841815.239953,1561841239.621676,42,1.91319,0,0,42.10339,0,0,1561841755.596066,169628.381006,0,-0.05273438,75.19344,0,182478453,3,1,0.99,-35.53017,-38.0434,3
1561841815.25502,31,0,0,1561841814.998627,4.634672376544778,-74.15086496170836,2554.297,0.01209742,-1,10,200,-9999,1561841815.249382,-22.5721435546875,-15.53474807739258,12.26617431640625,121.5556869506836,129.0487976074219,15,169631.557247875,-0.8748779296875,0.1299285888671875,-0.4390716552734375,169631.557247875,-0.02735279492398584,0.01422420969822222,0.0412489031759103,169631.529384875,-96.95768737792969,-42.05233764648438,-550.3932495117188,169631.552150875,0.3098032575886763,-1.098318422391462,-0.1351214563951306,-0.03279559314250946,0.008478524163365364,0.03157112002372742,0.007723689079284668,-0.00478208065032959,0.01228624582290649,1,0.02345380559563637,-0.5234280824661255,0.1661134511232376,0.8353917002677917,-0.8823269605636597,0.1347106546163559,-0.4509459137916565,0,0,0,-1,169631.293453875,3,2,1561841815.239953,1561841239.621676,42,1.91319,0,0,42.10339,0,0,1561841755.596066,169628.381006,0,-0.05273438,75.19344,0,182478453,3,1,0.99,-35.53017,-38.76944,3
1561841815.281621,32,0,0,1561841814.998627,4.634672376544778,-74.15086496170836,2554.297,0.01209742,-1,10,200,-9999,1561841815.273679,-22.87660217285156,-15.59049606323242,12.27154541015625,121.5757522583008,129.0688629150391,15,169631.577480875,-0.886505126953125,0.126373291015625,-0.4395904541015625,169631.577480875,-0.03619954974912006,0.02073776909233802,0.02635224530244307,169631.549495875,-97.281005859375,-42.33021545410156,-550.5780639648438,169631.572414875,0.3095607988837883,-1.098089718214868,-0.1360591542750451,-0.03410933166742325,0.0186733715236187,0.02998360991477966,0.004074454307556152,-0.006550401449203491,0.01143854856491089,1,0.02297455631196499,-0.5233805179595947,0.1662518680095673,0.8354073166847229,-0.8821109533309937,0.1356397569179535,-0.451090008020401,0,0,0,-1,169631.293453875,3,2,1561841815.239953,1561841239.621676,42,1.91319,0,0,42.10339,0,0,1561841755.596066,169628.381006,0,-0.05273438,75.19344,0,182478453,3,1,0.99,-35.53017,-39.69591,3
1561841815.29563,33,0,0,1561841814.998627,4.634672376544778,-74.15086496170836,2554.297,0.01209742,-1,10,200,-9999,1561841815.273679,-22.87660217285156,-15.59049606323242,12.27154541015625,121.5757522583008,129.0688629150391,15,169631.597743875,-0.887237548828125,0.13018798828125,-0.444976806640625,169631.597743875,-0.02241928900461405,-0.0004114583884172423,-0.00178165476926301,169631.569576875,-97.02203369140625,-42.1546630859375,-550.6468505859375,169631.592677875,0.3090301912038885,-1.097970718729962,-0.1366894030234676,-0.03303980827331543,0.001503971870988607,0.00179458106867969,-0.007728517055511475,-0.009829819202423096,0.007659256458282471,1,0.02255911193788052,-0.5233671069145203,0.1661908775568008,0.8354390859603882,-0.8819808959960938,0.1362641453742981,-0.4511559009552002,0,0,0,-1,169631.293453875,3,2,1561841815.239953,1561841239.621676,42,1.91319,0,0,42.10339,0,0,1561841755.596066,169628.381006,0,-0.05273438,75.19344,0,182478453,3,1,0.99,-35.53017,-40.66547,3
1561841815.315806,34,0,0,1561841814.998627,4.634672376544778,-74.15086496170836,2554.297,0.01209742,-1,10,200,-9999,1561841815.29995,-22.35776519775391,-15.65383911132812,12.0931396484375,121.6162643432617,129.109375,15,169631.618007875,-0.8784637451171875,0.140869140625,-0.4476165771484375,169631.618007875,-0.006418484543199972,-0.02208692650057216,-0.008728510472734704,169631.589687875,-97.06590270996094,-42.37876892089844,-550.7440185546875,169631.612941875,0.3085815291202412,-1.098304652509455,-0.136750854208332,-0.01071026548743248,-0.02210761420428753,-0.01453672163188457,-0.001115620136260986,-0.0007354319095611572,0.004843175411224365,1,0.02244340814650059,-0.5235145688056946,0.166015237569809,0.8353847861289978,-0.882124125957489,0.1363250315189362,-0.4508575797080994,0,0,0,-1,169631.608516875,2,0,1561841815.555016,1561841239.621676,42,1.91319,0,0,42.10339,0,0,1561841755.596066,169628.381006,0,-0.05273438,75.19344,0,182478453,3,1,0.99,-35.53017,-40.86542,3
1561841815.361106,35,0,0,1561841814.998627,4.634672376544778,-74.15086496170836,2554.297,0.01209742,-1,10,200,-9999,1561841815.350689,-22.75438690185547,-15.44903945922852,12.1318359375,121.607307434082,129.1004180908203,15,169631.638271875,-0.870880126953125,0.1405487060546875,-0.4439544677734375,169631.638271875,0.01985466487486775,-0.0364261847578858,0.01256479402299385,169631.609798875,-96.93550109863281,-42.1051025390625,-550.5540771484375,169631.633205875,0.3084545346188807,-1.098914023639568,-0.1366661731423136,0.009708989411592484,-0.032282754778862,0.0006307796575129032,0.006661295890808105,0.008518993854522705,0.003425776958465576,1,0.02249655872583389,-0.5237664580345154,0.1659339368343353,0.8352416157722473,-0.8824089765548706,0.1362411379814148,-0.4503251910209656,0,0,0,-1,169631.608516875,2,0,1561841815.555016,1561841239.621676,42,1.91319,0,0,42.10339,0,0,1561841755.596066,169628.381006,0,-0.05273438,75.19344,0,182478453,3,1,0.99,-35.53017,-42.57673,3
1561841815.36349,36,0,0,1561841814.998627,4.634672376544778,-74.15086496170836,2554.297,0.01209742,-1,10,200,-9999,1561841815.350689,-22.75438690185547,-15.44903945922852,12.1318359375,121.607307434082,129.1004180908203,15,169631.658534875,-0.87396240234375,0.1374359130859375,-0.436614990234375,169631.658534875,0.02495781415567758,-0.009598298884754582,0.04821067258148643,169631.629909875,-97.03813171386719,-42.21078491210938,-550.61328125,169631.653468875,0.3090054155724908,-1.099645940069061,-0.1367659364980315,0.02641153708100319,-0.02783207781612873,0.03361775726079941,0.01372289657592773,0.002148807048797607,0.009029746055603027,1,0.0226594302803278,-0.5240706205368042,0.1661809384822845,0.834997296333313,-0.88272625207901,0.1363399624824524,-0.449673056602478,0,0,0,-1,169631.608516875,2,0,1561841815.555016,1561841239.621676,42,1.91319,0,0,42.10339,0,0,1561841755.596066,169628.381006,0,-0.05273438,75.19344,0,182478453,3,1,0.99,-35.53017,-42.57673,3
1561841815.376575,37,0,0,1561841814.998627,4.634672376544778,-74.15086496170836,2554.297,0.01209742,-1,10,200,-9999,1561841815.37491,-22.69606018066406,-15.28306579589844,12.12139892578125,121.559196472168,129.0523071289062,15,169631.678798875,-0.8751983642578125,0.1251678466796875,-0.43817138671875,169631.678798875,0.004878378484807148,-0.00392390155012275,0.04255278684561309,169631.650020875,-96.88800048828125,-41.91398620605469,-550.7918090820312,169631.673732875,0.3097238747905497,-1.099882745774826,-0.1373537496083146,0.007653028704226017,-0.01174072735011578,0.04105649888515472,0.006387770175933838,-0.001836210489273071,0.01186650991439819,1,0.02261879108846188,-0.5241894721984863,0.1666269451379776,0.8348348736763,-0.8827611207962036,0.1369222700595856,-0.4494275748729706,0,0,0,-1,169631.608516875,2,0,1561841815.555016,1561841239.621676,42,1.91319,0,0,42.10339,0,0,1561841755.596066,169628.381006,0,-0.05273438,75.19344,0,182478453,3,1,0.99,-35.53017,-42.57673,3
1561841815.396896,38,0,0,1561841814.998627,4.634672376544778,-74.15086496170836,2554.297,0.01209742,-1,10,200,-9999,1561841815.37491,-22.69606018066406,-15.28306579589844,12.12139892578125,121.559196472168,129.0523071289062,15,169631.699062875,-0.874786376953125,0.1233062744140625,-0.43695068359375,169631.699062875,-8.468852266451978e-05,-0.03511910529487491,0.04340047102058531,169631.670131875,-97.0499267578125,-41.98085021972656,-550.5098266601562,169631.693996875,0.3100501930265777,-1.100094134553639,-0.1380205566856635,-0.005750128068029881,-0.02440618723630905,0.03556905686855316,0.007698237895965576,-0.01639746129512787,0.01517850160598755,1,0.02243993617594242,-0.5243059396743774,0.1669295132160187,0.8347061276435852,-0.8827745318412781,0.1375827640295029,-0.4491994678974152,0,0,0,-1,169631.608516875,2,0,1561841815.555016,1561841239.621676,42,1.91319,0,0,42.10339,0,0,1561841755.596066,169628.381006,0,-0.05273438,75.19344,0,182478453,3,1,0.99,-35.53017,-42.77937,3
1561841815.442304,39,0,0,1561841814.998627,4.634672376544778,-74.15086496170836,2554.297,0.01209742,-1,10,200,-9999,1561841815.425666,-22.94644927978516,-15.46718978881836,12.05499267578125,121.3945693969727,128.8876800537109,15,169631.719325875,-0.868988037109375,0.1235809326171875,-0.4564056396484375,169631.719325875,0.08184053819478904,-0.1321311395876273,0.117330621829512,169631.690212875,-97.2108154296875,-42.25080871582031,-550.7295532226562,169631.714259875,0.3108641242360521,-1.101304819341302,-0.1390132714811748,0.05098053067922592,-0.1182282865047455,0.1002013087272644,0.01403957605361938,-0.01567168533802032,0.002725303173065186,1,0.02233488857746124,-0.5248494744300842,0.1675068885087967,0.8342515826225281,-0.8831955194473267,0.1385659724473953,-0.4480683505535126,0,0,0,-1,169631.608516875,2,0,1561841815.555016,1561841239.621676,42,1.91319,0,0,42.10339,0,0,1561841755.596066,169628.381006,0,-0.05273438,75.19344,0,182478453,3,1,0.99,-35.53017,-41.11523,3
1561841815.446882,40,0,0,1561841814.998627,4.634672376544778,-74.15086496170836,2554.297,0.01209742,-1,10,200,-9999,1561841815.425666,-22.94644927978516,-15.46718978881836,12.05499267578125,121.3945693969727,128.8876800537109,15,169631.739589875,-0.8871612548828125,0.1353607177734375,-0.4570770263671875,169631.739589875,0.08921882599485356,-0.1184560737061795,0.09475420632058326,169631.730434875,-97.04240417480469,-41.73362731933594,-550.641845703125,169631.734493875,0.3136148896453083,-1.103799118015683,-0.140273858298231,0.1050911694765091,-0.1430444121360779,0.1096272990107536,0.006254494190216064,-0.007673174142837524,-0.0166172981262207,1,0.0227346196770668,-0.5259188413619995,0.1689450293779373,0.8332767486572266,-0.8841536641120911,0.1398142874240875,-0.4457850158214569,0,0,0,-1,169631.608516875,2,0,1561841815.555016,1561841239.621676,42,1.91319,0,0,42.10339,0,0,1561841755.596066,169629.325292,0,0.161377,75.19144,0,182478453,3,1,0.99,-35.53017,-41.11523,3
1561841815.457377,41,0,0,1561841814.998627,4.634672376544778,-74.15086496170836,2554.297,0.01209742,-1,10,200,-9999,1561841815.451947,-22.68489074707031,-15.22326278686523,12.27862548828125,121.2430953979492,128.7362060546875,15,169631.759822875,-0.884552001953125,0.113433837890625,-0.4479827880859375,169631.759822875,-0.007120493806544859,-0.159915899240424,0.05156998398051239,169631.750545875,-96.79505920410156,-41.99119567871094,-550.5956420898438,169631.754756875,0.3153708062967631,-1.106187294778167,-0.1410716505183354,0.008669823408126831,-0.1435890346765518,0.04595458507537842,-0.003846049308776855,-0.01966303586959839,-0.008953630924224854,1,0.02306224778294563,-0.5269317626953125,0.1698514223098755,0.8324431180953979,-0.8851157426834106,0.1406041979789734,-0.4436221122741699,0,0,0,-1,169631.608516875,2,0,1561841815.555016,1561841239.621676,42,1.91319,0,0,42.10339,0,0,1561841755.596066,169629.325292,0,0.161377,75.19144,0,182478453,3,1,0.99,-35.53017,-41.42868,3
1561841815.478106,42,0,0,1561841814.998627,4.634672376544778,-74.15086496170836,2554.297,0.01209742,-1,10,200,-9999,1561841815.451947,-22.68489074707031,-15.22326278686523,12.27862548828125,121.2430953979492,128.7362060546875,15,169631.780086875,-0.8677520751953125,0.128753662109375,-0.4273834228515625,169631.780086875,-0.01099166476708404,-0.2133618138927882,0.1373530658530547,169631.770656875,-97.05511474609375,-41.87255859375,-550.6182250976562,169631.775020875,0.3157420198171759,-1.110015562234635,-0.1423514175262851,-0.01932745613157749,-0.2240961194038391,0.1096563264727592,0.01372087001800537,-0.0222117006778717,0.003580808639526367,1,0.02294594049453735,-0.5285815596580505,0.1702873855829239,0.8313105702400208,-0.8866456747055054,0.1418711394071579,-0.4401500225067139,0,0,0,-1,169631.608516875,2,0,1561841815.555016,1561841239.621676,42,1.91319,0,0,42.10339,0,0,1561841755.596066,169629.325292,0,0.161377,75.19144,0,182478453,3,1,0.99,-35.53017,-41.67218,3
1561841815.527396,43,0,0,1561841814.998627,4.634672376544778,-74.15086496170836,2554.297,0.01209742,-1,10,200,-9999,1561841815.50252,-22.75151824951172,-15.24138641357422,12.3739013671875,121.1520462036133,128.6451568603516,15,169631.800350875,-0.8700714111328125,0.1329803466796875,-0.419525146484375,169631.800350875,-0.05471650880844101,-0.1387150064345213,0.1664813902757964,169631.790737875,-96.90745544433594,-41.69541931152344,-550.5216674804688,169631.795284875,0.3167382091161717,-1.113958196976932,-0.1450576438978573,-0.03313834220170975,-0.1702571213245392,0.1591269373893738,0.02181529998779297,-0.01204213500022888,0.01449805498123169,1,0.02240630052983761,-0.5303376317024231,0.1713468730449677,0.8299880027770996,-0.888026237487793,0.1445494741201401,-0.4364798963069916,0,0,0,-1,169631.608516875,2,0,1561841815.555016,1561841239.621676,42,1.91319,0,0,42.10339,0,0,1561841755.596066,169629.325292,0,0.161377,75.19144,0,182478453,3,1,0.99,-35.53017,-42.99382,3
1561841815.531292,44,0,0,1561841814.998627,4.634672376544778,-74.15086496170836,2554.297,0.01209742,-1,10,200,-9999,1561841815.529901,-22.84024047851562,-15.19636535644531,12.31829833984375,121.257438659668,128.7505493164062,15,169631.820613875,-0.906646728515625,0.1254730224609375,-0.4482879638671875,169631.820613875,-0.1988390638363682,-0.184483027664187,0.1902013671568051,169631.810848875,-97.10548400878906,-41.64921569824219,-550.3804321289062,169631.815547875,0.316430501034268,-1.11690852175279,-0.1490102984898499,-0.1797467023134232,-0.1660258919000626,0.1839654445648193,0.005061745643615723,-0.02100281417369843,0.006159722805023193,1,0.02091445587575436,-0.5317522883415222,0.1721979826688766,0.8289451003074646,-0.8887897729873657,0.1484594643115997,-0.4336041808128357,0,0,0,-1,169631.608516875,2,0,1561841815.555016,1561841239.621676,42,1.91319,0,0,42.10339,0,0,1561841755.596066,169629.325292,0,0.161377,75.19144,0,182478453,3,1,0.99,-35.53017,-42.99382,3
1561841815.539054,45,0,0,1561841814.998627,4.634672376544778,-74.15086496170836,2554.297,0.01209742,-1,10,200,-9999,1561841815.529901,-22.84024047851562,-15.19636535644531,12.31829833984375,121.257438659668,128.7505493164062,15,169631.840877875,-0.9210052490234375,0.1211090087890625,-0.4376373291015625,169631.840877875,-0.09113789987636467,-0.2566235342205804,0.1721315528445085,169631.830959875,-97.03813171386719,-41.71687316894531,-550.2525024414062,169631.835811875,0.3146604961910848,-1.121377578201789,-0.1539100265236301,-0.1404144763946533,-0.2497000247240067,0.1751850098371506,-0.02657318115234375,-0.03147692978382111,-0.01864558458328247,1,0.01876823045313358,-0.5338487029075623,0.1726765781641006,0.8275482654571533,-0.8900527954101562,0.1533031016588211,-0.4293066263198853,0,0,0,-1,169631.608516875,2,0,1561841815.555016,1561841239.621676,42,1.91319,0,0,42.10339,0,0,1561841755.596066,169629.325292,0,0.161377,75.19144,0,182478453,3,1,0.99,-35.53017,-42.99382,3
1561841815.55877,46,0,0,1561841814.998627,4.634672376544778,-74.15086496170836,2554.297,0.01209742,-1,10,200,-9999,1561841815.529901,-22.84024047851562,-15.19636535644531,12.31829833984375,121.257438659668,128.7505493164062,15,169631.861141875,-0.918670654296875,0.1288604736328125,-0.4207763671875,169631.861141875,0.1104237135423915,-0.2766467771924502,0.139346974561197,169631.851070875,-97.24038696289062,-41.65692138671875,-550.1956787109375,169631.856075875,0.3153540696628434,-1.126571750754527,-0.1570301553503453,0.06424254179000854,-0.2754251062870026,0.14137963950634,-0.03173434734344482,-0.03413218259811401,-0.002196133136749268,1,0.01809360273182392,-0.5361320376396179,0.1737178713083267,0.8258674740791321,-0.8918343782424927,0.156385600566864,-0.4244701266288757,0,0,0,-1,169631.608516875,2,0,1561841815.555016,1561841239.621676,42,1.91319,0,0,42.10339,0,0,1561841755.596066,169629.325292,0,0.161377,75.19144,0,182478453,3,1,0.99,-35.53017,-43.73299,3
1561841815.592392,47,0,0,1561841814.998627,4.634672376544778,-74.15086496170836,2554.297,0.01209742,-1,10,200,-9999,1561841815.566313,-22.66488647460938,-15.35664367675781,12.4952392578125,121.2499008178711,128.7430114746094,15,169631.881404875,-0.9039764404296875,0.14447021484375,-0.41668701171875,169631.881404875,0.2202322368729747,-0.2879564233936897,0.1331141123459756,169631.871181875,-96.82015991210938,-41.55776977539062,-549.9722290039062,169631.876338875,0.3191442424335661,-1.131842569723306,-0.1582257420827687,0.1977932900190353,-0.2981826364994049,0.1319016665220261,-0.01669406890869141,-0.02098493278026581,-9.179115295410156e-06,1,0.01907080225646496,-0.5383255481719971,0.1755408346652985,0.8240311741828918,-0.8938894867897034,0.1575663536787033,-0.4196838140487671,0,0,0,-1,169631.608516875,2,0,1561841815.555016,1561841239.621676,42,1.91319,0,0,42.10339,0,0,1561841755.596066,169629.325292,0,0.161377,75.19144,0,182478453,3,1,0.99,-35.53017,-38.77806,3
1561841815.599755,48,0,0,1561841814.998627,4.634672376544778,-74.15086496170836,2554.297,0.01209742,-1,10,200,-9999,1561841815.566313,-22.66488647460938,-15.35664367675781,12.4952392578125,121.2499008178711,128.7430114746094,15,169631.901668875,-0.889373779296875,0.154144287109375,-0.399658203125,169631.901668875,0.2550405512686373,-0.2340987840367992,0.1371338876953412,169631.891292875,-96.90185546875,-41.4866943359375,-549.778564453125,169631.896602875,0.3245663978215777,-1.136682379933718,-0.1585605010133875,0.2507630288600922,-0.2585776746273041,0.1302249431610107,0.0008426904678344727,-0.008818566799163818,0.004914820194244385,1,0.02082039415836334,-0.5402789115905762,0.1778108328580856,0.8222216367721558,-0.8958622217178345,0.1578969359397888,-0.4153304100036621,0,0,0,-1,169631.608516875,2,0,1561841815.555016,1561841239.621676,42,1.91319,0,0,42.10339,0,0,1561841755.596066,169629.325292,0,0.161377,75.19144,0,182478453,3,1,0.99,-35.53017,-38.77806,3
1561841815.61936,49,0,0,1561841814.998627,4.634672376544778,-74.15086496170836,2554.297,0.01209742,-1,10,200,-9999,1561841815.603627,-22.6912841796875,-14.99752807617188,12.9459228515625,120.567985534668,128.0610961914062,15,169631.921932875,-0.892852783203125,0.144744873046875,-0.3898162841796875,169631.921932875,0.1784975731142339,-0.1899877816373808,0.1567754996830026,169631.911373875,-96.92739868164062,-41.20721435546875,-549.6052856445312,169631.916835875,0.3302229912288465,-1.140358851999046,-0.1589385530624279,0.2074507176876068,-0.2023354470729828,0.1490348428487778,0.006749629974365234,-0.005285605788230896,0.01737099885940552,1,0.02252167277038097,-0.5417455434799194,0.1801924705505371,0.8206918835639954,-0.897328794002533,0.1582702249288559,-0.4120090901851654,0,0,0,-1,169631.608516875,2,0,1561841815.555016,1561841239.621676,42,1.91319,0,0,42.10339,0,0,1561841755.596066,169629.325292,0,0.161377,75.19144,0,182478453,3,1,0.99,-35.53017,-39.64172,3
1561841815.639806,50,0,0,1561841814.998627,4.634672376544778,-74.15086496170836,2554.297,0.01209742,-1,10,200,-9999,1561841815.628205,-22.62662506103516,-14.69152450561523,13.249755859375,120.2198715209961,127.7129821777344,15,169631.942165875,-0.9099578857421875,0.1285247802734375,-0.3939666748046875,169631.942165875,0.02901034638645116,-0.1733888311951349,0.1945047691622642,169631.931484875,-96.8345947265625,-41.20741271972656,-549.38037109375,169631.937099875,0.3341894688895954,-1.143569045880539,-0.160635372802046,0.06158458068966866,-0.1818296313285828,0.1781256198883057,0.001077532768249512,-0.02427954971790314,0.01872521638870239,1,0.02318046800792217,-0.543097972869873,0.1822234243154526,0.8193301558494568,-0.898401141166687,0.1599454283714294,-0.4090145230293274,0,0,0,-1,169631.608516875,2,0,1561841815.555016,1561841239.621676,42,1.91319,0,0,42.10339,0,0,1561841755.596066,169629.325292,0,0.161377,75.19144,0,182478453,3,1,0.99,-35.53017,-39.99714,3
1561841815.681195,51,0,0,1561841814.998627,4.634672376544778,-74.15086496170836,2554.297,0.01209742,-1,10,200,-9999,1561841815.679057,-22.69776153564453,-14.55849838256836,13.43731689453125,120.0155410766602,127.5086517333984,15,169631.962428875,-0.9462890625,0.102142333984375,-0.408966064453125,169631.962428875,-0.08903932893738223,-0.1856034195347833,0.2811914615926704,169631.951595875,-96.94146728515625,-41.05201721191406,-549.3924560546875,169631.957363875,0.3358562034022949,-1.146951088619599,-0.1644767448125301,-0.06865677982568741,-0.1868395656347275,0.2496104389429092,-0.02713316679000854,-0.04549580812454224,0.007997751235961914,1,0.02234270796179771,-0.544648289680481,0.1838680654764175,0.8179557919502258,-0.899212658405304,0.1637361645698547,-0.4057180881500244,0,0,0,-1,169631.608516875,2,0,1561841815.555016,1561841239.621676,42,1.91319,0,0,42.10339,0,0,1561841755.596066,169629.325292,0,0.161377,75.19144,0,182478453,3,1,0.99,-35.53017,-40.18667,3
1561841815.683336,52,0,0,1561841814.998627,4.634672376544778,-74.15086496170836,2554.297,0.01209742,-1,10,200,-9999,1561841815.679057,-22.69776153564453,-14.55849838256836,13.43731689453125,120.0155410766602,127.5086517333984,15,169631.982692875,-1.00653076171875,0.0678558349609375,-0.4350128173828125,169631.982692875,-0.1227866399547573,-0.2859907441931022,0.4731987182846583,169631.971706875,-97.04443359375,-41.07151794433594,-549.526611328125,169631.977626875,0.3365832745336904,-1.151079310662967,-0.1712223308349816,-0.128420501947403,-0.2569225430488586,0.412371963262558,-0.07172209024429321,-0.08693662285804749,-0.0192636251449585,1,0.02011537924408913,-0.5466477274894714,0.1858822256326675,0.8162227272987366,-0.8998507857322693,0.17038694024086,-0.4015432596206665,0,0,0,-1,169631.608516875,2,0,1561841815.555016,1561841239.621676,42,1.91319,0,0,42.10339,0,0,1561841755.596066,169629.325292,0,0.161377,75.19144,0,182478453,3,1,0.99,-35.53017,-40.18667,3
1561841815.700549,53,0,0,1561841814.998627,4.634672376544778,-74.15086496170836,2554.297,0.01209742,-1,10,200,-9999,1561841815.679057,-22.69776153564453,-14.55849838256836,13.43731689453125,120.0155410766602,127.5086517333984,15,169632.002956875,-1.102218627929688,0.010528564453125,-0.4640350341796875,169632.002956875,0.04940004032431582,-0.3234318596424172,0.7012923403794379,169631.991817875,-96.95391845703125,-40.9234619140625,-549.26904296875,169631.997890875,0.339125140158735,-1.156966693062437,-0.1815733451156663,-0.0197606086730957,-0.3360935151576996,0.6227123737335205,-0.1517099738121033,-0.133091926574707,-0.05923426151275635,1,0.01706353202462196,-0.5495041012763977,0.1895712614059448,0.8135213255882263,-0.9005361199378967,0.180577278137207,-0.3955081701278687,0,0,0,-1,169631.608516875,2,0,1561841815.555016,1561841239.621676,42,1.91319,0,0,42.10339,0,0,1561841755.596066,169629.325292,0,0.161377,75.19144,0,182478453,3,1,0.99,-35.53017,-40.59303,3
1561841815.721018,54,0,0,1561841814.998627,4.634672376544778,-74.15086496170836,2554.297,0.01209742,-1,10,200,-9999,1561841815.705607,-22.75562286376953,-14.28045272827148,13.556396484375,119.7167053222656,127.2098159790039,15,169632.023219875,-1.235733032226562,-0.090423583984375,-0.4374542236328125,169632.023219875,0.2784116540468457,-0.2371185423968401,1.429421088747495,169632.011897875,-97.24024963378906,-40.53228759765625,-549.0970458984375,169632.018154875,0.3483044146101033,-1.16156328237342,-0.1963423097768946,0.2418824583292007,-0.2805847227573395,1.183849453926086,-0.2591208815574646,-0.2394557893276215,-0.06269645690917969,1,0.01391021069139242,-0.5519747734069824,0.1971292048692703,0.8101051449775696,-0.8997994065284729,0.1950832307338715,-0.3902606964111328,0,0,0,-1,169631.608516875,2,0,1561841815.555016,1561841239.621676,42,1.91319,0,0,42.10339,0,0,1561841755.596066,169629.325292,0,0.161377,75.19144,0,182478453,3,1,0.99,-36.08744,-41.26745,3
1561841815.757495,55,0,0,1561841814.998627,4.634672376544778,-74.15086496170836,2554.297,0.01209742,-1,10,200,-9999,1561841815.75574,-23.59053039550781,-12.9515495300293,13.93548583984375,116.8982238769531,124.3913345336914,15,169632.043483875,-1.354965209960938,-0.08221435546875,-0.4230194091796875,169632.043483875,0.1627590900201926,0.3484277570016829,2.718343918394552,169632.032009875,-97.72601318359375,-39.6771240234375,-548.729736328125,169632.038417875,0.3677382547824194,-1.159852167103805,-0.2266747214046767,0.2206469476222992,0.1722056716680527,2.404237031936646,-0.3943657875061035,-0.3257974982261658,-0.03199326992034912,1,0.006534251850098372,-0.5525660514831543,0.2128877639770508,0.8057957887649536,-0.8932929039001465,0.2247385531663895,-0.3892561197280884,0,0,0,-1,169631.608516875,2,0,1561841815.555016,1561841239.621676,42,1.91319,0,0,42.10339,0,0,1561841755.596066,169629.325292,0,0.161377,75.19144,0,182478453,3,1,0.99,-37.202,-42.00277,3
1561841815.76155,56,0,0,1561841814.998627,4.634672376544778,-74.15086496170836,2554.297,0.01209742,-1,10,200,-9999,1561841815.75574,-23.59053039550781,-12.9515495300293,13.93548583984375,116.8982238769531,124.3913345336914,15,169632.063747875,-1.292800903320312,-0.036285400390625,-0.4661407470703125,169632.063747875,-0.8027784853035235,0.8553543452277588,2.790755534749916,169632.052120875,-98.50759887695312,-38.588134765625,-549.1607666015625,169632.058681875,0.3920789667353144,-1.143894411572176,-0.2794089186721426,-0.3952117264270782,0.7583759427070618,2.9847092628479,-0.4720786213874817,-0.3191835582256317,-0.0325314998626709,1,-0.01044100150465965,-0.5485374927520752,0.2361184358596802,0.8020259737968445,-0.8749520182609558,0.2757875323295593,-0.3979952037334442,0,0,0,-1,169631.608516875,2,0,1561841815.555016,1561841239.621676,42,1.91319,0,0,42.10339,0,0,1561841755.596066,169629.325292,0,0.161377,75.19144,0,182478453,3,1,0.99,-37.202,-42.00277,3
1561841815.781651,57,0,0,1561841814.998627,4.634672376544778,-74.15086496170836,2554.297,0.01209742,-1,10,200,-9999,1561841815.75574,-23.59053039550781,-12.9515495300293,13.93548583984375,116.8982238769531,124.3913345336914,15,169632.084010875,-1.377777099609375,-0.1485137939453125,-0.53125,169632.084010875,-2.43561741074956,1.019239153440728,1.66228895972846,169632.072231875,-99.22364807128906,-37.41366577148438,-549.8150634765625,169632.078945875,0.3896668034341282,-1.126298664919696,-0.3363075142668934,-2.159801721572876,1.012606382369995,1.932016849517822,-0.4313650131225586,-0.4140796661376953,-0.125182032585144,1,-0.03694287315011024,-0.5437623858451843,0.2490538209676743,0.8005809187889099,-0.8522500395774841,0.3300037086009979,-0.405915379524231,0,0,0,-1,169631.608516875,2,0,1561841815.555016,1561841239.621676,42,1.91319,0,0,42.10339,0,0,1561841755.596066,169629.325292,0,0.161377,75.19144,0,182478453,3,1,0.99,-37.55688,-41.68597,3
1561841815.801972,58,0,0,1561841814.998627,4.634672376544778,-74.15086496170836,2554.297,0.01209742,-1,10,200,-9999,1561841815.780559,-25.02491760253906,-10.86561584472656,12.83624267578125,117.2925186157227,124.7856292724609,15,169632.104274875,-1.579833984375,-0.1068267822265625,-0.487945556640625,169632.104274875,-2.326699448487499,1.017181062550315,0.5673395986061963,169632.092342875,-99.70947265625,-37.23977661132812,-550.6697998046875,169632.099178875,0.3541854133917695,-1.1183965933748,-0.3837215737950451,-2.517369031906128,1.030259370803833,0.8635414838790894,-0.6742150187492371,-0.5080105066299438,-0.1006908416748047,1,-0.06736893951892853,-0.541103720664978,0.2461725324392319,0.8012909293174744,-0.8339942693710327,0.3743739724159241,-0.4053363800048828,0,0,0,-1,169631.608516875,2,0,1561841815.555016,1561841239.621676,42,1.91319,0,0,42.10339,0,0,1561841755.596066,169629.325292,0,0.161377,75.19144,0,182478453,3,1,0.99,-37.55688,-42.1082,3
1561841815.841829,59,0,0,1561841814.998627,4.634672376544778,-74.15086496170836,2554.297,0.01209742,-1,10,200,-9999,1561841815.830908,-25.62720489501953,-10.93222427368164,10.99871826171875,122.1720962524414,129.6652069091797,15,169632.124522125,-1.460647583007812,-0.1042938232421875,-0.479095458984375,169632.124522125,-0.8926151646712753,0.4379818749777775,-0.9537482938101532,169632.112468125,-100.1404724121094,-37.42584228515625,-551.830322265625,169632.119456125,0.3164820559093799,-1.114578394967273,-0.4052164175764146,-1.324704766273499,0.6614858508110046,-0.555324912071228,-0.7534053921699524,-0.5002509951591492,-0.07113462686538696,1,-0.08700613677501678,-0.5385078191757202,0.2360981404781342,0.8041747212409973,-0.8250247836112976,0.3942176699638367,-0.4048785269260406,0,0,0,-1,169631.608516875,2,0,1561841815.555016,1561841239.621676,42,1.91319,0,0,42.10339,0,0,1561841755.596066,169629.325292,0,0.161377,75.19144,0,182478453,3,1,0.99,-37.55688,-42.81091,3
1561841815.846746,60,0,0,1561841814.998627,4.634672376544778,-74.15086496170836,2554.297,0.01209742,-1,10,200,-9999,1561841815.830908,-25.62720489501953,-10.93222427368164,10.99871826171875,122.1720962524414,129.6652069091797,15,169632.144786125,-1.358001708984375,-0.0840301513671875,-0.5390167236328125,169632.144786125,0.7940696822228553,-0.9544250030431424,-2.250463532806782,169632.132548125,-99.67631530761719,-37.82377624511719,-551.73974609375,169632.139720125,0.2948074564102273,-1.121160071585318,-0.3853958400842407,0.4026415050029755,-0.6051806211471558,-1.986344218254089,-0.5259585976600647,-0.4655408263206482,-0.09571701288223267,1,-0.08379539102315903,-0.539999783039093,0.2228052914142609,0.8073018789291382,-0.8345455527305603,0.3759259581565857,-0.4027571380138397,0,0,0,-1,169631.608516875,2,0,1561841815.555016,1561841239.621676,42,1.91319,0,0,42.10339,0,0,1561841755.596066,169629.325292,0,0.161377,75.19144,0,182478453,3,1,0.99,-37.55688,-43.56814,3
1561841815.862891,61,0,0,1561841814.998627,4.634672376544778,-74.15086496170836,2554.297,0.01209742,-1,10,200,-9999,1561841815.857571,-25.13864135742188,-11.41509628295898,11.11029052734375,122.5145797729492,130.0076904296875,15,169632.165050125,-1.465423583984375,-0.08465576171875,-0.6104278564453125,169632.165050125,1.810931431758469,-2.086619470958491,-3.125190244435995,169632.152660125,-99.03916931152344,-39.00419616699219,-551.2914428710938,169632.159984125,0.2934671295536698,-1.147597359690152,-0.3306123269065024,1.6364586353302,-1.879594802856445,-2.918770790100098,-0.5428569316864014,-0.4047766923904419,-0.1869399547576904,1,-0.05843160673975945,-0.5498786568641663,0.2094823569059372,0.8064342737197876,-0.8624011874198914,0.324622243642807,-0.3884384334087372,0,0,0,-1,169631.608516875,2,0,1561841815.555016,1561841239.621676,42,1.91319,0,0,42.10339,0,0,1561841755.596066,169629.325292,0,0.161377,75.19144,0,182478453,3,1,0.99,-37.55688,-43.56814,3
1561841815.882966,62,0,0,1561841814.998627,4.634672376544778,-74.15086496170836,2554.297,0.01209742,-1,10,200,-9999,1561841815.88159,-22.49229431152344,-13.78083801269531,13.54345703125,121.8772506713867,129.370361328125,15,169632.185313125,-1.522384643554688,-0.149078369140625,-0.626251220703125,169632.185313125,1.973565353207428,-2.415960086111467,-3.952809364807233,169632.172771125,-97.50790405273438,-39.95755004882812,-549.7605590820312,169632.180247125,0.3025490996888616,-1.189728986407865,-0.253459810940196,2.001911163330078,-2.411667823791504,-3.754401445388794,-0.6019538640975952,-0.368461012840271,-0.2673206925392151,1,-0.01971109583973885,-0.5653290152549744,0.193831205368042,0.8015261292457581,-0.8986107110977173,0.250754714012146,-0.3600291609764099,0,0,0,-1,169631.608516875,2,0,1561841815.555016,1561841239.621676,42,1.91319,0,0,42.10339,0,0,1561841755.596066,169629.325292,0,0.161377,75.19144,0,182478453,3,1,0.99,-37.55688,-43.77414,3
1561841815.92546,63,0,0,1561841814.998627,4.634672376544778,-74.15086496170836,2554.297,0.01209742,-1,10,200,-9999,1561841815.907819,-20.77860260009766,-15.12535095214844,15.07305908203125,121.5538558959961,129.0469665527344,15,169632.205577125,-1.575088500976562,-0.133819580078125,-0.6560211181640625,169632.205577125,1.611197279479726,-2.171906405919952,-4.537960983732206,169632.192851125,-95.85441589355469,-41.32162475585938,-548.0440673828125,169632.200511125,0.3093184823616497,-1.236467279866909,-0.1618154262282676,1.712289214134216,-2.272621631622314,-4.42869758605957,-0.6142640113830566,-0.3038561642169952,-0.3112372159957886,1,0.02391699887812138,-0.5809505581855774,0.1714034527540207,0.7953272461891174,-0.9322905540466309,0.1611101776361465,-0.3238488435745239,0,0,0,-1,169631.608516875,2,0,1561841815.555016,1561841239.621676,42,1.91319,0,0,42.10339,0,0,1561841755.596066,169629.325292,0,0.161377,75.19144,0,182478453,3,1,0.99,-37.55688,-44.20366,3
1561841815.928659,64,0,0,1561841814.998627,4.634672376544778,-74.15086496170836,2554.297,0.01209742,-1,10,200,-9999,1561841815.907819,-20.77860260009766,-15.12535095214844,15.07305908203125,121.5538558959961,129.0469665527344,15,169632.225841125,-1.575164794921875,-0.1179351806640625,-0.685333251953125,169632.225841125,1.313240419876679,-1.74055606837258,-4.870507245889311,169632.212962125,-93.26681518554688,-42.55360412597656,-546.7200317382812,169632.220775125,0.3097960225443459,-1.27824177936364,-0.06293608167661362,1.358802795410156,-1.845410227775574,-4.812053680419922,-0.629941463470459,-0.1897408664226532,-0.3854506015777588,1,0.0670301541686058,-0.5929526686668396,0.1423090249300003,0.7897228598594666,-0.9556145668029785,0.0628945454955101,-0.2878281772136688,0,0,0,-1,169631.608516875,2,0,1561841815.555016,1561841239.621676,42,1.91319,0,0,42.10339,0,0,1561841755.596066,169629.325292,0,0.161377,75.19144,0,182478453,3,1,0.99,-37.55688,-44.20366,3
1561841815.945648,65,0,0,1561841814.998627,4.634672376544778,-74.15086496170836,2554.297,0.01209742,-1,10,200,-9999,1561841815.932654,-18.58792114257812,-16.25877380371094,16.3717041015625,121.6621780395508,129.1552886962891,15,169632.246104125,-1.496597290039062,-0.1047210693359375,-0.71295166015625,169632.246104125,1.354660297994573,-1.548655071808087,-5.127480985793237,169632.233073125,-91.44686889648438,-43.690185546875,-545.3966064453125,169632.241038125,0.3081377215085304,-1.312281136890744,0.04040257315995483,1.314569592475891,-1.564072012901306,-5.052714824676514,-0.5789096355438232,-0.07240138947963715,-0.448588490486145,1,0.1094171106815338,-0.6002578735351562,0.109392412006855,0.7846985459327698,-0.9659817814826965,-0.04039158299565315,-0.2554367482662201,0,0,0,-1,169631.608516875,2,0,1561841815.555016,1561841239.621676,42,1.91319,0,0,42.10339,0,0,1561841755.596066,169629.325292,0,0.161377,75.19144,0,182478453,3,1,0.99,-32.96527,-32.96527,3
1561841815.964246,66,0,0,1561841814.998627,4.634672376544778,-74.15086496170836,2554.297,0.01209742,-1,10,200,-9999,1561841815.9583,-16.41684722900391,-17.6402587890625,17.5499267578125,121.5954666137695,129.0885772705078,15,169632.266368125,-1.435791015625,-0.092803955078125,-0.713714599609375,169632.266368125,1.469448133615277,-1.516476362672768,-5.497113896658566,169632.253184125,-88.9927978515625,-44.7939453125,-544.8091430664062,169632.261302125,0.3099552486167251,-1.344040098037518,0.1499908459353679,1.444746255874634,-1.542842864990234,-5.418129444122314,-0.4975684881210327,0.0570065975189209,-0.4951744675636292,1,0.1537593603134155,-0.6043270230293274,0.07436877489089966,0.7782134413719177,-0.9634606242179871,-0.1494290828704834,-0.2222938239574432,0,0,0,-1,169632.256847125,3,2,1561841816.203346,1561841239.621676,42,1.91319,0,0,42.10339,0,0,1561841755.596066,169629.325292,0,0.161377,75.19144,0,182478453,3,1,0.99,-24.10181,-24.68043,3
1561841816.010097,67,0,0,1561841814.998627,4.634672376544778,-74.15086496170836,2554.297,0.01209742,-1,10,200,-9999,1561841815.982917,-11.21364593505859,-19.56848907470703,19.18603515625,121.1334457397461,128.6265563964844,15,169632.286632125,-1.318328857421875,-0.1710968017578125,-0.6612548828125,169632.286632125,1.59591366429987,-1.248922682706285,-5.697321825295235,169632.273295125,-86.40939331054688,-45.8731689453125,-543.7738647460938,169632.281535125,0.3161091043792975,-1.375171022904287,0.2663434156157428,1.557460784912109,-1.359195590019226,-5.673969745635986,-0.4396172761917114,0.1401128768920898,-0.5171706080436707,1,0.2003409862518311,-0.6050623655319214,0.03733611106872559,0.7696550488471985,-0.9463385343551636,-0.2632055580615997,-0.1875260472297668,0,0,0,-1,169632.256847125,3,2,1561841816.203346,1561841239.621676,42,1.91319,0,0,42.10339,0,0,1561841755.596066,169629.325292,0,0.161377,75.19144,0,182478453,3,1,0.99,-24.10181,-25.22508,3
1561841816.016496,68,0,0,1561841814.998627,4.634672376544778,-74.15086496170836,2554.297,0.01209742,-1,10,200,-9999,1561841816.009176,-8.679054260253906,-20.21093368530273,19.9317626953125,120.168327331543,127.6614379882812,15,169632.306865125,-1.213699340820312,-0.2466888427734375,-0.519622802734375,169632.306865125,1.63225809001229,-0.673568034483386,-5.540224083120333,169632.293407125,-83.61387634277344,-46.66851806640625,-543.2893676757812,169632.301799125,0.3281783274301803,-1.40175972229359,0.3854825531971739,1.649811267852783,-0.841644287109375,-5.620175838470459,-0.3470419645309448,0.1617119014263153,-0.431988000869751,1,0.2478251159191132,-0.6005322933197021,0.0006658742786385119,0.760225772857666,-0.9134103059768677,-0.3760063350200653,-0.1558873504400253,0,0,0,-1,169632.256847125,3,2,1561841816.203346,1561841239.621676,42,1.91319,0,0,42.10339,0,0,1561841755.596066,169629.325292,0,0.161377,75.19144,0,182478453,3,1,0.99,-24.10181,-25.22508,3
1561841816.024708,69,0,0,1561841814.998627,4.634672376544778,-74.15086496170836,2554.297,0.01209742,-1,10,200,-9999,1561841816.009176,-8.679054260253906,-20.21093368530273,19.9317626953125,120.168327331543,127.6614379882812,15,169632.327128125,-1.134384155273438,-0.25823974609375,-0.3791961669921875,169632.327128125,1.293357259178148,0.04331711407846583,-5.077395980436552,169632.313487125,-80.96980285644531,-46.67695617675781,-542.2266845703125,169632.322063125,0.3433830604553617,-1.418575567378627,0.4992241522063325,1.405385732650757,-0.1620178520679474,-5.207902431488037,-0.3072007894515991,0.2215576469898224,-0.3188532590866089,1,0.2925197184085846,-0.5898038148880005,-0.03289534524083138,0.7519850730895996,-0.8678022623062134,-0.4787445366382599,-0.1331273466348648,0,0,0,-1,169632.256847125,3,2,1561841816.203346,1561841239.621676,42,1.91319,0,0,42.10339,0,0,1561841755.596066,169629.325292,0,0.161377,75.19144,0,182478453,3,1,0.99,-24.10181,-25.22508,3
1561841816.045944,70,0,0,1561841814.998627,4.634672376544778,-74.15086496170836,2554.297,0.01209742,-1,10,200,-9999,1561841816.034169,-6.210861206054688,-20.17876052856445,20.5855712890625,119.2699127197266,126.7630233764648,15,169632.347392125,-1.074844360351562,-0.270904541015625,-0.23004150390625,169632.347392125,0.731681937894441,0.7092610509931729,-4.68598746660208,169632.333598125,-79.3817138671875,-46.63815307617188,-541.99755859375,169632.342326125,0.3526880175268365,-1.418743571441251,0.6021570366680068,0.8671863079071045,0.5817857384681702,-4.748372554779053,-0.3053268790245056,0.3087767958641052,-0.1763817071914673,1,0.3306527435779572,-0.5729357600212097,-0.06304007768630981,0.747287929058075,-0.8146072030067444,-0.5664214491844177,-0.1248267590999603,0,0,0,-1,169632.256847125,3,2,1561841816.203346,1561841239.621676,42,1.91319,0,0,42.10339,0,0,1561841755.596066,169629.325292,0,0.161377,75.19144,0,182478453,3,1,0.99,-24.10181,-25.50168,3
1561841816.078775,71,0,0,1561841815.998617,4.634644947950388,-74.15085819556764,2554.347,0,292.5,4,50,-9999,1561841816.034169,-6.210861206054688,-20.17876052856445,20.5855712890625,119.2699127197266,126.7630233764648,15,169632.367656125,-0.8375396728515625,-0.3168182373046875,-0.0940093994140625,169632.367656125,0.4315575314801793,0.4706378225804381,-4.76918355379172,169632.353709125,-77.75044250488281,-47.20223999023438,-542.0752563476562,169632.362590125,0.3496475885929945,-1.402500414948911,0.6980988518538784,0.4709153771400452,0.6397914886474609,-4.711941242218018,-0.2166205048561096,0.3621075749397278,-0.03267753124237061,1,0.3627720177173615,-0.5515772700309753,-0.09241028130054474,0.7453987598419189,-0.7552422881126404,-0.6427624225616455,-0.1283179521560669,0,0,0,-1,169632.256847125,3,2,1561841816.203346,1561841239.621676,42,1.91319,0,0,42.10339,0,0,1561841755.596066,169629.325292,0,0.161377,75.19144,0,182478453,3,1,0.99,-24.10181,-26.87946,3
1561841816.085546,72,0,0,1561841815.998617,4.634644947950388,-74.15085819556764,2554.347,0,292.5,4,50,-9999,1561841816.071263,-4.638069152832031,-20.2503547668457,20.75408935546875,119.3421783447266,126.8352890014648,15,169632.387920125,-0.5571746826171875,-0.4080810546875,0.0114593505859375,169632.387920125,0.5517822104662804,-0.2520530171577864,-5.215933087710256,169632.373820125,-76.03378295898438,-46.86442565917969,-542.018310546875,169632.382854125,0.338022064445149,-1.389475069989027,0.797078654116447,0.4867393374443054,-0.133133739233017,-5.107937812805176,-0.008396148681640625,0.3353280425071716,0.08165675401687622,1,0.3931224048137665,-0.5314581394195557,-0.1258043795824051,0.7397164106369019,-0.6873435974121094,-0.7153177261352539,-0.1260140389204025,0,0,0,-1,169632.256847125,3,2,1561841816.203346,1561841239.621676,42,1.91319,0,0,42.10339,0,0,1561841755.596066,169629.325292,0,0.161377,75.19144,0,182478453,3,1,0.99,-24.10181,-26.87946,3
1561841816.105798,73,0,0,1561841815.998617,4.634644947950388,-74.15085819556764,2554.347,0,292.5,4,50,-9999,1561841816.071263,-4.638069152832031,-20.2503547668457,20.75408935546875,119.3421783447266,126.8352890014648,15,169632.408183125,-0.4550018310546875,-0.3709869384765625,-0.0168609619140625,169632.408183125,0.3127515184067634,-0.5468495034952356,-5.122598878882903,169632.393931125,-74.00135803222656,-46.6998291015625,-541.6448974609375,169632.403117125,0.3256309749893228,-1.387287522516013,0.9036617942627139,0.5095860958099365,-0.5312225222587585,-5.242602348327637,0.1303517818450928,0.3913260102272034,0.1536790132522583,1,0.4245172142982483,-0.5131582021713257,-0.1633217930793762,0.7278597950935364,-0.6083486080169678,-0.7855978608131409,-0.1129075884819031,0,0,0,-1,169632.256847125,3,2,1561841816.203346,1561841239.621676,42,1.91319,0,0,42.10339,0,0,1561841755.596066,169629.325292,0,0.161377,75.19144,0,182478453,3,1,0.99,-24.10181,-27.57772,3
1561841816.126144,74,0,0,1561841815.998617,4.634644947950388,-74.15085819556764,2554.347,0,292.5,4,50,-9999,1561841816.11015,1.219612121582031,-20.12890625,21.2359619140625,121.3457565307617,128.8388671875,15,169632.428447125,-0.466278076171875,-0.296539306640625,-0.1632537841796875,169632.428447125,-1.352163051840406,0.1984273391318419,-4.260248143155397,169632.414043125,-71.56840515136719,-46.49259948730469,-541.6065063476562,169632.423381125,0.289990878573551,-1.36634654552033,1.001304660363435,-0.8832085728645325,-0.06693261116743088,-4.498160362243652,0.06178748607635498,0.4899259805679321,0.01097828149795532,1,0.4483821392059326,-0.4941827356815338,-0.2015149146318436,0.7170276641845703,-0.527974009513855,-0.8421751856803894,-0.1094737648963928,0,0,0,-1,169632.256847125,3,2,1561841816.203346,1561841239.621676,42,1.91319,0,0,42.10339,0,0,1561841755.596066,169629.325292,0,0.161377,75.19144,0,182478453,3,1,0.99,-24.10181,-28.42225,3
1561841816.153143,75,0,0,1561841815.998617,4.634644947950388,-74.15085819556764,2554.347,0,292.5,4,50,-9999,1561841816.134618,3.096046447753906,-20.064697265625,21.028076171875,126.6810073852539,134.1741180419922,15,169632.448711125,-0.2811737060546875,-0.2229156494140625,-0.17510986328125,169632.448711125,-2.245013639952044,0.5786646911417582,-3.681235376859165,169632.434154125,-69.92475891113281,-46.71429443359375,-542.4136962890625,169632.443645125,0.1839053330694236,-1.26716777910997,1.073104053981009,-2.234508037567139,0.6373336911201477,-3.784586429595947,0.05398079752922058,0.6428925395011902,-0.05555295944213867,1,0.4569450318813324,-0.4688643217086792,-0.2377539873123169,0.7175238132476807,-0.455561637878418,-0.8786866068840027,-0.1427349746227264,0,0,0,-1,169632.256847125,3,2,1561841816.203346,1561841239.621676,42,1.91319,0,0,42.10339,0,0,1561841755.596066,169629.325292,0,0.161377,75.19144,0,182478453,3,1,0.99,-24.10181,-29.23338,3
1561841816.166656,76,0,0,1561841815.998617,4.634644947950388,-74.15085819556764,2554.347,0,292.5,4,50,-9999,1561841816.161534,4.735298156738281,-20.20984268188477,20.2510986328125,203.9734191894531,211.4665222167969,15,169632.468974125,-0.06427001953125,-0.2844390869140625,-0.149169921875,169632.468974125,-1.280425481556941,-0.1573763088249245,-3.874491389786292,169632.454234125,-69.02748107910156,-46.94961547851562,-543.0213623046875,169632.463878125,0.03783257681309102,-1.128779033430236,1.127383814260037,-1.646480917930603,0.04819903522729874,-3.746324062347412,0.2036936581134796,0.635180652141571,0.02321219444274902,1,0.4599188268184662,-0.4435247182846069,-0.2722426056861877,0.7194750308990479,-0.3877909183502197,-0.9032928943634033,-0.1835209876298904,0,0,0,-1,169632.256847125,3,2,1561841816.203346,1561841239.621676,42,1.91319,0,0,42.10339,0,0,1561841755.596066,169629.325292,0,0.161377,75.19144,0,182478453,3,1,0.99,-24.10181,-29.23338,3
1561841816.186786,77,0,0,1561841815.998617,4.634644947950388,-74.15085819556764,2554.347,0,292.5,4,50,-9999,1561841816.185258,7.664314270019531,-20.31914901733398,19.1915283203125,204.8996429443359,212.3927459716797,15,169632.489207125,-0.0388641357421875,-0.3159637451171875,-0.1296234130859375,169632.489207125,0.0652162877221874,-0.706071915587803,-4.392072752901556,169632.474345125,-67.39306640625,-46.99125671386719,-543.7705078125,169632.484141125,-0.09983537976931932,-1.009196101571613,1.190334096146774,-0.1571626663208008,-0.6105633974075317,-4.30316162109375,0.3060722053050995,0.6323505043983459,0.08162450790405273,1,0.4701865315437317,-0.4243171811103821,-0.3068782985210419,0.7104261517524719,-0.3143119513988495,-0.9284930825233459,-0.1977591067552567,0,0,0,-1,169632.256847125,3,2,1561841816.203346,1561841239.621676,42,1.91319,0,0,42.10339,0,0,1561841755.596066,169629.325292,0,0.161377,75.19144,0,182478453,3,1,0.99,-24.10181,-29.88367,3
1561841816.207268,78,0,0,1561841815.998617,4.634644947950388,-74.15085819556764,2554.347,0,292.5,4,50,-9999,1561841816.185258,7.664314270019531,-20.31914901733398,19.1915283203125,204.8996429443359,212.3927459716797,15,169632.509471125,-0.1152496337890625,-0.2427215576171875,-0.2306976318359375,169632.509471125,0.1504054846716421,-0.5840266996805238,-4.352320013626053,169632.494456125,-65.29336547851562,-46.414306640625,-543.8525390625,169632.504405125,-0.2497823975070438,-0.8825396427639052,1.264590225582767,0.1956489086151123,-0.6951028108596802,-4.432210922241211,0.1591213345527649,0.653191089630127,-0.01396989822387695,1,0.4873080551624298,-0.4084037840366364,-0.341301292181015,0.6922793388366699,-0.2328212708234787,-0.953484058380127,-0.1914744228124619,0,0,0,-1,169632.256847125,3,2,1561841816.203346,1561841239.621676,42,1.91319,0,0,42.10339,0,0,1561841755.596066,169629.325292,0,0.161377,75.19144,0,182478453,3,1,0.99,-24.10181,-30.84092,3
1561841816.237853,79,0,0,1561841815.998617,4.634644947950388,-74.15085819556764,2554.347,0,292.5,4,50,-9999,1561841816.235937,11.46787261962891,-18.92789077758789,19.01458740234375,205.8303833007812,213.323486328125,15,169632.529735125,-0.231353759765625,-0.09832763671875,-0.2110443115234375,169632.529735125,0.08663848921467579,0.1132764917020844,-3.534979097165867,169632.514567125,-63.15457153320312,-45.44615173339844,-543.7203979492188,169632.524669125,-0.4660433032647377,-0.6826186773418457,1.326421424408943,0.04908503592014313,-0.06425534188747406,-3.823264837265015,-0.0367940366268158,0.8043036460876465,-0.03663063049316406,1,0.5035496950149536,-0.3906025886535645,-0.3719735443592072,0.6749096512794495,-0.1526285856962204,-0.9702887535095215,-0.1877346485853195,0,0,0,-1,169632.256847125,3,2,1561841816.203346,1561841239.621676,42,1.91319,0,0,42.10339,0,0,1561841755.596066,169629.325292,0,0.161377,75.19144,0,182478453,3,1,0.99,-24.10181,-31.67399,3
1561841816.248318,80,0,0,1561841815.998617,4.634644947950388,-74.15085819556764,2554.347,0,292.5,4,50,-9999,1561841816.235937,11.46787261962891,-18.92789077758789,19.01458740234375,205.8303833007812,213.323486328125,15,169632.549998125,-0.1919403076171875,-0.0180511474609375,-0.1053924560546875,169632.549998125,0.6738636453643848,0.6013409751915649,-2.324025901069169,169632.534679125,-62.21498107910156,-44.63400268554688,-543.85888671875,169632.544932125,-0.7033819040896594,-0.4461802603255394,1.365220800144845,0.4811443090438843,0.509695827960968,-2.602066516876221,-0.1269242763519287,0.9388741254806519,0.01158559322357178,1,0.5183953642845154,-0.3730853199958801,-0.3916949927806854,0.6623056530952454,-0.088087297976017,-0.9789436459541321,-0.1841471791267395,0,0,0,-1,169632.256847125,3,2,1561841816.203346,1561841239.621676,42,1.91319,0,0,42.10339,0,0,1561841755.596066,169629.325292,0,0.161377,75.19144,0,182478453,3,1,0.99,-24.10181,-30.96717,3
1561841816.268088,81,0,0,1561841815.998617,4.634644947950388,-74.15085819556764,2554.347,0,292.5,4,50,-9999,1561841816.263171,13.02185440063477,-17.25440216064453,19.33343505859375,204.8934936523438,212.3865966796875,15,169632.570262125,-0.2125701904296875,-0.1343994140625,-0.0133819580078125,169632.570262125,1.272858109319481,0.6697868783676915,-1.448741523507693,169632.554759125,-61.42620849609375,-44.06439208984375,-543.5802001953125,169632.565196125,-0.8840336439444402,-0.2559931713259327,1.396166920209216,1.169672846794128,0.6829333901405334,-1.661676645278931,-0.1500531136989594,0.922214686870575,0.114416241645813,1,0.534393846988678,-0.3610851764678955,-0.3991783559322357,0.6516880989074707,-0.04399291053414345,-0.9847909808158875,-0.1680814176797867,0,0,0,-1,169632.256847125,3,2,1561841816.203346,1561841239.621676,42,1.91319,0,0,42.10339,0,0,1561841755.596066,169629.325292,0,0.161377,75.19144,0,182478453,3,1,0.99,-24.10181,-30.71147,3
1561841816.288219,82,0,0,1561841815.998617,4.634644947950388,-74.15085819556764,2554.347,0,292.5,4,50,-9999,1561841816.286599,13.17107009887695,-16.35245132446289,19.89837646484375,204.0011138916016,211.4942169189453,15,169632.590526125,-0.3799896240234375,-0.191497802734375,0.0510406494140625,169632.590526125,1.37511364148249,0.3290825548433474,-0.4976529286782019,169632.574870125,-61.13374328613281,-43.19927978515625,-543.1260375976562,169632.585460125,-1.004843833363595,-0.1246165327328693,1.426999241903472,1.379629254341125,0.4538549184799194,-0.7400228977203369,-0.2555953860282898,0.8173156976699829,0.1550233364105225,1,0.5498178005218506,-0.3558160066604614,-0.3990986049175262,0.6417286396026611,-0.01781160943210125,-0.9896789789199829,-0.1421907097101212,0,0,0,-1,169632.256847125,3,2,1561841816.203346,1561841239.621676,42,1.91319,0,0,42.10339,0,0,1561841755.596066,169629.325292,0,0.161377,75.19144,0,182478453,3,1,0.99,-23.56786,-28.50823,3
1561841816.324628,83,0,0,1561841815.998617,4.634644947950388,-74.15085819556764,2554.347,0,292.5,4,50,-9999,1561841816.313054,13.41975021362305,-15.62453460693359,20.46441650390625,204.1744537353516,211.6675567626953,15,169632.610789125,-0.4933929443359375,-0.297576904296875,0.1353912353515625,169632.610789125,1.344648410192529,-0.5328436730063999,0.3953555848860782,169632.594981125,-61.16596984863281,-42.39419555664062,-542.3280029296875,169632.605723125,-1.022943342373832,-0.1038628841490878,1.454928262585274,1.330403089523315,-0.2594045996665955,0.1827549934387207,-0.4427258968353271,0.7665187120437622,0.2086454629898071,1,0.5601199269294739,-0.3588483929634094,-0.3951677978038788,0.6335108876228333,-0.0119860116392374,-0.9932947754859924,-0.1149869933724403,0,0,0,-1,169632.256847125,3,2,1561841816.203346,1561841239.621676,42,1.91319,0,0,42.10339,0,0,1561841755.596066,169629.325292,0,0.161377,75.19144,0,182478453,3,1,0.99,-23.56786,-29.18641,3
1561841816.328799,84,0,0,1561841815.998617,4.634644947950388,-74.15085819556764,2554.347,0,292.5,4,50,-9999,1561841816.313054,13.41975021362305,-15.62453460693359,20.46441650390625,204.1744537353516,211.6675567626953,15,169632.631053125,-0.5198974609375,-0.504608154296875,0.134979248046875,169632.631053125,1.376620724343366,-1.579783962841696,1.054551870546852,169632.615092125,-61.19674682617188,-41.76554870605469,-542.2415771484375,169632.625957125,-0.8599368814509604,-0.2830069068216856,1.480021509041647,1.411093473434448,-1.398502230644226,0.9346156716346741,-0.474792867898941,0.5917537808418274,0.23270583152771,1,0.5633817911148071,-0.3729319274425507,-0.3911860585212708,0.6248970627784729,-0.02531392686069012,-0.9958828091621399,-0.08704546838998795,0,0,0,-1,169632.256847125,3,2,1561841816.203346,1561841239.621676,42,1.91319,0,0,42.10339,0,0,1561841755.596066,169629.325292,0,0.161377,75.19144,0,182478453,3,1,0.99,-23.56786,-29.18641,3
1561841816.34909,85,0,0,1561841815.998617,4.634644947950388,-74.15085819556764,2554.347,0,292.5,4,50,-9999,1561841816.337085,13.36920166015625,-15.36251831054688,20.70538330078125,206.1219635009766,213.6150665283203,15,169632.651317125,-0.5477294921875,-0.7514801025390625,0.017608642578125,169632.651317125,1.061381813478469,-1.423650551297512,1.163327620006702,169632.635173125,-60.53225708007812,-41.59066772460938,-541.9902954101562,169632.646220125,-0.4793358979805272,-0.6948578402637048,1.492884009666423,1.127650022506714,-1.582249164581299,1.168739795684814,-0.4896556437015533,0.3841886520385742,0.1386590600013733,1,0.5608775019645691,-0.3943643569946289,-0.3884406387805939,0.6156353950500488,-0.04983408376574516,-0.9969663619995117,-0.0597863644361496,0,0,0,-1,169632.256847125,3,2,1561841816.203346,1561841239.621676,42,1.91319,0,0,42.10339,0,0,1561841755.596066,169629.325292,0,0.161377,75.19144,0,182478453,3,1,0.99,-23.56786,-30.21206,3
1561841816.369272,86,0,0,1561841815.998617,4.634644947950388,-74.15085819556764,2554.347,0,292.5,4,50,-9999,1561841816.364065,13.96694564819336,-14.61320877075195,20.5244140625,207.9973602294922,215.4904632568359,15,169632.671550125,-0.56591796875,-0.9809722900390625,0.020660400390625,169632.671550125,1.016476123809771,-0.7882509415571411,0.9608070022794083,169632.655284125,-60.52056884765625,-41.5975341796875,-542.3357543945312,169632.666484125,-0.09543950236028943,-1.102910170880389,1.488133375149422,1.012078642845154,-0.9117802381515503,1.028396725654602,-0.4854949116706848,0.1152224540710449,0.04019844532012939,1,0.5578428506851196,-0.4125436246395111,-0.3843373656272888,0.6090187430381775,-0.0736938938498497,-0.9965853691101074,-0.0372382216155529,0,0,0,-1,169632.256847125,3,2,1561841816.203346,1561841239.621676,42,1.91319,0,0,42.10339,0,0,1561841755.596066,169629.325292,0,0.161377,75.19144,0,182478453,3,1,0.99,-23.56786,-31.17495,3
1561841816.405338,87,0,0,1561841815.998617,4.634644947950388,-74.15085819556764,2554.347,0,292.5,4,50,-9999,1561841816.38806,14.13510894775391,-14.64159774780273,20.562744140625,208.9917755126953,216.4848785400391,15,169632.691814125,-0.50750732421875,-1.0963134765625,0.046142578125,169632.691814125,0.8048442993610979,-0.7531608647181481,0.5834570495233559,169632.675395125,-60.17584228515625,-41.334716796875,-542.0834350585938,169632.686748125,0.184531427120748,-1.397357398844051,1.477686332104384,0.9049821496009827,-0.7360395789146423,0.6773971915245056,-0.4519212543964386,-0.05825614929199219,0.0541156530380249,1,0.557258665561676,-0.4259580671787262,-0.3791620433330536,0.6035385131835938,-0.09158153086900711,-0.9956684112548828,-0.01604500971734524,0,0,0,-1,169632.256847125,3,2,1561841816.203346,1561841239.621676,42,1.91319,0,0,42.10339,0,0,1561841755.596066,169630.26946,0,0.3356934,75.18978,0,182478453,3,1,0.99,-23.56786,-33.09398,3
1561841816.409847,88,0,0,1561841815.998617,4.634644947950388,-74.15085819556764,2554.347,0,292.5,4,50,-9999,1561841816.38806,14.13510894775391,-14.64159774780273,20.562744140625,208.9917755126953,216.4848785400391,15,169632.712077125,-0.41552734375,-1.0953369140625,0.025421142578125,169632.712077125,-0.002976082518163549,-0.5878145136989436,0.3657204609078945,169632.695506125,-60.03860473632812,-41.30279541015625,-542.2605590820312,169632.707011125,0.3237697313169832,-1.551198699378913,1.468593989112172,0.2356189638376236,-0.6950404644012451,0.3889220058917999,-0.3684394061565399,-0.1142269372940063,0.05053752660751343,1,0.5559400320053101,-0.435810774564743,-0.3775832653045654,0.5986906290054321,-0.10200434923172,-0.9947819113731384,-0.001999299274757504,0,0,0,-1,169632.256847125,3,2,1561841816.203346,1561841239.621676,42,1.91319,0,0,42.10339,0,0,1561841755.596066,169630.26946,0,0.3356934,75.18978,0,182478453,3,1,0.99,-23.56786,-33.09398,3
1561841816.430149,89,0,0,1561841815.998617,4.634644947950388,-74.15085819556764,2554.347,0,292.5,4,50,-9999,1561841816.414996,14.54282760620117,-14.71681213378906,20.6929931640625,209.9482727050781,217.4413757324219,15,169632.732341125,-0.2930908203125,-1.03509521484375,-0.0017547607421875,169632.732341125,-0.7018574631627527,0.02010580096566222,0.407483620490299,169632.715617125,-60.10398864746094,-40.90766906738281,-542.29296875,169632.727275125,0.2847182992019506,-1.52137003197543,1.461001464820195,-0.5995392799377441,-0.1471315771341324,0.3864066600799561,-0.2406423687934875,-0.07804292440414429,0.01046431064605713,1,0.551292896270752,-0.4397377967834473,-0.3788071572780609,0.5993428826332092,-0.1094400510191917,-0.9939786195755005,-0.00541362538933754,0,0,0,-1,169632.256847125,3,2,1561841816.203346,1561841239.621676,42,1.91319,0,0,42.10339,0,0,1561841755.596066,169630.26946,0,0.3356934,75.18978,0,182478453,3,1,0.99,-23.56786,-34.07945,3
1561841816.450421,90,0,0,1561841815.998617,4.634644947950388,-74.15085819556764,2554.347,0,292.5,4,50,-9999,1561841816.438525,14.30684280395508,-14.89020538330078,20.44927978515625,210.1855773925781,217.6786804199219,15,169632.752605125,-0.2431488037109375,-0.95404052734375,0.0235595703125,169632.752605125,-0.5739783265715458,0.4902112576441935,0.3921440789275517,169632.735728125,-59.8577880859375,-41.6019287109375,-542.38623046875,169632.747539125,0.1677214219781293,-1.40200542754305,1.451238714367565,-0.6770652532577515,0.4092720150947571,0.4054591953754425,-0.146689385175705,0.002459287643432617,0.02672004699707031,1,0.5457532405853271,-0.4383321404457092,-0.3786210715770721,0.6055281758308411,-0.1175775676965714,-0.9928615093231201,-0.02003666944801807,0,0,0,-1,169632.256847125,3,2,1561841816.203346,1561841239.621676,42,1.91319,0,0,42.10339,0,0,1561841755.596066,169630.26946,0,0.3356934,75.18978,0,182478453,3,1,0.99,-23.56786,-35.00216,3
1561841816.486449,91,0,0,1561841815.998617,4.634644947950388,-74.15085819556764,2554.347,0,292.5,4,50,-9999,1561841816.466385,14.08855056762695,-15.4327278137207,20.2681884765625,209.6133880615234,217.1064910888672,15,169632.772868125,-0.237335205078125,-0.8623809814453125,0.0730438232421875,169632.772868125,-0.1016821535803154,0.4809772791965617,0.2971480575799892,169632.755809125,-60.349365234375,-41.81602478027344,-542.422607421875,169632.767802125,0.1073593348955661,-1.331998929403445,1.442196330052085,-0.2093949764966965,0.5110023617744446,0.31183922290802,-0.115399032831192,0.08651477098464966,0.0782928466796875,1,0.5432732701301575,-0.4355306029319763,-0.3756334781646729,0.611609935760498,-0.1246064305305481,-0.9917424321174622,-0.03033449500799179,0,0,0,-1,169632.256847125,3,2,1561841816.203346,1561841239.621676,42,1.91319,0,0,42.10339,0,0,1561841755.596066,169630.26946,0,0.3356934,75.18978,0,182478453,3,1,0.99,-23.56786,-35.96537,3
1561841816.490625,92,0,0,1561841815.998617,4.634644947950388,-74.15085819556764,2554.347,0,292.5,4,50,-9999,1561841816.466385,14.08855056762695,-15.4327278137207,20.2681884765625,209.6133880615234,217.1064910888672,15,169632.793132125,-0.1664581298828125,-0.8382568359375,0.0870208740234375,169632.793132125,0.09476459264883458,0.2577596387416082,0.2958202054604757,169632.775920125,-60.54161071777344,-42.22831726074219,-542.377685546875,169632.788066125,0.1121784963475694,-1.328100129737336,1.436219999068755,0.06947712600231171,0.3301838338375092,0.292682558298111,-0.07069027423858643,0.1493902802467346,0.1172657012939453,1,0.5433506369590759,-0.4343365430831909,-0.3716274201869965,0.6148290634155273,-0.1302374750375748,-0.9909582734107971,-0.03224370628595352,0,0,0,-1,169632.256847125,3,2,1561841816.203346,1561841239.621676,42,1.91319,0,0,42.10339,0,0,1561841755.596066,169630.26946,0,0.3356934,75.18978,0,182478453,3,1,0.99,-23.56786,-35.96537,3
1561841816.511209,93,0,0,1561841815.998617,4.634644947950388,-74.15085819556764,2554.347,0,292.5,4,50,-9999,1561841816.489646,13.66988754272461,-15.51746368408203,20.50555419921875,209.0275268554688,216.5206298828125,15,169632.813396125,-0.11767578125,-0.9036102294921875,0.0734405517578125,169632.813396125,0.2693364000001827,-0.02940209738280181,0.4203283127438602,169632.796031125,-60.83140563964844,-41.9500732421875,-542.5119018554688,169632.808299125,0.1417878174071002,-1.353992286777193,1.43074105920218,0.2154186218976974,0.01468129083514214,0.3610560297966003,-0.003516733646392822,0.1344801187515259,0.1066890358924866,1,0.5434562563896179,-0.4354777336120605,-0.3681802749633789,0.6160014271736145,-0.1363300681114197,-0.9902082681655884,-0.03002888150513172,0,0,0,-1,169632.256847125,3,2,1561841816.203346,1561841239.621676,42,1.91319,0,0,42.10339,0,0,1561841755.596066,169630.26946,0,0.3356934,75.18978,0,182478453,3,1,0.99,-23.56786,-36.94191,3
1561841816.531441,94,0,0,1561841815.998617,4.634644947950388,-74.15085819556764,2554.347,0,292.5,4,50,-9999,1561841816.515467,13.6085205078125,-15.59984588623047,20.6800537109375,208.8764038085938,216.3695068359375,15,169632.833659125,-0.140960693359375,-1.009063720703125,0.0663909912109375,169632.833659125,0.3609781699547903,0.00991414979003798,0.5949651012258063,169632.816142125,-60.86701965332031,-41.91583251953125,-542.1195068359375,169632.828563125,0.1963343941491801,-1.408764143067595,1.422489556051714,0.363483726978302,-0.03134026378393173,0.570524275302887,0.0274960994720459,0.03083181381225586,0.09108328819274902,1,0.5431088805198669,-0.4394471943378448,-0.3641021549701691,0.6159127354621887,-0.1458280235528946,-0.9890226721763611,-0.02383781410753727,0,0,0,-1,169632.256847125,3,2,1561841816.203346,1561841239.621676,42,1.91319,0,0,42.10339,0,0,1561841755.596066,169630.26946,0,0.3356934,75.18978,0,182478453,3,1,0.99,-23.56786,-37.8676,3
1561841816.571189,95,0,0,1561841815.998617,4.634644947950388,-74.15085819556764,2554.347,0,292.5,4,50,-9999,1561841816.515467,13.6085205078125,-15.59984588623047,20.6800537109375,208.8764038085938,216.3695068359375,15,169632.853892125,-0.2089080810546875,-1.062484741210938,0.0792083740234375,169632.853892125,0.05070818505176274,0.1775031487631983,0.5522993963499738,169632.836223125,-61.07537841796875,-41.77632141113281,-542.19384765625,169632.848826125,0.245985268025318,-1.456811948452278,1.411454066230106,0.1527866721153259,0.1390067040920258,0.5763373970985413,-0.01698195934295654,-0.05772733688354492,0.08993077278137207,1,0.542503833770752,-0.443470686674118,-0.3588079214096069,0.616668701171875,-0.1576396375894547,-0.9873318672180176,-0.01804668083786964,0,0,0,-1,169632.256847125,3,2,1561841816.203346,1561841239.621676,42,1.91319,0,0,42.10339,0,0,1561841755.596066,169630.26946,0,0.3356934,75.18978,0,182478453,3,1,0.99,-23.56786,-39.13424,3
1561841816.574123,96,0,0,1561841815.998617,4.634644947950388,-74.15085819556764,2554.347,0,292.5,4,50,-9999,1561841816.515467,13.6085205078125,-15.59984588623047,20.6800537109375,208.8764038085938,216.3695068359375,15,169632.874156125,-0.2491455078125,-1.09686279296875,0.078125,169632.874156125,-0.2476116634078613,0.1661253256380528,0.4339043090327571,169632.856334125,-61.1771240234375,-42.22514343261719,-542.0833740234375,169632.869090125,0.2484552282498064,-1.455545658881614,1.400836760998064,-0.2078945636749268,0.1939375996589661,0.4603131115436554,-0.0700010359287262,-0.092457115650177,0.1016498208045959,1,0.5405601263046265,-0.4450498819351196,-0.3547114729881287,0.6196008324623108,-0.1680207997560501,-0.9855915904045105,-0.01945070549845695,0,0,0,-1,169632.256847125,3,2,1561841816.203346,1561841239.621676,42,1.91319,0,0,42.10339,0,0,1561841755.596066,169630.26946,0,0.3356934,75.18978,0,182478453,3,1,0.99,-23.56786,-39.13424,3
1561841816.592015,97,0,0,1561841815.998617,4.634644947950388,-74.15085819556764,2554.347,0,292.5,4,50,-9999,1561841816.584272,13.37778091430664,-15.44961547851562,20.74627685546875,208.8166198730469,216.3097229003906,15,169632.894420125,-0.2293853759765625,-1.104782104492188,0.0379180908203125,169632.894420125,-0.1992188306078135,-0.06309960728779243,0.3701626136061466,169632.876445125,-61.460205078125,-42.03041076660156,-541.9996337890625,169632.889354125,0.2270022613253714,-1.432376795087261,1.392029045614871,-0.2372452616691589,-0.01459111087024212,0.3706748485565186,-0.06706410646438599,-0.1213593482971191,0.08584445714950562,1,0.537587583065033,-0.4457939565181732,-0.3526647984981537,0.6228119730949402,-0.1761151999235153,-0.9840636253356934,-0.02453467808663845,0,0,0,-1,169632.256847125,3,2,1561841816.203346,1561841239.621676,42,1.91319,0,0,42.10339,0,0,1561841755.596066,169630.26946,0,0.3356934,75.18978,0,182478453,1,1,0.99,-23.56786,-39.73227,3
1561841816.612385,98,0,0,1561841815.998617,4.634644947950388,-74.15085819556764,2554.347,0,292.5,4,50,-9999,1561841816.584272,13.37778091430664,-15.44961547851562,20.74627685546875,208.8166198730469,216.3097229003906,15,169632.914683125,-0.22918701171875,-1.107498168945312,0.0003814697265625,169632.914683125,-0.07551606323806886,-0.08909738584914595,0.3775187971691635,169632.896556125,-61.42539978027344,-42.25559997558594,-541.9467163085938,169632.909618125,0.2149443214593962,-1.422338647092648,1.384178184765245,-0.09999611973762512,-0.1138161718845367,0.3722336292266846,-0.04193812608718872,-0.1228467226028442,0.04303765296936035,1,0.534575343132019,-0.4477807581424713,-0.3515620231628418,0.624600350856781,-0.1834952533245087,-0.9826372861862183,-0.02744319103658199,0,0,0,-1,169632.256847125,3,2,1561841816.203346,1561841239.621676,42,1.91319,0,0,42.10339,0,0,1561841755.596066,169630.26946,0,0.3356934,75.18978,0,182478453,1,1,0.99,-23.56786,-40.60751,3
1561841816.637231,99,0,0,1561841815.998617,4.634644947950388,-74.15085819556764,2554.347,0,292.5,4,50,-9999,1561841816.6168,12.8682861328125,-15.98902893066406,20.824951171875,208.6907043457031,216.1838073730469,15,169632.934947125,-0.255645751953125,-1.114013671875,-0.01593017578125,169632.934947125,-0.1149263199973884,0.09526872904318658,0.3683183745512668,169632.916637125,-61.45379638671875,-42.33206176757812,-542.169189453125,169632.929881125,0.2126916225019951,-1.421080213258982,1.376446518377822,-0.08807580918073654,0.04840202629566193,0.3732695877552032,-0.0523640513420105,-0.1293459534645081,0.01663005352020264,1,0.5322155952453613,-0.4498258531093597,-0.3497975468635559,0.6261348724365234,-0.1909678876399994,-0.9811734557151794,-0.0288065243512392,0,0,0,-1,169632.256847125,3,2,1561841816.203346,1561841239.621676,42,1.91319,0,0,42.10339,0,0,1561841755.596066,169630.26946,0,0.3356934,75.18978,0,182478453,1,1,0.99,-23.56786,-41.28504,3
1561841816.652854,100,0,0,1561841815.998617,4.634644947950388,-74.15085819556764,2554.347,0,292.5,4,50,-9999,1561841816.641573,12.77819061279297,-16.0825309753418,20.65240478515625,208.6516571044922,216.1447601318359,15,169632.955211125,-0.2530517578125,-1.086898803710938,-0.0138092041015625,169632.955211125,-0.1830228164384965,0.09639924092592521,0.3142692539119996,169632.936748125,-61.66091918945312,-42.80863952636719,-542.4630737304688,169632.950145125,0.2041629408703392,-1.410736745976159,1.368980451743101,-0.1850524246692657,0.1066536158323288,0.3225302398204803,-0.06039854884147644,-0.1241013407707214,0.01488769054412842,1,0.530077338218689,-0.4506046175956726,-0.3476708829402924,0.6285686492919922,-0.1978869587182999,-0.9797042012214661,-0.03194698691368103,0,0,0,-1,169632.256847125,3,2,1561841816.203346,1561841239.621676,42,1.91319,0,0,42.10339,0,0,1561841755.596066,169630.26946,0,0.3356934,75.18978,0,182478453,1,1,0.99,-23.56786,-41.28504,3
1561841816.673247,101,0,0,1561841815.998617,4.634644947950388,-74.15085819556764,2554.347,0,292.5,4,50,-9999,1561841816.66753,12.3577766418457,-16.38418960571289,20.64727783203125,208.5920104980469,216.0851135253906,15,169632.975474125,-0.2481231689453125,-1.082382202148438,-0.00262451171875,169632.975474125,-0.0189020521529464,-0.01694649296450122,0.247163453396401,169632.956859125,-61.75762939453125,-42.74806213378906,-542.365966796875,169632.970409125,0.1937896553264362,-1.399314482783868,1.362633898409882,-0.08053693175315857,0.006198117043823004,0.2585741579532623,-0.05178609490394592,-0.09716451168060303,0.02804791927337646,1,0.5279790163040161,-0.4512266516685486,-0.3461811244487762,0.6307069063186646,-0.2036307901144028,-0.9784123301506042,-0.03526533395051956,0,0,0,-1,169632.256847125,3,2,1561841816.203346,1561841239.621676,42,1.91319,0,0,42.10339,0,0,1561841755.596066,169630.26946,0,0.3356934,75.18978,0,182478453,1,1,0.99,-23.56786,-41.80422,3
1561841816.693453,102,0,0,1561841815.998617,4.634644947950388,-74.15085819556764,2554.347,0,292.5,4,50,-9999,1561841816.691821,12.27983093261719,-16.32950973510742,20.58734130859375,208.6466217041016,216.1397247314453,15,169632.995738125,-0.2663116455078125,-1.098968505859375,-0.008544921875,169632.995738125,0.1588849895824544,-0.07479434658265739,0.1561810821276969,169632.976970125,-61.85250854492188,-42.91302490234375,-542.33154296875,169632.990642125,0.2004874147138066,-1.406763303818832,1.358249587039691,0.130662128329277,-0.07829386740922928,0.1819449067115784,-0.04262971878051758,-0.115856409072876,0.02942758798599243,1,0.5269980430603027,-0.4528235793113708,-0.3448346257209778,0.6311203241348267,-0.2081179767847061,-0.977496862411499,-0.03444773703813553,0,0,0,-1,169632.256847125,3,2,1561841816.203346,1561841239.621676,42,1.91319,0,0,42.10339,0,0,1561841755.596066,169630.26946,0,0.3356934,75.18978,0,182478453,1,1,0.99,-23.56786,-42.32134,3
1561841816.719252,103,0,0,1561841815.998617,4.634644947950388,-74.15085819556764,2554.347,0,292.5,4,50,-9999,1561841816.691821,12.27983093261719,-16.32950973510742,20.58734130859375,208.6466217041016,216.1397247314453,15,169633.016002125,-0.2731170654296875,-1.099578857421875,-0.0185394287109375,169633.016002125,0.08203894369599994,-0.02228186989236596,0.02510269011897789,169632.997050125,-61.97709655761719,-42.72239685058594,-542.2648315429688,169633.010905125,0.2161741367411402,-1.423528354824429,1.356323807074994,0.1137550473213196,-0.05119886621832848,0.05215974524617195,-0.06509095430374146,-0.1275864839553833,0.01935887336730957,1,0.5271441340446472,-0.4544270634651184,-0.3437727987766266,0.6304247975349426,-0.210528552532196,-0.9770888090133667,-0.03123021125793457,0,0,0,-1,169632.256847125,3,2,1561841816.203346,1561841239.621676,42,1.91319,0,0,42.10339,0,0,1561841755.596066,169630.26946,0,0.3356934,75.18978,0,182478453,1,1,0.99,-23.56786,-41.96201,3
1561841816.733974,104,0,0,1561841815.998617,4.634644947950388,-74.15085819556764,2554.347,0,292.5,4,50,-9999,1561841816.718223,12.33509826660156,-16.43218231201172,20.6224365234375,208.6872100830078,216.1803131103516,15,169633.036235125,-0.2409515380859375,-1.078933715820312,-0.0154571533203125,169633.036235125,-0.02300651602497652,0.03682086523143555,-0.0138436439784499,169633.017161125,-61.90937805175781,-42.72477722167969,-542.305419921875,169633.031169125,0.2205476319550239,-1.427988608004401,1.356343043104784,-0.01328492164611816,0.02409109845757484,-0.01905184984207153,-0.05389449000358582,-0.1139410734176636,0.0137019157409668,1,0.5273768901824951,-0.454675167798996,-0.3435757458209991,0.6301586031913757,-0.2106471210718155,-0.9770928621292114,-0.030288215726614,0,0,0,-1,169632.256847125,3,2,1561841816.203346,1561841239.621676,42,1.91319,0,0,42.10339,0,0,1561841755.596066,169630.26946,0,0.3356934,75.18978,0,182478453,1,1,0.99,-23.56786,-42.10455,3
1561841816.754141,105,0,0,1561841815.998617,4.634644947950388,-74.15085819556764,2554.347,0,292.5,4,50,-9999,1561841816.742463,12.50074005126953,-16.30908584594727,20.60382080078125,208.6631317138672,216.1562347412109,15,169633.056499125,-0.2038116455078125,-1.064727783203125,-0.012786865234375,169633.056499125,0.07491525409614698,-0.009875001322013814,0.02562893075037755,169633.037273125,-61.96846008300781,-42.98674011230469,-542.2423706054688,169633.051433125,0.2196420701342427,-1.426679138614454,1.356448480571188,0.03411614894866943,-0.0009924178011715412,0.01305628474801779,-0.005803018808364868,-0.09176290035247803,0.01605343818664551,1,0.5274244546890259,-0.4544764161109924,-0.343545138835907,0.6302788853645325,-0.2105055600404739,-0.9771153330802917,-0.03054926358163357,0,0,0,-1,169632.256847125,3,2,1561841816.203346,1561841239.621676,42,1.91319,0,0,42.10339,0,0,1561841755.596066,169630.26946,0,0.3356934,75.18978,0,182478453,1,1,0.99,-23.56786,-42.29128,3
1561841816.774954,106,0,0,1561841815.998617,4.634644947950388,-74.15085819556764,2554.347,0,292.5,4,50,-9999,1561841816.768989,12.46536254882812,-16.16082000732422,20.64361572265625,208.6673736572266,216.1604766845703,15,169633.076762125,-0.230987548828125,-1.063369750976562,-0.013641357421875,169633.076762125,0.1699887734314308,-0.06107240906602411,0.005714078434874014,169633.057384125,-61.91111755371094,-42.97026062011719,-542.3046875,169633.071696125,0.2298169020697422,-1.437229053477006,1.356287078299388,0.1589976251125336,-0.05621705949306488,0.01808832958340645,0.00105661153793335,-0.09127843379974365,0.01527094841003418,1,0.5278840065002441,-0.4551534056663513,-0.3430785834789276,0.6296593546867371,-0.2109718024730682,-0.9770810008049011,-0.02834770642220974,0,0,0,-1,169632.256847125,3,2,1561841816.203346,1561841239.621676,42,1.91319,0,0,42.10339,0,0,1561841755.596066,169630.26946,0,0.3356934,75.18978,0,182478453,1,1,0.99,-23.56786,-42.93723,3
1561841816.808038,107,0,0,1561841815.998617,4.634644947950388,-74.15085819556764,2554.347,0,292.5,4,50,-9999,1561841816.793256,12.36169052124023,-16.24761962890625,20.63555908203125,208.7400360107422,216.2331390380859,15,169633.097026125,-0.249542236328125,-1.040756225585938,-0.01580810546875,169633.097026125,0.07143982887359358,-0.09157865303677278,-0.09847490867953297,169633.077495125,-61.91783142089844,-42.77093505859375,-542.296630859375,169633.091960125,0.2438237472140036,-1.452520235510814,1.357108458336424,0.107671320438385,-0.0972723513841629,-0.07345356792211533,-0.03671526908874512,-0.07564675807952881,0.01042121648788452,1,0.5286703705787659,-0.4560654759407043,-0.3429448008537292,0.6284113526344299,-0.2105839401483536,-0.9772554636001587,-0.02502384223043919,0,0,0,-1,169632.256847125,3,2,1561841816.203346,1561841239.621676,42,1.91319,0,0,42.10339,0,0,1561841755.596066,169630.26946,0,0.3356934,75.18978,0,182478453,1,1,0.99,-23.56786,-43.65631,3
1561841816.815023,108,0,0,1561841815.998617,4.634644947950388,-74.15085819556764,2554.347,0,292.5,4,50,-9999,1561841816.793256,12.36169052124023,-16.24761962890625,20.63555908203125,208.7400360107422,216.2331390380859,15,169633.117314125,-0.2332611083984375,-1.022842407226562,-0.013580322265625,169633.117314125,-0.03097709085147467,-0.0290926380641346,-0.2003741098886898,169633.097606125,-61.95542907714844,-42.966796875,-542.3037109375,169633.112224125,0.2459281867725019,-1.456316537336558,1.359801848218784,-0.02066374197602272,-0.05661227181553841,-0.1839063167572021,-0.03397282958030701,-0.04958164691925049,0.008023858070373535,1,0.529206395149231,-0.4560469686985016,-0.3440565168857574,0.6273651123046875,-0.2080620974302292,-0.9778231382369995,-0.02392350696027279,0,0,0,-1,169632.256847125,3,2,1561841816.203346,1561841239.621676,42,1.91319,0,0,42.10339,0,0,1561841755.596066,169630.26946,0,0.3356934,75.18978,0,182478453,1,1,0.99,-23.56786,-43.65631,3
1561841816.835201,109,0,0,1561841815.998617,4.634644947950388,-74.15085819556764,2554.347,0,292.5,4,50,-9999,1561841816.819944,12.40915679931641,-16.23886871337891,20.603759765625,208.8347930908203,216.3278961181641,15,169633.137577125,-0.196075439453125,-1.000518798828125,-0.020843505859375,169633.137577125,-0.005677593127939928,-0.03885658556869212,-0.2097630843117642,169633.117710125,-61.81303405761719,-42.70877075195312,-542.3287353515625,169633.132511125,0.2405965323386621,-1.451808904990935,1.363975606641432,-0.01849859207868576,-0.03456689044833183,-0.2194126397371292,-0.008627206087112427,-0.03928613662719727,0.01015514135360718,1,0.5298659801483154,-0.4550317227840424,-0.3457237184047699,0.6266284584999084,-0.2038971781730652,-0.9786887168884277,-0.02437634952366352,0,0,0,-1,169632.256847125,3,2,1561841816.203346,1561841239.621676,42,1.91319,0,0,42.10339,0,0,1561841755.596066,169630.26946,0,0.3356934,75.18978,0,182478453,1,1,0.99,-23.56786,-44.09419,3
1561841816.887414,110,0,0,1561841815.998617,4.634644947950388,-74.15085819556764,2554.347,0,292.5,4,50,-9999,1561841816.870178,12.9093132019043,-15.90076065063477,20.58868408203125,208.9732818603516,216.4663848876953,15,169633.157841125,-0.1850738525390625,-0.97174072265625,-0.0391693115234375,169633.157841125,-0.0405700634140491,-0.04986955562449679,-0.178868817770191,169633.137821125,-61.54505920410156,-42.53884887695312,-542.0983276367188,169633.152775125,0.2370685434088642,-1.449403637886683,1.368035798764673,-0.02442945167422295,-0.0621122308075428,-0.1858166009187698,0.01048457622528076,-0.004479110240936279,-0.003065228462219238,1,0.5305494666099548,-0.4542296826839447,-0.3473420143127441,0.6257364749908447,-0.1998919248580933,-0.9795144200325012,-0.02438531816005707,0,0,0,-1,169632.256847125,3,2,1561841816.203346,1561841239.621676,42,1.91319,0,0,42.10339,0,0,1561841755.596066,169630.26946,0,0.3356934,75.18978,0,182478453,1,1,0.99,-23.56786,-44.95969,3
1561841816.890089,111,0,0,1561841815.998617,4.634644947950388,-74.15085819556764,2554.347,0,292.5,4,50,-9999,1561841816.870178,12.9093132019043,-15.90076065063477,20.58868408203125,208.9732818603516,216.4663848876953,15,169633.178105125,-0.1821746826171875,-0.982452392578125,-0.0345611572265625,169633.178105125,-0.07615362400303383,0.02446805883121201,-0.1570359568376124,169633.157933125,-61.56954956054688,-42.63883972167969,-542.1655883789062,169633.173008125,0.2293054574787602,-1.442531515898717,1.371457725490111,-0.07470807433128357,0.005403163377195597,-0.1669619530439377,0.01524257659912109,0.005863010883331299,-0.017333984375,1,0.5308878421783447,-0.4533136785030365,-0.3489111661911011,0.625240683555603,-0.1963949203491211,-0.9801977872848511,-0.02532961592078209,0,0,0,-1,169632.256847125,3,2,1561841816.203346,1561841239.621676,42,1.91319,0,0,42.10339,0,0,1561841755.596066,169630.26946,0,0.3356934,75.18978,0,182478453,1,1,0.99,-23.56786,-44.95969,3
1561841816.896068,112,0,0,1561841815.998617,4.634644947950388,-74.15085819556764,2554.347,0,292.5,4,50,-9999,1561841816.870178,12.9093132019043,-15.90076065063477,20.58868408203125,208.9732818603516,216.4663848876953,15,169633.198368125,-0.1883087158203125,-0.9803009033203125,-0.0326995849609375,169633.198368125,-0.06063538433114211,0.04779548576754308,-0.1331692397805402,169633.178044125,-61.61795043945312,-42.54743957519531,-542.2637329101562,169633.193272125,0.2197013387362086,-1.432667092822559,1.374309276461063,-0.0649382621049881,0.0318337045609951,-0.1427439600229263,0.008292287588119507,-0.003982782363891602,-0.00519329309463501,1,0.5311958789825439,-0.4520957767963409,-0.3500921726226807,0.6252006888389587,-0.193366140127182,-0.9807584285736084,-0.02688069269061089,0,0,0,-1,169632.256847125,3,2,1561841816.203346,1561841239.621676,42,1.91319,0,0,42.10339,0,0,1561841755.596066,169630.26946,0,0.3356934,75.18978,0,182478453,1,1,0.99,-23.56786,-45.28696,3
1561841816.916459,113,0,0,1561841815.998617,4.634644947950388,-74.15085819556764,2554.347,0,292.5,4,50,-9999,1561841816.895104,12.87424850463867,-15.95022964477539,20.5633544921875,208.9613037109375,216.4544067382812,15,169633.218601125,-0.1965484619140625,-0.9796295166015625,-0.0377197265625,169633.218601125,-0.04311711068060088,0.1192531578204402,-0.1015045207356071,169633.198155125,-61.67509460449219,-42.45286560058594,-542.0454711914062,169633.213536125,0.2115731031505608,-1.423543967310365,1.376735675624553,-0.05399959534406662,0.08710095286369324,-0.1175637766718864,-0.003684550523757935,0.002362668514251709,-0.00532066822052002,1,0.5316098928451538,-0.4508256018161774,-0.3508823215961456,0.6253229975700378,-0.1907582134008408,-0.9812292456626892,-0.02829439751803875,0,0,0,-1,169632.256847125,3,2,1561841816.203346,1561841239.621676,42,1.91319,0,0,42.10339,0,0,1561841755.596066,169630.26946,0,0.3356934,75.18978,0,182478453,1,1,0.99,-23.56786,-45.95667,3
1561841816.963565,114,0,0,1561841815.998617,4.634644947950388,-74.15085819556764,2554.347,0,292.5,4,50,-9999,1561841816.951259,13.00503158569336,-16.07378768920898,20.61871337890625,208.7127990722656,216.2059020996094,15,169633.238865125,-0.18389892578125,-0.9753875732421875,-0.0387115478515625,169633.238865125,0.03327593150443107,0.1028566076210403,-0.03412201778274924,169633.218266125,-61.41633605957031,-42.37252807617188,-542.3204345703125,169633.233799125,0.2074976048483941,-1.417220683605607,1.378395894513018,0.01100443862378597,0.1128763556480408,-0.05327107384800911,-0.001693278551101685,0.001964330673217773,-0.008926689624786377,1,0.5322492718696594,-0.4495390057563782,-0.3509325683116913,0.6256770491600037,-0.1889652758836746,-0.9815480709075928,-0.02925078943371773,0,0,0,-1,169632.256847125,3,2,1561841816.203346,1561841239.621676,42,1.91319,0,0,42.10339,0,0,1561841755.596066,169630.26946,0,0.3356934,75.18978,0,182478453,1,1,0.99,-23.56786,-42.50986,3
1561841816.967559,115,0,0,1561841815.998617,4.634644947950388,-74.15085819556764,2554.347,0,292.5,4,50,-9999,1561841816.951259,13.00503158569336,-16.07378768920898,20.61871337890625,208.7127990722656,216.2059020996094,15,169633.259129125,-0.19183349609375,-0.9643707275390625,-0.0287017822265625,169633.259129125,0.09244231617828548,0.07634910002704565,0.004826446843550603,169633.238346125,-61.43630981445312,-42.56877136230469,-542.1636962890625,169633.254063125,0.2122516843457783,-1.42021692177148,1.379038766876626,0.08393403887748718,0.06403824687004089,-0.0006446132902055979,0.00411677360534668,0.01176106929779053,-0.006352901458740234,1,0.5329651832580566,-0.4490581750869751,-0.3504203259944916,0.6256999373435974,-0.188427671790123,-0.9816707968711853,-0.02858973853290081,0,0,0,-1,169632.256847125,3,2,1561841816.203346,1561841239.621676,42,1.91319,0,0,42.10339,0,0,1561841755.596066,169630.26946,0,0.3356934,75.18978,0,182478453,1,1,0.99,-23.56786,-42.50986,3
1561841816.977407,116,0,0,1561841815.998617,4.634644947950388,-74.15085819556764,2554.347,0,292.5,4,50,-9999,1561841816.971948,12.83148193359375,-15.83376312255859,20.5374755859375,208.5818939208984,216.0749969482422,15,169633.279392125,-0.1987762451171875,-0.9673919677734375,-0.01611328125,169633.279392125,0.09302501582479482,0.108021009606922,-0.001001881202087809,169633.258457125,-61.51850891113281,-42.48052978515625,-542.1010131835938,169633.274327125,0.221580798612284,-1.427735344461805,1.379310437211812,0.09133229404687881,0.09731630980968475,-0.003219091100618243,-0.01063236594200134,0.01800787448883057,0.004230737686157227,1,0.5338164567947388,-0.4488573372364044,-0.3495824933052063,0.6255869269371033,-0.188372790813446,-0.9817225337028503,-0.02713416330516338,0,0,0,-1,169632.256847125,3,2,1561841816.203346,1561841239.621676,42,1.91319,0,0,42.10339,0,0,1561841755.596066,169630.26946,0,0.3356934,75.18978,0,182478453,1,1,0.99,-23.56786,-42.50986,3
1561841816.997309,117,0,0,1561841815.998617,4.634644947950388,-74.15085819556764,2554.347,0,292.5,4,50,-9999,1561841816.971948,12.83148193359375,-15.83376312255859,20.5374755859375,208.5818939208984,216.0749969482422,15,169633.299656125,-0.2000274658203125,-0.978790283203125,-0.0002288818359375,169633.299656125,0.1151545529028082,0.08586990092407892,-0.01958648455309676,169633.278569125,-61.53294372558594,-42.34954833984375,-542.162353515625,169633.294590125,0.2314932272821373,-1.43547517718032,1.379696838716625,0.1068702414631844,0.08881496638059616,-0.01353138312697411,-0.009902596473693848,0.008071660995483398,0.02023792266845703,1,0.5347917675971985,-0.4485371708869934,-0.348657101392746,0.6255001425743103,-0.1882022321224213,-0.9817959666252136,-0.02562434412539005,0,0,0,-1,169632.256847125,3,2,1561841816.203346,1561841239.621676,42,1.91319,0,0,42.10339,0,0,1561841755.596066,169630.26946,0,0.3356934,75.18978,0,182478453,1,1,0.99,-23.56786,-42.53899,3
1561841817.047305,118,0,0,1561841815.998617,4.634644947950388,-74.15085819556764,2554.347,0,292.5,4,50,-9999,1561841817.022029,12.77688217163086,-15.72523498535156,20.7845458984375,208.2976837158203,215.7907867431641,15,169633.319920125,-0.1904754638671875,-0.9815826416015625,0.0048065185546875,169633.319920125,0.1288410703769435,0.05135959425439612,-0.02881566931076637,169633.298680125,-61.46051025390625,-42.26947021484375,-542.254150390625,169633.314854125,0.2432733172347262,-1.445530194212018,1.38050902604926,0.1244114190340042,0.0597742572426796,-0.03062062151730061,-0.008813381195068359,-0.001570582389831543,0.02625548839569092,1,0.5358957052230835,-0.4483305513858795,-0.3478937149047852,0.6251283288002014,-0.1876587569713593,-0.9819499254226685,-0.02363101951777935,0,0,0,-1,169632.256847125,3,2,1561841816.203346,1561841239.621676,42,1.91319,0,0,42.10339,0,0,1561841755.596066,169630.26946,0,0.3356934,75.18978,0,182478453,1,1,0.99,-23.56786,-43.70219,3
1561841817.050041,119,0,0,1561841815.998617,4.634644947950388,-74.15085819556764,2554.347,0,292.5,4,50,-9999,1561841817.022029,12.77688217163086,-15.72523498535156,20.7845458984375,208.2976837158203,215.7907867431641,15,169633.340184125,-0.2064208984375,-0.976318359375,0.0106658935546875,169633.340184125,0.1234236680875043,-0.007436877344046273,-0.08062427252494984,169633.318760125,-61.69256591796875,-42.11495971679688,-542.2306518554688,169633.335118125,0.2558802240481288,-1.457353447572572,1.381635185459027,0.1245515048503876,-0.003711771685630083,-0.06489044427871704,-0.01050108671188354,0.005981326103210449,0.02949464321136475,1,0.536959171295166,-0.4483660757541656,-0.347446084022522,0.6244387626647949,-0.1868255883455276,-0.9821622967720032,-0.02128542028367519,0,0,0,-1,169632.256847125,3,2,1561841816.203346,1561841239.621676,42,1.91319,0,0,42.10339,0,0,1561841755.596066,169630.26946,0,0.3356934,75.18978,0,182478453,1,1,0.99,-23.56786,-43.70219,3
1561841817.058026,120,0,0,1561841815.998617,4.634644947950388,-74.15085819556764,2554.347,0,292.5,4,50,-9999,1561841817.022029,12.77688217163086,-15.72523498535156,20.7845458984375,208.2976837158203,215.7907867431641,15,169633.360447125,-0.2068023681640625,-0.9767608642578125,0.008514404296875,169633.360447125,0.1051453282618544,-0.009164469943180674,-0.133898945919222,169633.338871125,-61.70558166503906,-42.53955078125,-542.054931640625,169633.355351125,0.267467800838717,-1.46910583552981,1.383895129714162,0.1103605851531029,-0.02257360890507698,-0.1349709928035736,-0.02950093150138855,0.006571590900421143,0.03100895881652832,1,0.5380940437316895,-0.4483562111854553,-0.3476363122463226,0.6233621835708618,-0.1848545521497726,-0.9825847744941711,-0.01886301673948765,0,0,0,-1,169632.256847125,3,2,1561841816.203346,1561841239.621676,42,1.91319,0,0,42.10339,0,0,1561841755.596066,169630.26946,0,0.3356934,75.18978,0,182478453,1,1,0.99,-23.56786,-44.47818,3
1561841817.07893,121,0,0,1561841816.998608,4.634644947950388,-74.15085819556764,2554.331,0,225.3515625,4,50,-9999,1561841817.063594,12.76223754882812,-15.66238403320312,20.8814697265625,208.2712707519531,215.7643737792969,15,169633.380711125,-0.171966552734375,-0.979095458984375,-0.000946044921875,169633.380711125,0.06069397387512385,0.04412431820486885,-0.08075316952170969,169633.358982125,-61.53849792480469,-42.29945373535156,-541.888427734375,169633.375614125,0.2762386028699102,-1.477742987024696,1.386562786653579,0.06842777878046036,0.02738809026777744,-0.1027893573045731,-0.006885379552841187,0.004652857780456543,0.01926517486572266,1,0.5392332077026367,-0.448013961315155,-0.3479998111724854,0.6224203109741211,-0.1823998689651489,-0.9830769300460815,-0.01702207699418068,0,0,0,-1,169632.256847125,3,2,1561841816.203346,1561841239.621676,42,1.91319,0,0,42.10339,0,0,1561841755.596066,169630.26946,0,0.3356934,75.18978,0,182478453,1,1,0.99,-23.56786,-44.96696,3
1561841817.113025,122,0,0,1561841816.998608,4.634644947950388,-74.15085819556764,2554.331,0,225.3515625,4,50,-9999,1561841817.102138,12.90107345581055,-15.47946548461914,20.8319091796875,208.1808776855469,215.6739807128906,15,169633.400944125,-0.148040771484375,-0.96771240234375,0.000274658203125,169633.400944125,0.04742770322100313,0.05925506793815404,0.00889948541471779,169633.379093125,-61.48039245605469,-42.02705383300781,-541.9014282226562,169633.395878125,0.2815999322509065,-1.482159097189755,1.387856249269616,0.04141054674983025,0.05065426230430603,-0.01792639866471291,0.02376750111579895,0.01013803482055664,0.01431864500045776,1,0.5399901866912842,-0.4476143717765808,-0.3478972017765045,0.6221089959144592,-0.1812077015638351,-0.9833130836486816,-0.01610394567251205,0,0,0,-1,169632.256847125,3,2,1561841816.203346,1561841239.621676,42,1.91319,0,0,42.10339,0,0,1561841755.596066,169630.26946,0,0.3356934,75.18978,0,182478453,1,1,0.99,-23.56786,-45.5561,3
