loggingTime,loggingSample,identifierForVendor,deviceID,locationTimestamp_since1970,locationLatitude,locationLongitude,locationAltitude,locationSpeed,locationCourse,locationVerticalAccuracy,locationHorizontalAccuracy,locationFloor,locationHeadingTimestamp_since1970,locationHeadingX,locationHeadingY,locationHeadingZ,locationTrueHeading,locationMagneticHeading,locationHeadingAccuracy,accelerometerTimestamp_sinceReboot,accelerometerAccelerationX,accelerometerAccelerationY,accelerometerAccelerationZ,gyroTimestamp_sinceReboot,gyroRotationX,gyroRotationY,gyroRotationZ,magnetometerTimestamp_sinceReboot,magnetometerX,magnetometerY,magnetometerZ,motionTimestamp_sinceReboot,motionYaw,motionRoll,motionPitch,motionRotationRateX,motionRotationRateY,motionRotationRateZ,motionUserAccelerationX,motionUserAccelerationY,motionUserAccelerationZ,motionAttitudeReferenceFrame,motionQuaternionX,motionQuaternionY,motionQuaternionZ,motionQuaternionW,motionGravityX,motionGravityY,motionGravityZ,motionMagneticFieldX,motionMagneticFieldY,motionMagneticFieldZ,motionMagneticFieldCalibrationAccuracy,activityTimestamp_sinceReboot,activity,activityActivityConfidence,activityActivityStartDate,pedometerStartDate,pedometerNumberofSteps,pedometerAverageActivePace,pedometerCurrentPace,pedometerCurrentCadence,pedometerDistance,pedometerFloorAscended,pedometerFloorDescended,pedometerEndDate,altimeterTimestamp_sinceReboot,altimeterReset,altimeterRelativeAltitude,altimeterPressure,IP_en0,IP_pdp_ip0,deviceOrientation,batteryState,batteryLevel,avAudioRecorderPeakPower,avAudioRecorderAveragePower,label
1561914456.886041,1,0,0,1561914456.000036,4.634729521353389,-74.15099037818065,2552.915,0.73,79.1015625,4,30,-9999,1561914456.862472,-21.4033203125,0.8940830230712891,-13.93914794921875,60.89054107666016,68.38401031494141,15,197172.023434375,-0.065887451171875,-0.4200592041015625,-0.95269775390625,197172.006222375,-0.670004192312642,-0.0800849824042088,-0.2176329916490573,197172.004605375,-97.47370910644531,-28.25852966308594,-577.5505981445312,197172.006222375,0.0350973488119618,-0.1654249318055765,0.5166572893614747,-0.6727073192596436,-0.08671099692583084,-0.2208710461854935,0.07190395891666412,0.04962527751922607,-0.1104272603988647,1,-0.2559541165828705,0.07539696246385574,0.004195299930870533,-0.9637349843978882,-0.1431777775287628,-0.493976503610611,-0.8576055765151978,0,0,0,-1,197170.640149375,3,1,1561914455.477686,1561913957.287787,32,0.8918345,0,0,26.32609,0,0,1561914413.669193,197168.80329,0,0.9802246,75.29594,3232235528,177845136,1,1,0.53,-28.13289,-38.43774,0
1561914456.88813,2,0,0,1561914456.000036,4.634729521353389,-74.15099037818065,2552.915,0.73,79.1015625,4,30,-9999,1561914456.862472,-21.4033203125,0.8940830230712891,-13.93914794921875,60.89054107666016,68.38401031494141,15,197172.043698375,-0.0514068603515625,-0.4137115478515625,-0.9193878173828125,197172.026486375,-0.4774432644300266,0.03035311220806911,-0.1161156877402178,197172.024716375,-97.07292175292969,-28.20248413085938,-577.7965698242188,197172.026486375,0.02879060322207661,-0.1626239281997548,0.5054901139998705,-0.4801606833934784,0.02371266297996044,-0.1193519458174706,0.07577195763587952,0.06417709589004517,-0.08930456638336182,1,-0.2503427267074585,0.07504606246948242,0.006417158991098404,-0.9652230739593506,-0.1416594088077545,-0.4842363297939301,-0.8633931875228882,0,0,0,-1,197170.640149375,3,1,1561914455.477686,1561913957.287787,32,0.8918345,0,0,26.32609,0,0,1561914413.669193,197168.80329,0,0.9802246,75.29594,3232235528,177845136,1,1,0.53,-28.13289,-38.43774,0
1561914456.912571,3,0,0,1561914456.000036,4.634729521353389,-74.15099037818065,2552.915,0.73,79.1015625,4,30,-9999,1561914456.8943,-21.32080841064453,1.311136245727539,-14.15203857421875,61.56478118896484,69.05825042724609,15,197172.063962375,-0.0348052978515625,-0.4232330322265625,-0.88214111328125,197172.046719375,-0.2063387917821403,0.03282292780300859,0.0003470098900373247,197172.044827375,-96.76368713378906,-28.11865234375,-578.04638671875,197172.046719375,0.02601144278563284,-0.1604212045432645,0.4988319002777526,-0.2090562134981155,0.02618248015642166,-0.002889244584366679,0.08886228501796722,0.06468856334686279,-0.05252110958099365,1,-0.2470333874225616,0.07443884015083313,0.007213721517473459,-0.9661166667938232,-0.1402691453695297,-0.4784001111984253,-0.8668667078018188,0,0,0,-1,197170.640149375,3,1,1561914455.477686,1561913957.287787,32,0.8918345,0,0,26.32609,0,0,1561914413.669193,197168.80329,0,0.9802246,75.29594,3232235528,177845136,1,1,0.53,-28.13289,-37.49379,0
1561914456.928167,4,0,0,1561914456.000036,4.634729521353389,-74.15099037818065,2552.915,0.73,79.1015625,4,30,-9999,1561914456.918685,-20.78859710693359,1.413192749023438,-14.3758544921875,61.44194030761719,68.93540954589844,15,197172.084225375,-0.02630615234375,-0.4410400390625,-0.8505096435546875,197172.066983375,-0.001087901305297369,-0.02818423381630858,0.103180181693485,197172.064938375,-96.71946716308594,-27.98703002929688,-578.0313720703125,197172.066983375,0.02669523715646158,-0.1606041282694574,0.4966543255097708,-0.003805326763540506,-0.0348246805369854,0.09994392096996307,0.1057886779308319,0.05325371026992798,-0.01427376270294189,1,-0.2460067421197891,0.07447829097509384,0.006817799527198076,-0.966378390789032,-0.1405939757823944,-0.4764867424964905,-0.8678673505783081,0,0,0,-1,197170.640149375,3,1,1561914455.477686,1561913957.287787,32,0.8918345,0,0,26.32609,0,0,1561914413.669193,197168.80329,0,0.9802246,75.29594,3232235528,177845136,1,1,0.53,-28.13289,-37.76566,0
1561914456.948514,5,0,0,1561914456.000036,4.634729521353389,-74.15099037818065,2552.915,0.73,79.1015625,4,30,-9999,1561914456.944828,-20.78973388671875,1.299423217773438,-14.43841552734375,61.11191558837891,68.60538482666016,15,197172.104489375,-0.03076171875,-0.4608001708984375,-0.841796875,197172.087247375,0.1065163235910272,-0.1481194271919181,0.1909731512407101,197172.085049375,-96.57113647460938,-28.08541870117188,-578.1528930664062,197172.087247375,0.03015701402085846,-0.1638950036877574,0.4971275994555959,0.103798896074295,-0.154759868979454,0.1877368986606598,0.1171062886714935,0.03586274385452271,0.01666772365570068,1,-0.2463549822568893,0.0756341889500618,0.005569736007601023,-0.9662079215049744,-0.1434124410152435,-0.4769027829170227,-0.8671773672103882,0,0,0,-1,197170.640149375,3,1,1561914455.477686,1561913957.287787,32,0.8918345,0,0,26.32609,0,0,1561914413.669193,197168.80329,0,0.9802246,75.29594,3232235528,177845136,1,1,0.53,-28.13289,-38.18075,0
1561914456.969469,6,0,0,1561914456.000036,4.634729521353389,-74.15099037818065,2552.915,0.73,79.1015625,4,30,-9999,1561914456.944828,-20.78973388671875,1.299423217773438,-14.43841552734375,61.11191558837891,68.60538482666016,15,197172.124753375,-0.0542144775390625,-0.47100830078125,-0.8600921630859375,197172.107510375,0.1318626929497474,-0.2560440303673792,0.2420272809180742,197172.105130375,-96.45379638671875,-28.04843139648438,-578.0146484375,197172.107510375,0.03539982185550409,-0.17064377182392,0.4988109153725308,0.1291452646255493,-0.2626844644546509,0.2387910336256027,0.1183632612228394,0.0175815224647522,0.02360057830810547,1,-0.2473530471324921,0.07821603864431381,0.003942001610994339,-0.96575528383255,-0.1491249799728394,-0.4783816933631897,-0.8653974533081055,0,0,0,-1,197170.640149375,3,1,1561914455.477686,1561913957.287787,32,0.8918345,0,0,26.32609,0,0,1561914413.669193,197168.80329,0,0.9802246,75.29594,3232235528,177845136,1,1,0.53,-28.13289,-38.57673,0
1561914456.992623,7,0,0,1561914456.000036,4.634729521353389,-74.15099037818065,2552.915,0.73,79.1015625,4,30,-9999,1561914456.969755,-20.61109161376953,1.494607925415039,-14.582275390625,60.67856597900391,68.17203521728516,15,197172.145016375,-0.0876312255859375,-0.470489501953125,-0.886138916015625,197172.127774375,0.02597247853099777,-0.2355105257306503,0.2750872300580998,197172.125241375,-96.36076354980469,-27.88226318359375,-578.0294799804688,197172.127774375,0.04141159925540405,-0.1786702109505379,0.4993304170526794,0.02325505204498768,-0.2421509772539139,0.271850973367691,0.1018074750900269,0.007829517126083374,0.003835797309875488,1,-0.2478314191102982,0.08133644610643387,0.002056422643363476,-0.9653806090354919,-0.1560219675302505,-0.4788378179073334,-0.863927960395813,0,0,0,-1,197170.640149375,3,1,1561914455.477686,1561913957.287787,32,0.8918345,0,0,26.32609,0,0,1561914413.669193,197168.80329,0,0.9802246,75.29594,3232235528,177845136,1,1,0.53,-28.13289,-39.24677,0
1561914457.009268,8,0,0,1561914456.000036,4.634729521353389,-74.15099037818065,2552.915,0.73,79.1015625,4,30,-9999,1561914456.995521,-20.49660491943359,1.589094161987305,-14.340576171875,60.23166656494141,67.72513580322266,15,197172.165249375,-0.1094512939453125,-0.4620361328125,-0.9116363525390625,197172.148038375,-0.08187063191510693,-0.07756190358746773,0.3008176272460094,197172.145352375,-95.93421936035156,-27.85093688964844,-578.2393798828125,197172.148038375,0.04754059609251321,-0.1847294888012674,0.4974674637416104,-0.08458805829286575,-0.0842023491859436,0.2975813746452332,0.0737861841917038,0.006711989641189575,-0.02229684591293335,1,-0.2471830248832703,0.08354352414608002,-0.0002390649751760066,-0.9653604626655579,-0.1614174097776413,-0.4772014915943146,-0.8638420701026917,0,0,0,-1,197170.640149375,3,1,1561914455.477686,1561913957.287787,32,0.8918345,0,0,26.32609,0,0,1561914413.669193,197169.748801,0,1.112305,75.29468,3232235528,177845136,1,1,0.53,-28.13289,-39.6196,0
1561914457.029534,9,0,0,1561914456.000036,4.634729521353389,-74.15099037818065,2552.915,0.73,79.1015625,4,30,-9999,1561914457.019865,-20.24948883056641,1.953405380249023,-14.56048583984375,59.75397491455078,67.24744415283203,15,197172.185513375,-0.117156982421875,-0.447479248046875,-0.9263153076171875,197172.168301375,-0.1445015228510454,0.09538111444118792,0.3319710193616473,197172.165463375,-96.12361145019531,-27.34712219238281,-578.4129028320312,197172.168301375,0.05393632305415422,-0.1872679292854005,0.4938046775877312,-0.1472189426422119,0.08874066174030304,0.3287347555160522,0.05448272824287415,0.01194334030151367,-0.04649525880813599,1,-0.2456870228052139,0.08406746387481689,-0.00319008412770927,-0.9656916856765747,-0.1639340221881866,-0.4739794731140137,-0.8651410937309265,0,0,0,-1,197170.640149375,3,1,1561914455.477686,1561913957.287787,32,0.8918345,0,0,26.32609,0,0,1561914413.669193,197169.748801,0,1.112305,75.29468,3232235528,177845136,1,1,0.53,-28.13289,-39.6196,0
1561914457.049735,10,0,0,1561914456.000036,4.634729521353389,-74.15099037818065,2552.915,0.73,79.1015625,4,30,-9999,1561914457.019865,-20.24948883056641,1.953405380249023,-14.56048583984375,59.75397491455078,67.24744415283203,15,197172.205777375,-0.1261138916015625,-0.4371490478515625,-0.93408203125,197172.188565375,-0.09522958057516241,0.1327311497812222,0.3349369818676685,197172.185574375,-95.97682189941406,-27.18586730957031,-578.3907470703125,197172.188565375,0.06065208389366949,-0.1876589890466138,0.4899341556096768,-0.09794700890779495,0.1260907053947449,0.3317007124423981,0.04745636880397797,0.02308851480484009,-0.05944252014160156,1,-0.2441026121377945,0.08353161066770554,-0.006574646569788456,-0.9661227464675903,-0.164613351225853,-0.4705677926540375,-0.8668727874755859,0,0,0,-1,197170.640149375,3,1,1561914455.477686,1561913957.287787,32,0.8918345,0,0,26.32609,0,0,1561914413.669193,197169.748801,0,1.112305,75.29468,3232235528,177845136,1,1,0.53,-28.13289,-36.66216,0
1561914457.078746,11,0,0,1561914457.000053,4.634727928791786,-74.15099079727581,2552.887,0.23,80.15625,4,30,-9999,1561914457.067445,-19.99390411376953,2.285804748535156,-14.6588134765625,59.26036071777344,66.75382995605469,15,197172.226040375,-0.14105224609375,-0.4337615966796875,-0.9344329833984375,197172.208829375,0.04497120343151405,0.09399467277769266,0.2975557875428803,197172.205685375,-95.80865478515625,-27.17041015625,-578.16650390625,197172.208829375,0.06748257973194098,-0.1884227590484042,0.4881539834146544,0.042253777384758,0.08735422044992447,0.2943195104598999,0.03931815922260284,0.03184723854064941,-0.06651371717453003,1,-0.2435315996408463,0.08311564475297928,-0.009869256988167763,-0.9662747383117676,-0.1654320508241653,-0.4689962863922119,-0.86756831407547,0,0,0,-1,197170.640149375,3,1,1561914455.477686,1561913957.287787,32,0.8918345,0,0,26.32609,0,0,1561914413.669193,197169.748801,0,1.112305,75.29468,3232235528,177845136,1,1,0.53,-28.13289,-36.82289,0
1561914457.090379,12,0,0,1561914457.000053,4.634727928791786,-74.15099079727581,2552.887,0.23,80.15625,4,30,-9999,1561914457.067445,-19.99390411376953,2.285804748535156,-14.6588134765625,59.26036071777344,66.75382995605469,15,197172.246304375,-0.148773193359375,-0.4364471435546875,-0.924072265625,197172.229062375,0.1704284613274028,0.1229051506232658,0.2401758513282511,197172.225796375,-95.31593322753906,-26.88040161132812,-578.505126953125,197172.229062375,0.0737554284942545,-0.1891919189085061,0.4893694961959828,0.1677110344171524,0.1162647008895874,0.2369395941495895,0.02493970096111298,0.03630787134170532,-0.06755274534225464,1,-0.2443822026252747,0.08268748968839645,-0.01274503022432327,-0.9660629630088806,-0.1659919619560242,-0.4700694680213928,-0.8668802380561829,0,0,0,-1,197170.640149375,3,1,1561914455.477686,1561913957.287787,32,0.8918345,0,0,26.32609,0,0,1561914413.669193,197169.748801,0,1.112305,75.29468,3232235528,177845136,1,1,0.53,-28.13289,-37.24207,0
1561914457.110513,13,0,0,1561914457.000053,4.634727928791786,-74.15099079727581,2552.887,0.23,80.15625,4,30,-9999,1561914457.097219,-19.63847351074219,2.273529052734375,-14.9420166015625,58.38710021972656,65.88056945800781,15,197172.266568375,-0.1499481201171875,-0.4377288818359375,-0.901824951171875,197172.249325375,0.1970025479486495,0.2127855058328951,0.2155155122663353,197172.245877375,-95.24368286132812,-27.31993103027344,-578.4177856445312,197172.249325375,0.07945746679510343,-0.1884658087471685,0.4922315044425745,0.194285124540329,0.2061450481414795,0.2122792601585388,0.01633654534816742,0.03614649176597595,-0.05839681625366211,1,-0.2459908723831177,0.08155211061239243,-0.01544379163533449,-0.9657118320465088,-0.1651097387075424,-0.4725936353206635,-0.8656755089759827,0,0,0,-1,197170.640149375,3,1,1561914455.477686,1561913957.287787,32,0.8918345,0,0,26.32609,0,0,1561914413.669193,197169.748801,0,1.112305,75.29468,3232235528,177845136,1,1,0.53,-28.13289,-37.37497,0
1561914457.130829,14,0,0,1561914457.000053,4.634727928791786,-74.15099079727581,2552.887,0.23,80.15625,4,30,-9999,1561914457.121,-19.31144714355469,2.193471908569336,-15.21539306640625,58.02281951904297,65.51628875732422,15,197172.286832375,-0.1413116455078125,-0.4418487548828125,-0.8735809326171875,197172.269589375,0.1685019305948395,0.3016192387341232,0.1919673092756367,197172.265988375,-95.23678588867188,-27.41905212402344,-578.784423828125,197172.269589375,0.08474679630619031,-0.1857223993433156,0.4949230420180323,0.1657845079898834,0.2949787974357605,0.1887310594320297,0.01255062222480774,0.03723505139350891,-0.03695303201675415,1,-0.2474776953458786,0.07949107885360718,-0.01820065453648567,-0.9654557108879089,-0.1624987423419952,-0.4749639332294464,-0.8648719191551208,0,0,0,-1,197170.640149375,3,1,1561914455.477686,1561913957.287787,32,0.8918345,0,0,26.32609,0,0,1561914413.669193,197169.748801,0,1.112305,75.29468,3232235528,177845136,1,1,0.53,-28.13289,-37.61551,0
1561914457.151972,15,0,0,1561914457.000053,4.634727928791786,-74.15099079727581,2552.887,0.23,80.15625,4,30,-9999,1561914457.148163,-19.01442718505859,2.061853408813477,-15.32861328125,57.76719665527344,65.26066589355469,15,197172.307095375,-0.120269775390625,-0.44110107421875,-0.8428802490234375,197172.289853375,0.1620187312371506,0.330416265917259,0.133832633208079,197172.286099375,-94.95040893554688,-27.0340576171875,-578.8427734375,197172.289853375,0.08902144335334755,-0.1812528074956928,0.4974602310766056,0.1593013107776642,0.3237758278846741,0.1305963844060898,0.01710212230682373,0.0353463888168335,-0.009179472923278809,1,-0.2488233745098114,0.07672160118818283,-0.02069250121712685,-0.9652836322784424,-0.1584137678146362,-0.477195143699646,-0.8644014596939087,0,0,0,-1,197170.640149375,3,1,1561914455.477686,1561913957.287787,32,0.8918345,0,0,26.32609,0,0,1561914413.669193,197169.748801,0,1.112305,75.29468,3232235528,177845136,1,1,0.53,-28.13289,-34.68629,0
1561914457.171316,16,0,0,1561914457.000053,4.634727928791786,-74.15099079727581,2552.887,0.23,80.15625,4,30,-9999,1561914457.148163,-19.01442718505859,2.061853408813477,-15.32861328125,57.76719665527344,65.26066589355469,15,197172.327359375,-0.098175048828125,-0.4437713623046875,-0.8163909912109375,197172.310116375,0.1390902458321134,0.2827344971282623,0.08349223070285618,197172.306210375,-94.82066345214844,-27.43576049804688,-578.804931640625,197172.310116375,0.09195527743502574,-0.1764361389495459,0.499880280909335,0.1363728195428848,0.2760940492153168,0.08025597035884857,0.03377547860145569,0.0382193922996521,0.02113473415374756,1,-0.2500472962856293,0.07395168393850327,-0.02259105257689953,-0.9651409387588501,-0.1540452539920807,-0.4793204665184021,-0.8640149831771851,0,0,0,-1,197170.640149375,3,1,1561914455.477686,1561913957.287787,32,0.8918345,0,0,26.32609,0,0,1561914413.669193,197169.748801,0,1.112305,75.29468,3232235528,177845136,1,1,0.53,-28.13289,-34.68629,0
1561914457.191618,17,0,0,1561914457.000053,4.634727928791786,-74.15099079727581,2552.887,0.23,80.15625,4,30,-9999,1561914457.173648,-18.87442779541016,2.058345794677734,-15.31048583984375,57.61428833007812,65.10775756835938,15,197172.347592375,-0.0788726806640625,-0.44970703125,-0.800750732421875,197172.330380375,0.08970352131324799,0.2020172802812687,0.06088492252528253,197172.326321375,-94.60086059570312,-27.30836486816406,-578.7189331054688,197172.330380375,0.09389418369477237,-0.1726207362416459,0.501802888175234,0.08698609471321106,0.1953768283128738,0.0576486699283123,0.05241397023200989,0.0372355580329895,0.04729604721069336,1,-0.250999391078949,0.07180389016866684,-0.02391247823834419,-0.9650241732597351,-0.1505890190601349,-0.4810069501399994,-0.8636870384216309,0,0,0,-1,197170.640149375,3,1,1561914455.477686,1561913957.287787,32,0.8918345,0,0,26.32609,0,0,1561914413.669193,197169.748801,0,1.112305,75.29468,3232235528,177845136,1,1,0.53,-28.13289,-35.08434,0
1561914457.211847,18,0,0,1561914457.000053,4.634727928791786,-74.15099079727581,2552.887,0.23,80.15625,4,30,-9999,1561914457.198355,-18.73828125,2.108877182006836,-15.26171875,57.49620056152344,64.98966979980469,15,197172.367856375,-0.0628204345703125,-0.4527435302734375,-0.798431396484375,197172.350644375,-0.001220793043692323,0.1585172070359144,0.07951240276984177,197172.346432375,-94.71992492675781,-27.51631164550781,-579.1442260742188,197172.350644375,0.09552461620502495,-0.1699946330226385,0.5023039606444305,-0.003938218578696251,0.151876762509346,0.07627614587545395,0.0694068968296051,0.03173914551734924,0.06309109926223755,1,-0.2512664794921875,0.07031526416540146,-0.02500526420772076,-0.9650365710258484,-0.1482795774936676,-0.4814461767673492,-0.8638418316841125,0,0,0,-1,197170.640149375,3,1,1561914455.477686,1561913957.287787,32,0.8918345,0,0,26.32609,0,0,1561914413.669193,197169.748801,0,1.112305,75.29468,3232235528,177845136,1,1,0.53,-28.13289,-35.30313,0
1561914457.232135,19,0,0,1561914457.000053,4.634727928791786,-74.15099079727581,2552.887,0.23,80.15625,4,30,-9999,1561914457.222372,-18.38327026367188,2.045244216918945,-15.52239990234375,57.33436584472656,64.82783508300781,15,197172.388128875,-0.050994873046875,-0.4565582275390625,-0.807464599609375,197172.370916875,-0.1556820057394161,0.1902956430593939,0.1356345280016266,197172.366552875,-93.88375854492188,-27.42361450195312,-579.048828125,197172.370916875,0.09754904753657935,-0.1676413565809493,0.5002920985317794,-0.1583994179964066,0.1836551874876022,0.1323982775211334,0.08358718454837799,0.02693831920623779,0.06671029329299927,1,-0.2503378689289093,0.06899358332157135,-0.02637140452861786,-0.9653369188308716,-0.1464076340198517,-0.4796818494796753,-0.8651416897773743,0,0,0,-1,197170.640149375,3,1,1561914455.477686,1561913957.287787,32,0.8918345,0,0,26.32609,0,0,1561914413.669193,197169.748801,0,1.112305,75.29468,3232235528,177845136,1,1,0.53,-28.13289,-33.34873,0
1561914457.252333,20,0,0,1561914457.000053,4.634727928791786,-74.15099079727581,2552.887,0.23,80.15625,4,30,-9999,1561914457.248787,-18.10047149658203,2.143404006958008,-15.68359375,57.04708862304688,64.54055786132812,15,197172.408392875,-0.0407562255859375,-0.4511871337890625,-0.824859619140625,197172.391180875,-0.3090417350082831,0.2677156001607605,0.2288638082820305,197172.386633875,-93.89906311035156,-27.34684753417969,-579.12841796875,197172.391180875,0.1006563526501758,-0.1646142488669144,0.4949562734530221,-0.3117591738700867,0.2610751688480377,0.2256275564432144,0.09321059286594391,0.01843494176864624,0.06062889099121094,1,-0.2478312700986862,0.06732704490423203,-0.02849545516073704,-0.9660407304763794,-0.1442054659128189,-0.4749931693077087,-0.8680934906005859,0,0,0,-1,197170.640149375,3,1,1561914455.477686,1561913957.287787,32,0.8918345,0,0,26.32609,0,0,1561914413.669193,197169.748801,0,1.112305,75.29468,3232235528,177845136,1,1,0.53,-28.13289,-30.91465,0
1561914457.272619,21,0,0,1561914457.000053,4.634727928791786,-74.15099079727581,2552.887,0.23,80.15625,4,30,-9999,1561914457.248787,-18.10047149658203,2.143404006958008,-15.68359375,57.04708862304688,64.54055786132812,15,197172.428656875,-0.0322265625,-0.443878173828125,-0.8505096435546875,197172.411413875,-0.4305106428556691,0.3078664820192311,0.3461086763244419,197172.406744875,-93.78497314453125,-26.81407165527344,-579.0814819335938,197172.411413875,0.1056329317449568,-0.1610472055456141,0.4864658457755809,-0.433228075504303,0.3012260496616364,0.3428724110126495,0.1009933948516846,0.01631751656532288,0.04769206047058105,1,-0.2438478916883469,0.06528675556182861,-0.03172645717859268,-0.9670932292938232,-0.1417496204376221,-0.4675046503543854,-0.8725516796112061,0,0,0,-1,197170.640149375,3,1,1561914455.477686,1561913957.287787,32,0.8918345,0,0,26.32609,0,0,1561914413.669193,197169.748801,0,1.112305,75.29468,3232235528,177845136,1,1,0.53,-28.13289,-31.43698,0
1561914457.292865,22,0,0,1561914457.000053,4.634727928791786,-74.15099079727581,2552.887,0.23,80.15625,4,30,-9999,1561914457.272922,-17.77469635009766,2.395856857299805,-15.5418701171875,56.56418609619141,64.05765533447266,15,197172.448919875,-0.0273590087890625,-0.436309814453125,-0.881378173828125,197172.431677875,-0.451444686920346,0.2686538318127954,0.4501413358828613,197172.426855875,-93.3701171875,-26.96963500976562,-579.1956787109375,197172.431677875,0.1128770965760978,-0.1585298038946074,0.4761813738121574,-0.4541621208190918,0.2620134055614471,0.4469050765037537,0.1080776751041412,0.01451054215431213,0.02709758281707764,1,-0.2390732914209366,0.06356362998485565,-0.03600005805492401,-0.9682497382164001,-0.1403042376041412,-0.4583887159824371,-0.8776072263717651,0,0,0,-1,197170.640149375,3,1,1561914455.477686,1561913957.287787,32,0.8918345,0,0,26.32609,0,0,1561914413.669193,197169.748801,0,1.112305,75.29468,3232235528,177845136,1,1,0.53,-28.13289,-31.69294,0
1561914457.317417,23,0,0,1561914457.000053,4.634727928791786,-74.15099079727581,2552.887,0.23,80.15625,4,30,-9999,1561914457.299558,-17.68611907958984,2.408931732177734,-15.5748291015625,55.85625076293945,63.3497200012207,15,197172.469183875,-0.0333251953125,-0.4329986572265625,-0.91363525390625,197172.451941875,-0.3771105345740544,0.1891411627268446,0.5683918135528866,197172.446966875,-92.91688537597656,-26.8233642578125,-578.8541870117188,197172.451941875,0.1226807539359988,-0.1583994206048601,0.4662048067581023,-0.3798279762268066,0.1825007051229477,0.565155565738678,0.1135451793670654,0.01318952441215515,0.0007195472717285156,1,-0.2345587909221649,0.06271622329950333,-0.04121559485793114,-0.9692007899284363,-0.1409041881561279,-0.4494993686676025,-0.8820977210998535,0,0,0,-1,197170.640149375,3,1,1561914455.477686,1561913957.287787,32,0.8918345,0,0,26.32609,0,0,1561914413.669193,197169.748801,0,1.112305,75.29468,3232235528,177845136,1,1,0.53,-28.13289,-29.61421,0
1561914457.333618,24,0,0,1561914457.000053,4.634727928791786,-74.15099079727581,2552.887,0.23,80.15625,4,30,-9999,1561914457.324459,-16.96430206298828,2.940513610839844,-15.09979248046875,54.87668991088867,62.37015914916992,15,197172.489447875,-0.04705810546875,-0.4316864013671875,-0.943206787109375,197172.472204875,-0.3099085939431038,0.1675655631555676,0.7009011220153052,197172.467077875,-93.06341552734375,-26.58445739746094,-578.892333984375,197172.472204875,0.1355117624619336,-0.1607510278398605,0.4573043025189907,-0.3126260340213776,0.1609251201152802,0.6976648569107056,0.1102876365184784,0.008532345294952393,-0.02795714139938354,1,-0.2307092100381851,0.06272327899932861,-0.04757207259535789,-0.9698328971862793,-0.1436128318309784,-0.4415310025215149,-0.8856781125068665,0,0,0,-1,197170.640149375,3,1,1561914455.477686,1561913957.287787,32,0.8918345,0,0,26.32609,0,0,1561914413.669193,197169.748801,0,1.112305,75.29468,3232235528,177845136,1,1,0.53,-28.13289,-29.61421,0
1561914457.353645,25,0,0,1561914457.000053,4.634727928791786,-74.15099079727581,2552.887,0.23,80.15625,4,30,-9999,1561914457.349981,-16.79573822021484,2.824178695678711,-15.0628662109375,53.63345336914062,61.12692260742188,15,197172.509710875,-0.0587310791015625,-0.428314208984375,-0.9683074951171875,197172.492468875,-0.2461447942794457,0.1947071694051102,0.8290998379373216,197172.487188875,-92.75518798828125,-26.34828186035156,-578.880126953125,197172.492468875,0.1513677447253652,-0.1640756803559066,0.44927369417089,-0.2488622069358826,0.1880667209625244,0.8258635997772217,0.1000729352235794,0.002625018358230591,-0.05454146862030029,1,-0.2274080663919449,0.06287225335836411,-0.05526261776685715,-0.9701951146125793,-0.1471310406923294,-0.4343114197254181,-0.8886653184890747,0,0,0,-1,197170.640149375,3,1,1561914455.477686,1561913957.287787,32,0.8918345,0,0,26.32609,0,0,1561914413.669193,197169.748801,0,1.112305,75.29468,3232235528,177845136,1,1,0.53,-28.13289,-30.02343,0
1561914457.374185,26,0,0,1561914457.000053,4.634727928791786,-74.15099079727581,2552.887,0.23,80.15625,4,30,-9999,1561914457.349981,-16.79573822021484,2.824178695678711,-15.0628662109375,53.63345336914062,61.12692260742188,15,197172.529944875,-0.066619873046875,-0.4275970458984375,-0.9830322265625,197172.512732875,-0.1738333127810691,0.2424382066742734,0.9393658923431804,197172.507269875,-92.47245788574219,-26.4124755859375,-578.515869140625,197172.512732875,0.1700184913920818,-0.1676275042528651,0.4420692171352862,-0.1765507310628891,0.2357977628707886,0.936129629611969,0.09207355976104736,-0.0005035400390625,-0.07710832357406616,1,-0.2246157675981522,0.06283442676067352,-0.06426293402910233,-0.9702937006950378,-0.1508046388626099,-0.4278106689453125,-0.8911991715431213,0,0,0,-1,197170.640149375,3,1,1561914455.477686,1561913957.287787,32,0.8918345,0,0,26.32609,0,0,1561914413.669193,197169.748801,0,1.112305,75.29468,3232235528,177845136,1,1,0.53,-28.69017,-30.68453,0
1561914457.396834,27,0,0,1561914457.000053,4.634727928791786,-74.15099079727581,2552.887,0.23,80.15625,4,30,-9999,1561914457.374407,-16.56707000732422,2.880508422851562,-14.829833984375,52.16611099243164,59.65958023071289,15,197172.550207875,-0.072998046875,-0.424407958984375,-0.988037109375,197172.532995875,-0.07283878739421221,0.2588848243021667,1.019769921445981,197172.527380875,-92.29179382324219,-26.13092041015625,-578.421142578125,197172.532995875,0.1909735958247589,-0.1712919799226196,0.4362234100195001,-0.07555621117353439,0.2522443830966949,1.016533613204956,0.087873175740242,-0.005077481269836426,-0.0899425745010376,1,-0.2225736230611801,0.06257916986942291,-0.07431605458259583,-0.9700629115104675,-0.154493048787117,-0.4225195646286011,-0.8930896520614624,0,0,0,-1,197170.640149375,3,1,1561914455.477686,1561913957.287787,32,0.8918345,0,0,26.32609,0,0,1561914413.669193,197169.748801,0,1.112305,75.29468,3232235528,177845136,1,1,0.53,-27.11398,-31.21553,0
1561914457.414658,28,0,0,1561914457.000053,4.634727928791786,-74.15099079727581,2552.887,0.23,80.15625,4,30,-9999,1561914457.40083,-16.5294189453125,3.245645523071289,-14.662353515625,50.52123641967773,58.01470565795898,15,197172.570471875,-0.0817108154296875,-0.4232025146484375,-0.9901123046875,197172.553259875,0.03662352499466068,0.2593940207025899,1.085115372481037,197172.547491875,-92.46943664550781,-26.3714599609375,-578.2437133789062,197172.553259875,0.2139164720425389,-0.1756350434871582,0.4321892181245766,0.03390610218048096,0.2527535855770111,1.081879019737244,0.08566883206367493,-0.005548238754272461,-0.09395581483840942,1,-0.2215149700641632,0.06237361580133438,-0.08517185598611832,-0.9694258570671082,-0.1586668789386749,-0.4188597202301025,-0.8940812945365906,0,0,0,-1,197170.640149375,3,1,1561914455.477686,1561913957.287787,32,0.8918345,0,0,26.32609,0,0,1561914413.669193,197169.748801,0,1.112305,75.29468,3232235528,177845136,1,1,0.53,-27.11398,-31.60266,0
1561914457.434858,29,0,0,1561914457.000053,4.634727928791786,-74.15099079727581,2552.887,0.23,80.15625,4,30,-9999,1561914457.425141,-16.27597808837891,3.489429473876953,-14.19232177734375,48.73614501953125,56.2296142578125,15,197172.590735875,-0.0834503173828125,-0.420379638671875,-0.9788665771484375,197172.573523875,0.1447678389600534,0.302621652568429,1.130180052866813,197172.567602875,-92.11953735351562,-26.06463623046875,-577.7037963867188,197172.573523875,0.2384703362239075,-0.1802778682189393,0.4299740825683651,0.1420504152774811,0.295981228351593,1.126943707466125,0.08127135038375854,-0.006355255842208862,-0.09586673974990845,1,-0.221421405673027,0.06204648688435555,-0.09667525440454483,-0.9683886766433716,-0.162982165813446,-0.4168472588062286,-0.8942455649375916,0,0,0,-1,197170.640149375,3,1,1561914455.477686,1561913957.287787,32,0.8918345,0,0,26.32609,0,0,1561914413.669193,197169.748801,0,1.112305,75.29468,3232235528,177845136,1,1,0.53,-27.11398,-32.23606,0
1561914457.457251,30,0,0,1561914457.000053,4.634727928791786,-74.15099079727581,2552.887,0.23,80.15625,4,30,-9999,1561914457.451605,-16.24647521972656,3.508270263671875,-13.97662353515625,46.84873199462891,54.34220123291016,15,197172.610998875,-0.076263427734375,-0.4188232421875,-0.965179443359375,197172.593756875,0.2387310864368831,0.3307638084395144,1.165361742447305,197172.587683875,-92.07075500488281,-25.90155029296875,-577.7686157226562,197172.593756875,0.2642270020362489,-0.184505999816576,0.429572093628404,0.2360136657953262,0.3241233825683594,1.162125468254089,0.08334210515022278,-0.003897815942764282,-0.08515346050262451,1,-0.2222389876842499,0.06126385554671288,-0.1086916849017143,-0.9669760465621948,-0.1667924225330353,-0.4164818227291107,-0.893713116645813,0,0,0,-1,197170.640149375,3,1,1561914455.477686,1561913957.287787,32,0.8918345,0,0,26.32609,0,0,1561914413.669193,197169.748801,0,1.112305,75.29468,3232235528,177845136,1,1,0.53,-27.11398,-32.83094,0
1561914457.484907,31,0,0,1561914457.000053,4.634727928791786,-74.15099079727581,2552.887,0.23,80.15625,4,30,-9999,1561914457.475715,-16.41302490234375,3.645103454589844,-13.8028564453125,44.90263366699219,52.39610290527344,15,197172.631262875,-0.074310302734375,-0.4133758544921875,-0.9594879150390625,197172.614019875,0.3002586297332017,0.3006149606870543,1.182631543168141,197172.607794875,-91.93814086914062,-25.67951965332031,-577.3836059570312,197172.614019875,0.2909758796151192,-0.1892526966648204,0.4304440950918441,0.2975412011146545,0.2939745187759399,1.179395198822021,0.09470090270042419,-0.001548826694488525,-0.07262510061264038,1,-0.2237447649240494,0.06050711870193481,-0.1210314035415649,-0.9652090668678284,-0.1709643304347992,-0.4172744154930115,-0.8925543427467346,0,0,0,-1,197170.640149375,3,1,1561914455.477686,1561913957.287787,32,0.8918345,0,0,26.32609,0,0,1561914413.669193,197169.748801,0,1.112305,75.29468,3232235528,177845136,1,1,0.53,-27.11398,-33.63786,0
1561914457.495593,32,0,0,1561914457.000053,4.634727928791786,-74.15099079727581,2552.887,0.23,80.15625,4,30,-9999,1561914457.475715,-16.41302490234375,3.645103454589844,-13.8028564453125,44.90263366699219,52.39610290527344,15,197172.651526875,-0.0810394287109375,-0.4034271240234375,-0.96270751953125,197172.634283875,0.3607267675478869,0.2589745728309024,1.186040389363443,197172.627905875,-92.22865295410156,-25.37832641601562,-577.3115234375,197172.634283875,0.3182365906288775,-0.1951244959059731,0.4324145428840943,0.3580093383789062,0.2523341476917267,1.182804107666016,0.1017321795225143,0.005688458681106567,-0.06876116991043091,1,-0.2258840948343277,0.06010822579264641,-0.1333902478218079,-0.9631046056747437,-0.1760424822568893,-0.4190643131732941,-0.8907267451286316,0,0,0,-1,197170.640149375,3,1,1561914455.477686,1561913957.287787,32,0.8918345,0,0,26.32609,0,0,1561914413.669193,197169.748801,0,1.112305,75.29468,3232235528,177845136,1,1,0.53,-27.11398,-33.63786,0
1561914457.515888,33,0,0,1561914457.000053,4.634727928791786,-74.15099079727581,2552.887,0.23,80.15625,4,30,-9999,1561914457.502604,-16.57670593261719,4.029783248901367,-13.2525634765625,42.92844772338867,50.42191696166992,15,197172.671789875,-0.0932464599609375,-0.38824462890625,-0.969818115234375,197172.654547875,0.4164398312362355,0.2626316256397992,1.179096729453279,197172.648016875,-92.33584594726562,-25.47747802734375,-577.0266723632812,197172.654547875,0.3457984438647506,-0.2016322871331844,0.4353439535478461,0.4137223958969116,0.2559911906719208,1.175860404968262,0.1005493104457855,0.01829516887664795,-0.07435184717178345,1,-0.2285633981227875,0.05984089151024818,-0.1457154601812363,-0.9607001543045044,-0.1815887540578842,-0.4217222929000854,-0.8883556723594666,0,0,0,-1,197170.640149375,3,1,1561914455.477686,1561913957.287787,32,0.8918345,0,0,26.32609,0,0,1561914413.669193,197169.748801,0,1.112305,75.29468,3232235528,177845136,1,1,0.53,-27.11398,-34.29491,0
1561914457.537727,34,0,0,1561914457.000053,4.634727928791786,-74.15099079727581,2552.887,0.23,80.15625,4,30,-9999,1561914457.526392,-16.58146667480469,4.103281021118164,-13.09686279296875,40.93348693847656,48.42695617675781,15,197172.692053875,-0.094818115234375,-0.3746795654296875,-0.9712677001953125,197172.674810875,0.4955213345417024,0.3010996560054487,1.174008227558465,197172.668097875,-92.49755859375,-25.40029907226562,-576.8004150390625,197172.674810875,0.3735068649320566,-0.2077465018619681,0.439454322927964,0.4928039014339447,0.2944592237472534,1.170771956443787,0.09341135621070862,0.03720107674598694,-0.0842929482460022,1,-0.2318076491355896,0.05918300896883011,-0.1580220907926559,-0.9580144286155701,-0.1866578161716461,-0.4254457056522369,-0.8855251669883728,0,0,0,-1,197170.640149375,3,1,1561914455.477686,1561913957.287787,32,0.8918345,0,0,26.32609,0,0,1561914413.669193,197169.748801,0,1.112305,75.29468,3232235528,177845136,1,1,0.53,-27.11398,-34.99759,0
1561914457.567265,35,0,0,1561914457.000053,4.634727928791786,-74.15099079727581,2552.887,0.23,80.15625,4,30,-9999,1561914457.552945,-16.79026794433594,4.373321533203125,-13.04071044921875,38.86860275268555,46.3620719909668,15,197172.712286875,-0.0971221923828125,-0.3670196533203125,-0.9666290283203125,197172.695074875,0.5898536961456172,0.3172788922598981,1.190897728875638,197172.688208875,-92.46832275390625,-24.9796142578125,-576.78515625,197172.695074875,0.4018921366762129,-0.2137388742671266,0.4451589415518666,0.5871362686157227,0.3106384575366974,1.187661409378052,0.09662479162216187,0.0559217631816864,-0.08926308155059814,1,-0.2358353137969971,0.05813265219330788,-0.1704896837472916,-0.9549531936645508,-0.1914429068565369,-0.4306013286113739,-0.8820046186447144,0,0,0,-1,197170.640149375,3,1,1561914455.477686,1561913957.287787,32,0.8918345,0,0,26.32609,0,0,1561914413.669193,197169.748801,0,1.112305,75.29468,3232235528,177845136,1,1,0.53,-27.11398,-35.78608,0
1561914457.577201,36,0,0,1561914457.000053,4.634727928791786,-74.15099079727581,2552.887,0.23,80.15625,4,30,-9999,1561914457.552945,-16.79026794433594,4.373321533203125,-13.04071044921875,38.86860275268555,46.3620719909668,15,197172.732550875,-0.1043548583984375,-0.3633575439453125,-0.9581146240234375,197172.715338875,0.6507359555098097,0.3377348989089058,1.194970767446806,197172.708319875,-92.93917846679688,-24.97901916503906,-576.2911376953125,197172.715338875,0.4310597004070781,-0.2199298949144667,0.4522668151352242,0.6480185389518738,0.3310944736003876,1.191734433174133,0.09910482168197632,0.06998589634895325,-0.08883571624755859,1,-0.2405733913183212,0.05681370571255684,-0.183124914765358,-0.9515050053596497,-0.1962270140647888,-0.4370055496692657,-0.8777933120727539,0,0,0,-1,197170.640149375,3,1,1561914455.477686,1561913957.287787,32,0.8918345,0,0,26.32609,0,0,1561914413.669193,197169.748801,0,1.112305,75.29468,3232235528,177845136,1,1,0.53,-27.11398,-35.78608,0
1561914457.597433,37,0,0,1561914457.000053,4.634727928791786,-74.15099079727581,2552.887,0.23,80.15625,4,30,-9999,1561914457.577435,-17.01889801025391,4.593387603759766,-12.90179443359375,36.76511001586914,44.25857925415039,15,197172.752813875,-0.1117095947265625,-0.360015869140625,-0.946319580078125,197172.735602875,0.666344210026546,0.3845777719545275,1.185171666215859,197172.728430875,-92.72970581054688,-24.81500244140625,-576.51025390625,197172.735602875,0.4604866421390185,-0.2257693474831133,0.4599715471370949,0.6636267900466919,0.3779373466968536,1.18193531036377,0.09623491764068604,0.08056506514549255,-0.08478963375091553,1,-0.2455656230449677,0.05509128421545029,-0.1957898437976837,-0.9478021264076233,-0.2005897760391235,-0.4439226090908051,-0.8733249306678772,0,0,0,-1,197170.640149375,3,1,1561914455.477686,1561913957.287787,32,0.8918345,0,0,26.32609,0,0,1561914413.669193,197169.748801,0,1.112305,75.29468,3232235528,177845136,1,1,0.53,-27.11398,-35.95256,0
1561914457.618672,38,0,0,1561914457.000053,4.634727928791786,-74.15099079727581,2552.887,0.23,80.15625,4,30,-9999,1561914457.603427,-17.40643310546875,5.221406936645508,-12.97247314453125,34.66458511352539,42.15805435180664,15,197172.773077875,-0.112274169921875,-0.3553466796875,-0.92822265625,197172.755865875,0.6534606356210697,0.4540340784482301,1.171202054717848,197172.748510875,-93.18034362792969,-24.27369689941406,-576.6725463867188,197172.755865875,0.4897976729070053,-0.2305667107059495,0.4675862270928047,0.6507431864738464,0.4473936259746552,1.167965769767761,0.09228909015655518,0.09071704745292664,-0.07728314399719238,1,-0.2503954172134399,0.0527627095580101,-0.2084430903196335,-0.9439648985862732,-0.2039986848831177,-0.4507329165935516,-0.8690364360809326,0,0,0,-1,197170.640149375,3,1,1561914455.477686,1561913957.287787,32,0.8918345,0,0,26.32609,0,0,1561914413.669193,197169.748801,0,1.112305,75.29468,3232235528,177845136,1,1,0.53,-27.11398,-36.23067,0
1561914457.652922,39,0,0,1561914457.000053,4.634727928791786,-74.15099079727581,2552.887,0.23,80.15625,4,30,-9999,1561914457.628615,-17.57154083251953,5.505525588989258,-13.06451416015625,32.5789794921875,40.07244873046875,15,197172.793341875,-0.109405517578125,-0.3428192138671875,-0.907012939453125,197172.776098875,0.6370057621937971,0.5020218444464769,1.164195810522068,197172.768622875,-93.29624938964844,-23.9595947265625,-576.6766967773438,197172.776098875,0.5189024886114763,-0.2341650534194428,0.4748337532140313,0.6342883110046387,0.4953814148902893,1.160959482192993,0.09408685564994812,0.101843923330307,-0.06312620639801025,1,-0.2548930644989014,0.04981271550059319,-0.2210919409990311,-0.940035343170166,-0.2063610255718231,-0.457190603017807,-0.8650964498519897,0,0,0,-1,197170.640149375,3,1,1561914455.477686,1561913957.287787,32,0.8918345,0,0,26.32609,0,0,1561914413.669193,197169.748801,0,1.112305,75.29468,3232235528,177845136,1,1,0.53,-27.11398,-36.95464,0
1561914457.657647,40,0,0,1561914457.000053,4.634727928791786,-74.15099079727581,2552.887,0.23,80.15625,4,30,-9999,1561914457.654277,-17.61648559570312,6.011077880859375,-13.29962158203125,30.49273872375488,37.9862060546875,15,197172.813604875,-0.10833740234375,-0.33721923828125,-0.8816070556640625,197172.796362875,0.6293883225278435,0.5428832576837807,1.16173078861709,197172.788733875,-93.47087097167969,-23.35302734375,-576.7476806640625,197172.796362875,0.547974239002291,-0.2370717546594529,0.4817664850085152,0.6266708970069885,0.5362428426742554,1.158494472503662,0.09871980547904968,0.1205261051654816,-0.04562163352966309,1,-0.2591241002082825,0.04646554216742516,-0.2337566018104553,-0.9359773397445679,-0.2081253230571747,-0.4633453190326691,-0.8613913059234619,0,0,0,-1,197170.640149375,3,1,1561914455.477686,1561913957.287787,32,0.8918345,0,0,26.32609,0,0,1561914413.669193,197169.748801,0,1.112305,75.29468,3232235528,177845136,1,1,0.53,-27.11398,-36.95464,0
1561914457.677925,41,0,0,1561914457.000053,4.634727928791786,-74.15099079727581,2552.887,0.23,80.15625,4,30,-9999,1561914457.654277,-17.61648559570312,6.011077880859375,-13.29962158203125,30.49273872375488,37.9862060546875,15,197172.833868875,-0.0995330810546875,-0.337310791015625,-0.8486328125,197172.816626875,0.633070409050987,0.5699300553985164,1.169085640599562,197172.808844875,-93.55244445800781,-23.02449035644531,-576.9188232421875,197172.816626875,0.5772071723651833,-0.2395701050434643,0.4885416545991502,0.6303529739379883,0.5632896423339844,1.165849328041077,0.1011896133422852,0.1321193873882294,-0.02380770444869995,1,-0.2631865441799164,0.04281557723879814,-0.2464804798364639,-0.9317441582679749,-0.2095270156860352,-0.4693386554718018,-0.8577993512153625,0,0,0,-1,197170.640149375,3,1,1561914455.477686,1561913957.287787,32,0.8918345,0,0,26.32609,0,0,1561914413.669193,197169.748801,0,1.112305,75.29468,3232235528,177845136,1,1,0.53,-27.11398,-37.3328,0
1561914457.712106,42,0,0,1561914457.000053,4.634727928791786,-74.15099079727581,2552.887,0.23,80.15625,4,30,-9999,1561914457.705374,-17.81501770019531,7.445625305175781,-13.900634765625,26.19314384460449,33.68661117553711,15,197172.854132875,-0.0858306884765625,-0.34393310546875,-0.819549560546875,197172.836889875,0.6713102065112168,0.5476721539559611,1.182455508220087,197172.828924875,-93.53736877441406,-22.55158996582031,-577.0535278320312,197172.836889875,0.6069453754826843,-0.2422791209123886,0.4956200149893938,0.6685927510261536,0.5410317182540894,1.179219245910645,0.1115146279335022,0.1382663547992706,0.005349159240722656,1,-0.267367035150528,0.03903687000274658,-0.2592978179454803,-0.9272300601005554,-0.2110476940870285,-0.4755771458148956,-0.8539819717407227,0,0,0,-1,197170.640149375,3,1,1561914455.477686,1561913957.287787,32,0.8918345,0,0,26.32609,0,0,1561914413.669193,197169.748801,0,1.112305,75.29468,3232235528,177845136,1,1,0.53,-27.11398,-37.41716,0
1561914457.718359,43,0,0,1561914457.000053,4.634727928791786,-74.15099079727581,2552.887,0.23,80.15625,4,30,-9999,1561914457.705374,-17.81501770019531,7.445625305175781,-13.900634765625,26.19314384460449,33.68661117553711,15,197172.874395875,-0.069305419921875,-0.3642578125,-0.795867919921875,197172.857153875,0.6885421903445745,0.5126486561442201,1.200945569352398,197172.849035875,-93.46560668945312,-22.07443237304688,-577.3229370117188,197172.857153875,0.6373666291858983,-0.2463107316699503,0.5032211393241811,0.6858247518539429,0.5060082077980042,1.197709321975708,0.1277706027030945,0.1383167803287506,0.03004419803619385,1,-0.2719149589538574,0.03557191044092178,-0.2721087038516998,-0.9223632216453552,-0.213601291179657,-0.4822498559951782,-0.8495938181877136,0,0,0,-1,197170.640149375,3,1,1561914455.477686,1561913957.287787,32,0.8918345,0,0,26.32609,0,0,1561914413.669193,197169.748801,0,1.112305,75.29468,3232235528,177845136,1,1,0.53,-27.11398,-37.41716,0
1561914457.738594,44,0,0,1561914457.000053,4.634727928791786,-74.15099079727581,2552.887,0.23,80.15625,4,30,-9999,1561914457.728832,-17.68987274169922,7.663969039916992,-14.51556396484375,23.98135566711426,31.47482299804688,15,197172.894629875,-0.0623626708984375,-0.3769378662109375,-0.7855987548828125,197172.877417875,0.6194057294977905,0.5141203189625978,1.222853265111608,197172.869146875,-93.62496948242188,-21.77017211914062,-577.782470703125,197172.877417875,0.6682634099080158,-0.2511359037667645,0.5102060257117627,0.6166883111000061,0.5074799060821533,1.219617009162903,0.1475504040718079,0.1240992248058319,0.04940181970596313,1,-0.2762549221515656,0.03237832337617874,-0.2849817872047424,-0.9172895550727844,-0.2168558388948441,-0.4883570373058319,-0.8452697396278381,0,0,0,-1,197170.640149375,3,1,1561914455.477686,1561913957.287787,32,0.8918345,0,0,26.32609,0,0,1561914413.669193,197169.748801,0,1.112305,75.29468,3232235528,177845136,1,1,0.53,-27.11398,-38.14056,0
1561914457.758715,45,0,0,1561914457.000053,4.634727928791786,-74.15099079727581,2552.887,0.23,80.15625,4,30,-9999,1561914457.755121,-17.62541198730469,8.348592758178711,-14.902099609375,21.79940032958984,29.29286766052246,15,197172.914892875,-0.057769775390625,-0.3916473388671875,-0.79119873046875,197172.897680875,0.4078820293893749,0.6014421753129879,1.250919787207735,197172.889227875,-93.40408325195312,-21.10369873046875,-578.2464599609375,197172.897680875,0.6990730324352209,-0.255200891001101,0.514142625869844,0.4051645994186401,0.5948017239570618,1.247683525085449,0.1574403643608093,0.114850640296936,0.0569157600402832,1,-0.2790808975696564,0.02926778979599476,-0.2981180250644684,-0.9123501777648926,-0.2198030352592468,-0.4917885065078735,-0.8425145149230957,0,0,0,-1,197170.640149375,3,1,1561914455.477686,1561913957.287787,32,0.8918345,0,0,26.32609,0,0,1561914413.669193,197169.748801,0,1.112305,75.29468,3232235528,177845136,1,1,0.53,-27.11398,-38.77831,0
1561914457.796885,46,0,0,1561914457.000053,4.634727928791786,-74.15099079727581,2552.887,0.23,80.15625,4,30,-9999,1561914457.780618,-17.44187164306641,8.913715362548828,-15.0576171875,19.70406532287598,27.19753265380859,15,197172.935156875,-0.04449462890625,-0.393646240234375,-0.8135223388671875,197172.917944875,0.1584716669812741,0.7023408269006021,1.276635803325758,197172.909338875,-93.16983032226562,-20.59025573730469,-578.5529174804688,197172.917944875,0.7291044653104231,-0.2567542067931713,0.5131243633984846,0.1557542383670807,0.6957004070281982,1.273399472236633,0.1634687483310699,0.09925425052642822,0.05145722627639771,1,-0.2792805731296539,0.02596866153180599,-0.3116709589958191,-0.9078486561775208,-0.2212385237216949,-0.4909016191959381,-0.8426559567451477,0,0,0,-1,197170.640149375,3,1,1561914455.477686,1561913957.287787,32,0.8918345,0,0,26.32609,0,0,1561914413.669193,197169.748801,0,1.112305,75.29468,3232235528,177845136,1,1,0.53,-27.11398,-39.20396,0
1561914457.801653,47,0,0,1561914457.000053,4.634727928791786,-74.15099079727581,2552.887,0.23,80.15625,4,30,-9999,1561914457.780618,-17.44187164306641,8.913715362548828,-15.0576171875,19.70406532287598,27.19753265380859,15,197172.955420875,-0.0472869873046875,-0.3781280517578125,-0.8530426025390625,197172.938208875,0.02321317732556667,0.6536281484536357,1.277936757518262,197172.929449875,-92.95599365234375,-20.00596618652344,-579.1467895507812,197172.938208875,0.75821772288526,-0.2572273737922579,0.5079855966949001,0.02049575187265873,0.6469877362251282,1.274700403213501,0.1777814030647278,0.09277194738388062,0.03145736455917358,1,-0.2774460911750793,0.02310417219996452,-0.3253208696842194,-0.9036903977394104,-0.222276046872139,-0.4864181876182556,-0.8449797034263611,0,0,0,-1,197170.640149375,3,1,1561914455.477686,1561913957.287787,32,0.8918345,0,0,26.32609,0,0,1561914413.669193,197169.748801,0,1.112305,75.29468,3232235528,177845136,1,1,0.53,-27.11398,-34.88313,0
1561914457.819748,48,0,0,1561914457.000053,4.634727928791786,-74.15099079727581,2552.887,0.23,80.15625,4,30,-9999,1561914457.805906,-16.75231170654297,10.38745880126953,-15.73681640625,17.66086578369141,25.15433311462402,15,197172.975683875,-0.0643768310546875,-0.367401123046875,-0.8991851806640625,197172.958441875,0.04147633713300306,0.5623837221336678,1.278306670593674,197172.949560875,-92.61967468261719,-19.00595092773438,-579.3972778320312,197172.958441875,0.7868125791964298,-0.2589803670714937,0.5019164341927349,0.03875891119241714,0.5557432770729065,1.275070309638977,0.1772218644618988,0.1029784381389618,-0.005615711212158203,1,-0.2753907442092896,0.02113044634461403,-0.3386026620864868,-0.899478554725647,-0.2245088517665863,-0.4811064898967743,-0.8474268913269043,0,0,0,-1,197170.640149375,3,1,1561914455.477686,1561913957.287787,32,0.8918345,0,0,26.32609,0,0,1561914413.669193,197169.748801,0,1.112305,75.29468,3232235528,177845136,1,1,0.53,-27.11398,-34.88313,0
1561914457.839983,49,0,0,1561914457.000053,4.634727928791786,-74.15099079727581,2552.887,0.23,80.15625,4,30,-9999,1561914457.83099,-16.72736358642578,10.78719139099121,-16.0394287109375,15.54247283935547,23.03594017028809,15,197172.995947875,-0.093963623046875,-0.3631134033203125,-0.9545745849609375,197172.978705875,0.06751113363350869,0.5326010590310937,1.334761957277828,197172.969671875,-92.63856506347656,-18.44094848632812,-579.48681640625,197172.978705875,0.8161568659600889,-0.2621984039665812,0.4961887817606446,0.06479370594024658,0.5259606242179871,1.331525683403015,0.1635684370994568,0.1086762845516205,-0.04983758926391602,1,-0.2737480401992798,0.01970356516540051,-0.3519302308559418,-0.8948848843574524,-0.2279452681541443,-0.4760774075984955,-0.8493475317955017,0,0,0,-1,197170.640149375,3,1,1561914455.477686,1561913957.287787,32,0.8918345,0,0,26.32609,0,0,1561914413.669193,197169.748801,0,1.112305,75.29468,3232235528,177845136,1,1,0.53,-27.11398,-35.51044,0
1561914457.875995,50,0,0,1561914457.000053,4.634727928791786,-74.15099079727581,2552.887,0.23,80.15625,4,30,-9999,1561914457.85676,-16.31658935546875,11.78645515441895,-16.55792236328125,13.30750846862793,20.80097579956055,15,197173.016211875,-0.138458251953125,-0.3524322509765625,-1.009674072265625,197172.998968875,0.09413422241881282,0.5733229226272774,1.393125931515241,197172.989782875,-92.2822265625,-17.74520874023438,-580.0155639648438,197172.998968875,0.8468730913220311,-0.265796492628699,0.4904895295435497,0.09141679108142853,0.5666824579238892,1.389889597892761,0.1377451568841934,0.1079443395137787,-0.1034485101699829,1,-0.2722164988517761,0.01830664277076721,-0.3657555878162384,-0.8898234963417053,-0.2317087799310684,-0.4710577726364136,-0.8511260747909546,0,0,0,-1,197170.640149375,3,1,1561914455.477686,1561913957.287787,32,0.8918345,0,0,26.32609,0,0,1561914413.669193,197169.748801,0,1.112305,75.29468,3232235528,177845136,1,1,0.53,-27.11398,-36.65297,0
1561914457.881184,51,0,0,1561914457.000053,4.634727928791786,-74.15099079727581,2552.887,0.23,80.15625,4,30,-9999,1561914457.85676,-16.31658935546875,11.78645515441895,-16.55792236328125,13.30750846862793,20.80097579956055,15,197173.036474875,-0.17474365234375,-0.353790283203125,-1.046173095703125,197173.019232875,0.153830842465702,0.6803681500107943,1.426615714855206,197173.009893875,-91.85494995117188,-17.21345520019531,-580.4523315429688,197173.019232875,0.8787430860470229,-0.2682264543837783,0.4852645523197518,0.1511122286319733,0.673726499080658,1.42337965965271,0.0959671288728714,0.1140101253986359,-0.1567519307136536,1,-0.270697146654129,0.01618566364049911,-0.380129337310791,-0.8842865228652954,-0.2344253808259964,-0.4664423763751984,-0.8529221415519714,0,0,0,-1,197170.640149375,3,1,1561914455.477686,1561913957.287787,32,0.8918345,0,0,26.32609,0,0,1561914413.669193,197169.748801,0,1.112305,75.29468,3232235528,177845136,1,1,0.53,-27.11398,-36.65297,0
1561914457.900778,52,0,0,1561914457.000053,4.634727928791786,-74.15099079727581,2552.887,0.23,80.15625,4,30,-9999,1561914457.883007,-15.84881591796875,12.3397045135498,-16.91357421875,10.97097015380859,18.46443748474121,15,197173.056738875,-0.194610595703125,-0.357666015625,-1.053939819335938,197173.039496875,0.2843134853385703,0.7956089893329211,1.457076685087423,197173.029974875,-91.25567626953125,-16.47761535644531,-580.916259765625,197173.039496875,0.9118027618598299,-0.2687139995747291,0.4816313913751114,0.281594842672348,0.7889673709869385,1.453840613365173,0.06054592132568359,0.1094353199005127,-0.1917370557785034,1,-0.2694801688194275,0.01274494174867868,-0.3950296342372894,-0.878162682056427,-0.2352895736694336,-0.4632256031036377,-0.8544360399246216,0,0,0,-1,197170.640149375,3,1,1561914455.477686,1561913957.287787,32,0.8918345,0,0,26.32609,0,0,1561914413.669193,197169.748801,0,1.112305,75.29468,3232235528,177845136,1,1,0.53,-27.11398,-34.5413,0
1561914457.921015,53,0,0,1561914457.000053,4.634727928791786,-74.15099079727581,2552.887,0.23,80.15625,4,30,-9999,1561914457.907363,-14.57839965820312,13.5581169128418,-17.90673828125,8.540262222290039,16.03372955322266,15,197173.076971875,-0.209625244140625,-0.3674163818359375,-1.03497314453125,197173.059759875,0.3836232950198431,0.8673457606680586,1.463545503375226,197173.050085875,-90.66763305664062,-16.24073791503906,-581.5629272460938,197173.059759875,0.9459941953804374,-0.2677265293783676,0.4804316094773635,0.3809046745300293,0.8607041239738464,1.460309386253357,0.03998197615146637,0.1044959425926208,-0.1987365484237671,1,-0.2689509093761444,0.007986161857843399,-0.4102508425712585,-0.8713757991790771,-0.2345925718545914,-0.4621619582176208,-0.8552032709121704,0,0,0,-1,197170.640149375,3,1,1561914455.477686,1561913957.287787,32,0.8918345,0,0,26.32609,0,0,1561914413.669193,197169.748801,0,1.112305,75.29468,3232235528,177845136,1,1,0.53,-27.11398,-31.39973,0
1561914457.960937,54,0,0,1561914457.000053,4.634727928791786,-74.15099079727581,2552.887,0.23,80.15625,4,30,-9999,1561914457.958661,-13.08550262451172,14.22052192687988,-19.1312255859375,3.674248218536377,11.16771602630615,15,197173.097235875,-0.2245330810546875,-0.3637237548828125,-0.9925689697265625,197173.080023875,0.3744721408821128,0.946611821037068,1.453730689493848,197173.070196875,-89.93190002441406,-15.51708984375,-581.873291015625,197173.080023875,0.9803995128008454,-0.2654562825804019,0.4801047773953713,0.3717535138130188,0.9399701952934265,1.450494647026062,0.02306482195854187,0.09445571899414062,-0.1790937781333923,1,-0.2684292793273926,0.002456204500049353,-0.4255211651325226,-0.8642172813415527,-0.2326900660991669,-0.4618721008300781,-0.8558793663978577,0,0,0,-1,197170.640149375,3,1,1561914455.477686,1561913957.287787,32,0.8918345,0,0,26.32609,0,0,1561914413.669193,197169.748801,0,1.112305,75.29468,3232235528,177845136,1,1,0.53,-23.81208,-24.8933,0
1561914457.96389,55,0,0,1561914457.000053,4.634727928791786,-74.15099079727581,2552.887,0.23,80.15625,4,30,-9999,1561914457.958661,-13.08550262451172,14.22052192687988,-19.1312255859375,3.674248218536377,11.16771602630615,15,197173.117498875,-0.2379150390625,-0.34295654296875,-0.9381866455078125,197173.100287875,0.3325923348439628,1.033759772968276,1.450961534592383,197173.090307875,-89.10520935058594,-15.3531494140625,-582.4950561523438,197173.100287875,1.014373959689337,-0.2611988895747994,0.4793253603388509,0.3298737108707428,1.02711808681488,1.447725415229797,0.004603967070579529,0.09745690226554871,-0.1353591680526733,1,-0.2671725153923035,-0.003734951140359044,-0.4407978057861328,-0.8569144010543823,-0.229137048125267,-0.4611806571483612,-0.8572098016738892,0,0,0,-1,197170.640149375,3,1,1561914455.477686,1561913957.287787,32,0.8918345,0,0,26.32609,0,0,1561914413.669193,197170.694366,0,1.257812,75.29331,3232235528,177845136,1,1,0.53,-23.81208,-25.88163,0
1561914457.981962,56,0,0,1561914457.000053,4.634727928791786,-74.15099079727581,2552.887,0.23,80.15625,4,30,-9999,1561914457.958661,-13.08550262451172,14.22052192687988,-19.1312255859375,3.674248218536377,11.16771602630615,15,197173.137762875,-0.2525634765625,-0.32080078125,-0.882781982421875,197173.120550875,0.3108414992729586,1.080747788293307,1.488889742205074,197173.110418875,-88.13145446777344,-14.8411865234375,-582.8929443359375,197173.120550875,1.048468492130917,-0.2555736357771243,0.4778903433453982,0.3081228733062744,1.074106097221375,1.485653638839722,-0.01343654096126556,0.1169503629207611,-0.07906204462051392,1,-0.2652005851268768,-0.01031257584691048,-0.4562518000602722,-0.8493507504463196,-0.2244784981012344,-0.4599069058895111,-0.8591246008872986,0,0,0,-1,197170.640149375,3,1,1561914455.477686,1561913957.287787,32,0.8918345,0,0,26.32609,0,0,1561914413.669193,197170.694366,0,1.257812,75.29331,3232235528,177845136,1,1,0.53,-23.81208,-25.88163,0
1561914458.002063,57,0,0,1561914457.000053,4.634727928791786,-74.15099079727581,2552.887,0.23,80.15625,4,30,-9999,1561914457.982388,-11.93032073974609,14.71147632598877,-19.54888916015625,1.15911340713501,8.652581214904785,15,197173.158026875,-0.267974853515625,-0.30889892578125,-0.8360443115234375,197173.140783875,0.4207328469134433,1.044165275979434,1.570906049031808,197173.130529875,-87.16165161132812,-14.77438354492188,-583.880859375,197173.140783875,1.084135197376201,-0.2504270343565694,0.4771174065959601,0.4180142283439636,1.037523627281189,1.567669987678528,-0.03242146968841553,0.1384196281433105,-0.02216935157775879,1,-0.2634475231170654,-0.01700242236256599,-0.472092479467392,-0.8410915732383728,-0.2201420068740845,-0.4592204093933105,-0.8606126308441162,0,0,0,-1,197170.640149375,3,1,1561914455.477686,1561913957.287787,32,0.8918345,0,0,26.32609,0,0,1561914413.669193,197170.694366,0,1.257812,75.29331,3232235528,177845136,1,1,0.53,-23.81208,-26.744,0
1561914458.0512,58,0,0,1561914457.000053,4.634727928791786,-74.15099079727581,2552.887,0.23,80.15625,4,30,-9999,1561914458.008618,-9.955284118652344,15.07680606842041,-20.5740966796875,358.4198303222656,5.913303852081299,15,197173.178289875,-0.2749786376953125,-0.3115386962890625,-0.79345703125,197173.161047875,0.5846773099348301,0.9555920002328151,1.645799997839234,197173.150610875,-86.11665344238281,-14.32093811035156,-584.34521484375,197173.161047875,1.122505310110602,-0.2478527875961054,0.4788465627186024,0.5819586515426636,0.9489503502845764,1.642563939094543,-0.05024413764476776,0.1518568396568298,0.02436107397079468,1,-0.2631365954875946,-0.02358905598521233,-0.4882832169532776,-0.8317343592643738,-0.2177307158708572,-0.4607557654380798,-0.8604053854942322,0,0,0,-1,197170.640149375,3,1,1561914455.477686,1561913957.287787,32,0.8918345,0,0,26.32609,0,0,1561914413.669193,197170.694366,0,1.257812,75.29331,3232235528,177845136,1,1,0.53,-23.81208,-28.36954,0
1561914458.053861,59,0,0,1561914457.000053,4.634727928791786,-74.15099079727581,2552.887,0.23,80.15625,4,30,-9999,1561914458.008618,-9.955284118652344,15.07680606842041,-20.5740966796875,358.4198303222656,5.913303852081299,15,197173.198553875,-0.2753448486328125,-0.3276519775390625,-0.756317138671875,197173.181311875,0.7718740987498079,0.81755183881852,1.703203902503674,197173.170721875,-84.92794799804688,-13.91127014160156,-584.5152587890625,197173.181311875,1.163317544644119,-0.2488871193279696,0.483797079773188,0.7691554427146912,0.8109102249145508,1.699967861175537,-0.05692264437675476,0.1536051332950592,0.06450146436691284,1,-0.2648145258426666,-0.02990016527473927,-0.5044460296630859,-0.8212876319885254,-0.2180559933185577,-0.4651438295841217,-0.8579584956169128,0,0,0,-1,197170.640149375,3,1,1561914455.477686,1561913957.287787,32,0.8918345,0,0,26.32609,0,0,1561914413.669193,197170.694366,0,1.257812,75.29331,3232235528,177845136,1,1,0.53,-23.81208,-28.36954,0
1561914458.062847,60,0,0,1561914457.000053,4.634727928791786,-74.15099079727581,2552.887,0.23,80.15625,4,30,-9999,1561914458.052515,-9.018516540527344,15.22015190124512,-21.2236328125,355.4580078125,2.951488018035889,15,197173.218817875,-0.2811126708984375,-0.3472900390625,-0.7340850830078125,197173.201574875,0.9143857076343461,0.6599992287294323,1.734641720223733,197173.190832875,-84.02690124511719,-14.10118103027344,-584.8117065429688,197173.201574875,1.206293488038835,-0.2542312697674065,0.4917127086012134,0.9116670489311218,0.6533576250076294,1.73140561580658,-0.05363988876342773,0.1444844007492065,0.09687346220016479,1,-0.268573522567749,-0.03567871451377869,-0.5203297138214111,-0.8098471164703369,-0.2217049598693848,-0.472136378288269,-0.8531906008720398,0,0,0,-1,197170.640149375,3,1,1561914455.477686,1561913957.287787,32,0.8918345,0,0,26.32609,0,0,1561914413.669193,197170.694366,0,1.257812,75.29331,3232235528,177845136,1,1,0.53,-23.81208,-29.16466,0
1561914458.083791,61,0,0,1561914458.000068,4.634724869397129,-74.15099171928516,2552.853,0.23,99.4921875,4,30,-9999,1561914458.052515,-9.018516540527344,15.22015190124512,-21.2236328125,355.4580078125,2.951488018035889,15,197173.239081875,-0.2751617431640625,-0.3740234375,-0.724945068359375,197173.221838875,0.9832843481957861,0.4947167935763895,1.729215529502696,197173.210943875,-83.30567932128906,-13.76506042480469,-585.5674438476562,197173.221838875,1.250513704512089,-0.2636400002015934,0.5013369031522762,0.9805657267570496,0.4880751371383667,1.725979447364807,-0.05258497595787048,0.1333082914352417,0.1125555038452148,1,-0.273905873298645,-0.0406850129365921,-0.5356582999229431,-0.7977408766746521,-0.2285277098417282,-0.4805983603000641,-0.8466405868530273,0,0,0,-1,197170.640149375,3,1,1561914455.477686,1561913957.287787,32,0.8918345,0,0,26.32609,0,0,1561914413.669193,197170.694366,0,1.257812,75.29331,3232235528,177845136,1,1,0.53,-23.81208,-30.00705,0
1561914458.115135,62,0,0,1561914458.000068,4.634724869397129,-74.15099171928516,2552.853,0.23,99.4921875,4,30,-9999,1561914458.110203,-5.522789001464844,15.08617877960205,-23.06640625,346.2040405273438,353.697509765625,15,197173.259314875,-0.2706451416015625,-0.403594970703125,-0.72796630859375,197173.242102875,0.9985469244030302,0.3643025939435363,1.651777196589808,197173.231054875,-82.48309326171875,-14.15937805175781,-586.1826171875,197173.242102875,1.294445203207524,-0.2765658144799598,0.5116427032251866,0.9958282709121704,0.3576609492301941,1.64854109287262,-0.03707502782344818,0.1155868172645569,0.1138615608215332,1,-0.2803491652011871,-0.04473310708999634,-0.5499554872512817,-0.7854630351066589,-0.2380867153406143,-0.4896102547645569,-0.8388065695762634,0,0,0,-1,197170.640149375,3,1,1561914455.477686,1561913957.287787,32,0.8918345,0,0,26.32609,0,0,1561914413.669193,197170.694366,0,1.257812,75.29331,3232235528,177845136,1,1,0.53,-23.81208,-30.76408,0
1561914458.123531,63,0,0,1561914458.000068,4.634724869397129,-74.15099171928516,2552.853,0.23,99.4921875,4,30,-9999,1561914458.110203,-5.522789001464844,15.08617877960205,-23.06640625,346.2040405273438,353.697509765625,15,197173.279577875,-0.2551116943359375,-0.4332733154296875,-0.7295074462890625,197173.262365875,0.8736065860747259,0.3838464679191917,1.54196734167868,197173.251135875,-81.49261474609375,-14.27592468261719,-586.4762573242188,197173.262365875,1.336225693612596,-0.2900067372010065,0.5210059598982131,0.8708879351615906,0.3772048056125641,1.538731217384338,-0.02262777090072632,0.09415790438652039,0.1031350493431091,1,-0.2865616083145142,-0.04828836768865585,-0.5631065368652344,-0.773603081703186,-0.2480173707008362,-0.4977528750896454,-0.8311013579368591,0,0,0,-1,197170.640149375,3,1,1561914455.477686,1561913957.287787,32,0.8918345,0,0,26.32609,0,0,1561914413.669193,197170.694366,0,1.257812,75.29331,3232235528,177845136,1,1,0.53,-23.81208,-30.76408,0
1561914458.143776,64,0,0,1561914458.000068,4.634724869397129,-74.15099171928516,2552.853,0.23,99.4921875,4,30,-9999,1561914458.134248,-4.833213806152344,14.72934246063232,-23.34967041015625,343.5050048828125,350.9984741210938,15,197173.299841875,-0.23480224609375,-0.4610748291015625,-0.744140625,197173.282629875,0.6243978249611439,0.5274963118536299,1.467503227071192,197173.271246875,-80.87535095214844,-14.60528564453125,-586.9571533203125,197173.282629875,1.374933525764663,-0.3004370682493788,0.526857311663417,0.6216791868209839,0.520854651927948,1.464267134666443,0.0006943941116333008,0.06954598426818848,0.09616559743881226,1,-0.2906711995601654,-0.05170817300677299,-0.57567298412323,-0.7625201940536499,-0.2558060586452484,-0.502819299697876,-0.8256730437278748,0,0,0,-1,197170.640149375,3,1,1561914455.477686,1561913957.287787,32,0.8918345,0,0,26.32609,0,0,1561914413.669193,197170.694366,0,1.257812,75.29331,3232235528,177845136,1,1,0.53,-23.81208,-31.31781,0
1561914458.16438,65,0,0,1561914458.000068,4.634724869397129,-74.15099171928516,2552.853,0.23,99.4921875,4,30,-9999,1561914458.16055,-4.271232604980469,14.79677772521973,-23.54962158203125,341.0881652832031,348.5816345214844,15,197173.320105875,-0.21978759765625,-0.4759674072265625,-0.7832183837890625,197173.302893875,0.2450901824877743,0.7244386723616435,1.440749377076365,197173.291357875,-80.21109008789062,-14.51985168457031,-587.1531372070312,197173.302893875,1.410396967412768,-0.3058011738079,0.5265927872533475,0.2423715740442276,0.7177970409393311,1.43751335144043,0.02546915411949158,0.04151582717895508,0.08027517795562744,1,-0.2911949157714844,-0.05475042760372162,-0.5883603096008301,-0.7523563504219055,-0.2602714002132416,-0.5025906562805176,-0.8244158029556274,0,0,0,-1,197170.640149375,3,1,1561914455.477686,1561913957.287787,32,0.8918345,0,0,26.32609,0,0,1561914413.669193,197170.694366,0,1.257812,75.29331,3232235528,177845136,1,1,0.53,-23.81208,-31.83513,0
1561914458.20199,66,0,0,1561914458.000068,4.634724869397129,-74.15099171928516,2552.853,0.23,99.4921875,4,30,-9999,1561914458.185455,-3.260025024414062,15.07255554199219,-23.66436767578125,338.8792724609375,346.3727416992188,15,197173.340368875,-0.208160400390625,-0.4758758544921875,-0.8437957763671875,197173.323126875,-0.1062649211841237,0.8734521227315012,1.444959035811453,197173.311468875,-79.33978271484375,-14.6282958984375,-587.26171875,197173.323126875,1.442815165184205,-0.305673509586838,0.5188904986469796,-0.1089835315942764,0.8668105006217957,1.441722989082336,0.04153576493263245,0.01994958519935608,0.04489779472351074,1,-0.2875700294971466,-0.05696826800704002,-0.6015709042549133,-0.7430817484855652,-0.2613233625888824,-0.4959169924259186,-0.8281161785125732,0,0,0,-1,197170.640149375,3,1,1561914455.477686,1561913957.287787,32,0.8918345,0,0,26.32609,0,0,1561914413.669193,197170.694366,0,1.257812,75.29331,3232235528,177845136,1,1,0.53,-23.81208,-33.10071,0
1561914458.205202,67,0,0,1561914458.000068,4.634724869397129,-74.15099171928516,2552.853,0.23,99.4921875,4,30,-9999,1561914458.185455,-3.260025024414062,15.07255554199219,-23.66436767578125,338.8792724609375,346.3727416992188,15,197173.360632875,-0.20947265625,-0.47576904296875,-0.91143798828125,197173.343390875,-0.3134332876458237,0.8530927888300635,1.455041763698494,197173.331549875,-78.26838684082031,-14.35810852050781,-587.472412109375,197173.343390875,1.473367030092005,-0.3031791793288033,0.5058397020950335,-0.3161519169807434,0.8464511632919312,1.451805710792542,0.05300670862197876,0.008666306734085083,-0.008924186229705811,1,-0.2814474701881409,-0.05789226293563843,-0.6150127649307251,-0.7342990040779114,-0.2611671090126038,-0.4845421612262726,-0.8348715901374817,0,0,0,-1,197170.640149375,3,1,1561914455.477686,1561913957.287787,32,0.8918345,0,0,26.32609,0,0,1561914413.669193,197170.694366,0,1.257812,75.29331,3232235528,177845136,1,1,0.53,-23.81208,-33.10071,0
1561914458.224756,68,0,0,1561914458.000068,4.634724869397129,-74.15099171928516,2552.853,0.23,99.4921875,4,30,-9999,1561914458.222902,-1.419296264648438,15.60551357269287,-23.64178466796875,336.771728515625,344.2651977539062,15,197173.38091875,-0.235595703125,-0.4645538330078125,-0.988250732421875,197173.363653875,-0.4720064210646298,0.8161353034347069,1.481867252726644,197173.351660875,-77.6334228515625,-14.03610229492188,-587.3455810546875,197173.363653875,1.502912314403132,-0.3005973556501602,0.4893677777729205,-0.4747250378131866,0.8094936609268188,1.478631138801575,0.05186605453491211,-0.005701065063476562,-0.06838506460189819,1,-0.2741938829421997,-0.05736949667334557,-0.62839674949646,-0.7257024645805359,-0.2613387107849121,-0.4700679779052734,-0.8430529236793518,0,0,0,-1,197170.640149375,3,1,1561914455.477686,1561913957.287787,32,0.8918345,0,0,26.32609,0,0,1561914413.669193,197170.694366,0,1.257812,75.29331,3232235528,177845136,1,1,0.53,-23.81208,-33.45453,0
1561914458.245051,69,0,0,1561914458.000068,4.634724869397129,-74.15099171928516,2552.853,0.23,99.4921875,4,30,-9999,1561914458.222902,-1.419296264648438,15.60551357269287,-23.64178466796875,336.771728515625,344.2651977539062,15,197173.40118175,-0.2686004638671875,-0.4412994384765625,-1.058013916015625,197173.38393975,-0.6270415449752657,0.8944463542368138,1.540784099206358,197173.39190475,-75.58126831054688,-13.37333679199219,-587.1292724609375,197173.38393975,1.532118245242906,-0.297060566717481,0.4696632944680078,-0.6297601461410522,0.8878047466278076,1.537548065185547,0.02542057633399963,-0.01196774840354919,-0.1355864405632019,1,-0.265615701675415,-0.05582254752516747,-0.6420339345932007,-0.7170248627662659,-0.2610162794589996,-0.4525860548019409,-0.8526642918586731,0,0,0,-1,197170.640149375,3,1,1561914455.477686,1561913957.287787,32,0.8918345,0,0,26.32609,0,0,1561914413.669193,197170.694366,0,1.257812,75.29331,3232235528,177845136,1,1,0.53,-23.81208,-33.91041,0
1561914458.273976,70,0,0,1561914458.000068,4.634724869397129,-74.15099171928516,2552.853,0.23,99.4921875,4,30,-9999,1561914458.2622,0.5170364379882812,16.36712455749512,-23.60296630859375,332.4648742675781,339.9583435058594,15,197173.42144575,-0.2879791259765625,-0.4050750732421875,-1.098495483398438,197173.40420375,-0.700894730428689,1.066578706029649,1.643834318638647,197173.41201575,-74.37077331542969,-13.01136779785156,-587.0282592773438,197173.40420375,1.561996806627019,-0.2905658531026049,0.4472037645276062,-0.7036133408546448,1.059937119483948,1.640598297119141,-0.01027995347976685,-0.00885346531867981,-0.194149911403656,1,-0.2552063167095184,-0.05420095846056938,-0.6564317941665649,-0.7078341841697693,-0.2583205103874207,-0.4324459731578827,-0.863864004611969,0,0,0,-1,197170.640149375,3,1,1561914455.477686,1561913957.287787,32,0.8918345,0,0,26.32609,0,0,1561914413.669193,197170.694366,0,1.257812,75.29331,3232235528,177845136,1,1,0.53,-23.81208,-34.41627,0
1561914458.285607,71,0,0,1561914458.000068,4.634724869397129,-74.15099171928516,2552.853,0.23,99.4921875,4,30,-9999,1561914458.2622,0.5170364379882812,16.36712455749512,-23.60296630859375,332.4648742675781,339.9583435058594,15,197173.44167875,-0.3086700439453125,-0.3537445068359375,-1.103546142578125,197173.42446675,-0.6251485700724373,1.212088501669399,1.789925216028251,197173.43212675,-73.0552978515625,-12.81092834472656,-586.4718017578125,197173.42446675,1.594373034713416,-0.2811654299799538,0.4242222266795684,-0.6278672218322754,1.205446839332581,1.786689162254333,-0.03509929776191711,0.006536990404129028,-0.2229229211807251,1,-0.2436411529779434,-0.05341089144349098,-0.671849250793457,-0.6974272131919861,-0.2528798282146454,-0.4116120636463165,-0.8755725026130676,0,0,0,-1,197170.640149375,3,1,1561914455.477686,1561913957.287787,32,0.8918345,0,0,26.32609,0,0,1561914413.669193,197170.694366,0,1.257812,75.29331,3232235528,177845136,1,1,0.53,-23.81208,-34.41627,0
1561914458.305941,72,0,0,1561914458.000068,4.634724869397129,-74.15099171928516,2552.853,0.23,99.4921875,4,30,-9999,1561914458.286672,3.039176940917969,16.65928268432617,-23.012451171875,329.9303283691406,337.4237976074219,15,197173.46194275,-0.3199615478515625,-0.3170318603515625,-1.071121215820312,197173.44473075,-0.4137929154288058,1.251106208484041,1.940563993611385,197173.45220775,-71.65594482421875,-12.78842163085938,-586.3614501953125,197173.44473075,1.630837280174858,-0.270776520426414,0.4036424646781744,-0.4165115356445312,1.244464516639709,1.937327980995178,-0.06268593668937683,0.0390261709690094,-0.2174180746078491,1,-0.2324354648590088,-0.0539417564868927,-0.6881606578826904,-0.6851998567581177,-0.2459841221570969,-0.3927706778049469,-0.8861280679702759,0,0,0,-1,197170.640149375,3,1,1561914455.477686,1561913957.287787,32,0.8918345,0,0,26.32609,0,0,1561914413.669193,197170.694366,0,1.257812,75.29331,3232235528,177845136,1,1,0.53,-23.81208,-34.96669,0
1561914458.326237,73,0,0,1561914458.000068,4.634724869397129,-74.15099171928516,2552.853,0.23,99.4921875,4,30,-9999,1561914458.312542,4.283348083496094,16.72883224487305,-22.93597412109375,326.9818725585938,334.475341796875,15,197173.48220675,-0.3273162841796875,-0.285919189453125,-1.015960693359375,197173.46499475,-0.07224303825836148,1.167186806742336,2.081811399926462,197173.47231875,-70.3333740234375,-12.74090576171875,-586.1248168945312,197173.46499475,1.671908666147055,-0.2619774876048458,0.3878782118219949,-0.07496164739131927,1.160545229911804,2.078575372695923,-0.08021000027656555,0.06119322776794434,-0.176993191242218,1,-0.2232006937265396,-0.05583393946290016,-0.7049129605293274,-0.6709409356117249,-0.2397515773773193,-0.3782250881195068,-0.8941280245780945,0,0,0,-1,197170.640149375,3,1,1561914455.477686,1561913957.287787,32,0.8918345,0,0,26.32609,0,0,1561914413.669193,197170.694366,0,1.257812,75.29331,3232235528,177845136,1,1,0.53,-23.81208,-35.67818,0
1561914458.356957,74,0,0,1561914458.000068,4.634724869397129,-74.15099171928516,2552.853,0.23,99.4921875,4,30,-9999,1561914458.336807,5.764678955078125,16.46147155761719,-22.64166259765625,323.6054077148438,331.098876953125,15,197173.50246975,-0.33306884765625,-0.2796173095703125,-0.944854736328125,197173.48525775,0.4031421352812519,0.9011436717461451,2.184009141493817,197173.49242975,-69.21189880371094,-13.03713989257812,-586.3013916015625,197173.48525775,1.717886881453603,-0.258142251926754,0.3798310760262396,0.4004234969615936,0.8945020437240601,2.180773019790649,-0.09022633731365204,0.08484441041946411,-0.1180059313774109,1,-0.2179930508136749,-0.05917482823133469,-0.7214821577072144,-0.6545539498329163,-0.2370899617671967,-0.3707635998725891,-0.8979547619819641,0,0,0,-1,197170.640149375,3,1,1561914455.477686,1561913957.287787,32,0.8918345,0,0,26.32609,0,0,1561914413.669193,197170.694366,0,1.257812,75.29331,3232235528,177845136,1,1,0.53,-23.81208,-36.14811,0
1561914458.366864,75,0,0,1561914458.000068,4.634724869397129,-74.15099171928516,2552.853,0.23,99.4921875,4,30,-9999,1561914458.363643,6.929672241210938,16.12075805664062,-22.86737060546875,319.9470825195312,327.4405517578125,15,197173.52273375,-0.339447021484375,-0.29473876953125,-0.8716888427734375,197173.50549075,0.9067999595853644,0.5330348879726676,2.188573266969994,197173.51254075,-67.97605895996094,-13.6646728515625,-586.4758911132812,197173.50549075,1.767718501290459,-0.2622473582534456,0.381368524055832,0.9040813446044922,0.5263932347297668,2.18533730506897,-0.09244276583194733,0.09257370233535767,-0.04843246936798096,1,-0.2184244841337204,-0.06387173384428024,-0.7369453907012939,-0.6364924311637878,-0.2406260818243027,-0.3721910119056702,-0.896422266960144,0,0,0,-1,197170.640149375,3,1,1561914455.477686,1561913957.287787,32,0.8918345,0,0,26.32609,0,0,1561914413.669193,197170.694366,0,1.257812,75.29331,3232235528,177845136,1,1,0.53,-23.81208,-36.14811,0
1561914458.387191,76,0,0,1561914458.000068,4.634724869397129,-74.15099171928516,2552.853,0.23,99.4921875,4,30,-9999,1561914458.363643,6.929672241210938,16.12075805664062,-22.86737060546875,319.9470825195312,327.4405517578125,15,197173.54299775,-0.3341217041015625,-0.3123016357421875,-0.8055419921875,197173.52575475,1.236723008068741,0.3418500154252962,2.140375377561741,197173.53265175,-67.15476989746094,-14.8519287109375,-587.025146484375,197173.52575475,1.819613238840702,-0.2734014309846386,0.3910657706693258,1.234004378318787,0.3352083563804626,2.137139320373535,-0.08982363343238831,0.08643516898155212,0.01847666501998901,1,-0.223685011267662,-0.06987323611974716,-0.7508648037910461,-0.6174826622009277,-0.2496233731508255,-0.3811739385128021,-0.8901655077934265,0,0,0,-1,197170.640149375,3,1,1561914455.477686,1561913957.287787,32,0.8918345,0,0,26.32609,0,0,1561914413.669193,197170.694366,0,1.257812,75.29331,3232235528,177845136,1,1,0.53,-23.81208,-36.21467,0
1561914458.407278,77,0,0,1561914458.000068,4.634724869397129,-74.15099171928516,2552.853,0.23,99.4921875,4,30,-9999,1561914458.387465,8.795974731445312,14.34743881225586,-23.4735107421875,316.1894836425781,323.6829528808594,15,197173.56326075,-0.309967041015625,-0.332427978515625,-0.7485198974609375,197173.54601875,1.333988575297269,0.2494535056177601,2.102311082417347,197173.55276275,-66.25567626953125,-15.73287963867188,-587.2216796875,197173.54601875,1.872255415798965,-0.2878658303103636,0.4044437874338891,1.331269979476929,0.242811843752861,2.099075078964233,-0.0731203556060791,0.08120584487915039,0.07595115900039673,1,-0.2310037612915039,-0.07675079256296158,-0.763620913028717,-0.5980215668678284,-0.2610013484954834,-0.3935074806213379,-0.8814931511878967,0,0,0,-1,197170.640149375,3,1,1561914455.477686,1561913957.287787,32,0.8918345,0,0,26.32609,0,0,1561914413.669193,197170.694366,0,1.257812,75.29331,3232235528,177845136,1,1,0.53,-23.81208,-36.44085,0
1561914458.443009,78,0,0,1561914458.000068,4.634724869397129,-74.15099171928516,2552.853,0.23,99.4921875,4,30,-9999,1561914458.438211,10.12326049804688,12.38243865966797,-23.9320068359375,308.8597106933594,316.3531799316406,15,197173.58352475,-0.290924072265625,-0.3498992919921875,-0.722564697265625,197173.56628175,1.307037385065667,0.09867571102572494,2.043660552046641,197173.57284375,-65.82571411132812,-16.46876525878906,-587.4954833984375,197173.56628175,1.924571048196855,-0.3053725420713077,0.417887882663711,1.304318785667419,0.09203406423330307,2.040424585342407,-0.03518989682197571,0.073403000831604,0.1231444478034973,1,-0.2392740547657013,-0.08316101133823395,-0.7752822637557983,-0.5785927772521973,-0.2747771441936493,-0.405830979347229,-0.8716643452644348,0,0,0,-1,197170.640149375,3,1,1561914455.477686,1561913957.287787,32,0.8918345,0,0,26.32609,0,0,1561914413.669193,197170.694366,0,1.257812,75.29331,3232235528,177845136,1,1,0.53,-23.81208,-36.59868,0
1561914458.447952,79,0,0,1561914458.000068,4.634724869397129,-74.15099171928516,2552.853,0.23,99.4921875,4,30,-9999,1561914458.438211,10.12326049804688,12.38243865966797,-23.9320068359375,308.8597106933594,316.3531799316406,15,197173.60378875,-0.2840118408203125,-0.3671417236328125,-0.7269134521484375,197173.58654575,1.14589004013719,-0.003041596280979498,1.967975644395461,197173.59295475,-65.07603454589844,-17.58537292480469,-587.5653076171875,197173.58654575,1.975435717081569,-0.3256367339419938,0.4290855762264423,1.143171429634094,-0.009683245792984962,1.964739561080933,-1.305341720581055e-05,0.06614017486572266,0.1389932036399841,1,-0.2478861510753632,-0.08816751092672348,-0.7858445048332214,-0.5596672892570496,-0.2909109890460968,-0.4160394370555878,-0.8615579009056091,0,0,0,-1,197170.640149375,3,1,1561914455.477686,1561913957.287787,32,0.8918345,0,0,26.32609,0,0,1561914413.669193,197170.694366,0,1.257812,75.29331,3232235528,177845136,1,1,0.53,-23.81208,-36.59868,0
1561914458.468026,80,0,0,1561914458.000068,4.634724869397129,-74.15099171928516,2552.853,0.23,99.4921875,4,30,-9999,1561914458.464541,10.73296356201172,11.42015647888184,-24.2401123046875,305.5703735351562,313.0638427734375,15,197173.62402175,-0.289306640625,-0.37310791015625,-0.74993896484375,197173.60680975,0.8418907343368631,0.04319460866832218,1.891894991006295,197173.61306575,-64.75360107421875,-18.78721618652344,-588.0921020507812,197173.60680975,2.023349031464467,-0.3457361390818481,0.4354051117839368,0.8391721248626709,0.03655295819044113,1.888658881187439,0.02325886487960815,0.05463603138923645,0.1261330246925354,1,-0.2552343308925629,-0.09128093719482422,-0.7956684827804565,-0.5416963696479797,-0.307270735502243,-0.421777755022049,-0.8530464768409729,0,0,0,-1,197170.640149375,3,1,1561914455.477686,1561913957.287787,32,0.8918345,0,0,26.32609,0,0,1561914413.669193,197170.694366,0,1.257812,75.29331,3232235528,177845136,1,1,0.53,-23.81208,-35.83979,0
1561914458.488291,81,0,0,1561914458.000068,4.634724869397129,-74.15099171928516,2552.853,0.23,99.4921875,4,30,-9999,1561914458.464541,10.73296356201172,11.42015647888184,-24.2401123046875,305.5703735351562,313.0638427734375,15,197173.64428475,-0.30413818359375,-0.365692138671875,-0.7900390625,197173.62707275,0.4762168787480451,0.2486055551266789,1.854521786164777,197173.63317675,-64.26841735839844,-19.43717956542969,-588.0478515625,197173.62707275,2.067566953564482,-0.3618010718800765,0.434792977048757,0.4734982550144196,0.2419638931751251,1.851285696029663,0.03171929717063904,0.04811471700668335,0.09830266237258911,1,-0.2594913840293884,-0.09243056923151016,-0.805473268032074,-0.5247225165367126,-0.321025937795639,-0.4212226569652557,-0.8482416272163391,0,0,0,-1,197170.640149375,3,1,1561914455.477686,1561913957.287787,32,0.8918345,0,0,26.32609,0,0,1561914413.669193,197170.694366,0,1.257812,75.29331,3232235528,177845136,1,1,0.53,-23.81208,-36.10384,0
1561914458.525468,82,0,0,1561914458.000068,4.634724869397129,-74.15099171928516,2552.853,0.23,99.4921875,4,30,-9999,1561914458.5155,12.45262908935547,9.526552200317383,-24.353515625,299.9054565429688,307.39892578125,15,197173.66454875,-0.306060791015625,-0.3523101806640625,-0.832427978515625,197173.64733675,0.1379546739433036,0.534090831344884,1.844632936405095,197173.65328775,-63.45242309570312,-19.57797241210938,-588.1160888671875,197173.64733675,2.108412338641314,-0.371059963293595,0.4270460046899154,0.1352360546588898,0.5274491906166077,1.841396808624268,0.02590104937553406,0.04849177598953247,0.05820959806442261,1,-0.2596206367015839,-0.09204775840044022,-0.8158721923828125,-0.5084062218666077,-0.3300392031669617,-0.4141839146614075,-0.8482486605644226,0,0,0,-1,197170.640149375,3,1,1561914455.477686,1561913957.287787,32,0.8918345,0,0,26.32609,0,0,1561914413.669193,197170.694366,0,1.257812,75.29331,3232235528,177845136,1,1,0.53,-23.81208,-36.78745,0
1561914458.528861,83,0,0,1561914458.000068,4.634724869397129,-74.15099171928516,2552.853,0.23,99.4921875,4,30,-9999,1561914458.5155,12.45262908935547,9.526552200317383,-24.353515625,299.9054565429688,307.39892578125,15,197173.68481275,-0.297576904296875,-0.3356781005859375,-0.860748291015625,197173.66760075,-0.06086095407547183,0.655354409472225,1.784802093039266,197173.67339875,-62.78726196289062,-20.02261352539062,-587.6630859375,197173.66760075,2.146124244218609,-0.3741733086858903,0.4139420183223868,-0.06357956677675247,0.6487127542495728,1.781566023826599,0.02857285737991333,0.04991132020950317,0.0197681188583374,1,-0.2563409507274628,-0.09050561487674713,-0.8266602754592896,-0.4926773011684418,-0.3346336483955383,-0.4022215306758881,-0.8521960973739624,0,0,0,-1,197170.640149375,3,1,1561914455.477686,1561913957.287787,32,0.8918345,0,0,26.32609,0,0,1561914413.669193,197170.694366,0,1.257812,75.29331,3232235528,177845136,1,1,0.53,-23.81208,-36.78745,0
1561914458.549247,84,0,0,1561914458.000068,4.634724869397129,-74.15099171928516,2552.853,0.23,99.4921875,4,30,-9999,1561914458.539432,13.24369430541992,9.084613800048828,-24.18524169921875,297.4417724609375,304.9352416992188,15,197173.70507575,-0.2946319580078125,-0.317535400390625,-0.8812713623046875,197173.68783375,-0.0352125822491367,0.6211642147655698,1.674445224840236,197173.69347975,-62.10218811035156,-20.55354309082031,-587.689697265625,197173.68783375,2.181018307226959,-0.375066418764286,0.3999932197350112,-0.03793119639158249,0.6145225763320923,1.671209096908569,0.03984034061431885,0.05373400449752808,-0.00371396541595459,1,-0.252228319644928,-0.08867756277322769,-0.8368323445320129,-0.4777330160140991,-0.3374172449111938,-0.3894121050834656,-0.8570343255996704,0,0,0,-1,197170.640149375,3,1,1561914455.477686,1561913957.287787,32,0.8918345,0,0,26.32609,0,0,1561914413.669193,197170.694366,0,1.257812,75.29331,3232235528,177845136,1,1,0.53,-23.81208,-36.80244,0
1561914458.569359,85,0,0,1561914458.000068,4.634724869397129,-74.15099171928516,2552.853,0.23,99.4921875,4,30,-9999,1561914458.566138,13.91670227050781,8.575630187988281,-24.0650634765625,295.0812072753906,302.5746765136719,15,197173.72533975,-0.29058837890625,-0.3066253662109375,-0.889129638671875,197173.70809775,0.05553889295305747,0.5936963712824925,1.597314487033252,197173.71359075,-61.51725769042969,-20.90171813964844,-587.596435546875,197173.70809775,2.214315873442689,-0.3757281869722638,0.3880181194766645,0.05282027646899223,0.5870547294616699,1.594078421592712,0.04503926634788513,0.06081920862197876,-0.02018409967422485,1,-0.2486126273870468,-0.08745358139276505,-0.8461068868637085,-0.4632999897003174,-0.3396712243556976,-0.3783546090126038,-0.8610872626304626,0,0,0,-1,197170.640149375,3,1,1561914455.477686,1561913957.287787,32,0.8918345,0,0,26.32609,0,0,1561914413.669193,197170.694366,0,1.257812,75.29331,3232235528,177845136,1,1,0.53,-23.81208,-37.16724,0
1561914458.60405,86,0,0,1561914458.000068,4.634724869397129,-74.15099171928516,2552.853,0.23,99.4921875,4,30,-9999,1561914458.590223,15.04513931274414,7.849275588989258,-23.53485107421875,292.7062377929688,300.19970703125,15,197173.74560375,-0.29083251953125,-0.3005828857421875,-0.88812255859375,197173.72836075,0.155140851405912,0.6379879360038183,1.570490063269538,197173.73370175,-60.92442321777344,-21.57614135742188,-587.3192138671875,197173.72836075,2.247225302222934,-0.3757971280802628,0.3782459387594747,0.152422234416008,0.6313462853431702,1.567253947257996,0.05048292875289917,0.06266558170318604,-0.02466762065887451,1,-0.2452884167432785,-0.08719288557767868,-0.8548184037208557,-0.4489058256149292,-0.3410713076591492,-0.3692909777164459,-0.8644619584083557,0,0,0,-1,197170.640149375,3,1,1561914455.477686,1561913957.287787,32,0.8918345,0,0,26.32609,0,0,1561914413.669193,197170.694366,0,1.257812,75.29331,3232235528,177845136,1,1,0.53,-23.81208,-37.7922,0
1561914458.609877,87,0,0,1561914458.000068,4.634724869397129,-74.15099171928516,2552.853,0.23,99.4921875,4,30,-9999,1561914458.590223,15.04513931274414,7.849275588989258,-23.53485107421875,292.7062377929688,300.19970703125,15,197173.76586675,-0.2845916748046875,-0.301483154296875,-0.87664794921875,197173.74862475,0.2295399848828016,0.7543571566798117,1.576091489990301,197173.75378175,-59.8939208984375,-21.82427978515625,-587.1090087890625,197173.74862475,2.280497878075434,-0.3740324815198811,0.3701826985801803,0.2268213778734207,0.7477155327796936,1.572855472564697,0.04978972673416138,0.06120288372039795,-0.02031636238098145,1,-0.2415454089641571,-0.08804959803819656,-0.8633596897125244,-0.4341809153556824,-0.340622216463089,-0.3617857694625854,-0.8678061962127686,0,0,0,-1,197170.640149375,3,1,1561914455.477686,1561913957.287787,32,0.8918345,0,0,26.32609,0,0,1561914413.669193,197170.694366,0,1.257812,75.29331,3232235528,177845136,1,1,0.53,-23.81208,-37.7922,0
1561914458.630424,88,0,0,1561914458.000068,4.634724869397129,-74.15099171928516,2552.853,0.23,99.4921875,4,30,-9999,1561914458.617247,15.87435913085938,7.248857498168945,-23.4852294921875,290.2710876464844,297.7645568847656,15,197173.78613075,-0.2792510986328125,-0.312774658203125,-0.86212158203125,197173.76888875,0.2701433378104767,0.8278332385228799,1.595613792361127,197173.77389375,-59.61488342285156,-22.64108276367188,-586.7598266601562,197173.76888875,2.314488709496451,-0.370246812805415,0.363244820513031,0.2674247026443481,0.8211916089057922,1.592377781867981,0.05364301800727844,0.05382603406906128,-0.005239486694335938,1,-0.2371251583099365,-0.08981895446777344,-0.8718880414962769,-0.4189455211162567,-0.3382346928119659,-0.3553091883659363,-0.8714084029197693,0,0,0,-1,197170.640149375,3,1,1561914455.477686,1561913957.287787,32,0.8918345,0,0,26.32609,0,0,1561914413.669193,197170.694366,0,1.257812,75.29331,3232235528,177845136,1,1,0.53,-23.81208,-38.25024,0
1561914458.650391,89,0,0,1561914458.000068,4.634724869397129,-74.15099171928516,2552.853,0.23,99.4921875,4,30,-9999,1561914458.640617,16.48961639404297,6.485746383666992,-23.23638916015625,287.829345703125,295.3228149414062,15,197173.80636375,-0.286041259765625,-0.3256683349609375,-0.859283447265625,197173.78915175,0.2738336801329995,0.8345686392357993,1.586410440266031,197173.79400475,-58.93855285644531,-23.47206115722656,-586.5191650390625,197173.78915175,2.34877508232471,-0.365562013580138,0.3568244107536608,0.2711150646209717,0.8279269933700562,1.583174347877502,0.05570611357688904,0.03652578592300415,0.0129743218421936,1,-0.2323883473873138,-0.09191132336854935,-0.8802340626716614,-0.4034055173397064,-0.3349572122097015,-0.3493004441261292,-0.8750959038734436,0,0,0,-1,197170.640149375,3,1,1561914455.477686,1561913957.287787,32,0.8918345,0,0,26.32609,0,0,1561914413.669193,197170.694366,0,1.257812,75.29331,3232235528,177845136,1,1,0.53,-23.81208,-38.57705,0
1561914458.685039,90,0,0,1561914458.000068,4.634724869397129,-74.15099171928516,2552.853,0.23,99.4921875,4,30,-9999,1561914458.640617,16.48961639404297,6.485746383666992,-23.23638916015625,287.829345703125,295.3228149414062,15,197173.82662775,-0.301116943359375,-0.3364410400390625,-0.862701416015625,197173.80941575,0.2331203386523041,0.8234198479644006,1.54252554024316,197173.81411575,-58.44720458984375,-23.79695129394531,-586.2946166992188,197173.80941575,2.382262710047051,-0.3605191440575459,0.3503604819790957,0.2304017245769501,0.8167782425880432,1.539289474487305,0.04528829455375671,0.01756805181503296,0.01958489418029785,1,-0.2275146245956421,-0.09382396191358566,-0.8881748914718628,-0.3880459070205688,-0.3313295543193817,-0.3432364165782928,-0.8788683414459229,0,0,0,-1,197170.640149375,3,1,1561914455.477686,1561913957.287787,32,0.8918345,0,0,26.32609,0,0,1561914413.669193,197170.694366,0,1.257812,75.29331,3232235528,177845136,1,1,0.53,-23.81208,-39.06934,0
1561914458.690909,91,0,0,1561914458.000068,4.634724869397129,-74.15099171928516,2552.853,0.23,99.4921875,4,30,-9999,1561914458.686343,16.96926116943359,5.880233764648438,-22.84136962890625,285.4748840332031,292.9683532714844,15,197173.84689175,-0.314361572265625,-0.3355255126953125,-0.86749267578125,197173.82967975,0.2048349047145726,0.840105617458183,1.504598930527124,197173.83422675,-57.80996704101562,-24.45710754394531,-586.1123657226562,197173.82967975,2.414550848943269,-0.3547516538197809,0.3436596569271862,0.2021162956953049,0.8334639668464661,1.501362919807434,0.02592983841896057,0.0004939734935760498,0.02020013332366943,1,-0.2223308086395264,-0.09548939764499664,-0.8957105278968811,-0.3730326294898987,-0.3270467817783356,-0.3369350135326385,-0.8829015493392944,0,0,0,-1,197170.640149375,3,1,1561914455.477686,1561913957.287787,32,0.8918345,0,0,26.32609,0,0,1561914413.669193,197170.694366,0,1.257812,75.29331,3232235528,177845136,1,1,0.53,-23.81208,-39.06934,0
1561914458.711069,92,0,0,1561914458.000068,4.634724869397129,-74.15099171928516,2552.853,0.23,99.4921875,4,30,-9999,1561914458.686343,16.96926116943359,5.880233764648438,-22.84136962890625,285.4748840332031,292.9683532714844,15,197173.86715475,-0.3336029052734375,-0.3325958251953125,-0.87451171875,197173.84994275,0.1928549408669601,0.8288769313540819,1.480239262352278,197173.85433775,-57.06582641601562,-25.25251770019531,-585.532958984375,197173.84994275,2.446055144863824,-0.3484244655924036,0.3370064328455922,0.1901363283395767,0.8222352862358093,1.477003216743469,0.00785064697265625,-0.004862129688262939,0.01954793930053711,1,-0.2169374823570251,-0.09704549610614777,-0.9028846025466919,-0.3582175672054291,-0.3222122192382812,-0.3306634128093719,-0.8870406150817871,0,0,0,-1,197170.640149375,3,1,1561914455.477686,1561913957.287787,32,0.8918345,0,0,26.32609,0,0,1561914413.669193,197170.694366,0,1.257812,75.29331,3232235528,177845136,1,1,0.53,-23.81208,-39.50988,0
1561914458.73157,93,0,0,1561914458.000068,4.634724869397129,-74.15099171928516,2552.853,0.23,99.4921875,4,30,-9999,1561914458.71779,18.77305603027344,3.921600341796875,-22.11358642578125,281.0045166015625,288.4979858398438,15,197173.88741875,-0.3556365966796875,-0.335113525390625,-0.8850250244140625,197173.87017675,0.1985453171681324,0.8026216251153178,1.43983271702916,197173.87441775,-56.70651245117188,-25.6822509765625,-585.3432006835938,197173.87017675,2.476829087974295,-0.3421608554154696,0.3305671490437355,0.1958267092704773,0.7959799766540527,1.436596632003784,-0.01624521613121033,-0.008016288280487061,0.0165170431137085,1,-0.2116382420063019,-0.09846261143684387,-0.9096340537071228,-0.3436279594898224,-0.3173576891422272,-0.3245795369148254,-0.8910287618637085,0,0,0,-1,197170.640149375,3,1,1561914455.477686,1561913957.287787,32,0.8918345,0,0,26.32609,0,0,1561914413.669193,197170.694366,0,1.257812,75.29331,3232235528,177845136,1,1,0.53,-23.81208,-39.98392,0
1561914458.756464,94,0,0,1561914458.000068,4.634724869397129,-74.15099171928516,2552.853,0.23,99.4921875,4,30,-9999,1561914458.743918,19.35535430908203,3.499191284179688,-21.78179931640625,278.8827819824219,286.3762512207031,15,197173.90768275,-0.3794097900390625,-0.338287353515625,-0.8899383544921875,197173.89043975,0.2447170736190542,0.7555201591278493,1.375147996260552,197173.89452975,-56.29124450683594,-26.14805603027344,-585.1072998046875,197173.89043975,2.506787449482818,-0.3361296071278412,0.3252894019295141,0.2419984638690948,0.748878538608551,1.371911883354187,-0.04309797286987305,-0.01553049683570862,0.009506285190582275,1,-0.2066477388143539,-0.1001551225781441,-0.9158480167388916,-0.3293752074241638,-0.3125386238098145,-0.3195830285549164,-0.8945313096046448,0,0,0,-1,197170.640149375,3,1,1561914455.477686,1561913957.287787,32,0.8918345,0,0,26.32609,0,0,1561914413.669193,197170.694366,0,1.257812,75.29331,3232235528,177845136,1,1,0.53,-23.81208,-40.60386,0
1561914458.772326,95,0,0,1561914458.000068,4.634724869397129,-74.15099171928516,2552.853,0.23,99.4921875,4,30,-9999,1561914458.768297,20.30517196655273,2.104156494140625,-21.24273681640625,276.8943481445312,284.3878173828125,15,197173.92794575,-0.4021453857421875,-0.3383941650390625,-0.8958282470703125,197173.91070375,0.2794343079054361,0.7188614804067996,1.282310466976499,197173.91464075,-55.33859252929688,-27.08221435546875,-585.039794921875,197173.91070375,2.535374084124882,-0.3304336163681703,0.3214808962072109,0.2767156660556793,0.7122198343276978,1.279074430465698,-0.07157880067825317,-0.02231541275978088,0.0075034499168396,1,-0.2020675987005234,-0.1022143661975861,-0.9214237332344055,-0.3157518804073334,-0.3078310191631317,-0.3159719407558441,-0.8974418044090271,0,0,0,-1,197170.640149375,3,1,1561914455.477686,1561913957.287787,32,0.8918345,0,0,26.32609,0,0,1561914413.669193,197170.694366,0,1.257812,75.29331,3232235528,177845136,1,1,0.53,-23.81208,-40.60386,0
1561914458.792287,96,0,0,1561914458.000068,4.634724869397129,-74.15099171928516,2552.853,0.23,99.4921875,4,30,-9999,1561914458.768297,20.30517196655273,2.104156494140625,-21.24273681640625,276.8943481445312,284.3878173828125,15,197173.94820975,-0.4161529541015625,-0.3372802734375,-0.89727783203125,197173.93096775,0.3110289858137002,0.7126824140455977,1.197378531388346,197173.93475175,-55.24403381347656,-27.53085327148438,-584.6385498046875,197173.93096775,2.562387843878956,-0.324613868227063,0.3190083661972654,0.3083103597164154,0.7060407996177673,1.194142460823059,-0.09929421544075012,-0.02476903796195984,0.004127562046051025,1,-0.1976609528064728,-0.104652963578701,-0.9264271259307861,-0.3028378188610077,-0.3028512001037598,-0.3136251270771027,-0.8999558091163635,0,0,0,-1,197170.640149375,3,1,1561914455.477686,1561913957.287787,32,0.8918345,0,0,26.32609,0,0,1561914413.669193,197170.694366,0,1.257812,75.29331,3232235528,177845136,1,1,0.53,-23.81208,-40.85825,0
1561914458.812503,97,0,0,1561914458.000068,4.634724869397129,-74.15099171928516,2552.853,0.23,99.4921875,4,30,-9999,1561914458.792753,20.48117065429688,1.739601135253906,-20.97259521484375,275.0469055175781,282.5403747558594,15,197173.96847375,-0.4272613525390625,-0.333892822265625,-0.89483642578125,197173.95123075,0.3608332939914901,0.6906551423534434,1.104377217697253,197173.95486275,-54.77742004394531,-28.37327575683594,-584.3060302734375,197173.95123075,2.587834710063053,-0.3184551709702279,0.318040460593519,0.3581146597862244,0.6840134859085083,1.101141095161438,-0.1187551319599152,-0.02457436919212341,0.004813909530639648,1,-0.1933308392763138,-0.1075978800654411,-0.9308988451957703,-0.2906427383422852,-0.2973978221416473,-0.3127059042453766,-0.9020917415618896,0,0,0,-1,197170.640149375,3,1,1561914455.477686,1561913957.287787,32,0.8918345,0,0,26.32609,0,0,1561914413.669193,197170.694366,0,1.257812,75.29331,3232235528,177845136,1,1,0.53,-23.81208,-41.25991,0
1561914458.840487,98,0,0,1561914458.000068,4.634724869397129,-74.15099171928516,2552.853,0.23,99.4921875,4,30,-9999,1561914458.8198,20.96434783935547,0.9968204498291016,-20.76776123046875,273.3306579589844,280.8241271972656,15,197173.98870675,-0.4334564208984375,-0.3307952880859375,-0.8825836181640625,197173.97149475,0.4400234542694322,0.6560223302736169,1.011457396735516,197173.97497375,-54.30238342285156,-28.79196166992188,-584.1673583984375,197173.97149475,2.611820512994845,-0.312437486284465,0.3190755515986305,0.437304824590683,0.6493806838989258,1.008221387863159,-0.1353970170021057,-0.02020391821861267,0.008720159530639648,1,-0.1893343031406403,-0.1112395450472832,-0.9347919225692749,-0.2791814506053925,-0.2918643057346344,-0.3136889040470123,-0.9035565853118896,0,0,0,-1,197170.640149375,3,1,1561914455.477686,1561913957.287787,32,0.8918345,0,0,26.32609,0,0,1561914413.669193,197170.694366,0,1.257812,75.29331,3232235528,177845136,1,1,0.53,-23.81208,-40.99314,0
1561914458.852966,99,0,0,1561914458.000068,4.634724869397129,-74.15099171928516,2552.853,0.23,99.4921875,4,30,-9999,1561914458.843378,21.56801223754883,0.3633193969726562,-20.45648193359375,271.7204284667969,279.2138977050781,15,197174.00896975,-0.4335784912109375,-0.33245849609375,-0.8590545654296875,197173.99175875,0.5239942550201756,0.6256274064364336,0.9318722896679154,197173.99508475,-54.48953247070312,-29.67787170410156,-583.7907104492188,197173.99175875,2.634629969374886,-0.3067509805303875,0.3223255402505154,0.5212756395339966,0.6189857721328735,0.9286361932754517,-0.1470442414283752,-0.0140221118927002,0.02164137363433838,1,-0.1857450604438782,-0.1156991273164749,-0.9381362795829773,-0.2683519423007965,-0.2864121794700623,-0.3167732059955597,-0.9042249917984009,0,0,0,-1,197170.640149375,3,1,1561914455.477686,1561913957.287787,32,0.8918345,0,0,26.32609,0,0,1561914413.669193,197170.694366,0,1.257812,75.29331,3232235528,177845136,1,1,0.53,-23.81208,-41.61734,0
1561914458.873261,100,0,0,1561914458.000068,4.634724869397129,-74.15099171928516,2552.853,0.23,99.4921875,4,30,-9999,1561914458.869683,21.9171257019043,-0.7968807220458984,-19.87261962890625,270.2114868164062,277.7049560546875,15,197174.02923375,-0.4226837158203125,-0.34136962890625,-0.8245697021484375,197174.01202175,0.5896582201216054,0.5903407883089926,0.8515332416957131,197174.01516575,-54.10757446289062,-29.97677612304688,-583.7557373046875,197174.01202175,2.656320931711766,-0.3014509622587626,0.3276763034161709,0.5869514942169189,0.5837111473083496,0.8482956290245056,-0.1524699628353119,-0.01061466336250305,0.0450441837310791,1,-0.1825491040945053,-0.1209398433566093,-0.9409664273262024,-0.2581310272216797,-0.2811084985733032,-0.3218438327312469,-0.9040987491607666,0,0,0,-1,197170.640149375,3,1,1561914455.477686,1561913957.287787,32,0.8918345,0,0,26.32609,0,0,1561914413.669193,197170.694366,0,1.257812,75.29331,3232235528,177845136,1,1,0.53,-24.36936,-42.40321,0
1561914458.893459,101,0,0,1561914458.000068,4.634724869397129,-74.15099171928516,2552.853,0.23,99.4921875,4,30,-9999,1561914458.869683,21.9171257019043,-0.7968807220458984,-19.87261962890625,270.2114868164062,277.7049560546875,15,197174.04949775,-0.3928375244140625,-0.3679351806640625,-0.78692626953125,197174.03228575,0.6490256734577607,0.5174170460760069,0.7828231529394507,197174.03527675,-53.76708984375,-30.43032836914062,-583.342529296875,197174.03228575,2.676854687199791,-0.296938817259807,0.3347090004488467,0.6463189721107483,0.5107873678207397,0.7795855402946472,-0.1463266015052795,-0.01287528872489929,0.07860147953033447,1,-0.1798750758171082,-0.1267255246639252,-0.9432975649833679,-0.2485463172197342,-0.276357114315033,-0.3284943401813507,-0.903171181678772,0,0,0,-1,197170.640149375,3,1,1561914455.477686,1561913957.287787,32,0.8918345,0,0,26.32609,0,0,1561914413.669193,197170.694366,0,1.257812,75.29331,3232235528,177845136,1,1,0.53,-24.92664,-41.15328,0
1561914458.923843,102,0,0,1561914458.000068,4.634724869397129,-74.15099171928516,2552.853,0.23,99.4921875,4,30,-9999,1561914458.920579,22.18231964111328,-1.803058624267578,-19.56591796875,267.4740600585938,274.967529296875,15,197174.06976075,-0.3598480224609375,-0.4155120849609375,-0.7787933349609375,197174.05251875,0.6928722239609343,0.3703029621955938,0.7306425061209831,197174.05538775,-53.647705078125,-31.19583129882812,-583.184814453125,197174.05251875,2.69649042056101,-0.2944139739045915,0.3433371146719555,0.6901655197143555,0.3636733293533325,0.7274048924446106,-0.1195942759513855,-0.03130388259887695,0.114193856716156,1,-0.1782525330781937,-0.1329134106636047,-0.945077121257782,-0.2395603060722351,-0.2732432186603546,-0.3366312980651855,-0.901120126247406,0,0,0,-1,197170.640149375,3,1,1561914455.477686,1561913957.287787,32,0.8918345,0,0,26.32609,0,0,1561914413.669193,197171.639884,0,1.49292,75.29108,3232235528,177845136,1,1,0.53,-25.48392,-41.48592,0
1561914458.934253,103,0,0,1561914458.000068,4.634724869397129,-74.15099171928516,2552.853,0.23,99.4921875,4,30,-9999,1561914458.920579,22.18231964111328,-1.803058624267578,-19.56591796875,267.4740600585938,274.967529296875,15,197174.09002475,-0.35443115234375,-0.44573974609375,-0.795318603515625,197174.07278275,0.5743767354706217,0.1907310698976219,0.6742279658015076,197174.07549875,-53.37956237792969,-31.63224792480469,-582.9927978515625,197174.07278275,2.714999640843209,-0.295336519282551,0.3517425875072502,0.5716699957847595,0.1841014474630356,0.6709903478622437,-0.08660683035850525,-0.07097786664962769,0.1193354725837708,1,-0.1782139986753464,-0.1384751051664352,-0.9463405609130859,-0.2313090115785599,-0.2732411921024323,-0.3445342183113098,-0.8981288075447083,0,0,0,-1,197170.640149375,3,1,1561914455.477686,1561913957.287787,32,0.8918345,0,0,26.32609,0,0,1561914413.669193,197171.639884,0,1.49292,75.29108,3232235528,177845136,1,1,0.53,-25.48392,-41.48592,0
1561914458.954394,104,0,0,1561914458.000068,4.634724869397129,-74.15099171928516,2552.853,0.23,99.4921875,4,30,-9999,1561914458.944611,22.31744384765625,-2.413143157958984,-19.53448486328125,266.4478454589844,273.9413146972656,15,197174.11028875,-0.3366851806640625,-0.47186279296875,-0.8254241943359375,197174.09304575,0.3608053308000442,0.1710702831501119,0.5381044814237425,197174.09560975,-53.75732421875,-31.95700073242188,-583.0751342773438,197174.09304575,2.730500386726837,-0.2973977049483756,0.3571777905091201,0.3580986261367798,0.1644406616687775,0.5348668694496155,-0.07989212870597839,-0.09610819816589355,0.1004414558410645,1,-0.1785829067230225,-0.1422255784273148,-0.9473770260810852,-0.224402904510498,-0.2745390236377716,-0.3496315479278564,-0.8957600593566895,0,0,0,-1,197170.640149375,3,1,1561914455.477686,1561913957.287787,32,0.8918345,0,0,26.32609,0,0,1561914413.669193,197171.639884,0,1.49292,75.29108,3232235528,177845136,1,1,0.53,-26.0412,-41.63901,0
1561914458.974605,105,0,0,1561914458.000068,4.634724869397129,-74.15099171928516,2552.853,0.23,99.4921875,4,30,-9999,1561914458.971025,22.42621994018555,-3.118755340576172,-19.33172607421875,265.7732543945312,273.2667236328125,15,197174.13055175,-0.316314697265625,-0.468353271484375,-0.8725128173828125,197174.11330975,0.1225197912135314,0.1904058979285232,0.4252197407180088,197174.11568975,-53.47200012207031,-32.46685791015625,-583.0733642578125,197174.11330975,2.741840108382822,-0.2977583458521716,0.3590713393598521,0.1198130697011948,0.1837762743234634,0.4219821393489838,-0.06201782822608948,-0.1204578280448914,0.06960231065750122,1,-0.1781031042337418,-0.1441042721271515,-0.948411226272583,-0.2191560119390488,-0.2746673226356506,-0.3514049649238586,-0.8950265049934387,0,0,0,-1,197170.640149375,3,1,1561914455.477686,1561913957.287787,32,0.8918345,0,0,26.32609,0,0,1561914413.669193,197171.639884,0,1.49292,75.29108,3232235528,177845136,1,1,0.53,-26.59848,-41.74538,0
1561914459.00561,106,0,0,1561914458.000068,4.634724869397129,-74.15099171928516,2552.853,0.23,99.4921875,4,30,-9999,1561914458.995556,22.32239151000977,-3.28826904296875,-19.13800048828125,265.4490966796875,272.9425659179688,15,197174.15081575,-0.2999725341796875,-0.4348297119140625,-0.9169769287109375,197174.13357375,-0.07991640430720678,0.1046382623903034,0.2989685945011674,197174.13580175,-53.34898376464844,-32.95831298828125,-582.741455078125,197174.13357375,2.749493574233129,-0.2975606523464827,0.3571016112321884,-0.08262312412261963,0.09800864011049271,0.2957309782505035,-0.04162189364433289,-0.1187931001186371,0.0232279896736145,1,-0.1772953271865845,-0.1438609510660172,-0.9494585990905762,-0.21540367603302,-0.2746928036212921,-0.3495601713657379,-0.895740807056427,0,0,0,-1,197170.640149375,3,1,1561914455.477686,1561913957.287787,32,0.8918345,0,0,26.32609,0,0,1561914413.669193,197171.639884,0,1.49292,75.29108,3232235528,177845136,1,1,0.53,-27.15576,-41.37331,0
1561914459.015272,107,0,0,1561914458.000068,4.634724869397129,-74.15099171928516,2552.853,0.23,99.4921875,4,30,-9999,1561914458.995556,22.32239151000977,-3.28826904296875,-19.13800048828125,265.4490966796875,272.9425659179688,15,197174.17104875,-0.297821044921875,-0.364990234375,-0.952880859375,197174.15383675,-0.1211336158661451,-0.003297792377845121,0.1266383698393389,197174.15591275,-53.30148315429688,-32.56777954101562,-582.6686401367188,197174.15383675,2.753100314093766,-0.2980120287387114,0.3536033724319477,-0.1238403394818306,-0.009927412495017052,0.1234007626771927,-0.02451810240745544,-0.08854922652244568,-0.02019673585891724,1,-0.1769663691520691,-0.1424528658390045,-0.9501548409461975,-0.213531881570816,-0.2754544615745544,-0.3462804853916168,-0.8967801928520203,0,0,0,-1,197170.640149375,3,1,1561914455.477686,1561913957.287787,32,0.8918345,0,0,26.32609,0,0,1561914413.669193,197171.639884,0,1.49292,75.29108,3232235528,177845136,1,1,0.53,-27.71304,-41.80488,0
1561914459.035389,108,0,0,1561914458.000068,4.634724869397129,-74.15099171928516,2552.853,0.23,99.4921875,4,30,-9999,1561914459.021678,22.38614654541016,-3.203819274902344,-19.19775390625,265.4013366699219,272.8948059082031,15,197174.19131275,-0.2795562744140625,-0.3147430419921875,-0.95318603515625,197174.17410075,0.04678827824327511,-0.02280118630493141,-0.01031069447635078,197174.17602375,-53.39834594726562,-32.769775390625,-583.13330078125,197174.17410075,2.75371872983639,-0.2988359616314616,0.3522633636787593,0.04408156126737595,-0.0294308066368103,-0.01354829967021942,-0.02149146795272827,-0.01996716856956482,-0.05588531494140625,1,-0.1772052347660065,-0.1417763233184814,-0.9502809047698975,-0.2132228314876556,-0.2763296067714691,-0.3450230658054352,-0.8969955444335938,0,0,0,-1,197170.640149375,3,1,1561914455.477686,1561913957.287787,32,0.8918345,0,0,26.32609,0,0,1561914413.669193,197171.639884,0,1.49292,75.29108,3232235528,177845136,1,1,0.53,-28.27032,-42.10717,0
1561914459.05703,109,0,0,1561914459.000083,4.634724869397129,-74.15099171928516,2552.851,0,14.0625,4,30,-9999,1561914459.021678,22.38614654541016,-3.203819274902344,-19.19775390625,265.4013366699219,272.8948059082031,15,197174.21157675,-0.2447509765625,-0.286468505859375,-0.9297332763671875,197174.19436475,0.3734111375038253,0.04466121148062883,-0.05617565476969542,197174.19613475,-53.24214172363281,-32.67935180664062,-583.0718994140625,197174.19436475,2.754108405698957,-0.2989191966592261,0.3563985131948709,0.3707044422626495,0.03803159296512604,-0.05941325798630714,-0.003574520349502563,0.03415828943252563,-0.05758458375930786,1,-0.1775513887405396,-0.143787294626236,-0.949903130531311,-0.2132715880870819,-0.2759817540645599,-0.3489013314247131,-0.8956014513969421,0,0,0,-1,197170.640149375,3,1,1561914455.477686,1561913957.287787,32,0.8918345,0,0,26.32609,0,0,1561914413.669193,197171.639884,0,1.49292,75.29108,3232235528,177845136,1,1,0.53,-28.82759,-42.25486,0
1561914459.080761,110,0,0,1561914459.000083,4.634724869397129,-74.15099171928516,2552.851,0,14.0625,4,30,-9999,1561914459.05857,22.45373153686523,-3.195873260498047,-19.3428955078125,265.3425903320312,272.8360595703125,15,197174.23183975,-0.210296630859375,-0.2996978759765625,-0.9050140380859375,197174.21462775,0.6646802669774645,0.07681941427555364,-0.03002607602620738,197174.21621475,-53.39460754394531,-32.65219116210938,-582.849853515625,197174.21462775,2.756452199691647,-0.2984901970817491,0.3668440272070456,0.6619735360145569,0.07018978893756866,-0.0332636795938015,0.02975976467132568,0.07220274209976196,-0.03754562139511108,1,-0.1780142039060593,-0.1490540951490402,-0.9491326212882996,-0.2126993983983994,-0.2745107412338257,-0.358671247959137,-0.8921876549720764,0,0,0,-1,197170.640149375,3,1,1561914455.477686,1561913957.287787,32,0.8918345,0,0,26.32609,0,0,1561914413.669193,197171.639884,0,1.49292,75.29108,3232235528,177845136,1,1,0.53,-29.38487,-42.3801,0
1561914459.096283,111,0,0,1561914459.000083,4.634724869397129,-74.15099171928516,2552.851,0,14.0625,4,30,-9999,1561914459.05857,22.45373153686523,-3.195873260498047,-19.3428955078125,265.3425903320312,272.8360595703125,15,197174.25210375,-0.1921539306640625,-0.3318939208984375,-0.8985748291015625,197174.23486175,0.7351802663023691,0.03980493723286933,-0.01954653713674558,197174.23632575,-53.22297668457031,-33.04788208007812,-582.9928588867188,197174.23486175,2.760542466518164,-0.2990374100249383,0.3809953564175836,0.7324735522270203,0.03317531570792198,-0.02278414182364941,0.06317952275276184,0.07214674353599548,-0.01791632175445557,1,-0.1790783405303955,-0.1561476588249207,-0.9480438828468323,-0.2115693390369415,-0.2734761238098145,-0.3718446493148804,-0.8870977163314819,0,0,0,-1,197170.640149375,3,1,1561914455.477686,1561913957.287787,32,0.8918345,0,0,26.32609,0,0,1561914413.669193,197171.639884,0,1.49292,75.29108,3232235528,177845136,1,1,0.53,-29.38487,-42.3801,0
1561914459.116414,112,0,0,1561914459.000083,4.634724869397129,-74.15099171928516,2552.851,0,14.0625,4,30,-9999,1561914459.096567,22.47714996337891,-3.711269378662109,-19.375,264.823974609375,272.3174438476562,15,197174.27236775,-0.1860504150390625,-0.353302001953125,-0.9098968505859375,197174.25512475,0.597645572862971,0.01290967338415911,-0.06427858870237051,197174.25643675,-53.07731628417969,-33.07388305664062,-582.8220825195312,197174.25512475,2.764083791848801,-0.300011105399593,0.3942935366160393,0.5949388742446899,0.006280052475631237,-0.06751619279384613,0.08070027828216553,0.05226209759712219,-0.01654607057571411,1,-0.1802857965230942,-0.1627349406480789,-0.9469030499458313,-0.2106866091489792,-0.272854208946228,-0.3841560184955597,-0.8820287585258484,0,0,0,-1,197170.640149375,3,1,1561914455.477686,1561913957.287787,32,0.8918345,0,0,26.32609,0,0,1561914413.669193,197171.639884,0,1.49292,75.29108,3232235528,177845136,1,1,0.53,-29.94215,-40.62329,0
1561914459.137882,113,0,0,1561914459.000083,4.634724869397129,-74.15099171928516,2552.851,0,14.0625,4,30,-9999,1561914459.123033,22.57502365112305,-3.835472106933594,-19.13250732421875,264.7815551757812,272.2750244140625,15,197174.29263075,-0.1812591552734375,-0.3501129150390625,-0.9247283935546875,197174.27538875,0.3137611227760125,0.05015398122891725,-0.1458799750312704,197174.27654875,-53.15974426269531,-33.49357604980469,-582.6215209960938,197174.27538875,2.764776419061162,-0.2997951471211067,0.4036562202562958,0.3110544085502625,0.0435243621468544,-0.149117574095726,0.08553916215896606,0.03948134183883667,-0.03128409385681152,1,-0.1808408498764038,-0.1673027724027634,-0.9459660649299622,-0.2108424156904221,-0.2715895771980286,-0.3927833437919617,-0.878612756729126,0,0,0,-1,197170.640149375,3,1,1561914455.477686,1561913957.287787,32,0.8918345,0,0,26.32609,0,0,1561914413.669193,197171.639884,0,1.49292,75.29108,3232235528,177845136,1,1,0.53,-30.49943,-41.1316,0
1561914459.168019,114,0,0,1561914459.000083,4.634724869397129,-74.15099171928516,2552.851,0,14.0625,4,30,-9999,1561914459.150156,22.70170211791992,-4.088153839111328,-19.1309814453125,265.0213317871094,272.5148010253906,15,197174.31289475,-0.181060791015625,-0.3238372802734375,-0.937103271484375,197174.29565275,0.02199504744296443,0.09686502780058007,-0.1895054831639675,197174.29665975,-53.17658996582031,-33.531494140625,-582.4796752929688,197174.29565275,2.762050108476875,-0.2974409586403399,0.4074932719291547,0.01928832940757275,0.09023540467023849,-0.1927430927753448,0.08781754970550537,0.04619619250297546,-0.04692614078521729,1,-0.180249810218811,-0.1691415905952454,-0.9454624652862549,-0.212136298418045,-0.2690767049789429,-0.396309107542038,-0.8778022527694702,0,0,0,-1,197170.640149375,3,1,1561914455.477686,1561913957.287787,32,0.8918345,0,0,26.32609,0,0,1561914413.669193,197171.639884,0,1.49292,75.29108,3232235528,177845136,1,1,0.53,-31.05671,-41.73202,0
1561914459.177192,115,0,0,1561914459.000083,4.634724869397129,-74.15099171928516,2552.851,0,14.0625,4,30,-9999,1561914459.173629,22.87936401367188,-4.029289245605469,-18.82373046875,265.3273010253906,272.8207702636719,15,197174.33315875,-0.166839599609375,-0.293701171875,-0.930877685546875,197174.31591575,-0.2168228580454552,0.2544210999990849,-0.1374747723148713,197174.31673975,-53.02958679199219,-33.21511840820312,-582.579833984375,197174.31591575,2.757647316377179,-0.292253588724981,0.4061729996674666,-0.2195295840501785,0.2477914690971375,-0.1407123804092407,0.08360937237739563,0.07125931978225708,-0.05741673707962036,1,-0.1780671179294586,-0.1686678230762482,-0.945605993270874,-0.2137115150690079,-0.2646701633930206,-0.3950966000556946,-0.8796865344047546,0,0,0,-1,197170.640149375,3,1,1561914455.477686,1561913957.287787,32,0.8918345,0,0,26.32609,0,0,1561914413.669193,197171.639884,0,1.49292,75.29108,3232235528,177845136,1,1,0.53,-31.61399,-42.21184,0
1561914459.198332,116,0,0,1561914459.000083,4.634724869397129,-74.15099171928516,2552.851,0,14.0625,4,30,-9999,1561914459.173629,22.87936401367188,-4.029289245605469,-18.82373046875,265.3273010253906,272.8207702636719,15,197174.35339175,-0.130950927734375,-0.2681427001953125,-0.9048919677734375,197174.33617975,-0.4076197080220021,0.4690585680540211,-0.01773079390552955,197174.33685075,-52.92689514160156,-33.29855346679688,-582.4102783203125,197174.33617975,2.753758757918515,-0.2833569648446316,0.4002144519850974,-0.4103264212608337,0.4624289572238922,-0.02096839807927608,0.09064757823944092,0.09591469168663025,-0.04662668704986572,1,-0.173714280128479,-0.1664267033338547,-0.9466317892074585,-0.2145081013441086,-0.2574871778488159,-0.3896158635616302,-0.8842509984970093,0,0,0,-1,197170.640149375,3,1,1561914455.477686,1561913957.287787,32,0.8918345,0,0,26.32609,0,0,1561914413.669193,197171.639884,0,1.49292,75.29108,3232235528,177845136,1,1,0.53,-32.17127,-42.83359,0
1561914459.235329,117,0,0,1561914459.000083,4.634724869397129,-74.15099171928516,2552.851,0,14.0625,4,30,-9999,1561914459.226611,23.46339797973633,-3.685279846191406,-18.4744873046875,265.2330932617188,272.7265625,15,197174.373654125,-0.085052490234375,-0.261016845703125,-0.8676300048828125,197174.35644375,-0.4919990376839636,0.6245096777269273,0.1723848194641751,197174.35696175,-52.48493957519531,-32.98506164550781,-582.059326171875,197174.35644375,2.752351338852517,-0.2714898215226671,0.3906934723970488,-0.4947057366371155,0.6178800463676453,0.1691472083330154,0.1170084029436111,0.1126870512962341,-0.01411426067352295,1,-0.1674420684576035,-0.1630162745714188,-0.9485266208648682,-0.2137430906295776,-0.247959315776825,-0.3808297216892242,-0.8907777070999146,0,0,0,-1,197170.640149375,3,1,1561914455.477686,1561913957.287787,32,0.8918345,0,0,26.32609,0,0,1561914413.669193,197171.639884,0,1.49292,75.29108,3232235528,177845136,1,1,0.53,-32.72855,-43.05183,0
1561914459.237943,118,0,0,1561914459.000083,4.634724869397129,-74.15099171928516,2552.851,0,14.0625,4,30,-9999,1561914459.226611,23.46339797973633,-3.685279846191406,-18.4744873046875,265.2330932617188,272.7265625,15,197174.393917125,-0.0446624755859375,-0.2650299072265625,-0.8433074951171875,197174.376705125,-0.419885162738471,0.6130468997630083,0.4018174789550464,197174.377071125,-52.03038024902344,-33.00424194335938,-581.9918212890625,197174.376705125,2.755527332871806,-0.2598052256926517,0.3799495474838728,-0.4225918650627136,0.6064172387123108,0.398579865694046,0.1535191237926483,0.1098567843437195,0.02988672256469727,1,-0.1607644408941269,-0.1593625396490097,-0.9509572982788086,-0.2108043134212494,-0.2385716140270233,-0.3708736300468445,-0.8975167274475098,0,0,0,-1,197170.640149375,3,1,1561914455.477686,1561913957.287787,32,0.8918345,0,0,26.32609,0,0,1561914413.669193,197171.639884,0,1.49292,75.29108,3232235528,177845136,1,1,0.53,-32.72855,-43.05183,0
1561914459.258628,119,0,0,1561914459.000083,4.634724869397129,-74.15099171928516,2552.851,0,14.0625,4,30,-9999,1561914459.248624,23.65294647216797,-3.692340850830078,-18.30364990234375,264.4854736328125,271.9789428710938,15,197174.414181125,-0.0247344970703125,-0.287200927734375,-0.843231201171875,197174.396969125,-0.270018701871461,0.412591030828853,0.6294461131234982,197174.397183125,-52.2269287109375,-33.14950561523438,-581.824462890625,197174.396969125,2.764394652462676,-0.2524662733575062,0.3704092608017249,-0.2727254033088684,0.4059614241123199,0.626208484172821,0.1881891936063766,0.09696704149246216,0.05932104587554932,1,-0.1558006852865219,-0.1562429815530777,-0.9534410834312439,-0.2055832147598267,-0.2328516840934753,-0.361996978521347,-0.9026285409927368,0,0,0,-1,197170.640149375,3,1,1561914455.477686,1561913957.287787,32,0.8918345,0,0,26.32609,0,0,1561914413.669193,197171.639884,0,1.49292,75.29108,3232235528,177845136,1,1,0.53,-33.28583,-43.45864,0
1561914459.278489,120,0,0,1561914459.000083,4.634724869397129,-74.15099171928516,2552.851,0,14.0625,4,30,-9999,1561914459.274892,23.79034805297852,-3.935527801513672,-18.01409912109375,263.2504577636719,270.7439270019531,15,197174.434445125,-0.0509185791015625,-0.3039398193359375,-0.8701324462890625,197174.417202125,-0.1464573483555996,0.1514923207125034,0.8595541502668137,197174.417263125,-51.974853515625,-33.27217102050781,-581.448486328125,197174.417202125,2.778755087106124,-0.2519479176029019,0.3625317578032877,-0.1491640657186508,0.1448626965284348,0.8563165664672852,0.2083529531955719,0.06744164228439331,0.06225144863128662,1,-0.1538228094577789,-0.153613805770874,-0.9557207226753235,-0.1983411014080048,-0.2330874353647232,-0.3546425700187683,-0.9054827094078064,0,0,0,-1,197170.640149375,3,1,1561914455.477686,1561913957.287787,32,0.8918345,0,0,26.32609,0,0,1561914413.669193,197171.639884,0,1.49292,75.29108,3232235528,177845136,1,1,0.53,-33.84311,-43.66625,0
1561914459.315889,121,0,0,1561914459.000083,4.634724869397129,-74.15099171928516,2552.851,0,14.0625,4,30,-9999,1561914459.299352,23.81015396118164,-4.390735626220703,-18.05523681640625,261.6200256347656,269.1134948730469,15,197174.454708125,-0.11004638671875,-0.32257080078125,-0.920654296875,197174.437466125,-0.06177388569715098,-0.02939384158342257,1.072784670317861,197174.437374125,-52.1363525390625,-33.57710266113281,-581.5903930664062,197174.437466125,2.798417232695765,-0.2578453190208014,0.355420268723846,-0.06448060274124146,-0.03602346032857895,1.069547057151794,0.1881418377161026,0.04404458403587341,0.03637570142745972,1,-0.1546162813901901,-0.1511282324790955,-0.9578682780265808,-0.1890567988157272,-0.2390604168176651,-0.3479844033718109,-0.9065081477165222,0,0,0,-1,197170.640149375,3,1,1561914455.477686,1561913957.287787,32,0.8918345,0,0,26.32609,0,0,1561914413.669193,197171.639884,0,1.49292,75.29108,3232235528,177845136,1,1,0.53,-34.95766,-40.0503,0
