loggingTime,loggingSample,identifierForVendor,deviceID,locationTimestamp_since1970,locationLatitude,locationLongitude,locationAltitude,locationSpeed,locationCourse,locationVerticalAccuracy,locationHorizontalAccuracy,locationFloor,locationHeadingTimestamp_since1970,locationHeadingX,locationHeadingY,locationHeadingZ,locationTrueHeading,locationMagneticHeading,locationHeadingAccuracy,accelerometerTimestamp_sinceReboot,accelerometerAccelerationX,accelerometerAccelerationY,accelerometerAccelerationZ,gyroTimestamp_sinceReboot,gyroRotationX,gyroRotationY,gyroRotationZ,magnetometerTimestamp_sinceReboot,magnetometerX,magnetometerY,magnetometerZ,motionTimestamp_sinceReboot,motionYaw,motionRoll,motionPitch,motionRotationRateX,motionRotationRateY,motionRotationRateZ,motionUserAccelerationX,motionUserAccelerationY,motionUserAccelerationZ,motionAttitudeReferenceFrame,motionQuaternionX,motionQuaternionY,motionQuaternionZ,motionQuaternionW,motionGravityX,motionGravityY,motionGravityZ,motionMagneticFieldX,motionMagneticFieldY,motionMagneticFieldZ,motionMagneticFieldCalibrationAccuracy,activityTimestamp_sinceReboot,activity,activityActivityConfidence,activityActivityStartDate,pedometerStartDate,pedometerNumberofSteps,pedometerAverageActivePace,pedometerCurrentPace,pedometerCurrentCadence,pedometerDistance,pedometerFloorAscended,pedometerFloorDescended,pedometerEndDate,altimeterTimestamp_sinceReboot,altimeterReset,altimeterRelativeAltitude,altimeterPressure,IP_en0,IP_pdp_ip0,deviceOrientation,batteryState,batteryLevel,avAudioRecorderPeakPower,avAudioRecorderAveragePower,label
1561914473.010913,1,0,0,1561914472.000174,4.634741633203472,-74.15106489329985,2552.917,0.51,290.390625,4,30,-9999,1561914472.984197,6.204124450683594,24.85684967041016,13.988525390625,24.45994758605957,31.95341491699219,15,197188.150783375,-0.7126312255859375,0.677093505859375,0.0595245361328125,197188.133571375,0.2045848338882141,-0.1592493100195772,-0.01912682294894909,197188.128749375,-69.71833801269531,-4.285629272460938,-549.7425537109375,197188.133571375,0.6678528971999452,-1.587275071385931,-0.7040161901246718,0.2018530964851379,-0.1659042090177536,-0.0223612729460001,0.05343544483184814,0.03858304023742676,0.04705572128295898,1,0.009094314649701118,0.7114755511283875,-0.4479690790176392,-0.5413349270820618,-0.7621451616287231,0.647284209728241,0.01256033312529325,0,0,0,-1,197187.821040375,3,2,1561914472.658577,1561913957.287787,32,0.8918345,0,0,26.32609,0,0,1561914413.669193,197184.877554,0,1.173096,75.2941,3232235528,177845136,1,1,0.53,-28.85829,-33.77852,2
1561914473.015271,2,0,0,1561914472.000174,4.634741633203472,-74.15106489329985,2552.917,0.51,290.390625,4,30,-9999,1561914473.010432,6.134819030761719,25.07190322875977,13.84832763671875,24.13850593566895,31.63197326660156,15,197188.171046375,-0.719970703125,0.66522216796875,0.0549774169921875,197188.153804375,0.1476400581957038,-0.1407302204313842,0.02643080855460041,197188.148860375,-69.68756103515625,-4.296432495117188,-549.708740234375,197188.153804375,0.672378744486715,-1.5876457831427,-0.7043633092879983,0.1449083238840103,-0.1473851203918457,0.02319635823369026,0.04928457736968994,0.02954471111297607,0.04668545722961426,1,0.007522922940552235,0.7115918397903442,-0.4492901265621185,-0.5401099920272827,-0.7619158029556274,0.6475487947463989,0.01283908169716597,0,0,0,-1,197187.821040375,3,2,1561914472.658577,1561913957.287787,32,0.8918345,0,0,26.32609,0,0,1561914413.669193,197184.877554,0,1.173096,75.2941,3232235528,177845136,1,1,0.53,-28.85829,-33.77852,2
1561914473.035589,3,0,0,1561914472.000174,4.634741633203472,-74.15106489329985,2552.917,0.51,290.390625,4,30,-9999,1561914473.010432,6.134819030761719,25.07190322875977,13.84832763671875,24.13850593566895,31.63197326660156,15,197188.191310375,-0.72711181640625,0.66107177734375,0.05108642578125,197188.174067375,0.08566909857788695,-0.1062129895428672,0.04451420498845645,197188.168971375,-69.68692016601562,-4.680007934570312,-550.054931640625,197188.174067375,0.6752482903291678,-1.588525717285669,-0.7052603114366213,0.08293735980987549,-0.1128678992390633,0.04127975553274155,0.04135251045227051,0.016990065574646,0.04147815704345703,1,0.006618867628276348,0.7118327021598816,-0.4503147900104523,-0.5389499068260193,-0.7613232135772705,0.6482320427894592,0.01349921058863401,0,0,0,-1,197187.821040375,3,2,1561914472.658577,1561913957.287787,32,0.8918345,0,0,26.32609,0,0,1561914413.669193,197184.877554,0,1.173096,75.2941,3232235528,177845136,1,1,0.53,-28.85829,-34.45599,2
1561914473.056706,4,0,0,1561914473.000176,4.634741633203472,-74.15106489329985,2552.92,0,195.1171875,4,30,-9999,1561914473.010432,6.134819030761719,25.07190322875977,13.84832763671875,24.13850593566895,31.63197326660156,15,197188.211574375,-0.733978271484375,0.6628875732421875,0.0479736328125,197188.194331375,0.04145476552817342,-0.07712621043313077,0.05494127960444369,197188.189082375,-69.60177612304688,-4.484176635742188,-550.1787719726562,197188.194331375,0.6767213528581345,-1.589647018233954,-0.7063917456567227,0.03872302547097206,-0.08378112316131592,0.05170682817697525,0.0334618091583252,0.0119786262512207,0.03674733638763428,1,0.006238904315978289,0.7121310234069824,-0.4510269463062286,-0.5379638075828552,-0.7605736255645752,0.6490931510925293,0.01433903723955154,0,0,0,-1,197187.821040375,3,2,1561914472.658577,1561913957.287787,32,0.8918345,0,0,26.32609,0,0,1561914413.669193,197184.877554,0,1.173096,75.2941,3232235528,177845136,1,1,0.53,-28.85829,-35.23867,2
1561914473.076707,5,0,0,1561914473.000176,4.634741633203472,-74.15106489329985,2552.92,0,195.1171875,4,30,-9999,1561914473.061309,6.273033142089844,24.95209312438965,13.39312744140625,23.89287376403809,31.3863410949707,15,197188.231837375,-0.7328643798828125,0.67010498046875,0.0430908203125,197188.214595375,0.01435070985000098,-0.03493348296689639,0.09300477580051021,197188.209193375,-69.30821228027344,-4.296890258789062,-549.8043823242188,197188.214595375,0.6772453940009691,-1.590686801531444,-0.7079245520284392,0.01161896903067827,-0.04158838838338852,0.08977033197879791,0.02558451890945435,0.01262915134429932,0.03286349773406982,1,0.00635547423735261,0.7124006152153015,-0.4515935182571411,-0.5371296405792236,-0.7595627903938293,0.6502584218978882,0.01511005684733391,0,0,0,-1,197187.821040375,3,2,1561914472.658577,1561913957.287787,32,0.8918345,0,0,26.32609,0,0,1561914413.669193,197184.877554,0,1.173096,75.2941,3232235528,177845136,1,1,0.53,-28.85829,-35.23867,2
1561914473.096212,6,0,0,1561914473.000176,4.634741633203472,-74.15106489329985,2552.92,0,195.1171875,4,30,-9999,1561914473.061309,6.273033142089844,24.95209312438965,13.39312744140625,23.89287376403809,31.3863410949707,15,197188.252101375,-0.7347259521484375,0.6674957275390625,0.038421630859375,197188.234858375,0.0007640609167437334,-0.034886611331711,0.148555386662364,197188.229304375,-69.16519165039062,-4.475509643554688,-549.9630126953125,197188.234858375,0.6771347626445213,-1.59154089538816,-0.7104297533387952,-0.001967679709196091,-0.04154151678085327,0.145320937037468,0.02505433559417725,0.01794534921646118,0.02736592292785645,1,0.007080565672367811,0.7126095294952393,-0.4522569477558136,-0.5362846851348877,-0.757918655872345,0.6521596312522888,0.01572495140135288,0,0,0,-1,197187.821040375,3,2,1561914472.658577,1561913957.287787,32,0.8918345,0,0,26.32609,0,0,1561914413.669193,197185.822804,0,1.186279,75.29399,3232235528,177845136,1,1,0.53,-28.85829,-34.9476,2
1561914473.116763,7,0,0,1561914473.000176,4.634741633203472,-74.15106489329985,2552.92,0,195.1171875,4,30,-9999,1561914473.102716,6.422187805175781,24.90249633789062,13.60125732421875,23.88922691345215,31.38269424438477,15,197188.272334375,-0.7373809814453125,0.664581298828125,0.0355072021484375,197188.255122375,0.01813479544289457,-0.07150534263640954,0.164049657884445,197188.249415375,-69.31864929199219,-4.487014770507812,-550.1005859375,197188.255122375,0.6771368153459973,-1.59284449077816,-0.7136628800690464,0.01540305465459824,-0.07816025614738464,0.1608152091503143,0.02105951309204102,0.01288849115371704,0.02175521850585938,1,0.007918179035186768,0.7129309177398682,-0.4531528353691101,-0.5350881218910217,-0.7557854652404785,0.6546071767807007,0.01666638255119324,0,0,0,-1,197187.821040375,3,2,1561914472.658577,1561913957.287787,32,0.8918345,0,0,26.32609,0,0,1561914413.669193,197185.822804,0,1.186279,75.29399,3232235528,177845136,1,1,0.53,-28.85829,-35.33897,2
1561914473.153477,8,0,0,1561914473.000176,4.634741633203472,-74.15106489329985,2552.92,0,195.1171875,4,30,-9999,1561914473.12696,6.707847595214844,24.67070198059082,13.4093017578125,23.87654685974121,31.37001419067383,15,197188.292598375,-0.738494873046875,0.6675872802734375,0.0369110107421875,197188.275386375,0.01343138664170563,-0.07838801615761032,0.1688326952022274,197188.269526375,-69.10081481933594,-4.588455200195312,-550.0575561523438,197188.275386375,0.6773891262636661,-1.5944938315669,-0.7170134409871854,0.01069964561611414,-0.08504292368888855,0.1655982434749603,0.01617890596389771,0.007444918155670166,0.01764631271362305,1,0.00862799771130085,0.7133414149284363,-0.4541494250297546,-0.5336832404136658,-0.7535598874092102,0.6571364402770996,0.01786083355545998,0,0,0,-1,197187.821040375,3,2,1561914472.658577,1561913957.287787,32,0.8918345,0,0,26.32609,0,0,1561914413.669193,197185.822804,0,1.186279,75.29399,3232235528,177845136,1,1,0.53,-28.85829,-35.77624,2
1561914473.157002,9,0,0,1561914473.000176,4.634741633203472,-74.15106489329985,2552.92,0,195.1171875,4,30,-9999,1561914473.15343,7.048316955566406,25.0751838684082,13.3572998046875,23.92667388916016,31.42014122009277,15,197188.312861375,-0.7434844970703125,0.675537109375,0.032318115234375,197188.295650375,-0.01671506426577333,-0.03050198291300454,0.1972635377354773,197188.289638375,-68.91032409667969,-4.47698974609375,-550.2589111328125,197188.295650375,0.6770595993929324,-1.596087698447283,-0.7206554152372516,-0.01944680511951447,-0.03715689107775688,0.1940290927886963,0.01263821125030518,0.007710039615631104,0.01790976524353027,1,0.009658465161919594,0.7137277722358704,-0.4550710320472717,-0.5323624014854431,-0.7511330842971802,0.6598773002624512,0.01900123804807663,0,0,0,-1,197187.821040375,3,2,1561914472.658577,1561913957.287787,32,0.8918345,0,0,26.32609,0,0,1561914413.669193,197185.822804,0,1.186279,75.29399,3232235528,177845136,1,1,0.53,-28.85829,-35.77624,2
1561914473.177866,10,0,0,1561914473.000176,4.634741633203472,-74.15106489329985,2552.92,0,195.1171875,4,30,-9999,1561914473.15343,7.048316955566406,25.0751838684082,13.3572998046875,23.92667388916016,31.42014122009277,15,197188.333125375,-0.7416534423828125,0.6739654541015625,0.02392578125,197188.315913375,-0.02800526939105525,0.03179521393834701,0.2567292617158566,197188.309718375,-68.90530395507812,-4.47259521484375,-550.004638671875,197188.315913375,0.6760845595033723,-1.596833833516438,-0.7251794885104187,-0.0307370088994503,0.02514030598104,0.2534947991371155,0.004642069339752197,0.0122673511505127,0.01283431053161621,1,0.01141971629112959,0.7138707637786865,-0.4560597538948059,-0.5312885642051697,-0.7481266260147095,0.6632697582244873,0.01948375441133976,0,0,0,-1,197187.821040375,3,2,1561914472.658577,1561913957.287787,32,0.8918345,0,0,26.32609,0,0,1561914413.669193,197185.822804,0,1.186279,75.29399,3232235528,177845136,1,1,0.53,-28.85829,-36.07341,2
1561914473.197554,11,0,0,1561914473.000176,4.634741633203472,-74.15106489329985,2552.92,0,195.1171875,4,30,-9999,1561914473.178044,7.118331909179688,24.58369445800781,13.63446044921875,23.98532104492188,31.47878837585449,15,197188.353389375,-0.7419891357421875,0.6641998291015625,0.0233917236328125,197188.336146375,0.00158165137139806,0.02608832603841622,0.2878863822570206,197188.329829375,-68.71255493164062,-4.377639770507812,-550.0731201171875,197188.336146375,0.6753622996962622,-1.596759947769808,-0.730758764787813,-0.00115008931607008,0.01943341642618179,0.2846519351005554,0.002763628959655762,0.006530642509460449,0.004593729972839355,1,0.01364652067422867,0.713778555393219,-0.4573994874954224,-0.530207097530365,-0.7444170713424683,0.6674348711967468,0.01933210715651512,0,0,0,-1,197187.821040375,3,2,1561914472.658577,1561913957.287787,32,0.8918345,0,0,26.32609,0,0,1561914413.669193,197185.822804,0,1.186279,75.29399,3232235528,177845136,1,1,0.53,-28.85829,-36.80479,2
1561914473.217857,12,0,0,1561914473.000176,4.634741633203472,-74.15106489329985,2552.92,0,195.1171875,4,30,-9999,1561914473.204053,7.394248962402344,24.8439998626709,13.3807373046875,23.96401786804199,31.45748519897461,15,197188.373652375,-0.7467193603515625,0.6579132080078125,0.0260467529296875,197188.356410375,0.03945313365286986,-0.04148006555852918,0.250526226904844,197188.349940375,-68.31498718261719,-4.694534301757812,-550.165283203125,197188.356410375,0.675602093900443,-1.596856747172197,-0.736250766879755,0.03672139346599579,-0.04813497141003609,0.247291773557663,-0.001249372959136963,-0.007314622402191162,0.004083395004272461,1,0.01546028070151806,0.7137332558631897,-0.4589682519435883,-0.5288609862327576,-0.7407397627830505,0.6715145111083984,0.01930836215615273,0,0,0,-1,197187.821040375,3,2,1561914472.658577,1561913957.287787,32,0.8918345,0,0,26.32609,0,0,1561914413.669193,197185.822804,0,1.186279,75.29399,3232235528,177845136,1,1,0.53,-28.85829,-37.28719,2
1561914473.238031,13,0,0,1561914473.000176,4.634741633203472,-74.15106489329985,2552.92,0,195.1171875,4,30,-9999,1561914473.233504,7.193428039550781,24.73921012878418,13.54962158203125,23.87032890319824,31.36379623413086,15,197188.3939327917,-0.7532501220703125,0.6588134765625,0.02825927734375,197188.376674375,0.06000368252057531,-0.1132128421520315,0.2009877022038441,197188.370051375,-68.45759582519531,-4.538909912109375,-550.1627807617188,197188.376674375,0.6768045326240199,-1.597855609323556,-0.7407233763228593,0.05727194249629974,-0.1198677495121956,0.1977532505989075,-0.009008944034576416,-0.01690870523452759,0.006079912185668945,1,0.01636593230068684,0.7139436602592468,-0.460516482591629,-0.527201235294342,-0.7377104163169861,0.6748219132423401,0.01996678672730923,0,0,0,-1,197187.821040375,3,2,1561914472.658577,1561913957.287787,32,0.8918345,0,0,26.32609,0,0,1561914413.669193,197185.822804,0,1.186279,75.29399,3232235528,177845136,1,1,0.53,-28.85829,-37.28719,2
1561914473.258314,14,0,0,1561914473.000176,4.634741633203472,-74.15106489329985,2552.92,0,195.1171875,4,30,-9999,1561914473.255193,7.513092041015625,24.74957275390625,13.4638671875,23.80533599853516,31.29880332946777,15,197188.4141967917,-0.750457763671875,0.6533966064453125,0.0247955322265625,197188.3969537917,0.04318768444948799,-0.1138663818835369,0.1871544445536455,197188.3901787917,-68.23756408691406,-4.671340942382812,-550.0264282226562,197188.3969537917,0.6780253059699363,-1.599493151498587,-0.7445976630876333,0.04045594483613968,-0.120521292090416,0.1839199960231781,-0.01819229125976562,-0.01886248588562012,0.007159590721130371,1,0.01690683886408806,0.7143276333808899,-0.4619090855121613,-0.5254428386688232,-0.7350578308105469,0.6776760220527649,0.02109961770474911,0,0,0,-1,197187.821040375,3,2,1561914472.658577,1561913957.287787,32,0.8918345,0,0,26.32609,0,0,1561914413.669193,197185.822804,0,1.186279,75.29399,3232235528,177845136,1,1,0.53,-28.85829,-37.79648,2
1561914473.278708,15,0,0,1561914473.000176,4.634741633203472,-74.15106489329985,2552.92,0,195.1171875,4,30,-9999,1561914473.255193,7.513092041015625,24.74957275390625,13.4638671875,23.80533599853516,31.29880332946777,15,197188.4344597917,-0.75665283203125,0.658294677734375,0.0210113525390625,197188.4172177917,0.006611031090012701,-0.112121212421208,0.1527999328077323,197188.4102907917,-68.24574279785156,-4.69677734375,-550.25927734375,197188.4172177917,0.6785566978017669,-1.601582241391589,-0.7480602033861639,0.003879290306940675,-0.1187761202454567,0.1495654881000519,-0.01779532432556152,-0.0268215537071228,0.002232670783996582,1,0.01744350418448448,0.7148266434669495,-0.4630110263824463,-0.5237742066383362,-0.7326624393463135,0.6802181601524353,0.02256281301379204,0,0,0,-1,197187.821040375,3,2,1561914472.658577,1561913957.287787,32,0.8918345,0,0,26.32609,0,0,1561914413.669193,197185.822804,0,1.186279,75.29399,3232235528,177845136,1,1,0.53,-28.85829,-38.57656,2
1561914473.312729,16,0,0,1561914473.000176,4.634741633203472,-74.15106489329985,2552.92,0,195.1171875,4,30,-9999,1561914473.30524,7.796806335449219,24.67001724243164,13.31903076171875,23.9051685333252,31.39863586425781,15,197188.4546937917,-0.755340576171875,0.6618804931640625,0.0167236328125,197188.4374817917,-0.02261077028699075,-0.06416433909160611,0.1097246337562457,197188.4304017917,-68.14035034179688,-4.65777587890625,-550.2774658203125,197188.4374817917,0.6781235188604355,-1.603791363228203,-0.7505723255064528,-0.02534251101315022,-0.07081925123929977,0.1064901798963547,-0.02575224637985229,-0.02376270294189453,-0.003113508224487305,1,0.01796340756118298,0.7153598666191101,-0.4636026918888092,-0.522503674030304,-0.7309005260467529,0.6820574402809143,0.02412484586238861,0,0,0,-1,197187.821040375,3,2,1561914472.658577,1561913957.287787,32,0.8918345,0,0,26.32609,0,0,1561914413.669193,197185.822804,0,1.186279,75.29399,3232235528,177845136,1,1,0.53,-28.85829,-39.74231,2
1561914473.318984,17,0,0,1561914473.000176,4.634741633203472,-74.15106489329985,2552.92,0,195.1171875,4,30,-9999,1561914473.30524,7.796806335449219,24.67001724243164,13.31903076171875,23.9051685333252,31.39863586425781,15,197188.4749567917,-0.7542724609375,0.6654510498046875,0.01458740234375,197188.4577447917,-0.04890069761992596,-0.01034451662219479,0.0905173833423762,197188.4504817917,-68.13981628417969,-4.763504028320312,-550.3627319335938,197188.4577447917,0.6769485394150402,-1.605456438729031,-0.7523956229701368,-0.05163243785500526,-0.01699942536652088,0.0872829258441925,-0.02572536468505859,-0.02150917053222656,-0.008574962615966797,1,0.01863358542323112,0.7157528400421143,-0.4638089835643768,-0.5217583775520325,-0.7296152114868164,0.6833896636962891,0.02529867738485336,0,0,0,-1,197187.821040375,3,2,1561914472.658577,1561913957.287787,32,0.8918345,0,0,26.32609,0,0,1561914413.669193,197185.822804,0,1.186279,75.29399,3232235528,177845136,1,1,0.53,-28.85829,-39.74231,2
1561914473.339324,18,0,0,1561914473.000176,4.634741633203472,-74.15106489329985,2552.92,0,195.1171875,4,30,-9999,1561914473.329524,7.788406372070312,24.57496452331543,13.54315185546875,24.01924705505371,31.51271438598633,15,197188.4952207917,-0.7557525634765625,0.6664886474609375,0.0160064697265625,197188.4780087917,-0.05207412037486438,0.01004464468345186,0.05949848086178729,197188.4705927917,-67.83901977539062,-5.124862670898438,-549.9992065429688,197188.4780087917,0.6753231583397916,-1.606601156711371,-0.7537616412359094,-0.05480585992336273,0.003389736171811819,0.05626403167843819,-0.02561992406845093,-0.01893526315689087,-0.01151299476623535,1,0.01942610740661621,0.7160117626190186,-0.4637691676616669,-0.5214097499847412,-0.7286525964736938,0.6843862533569336,0.02610043622553349,0,0,0,-1,197187.821040375,3,2,1561914472.658577,1561913957.287787,32,0.8918345,0,0,26.32609,0,0,1561914413.669193,197185.822804,0,1.186279,75.29399,3232235528,177845136,1,1,0.53,-28.85829,-40.134,2
1561914473.359595,19,0,0,1561914473.000176,4.634741633203472,-74.15106489329985,2552.92,0,195.1171875,4,30,-9999,1561914473.355961,7.772468566894531,24.47195243835449,13.60552978515625,24.09227180480957,31.58573913574219,15,197188.5154847917,-0.763336181640625,0.6799774169921875,0.0128021240234375,197188.4982727917,-0.03185540137898281,0.007652859708451699,0.02394980768308259,197188.4907037917,-68.06842041015625,-5.04339599609375,-550.246826171875,197188.4982727917,0.6740220548347082,-1.60753590355412,-0.7543479799338512,-0.03458714112639427,0.0009979512542486191,0.02071535773575306,-0.02752608060836792,-0.01832503080368042,-0.01076030731201172,1,0.01987948641180992,0.7162319421768188,-0.4635995924472809,-0.5212408900260925,-0.7282264828681946,0.6848136782646179,0.02676677703857422,0,0,0,-1,197187.821040375,3,2,1561914472.658577,1561913957.287787,32,0.8918345,0,0,26.32609,0,0,1561914413.669193,197185.822804,0,1.186279,75.29399,3232235528,177845136,1,1,0.53,-28.85829,-38.11163,2
1561914473.393028,20,0,0,1561914473.000176,4.634741633203472,-74.15106489329985,2552.92,0,195.1171875,4,30,-9999,1561914473.380188,7.775711059570312,24.50612258911133,13.53143310546875,24.09179306030273,31.58526039123535,15,197188.5357477917,-0.7657928466796875,0.690277099609375,0.00518798828125,197188.5185057917,-0.008349010017398411,0.0568773977169313,0.02877172715278006,197188.5108147917,-68.02951049804688,-4.7142333984375,-550.3011474609375,197188.5185057917,0.6732658294225458,-1.607600691240243,-0.7546342782923138,-0.01108075026422739,0.0502224899828434,0.0255372766405344,-0.03530740737915039,-0.005044877529144287,-0.01400470733642578,1,0.02023499459028244,0.7162359356880188,-0.4634814858436584,-0.5213267207145691,-0.7280287742614746,0.6850222945213318,0.02680674195289612,0,0,0,-1,197187.821040375,3,2,1561914472.658577,1561913957.287787,32,0.8918345,0,0,26.32609,0,0,1561914413.669193,197185.822804,0,1.186279,75.29399,3232235528,177845136,1,1,0.53,-28.85829,-38.20805,2
1561914473.400049,21,0,0,1561914473.000176,4.634741633203472,-74.15106489329985,2552.92,0,195.1171875,4,30,-9999,1561914473.380188,7.775711059570312,24.50612258911133,13.53143310546875,24.09179306030273,31.58526039123535,15,197188.5560117917,-0.7523345947265625,0.699371337890625,-0.004791259765625,197188.5387697917,0.03409858196515655,0.1666241357102246,0.1096244988992587,197188.5309267917,-67.97850036621094,-4.647552490234375,-550.0628662109375,197188.5387697917,0.6735200210083392,-1.605375041552775,-0.7556997446323386,0.03136684000492096,0.159969225525856,0.106390044093132,-0.03843623399734497,0.004478991031646729,-0.01997315883636475,1,0.02103117294609547,0.7156383395195007,-0.4638161361217499,-0.5218179225921631,-0.7273566126823425,0.6857981085777283,0.02516108565032482,0,0,0,-1,197187.821040375,3,2,1561914472.658577,1561913957.287787,32,0.8918345,0,0,26.32609,0,0,1561914413.669193,197185.822804,0,1.186279,75.29399,3232235528,177845136,1,1,0.53,-28.85829,-38.20805,2
1561914473.420403,22,0,0,1561914473.000176,4.634741633203472,-74.15106489329985,2552.92,0,195.1171875,4,30,-9999,1561914473.406462,7.723411560058594,24.49011993408203,13.4495849609375,23.97891044616699,31.47237777709961,15,197188.5762757917,-0.727264404296875,0.691070556640625,-0.0023345947265625,197188.5590327917,0.09169396791197321,0.2435149227029924,0.2339051722255505,197188.5510377917,-68.20628356933594,-4.916259765625,-550.1962280273438,197188.5590327917,0.6750258404704552,-1.600190437464381,-0.7591960108963596,0.08896222710609436,0.2368600219488144,0.2306707203388214,-0.02725845575332642,0.01103287935256958,-0.02611041069030762,1,0.0229168813675642,0.7142369151115417,-0.4651046395301819,-0.5225112438201904,-0.7250761389732361,0.6883384585380554,0.02131910808384418,0,0,0,-1,197187.821040375,3,2,1561914472.658577,1561913957.287787,32,0.8918345,0,0,26.32609,0,0,1561914413.669193,197185.822804,0,1.186279,75.29399,3232235528,177845136,1,1,0.53,-28.85829,-34.01416,2
1561914473.440556,23,0,0,1561914473.000176,4.634741633203472,-74.15106489329985,2552.92,0,195.1171875,4,30,-9999,1561914473.430823,7.776580810546875,24.39788818359375,13.58026123046875,23.625732421875,31.11919975280762,15,197188.5965387917,-0.714630126953125,0.709381103515625,0.0080108642578125,197188.5792967917,0.2158907516639275,0.2583295552148852,0.2480311112795488,197188.5711487917,-67.98460388183594,-4.8173828125,-550.0360717773438,197188.5792967917,0.6789855656657426,-1.592667806436669,-0.764163582183394,0.2131590098142624,0.251674622297287,0.2447966635227203,-0.005475640296936035,-0.0008628368377685547,-0.01812374591827393,1,0.02499619498848915,0.7122287154197693,-0.4673931300640106,-0.5231148600578308,-0.721788763999939,0.6919333934783936,0.01578910648822784,0,0,0,-1,197187.821040375,3,2,1561914472.658577,1561913957.287787,32,0.8918345,0,0,26.32609,0,0,1561914413.669193,197185.822804,0,1.186279,75.29399,3232235528,177845136,1,1,0.53,-28.85829,-34.30364,2
1561914473.472422,24,0,0,1561914473.000176,4.634741633203472,-74.15106489329985,2552.92,0,195.1171875,4,30,-9999,1561914473.457556,7.999320983886719,24.40898895263672,13.5263671875,23.02742385864258,30.5208911895752,15,197188.6168027917,-0.692230224609375,0.6806182861328125,0.0128173828125,197188.5995607917,0.3107474896864788,0.2383172312034847,0.2241161910067462,197188.5912597917,-67.95777893066406,-4.894729614257812,-550.219482421875,197188.5995607917,0.6863945860355689,-1.582246418361584,-0.7689029304286544,0.3080157339572906,0.2316623330116272,0.2208817452192307,0.003996670246124268,0.01403385400772095,-0.0002177953720092773,1,0.02646981924772263,0.7095165252685547,-0.4704670906066895,-0.5239716768264771,-0.7186267971992493,0.6953472495079041,0.008228701539337635,0,0,0,-1,197187.821040375,3,2,1561914472.658577,1561913957.287787,32,0.8918345,0,0,26.32609,0,0,1561914413.669193,197185.822804,0,1.186279,75.29399,3232235528,177845136,1,1,0.53,-28.85829,-35.23217,2
1561914473.481887,25,0,0,1561914473.000176,4.634741633203472,-74.15106489329985,2552.92,0,195.1171875,4,30,-9999,1561914473.457556,7.999320983886719,24.40898895263672,13.5263671875,23.02742385864258,30.5208911895752,15,197188.6370357917,-0.695159912109375,0.663604736328125,0.0214385986328125,197188.6198237917,0.2815371399021627,0.1696715909456023,0.1832840725414333,197188.6113707917,-67.91098022460938,-4.762405395507812,-550.4031372070312,197188.6198237917,0.6948853367897592,-1.572387193562224,-0.7729572770131906,0.2788054049015045,0.1630166918039322,0.1800496280193329,0.02361768484115601,-0.01763695478439331,0.01167857646942139,1,0.02721884660422802,0.7069855332374573,-0.473632425069809,-0.5245025157928467,-0.715847909450531,0.6982552409172058,0.001138819614425302,0,0,0,-1,197187.821040375,3,2,1561914472.658577,1561913957.287787,32,0.8918345,0,0,26.32609,0,0,1561914413.669193,197185.822804,0,1.186279,75.29399,3232235528,177845136,1,1,0.53,-28.85829,-35.23217,2
1561914473.501873,26,0,0,1561914473.000176,4.634741633203472,-74.15106489329985,2552.92,0,195.1171875,4,30,-9999,1561914473.483186,7.936866760253906,24.45604133605957,13.3385009765625,22.51350402832031,30.00697135925293,15,197188.6572997917,-0.7042083740234375,0.662261962890625,0.0267333984375,197188.6400877917,0.1808302359130343,0.07325930053033572,0.07449234411504241,197188.6314507917,-67.6884765625,-4.736663818359375,-550.4249877929688,197188.6400877917,0.7014926285501403,-1.565456527733582,-0.7754984742415499,0.1780984997749329,0.06660439074039459,0.07125788927078247,0.01890212297439575,-0.03646737337112427,0.02525162696838379,1,0.02742986008524895,0.7052241563796997,-0.4759358763694763,-0.5247776508331299,-0.7140620350837708,0.7000721096992493,-0.003812984097748995,0,0,0,-1,197187.821040375,3,2,1561914472.658577,1561913957.287787,32,0.8918345,0,0,26.32609,0,0,1561914413.669193,197185.822804,0,1.186279,75.29399,3232235528,177845136,1,1,0.53,-28.85829,-36.06364,2
1561914473.521636,27,0,0,1561914473.000176,4.634741633203472,-74.15106489329985,2552.92,0,195.1171875,4,30,-9999,1561914473.507871,8.153984069824219,24.83870315551758,13.169921875,22.30350303649902,29.79697036743164,15,197188.6775627917,-0.7070465087890625,0.661590576171875,0.0220947265625,197188.6603517917,0.03784458435446201,0.01013279531553348,-0.02998879177094627,197188.6515627917,-67.64990234375,-4.62615966796875,-550.6264038085938,197188.6603517917,0.7044971554502172,-1.562668383778645,-0.7757930558247516,0.03511284291744232,0.003477886784821749,-0.03322324156761169,0.009634137153625488,-0.03802049160003662,0.0325356125831604,1,0.02713938988745213,0.704529881477356,-0.4767629206180573,-0.5249746441841125,-0.713842511177063,0.7002824544906616,-0.005802199244499207,0,0,0,-1,197187.821040375,3,2,1561914472.658577,1561913957.287787,32,0.8918345,0,0,26.32609,0,0,1561914413.669193,197185.822804,0,1.186279,75.29399,3232235528,177845136,1,1,0.53,-28.85829,-35.66961,2
1561914473.552357,28,0,0,1561914473.000176,4.634741633203472,-74.15106489329985,2552.92,0,195.1171875,4,30,-9999,1561914473.532742,8.054351806640625,24.73843955993652,13.09112548828125,22.41547393798828,29.9089412689209,15,197188.6978267917,-0.7094573974609375,0.69049072265625,0.00970458984375,197188.6806147917,-0.07760824259043511,-0.02986016109029544,-0.1217402839624652,197188.6716737917,-67.78952026367188,-4.75177001953125,-550.7794189453125,197188.6806147917,0.70373020081895,-1.563667471793474,-0.7741145800387793,-0.08033998310565948,-0.03651506826281548,-0.1249747276306152,0.007975518703460693,-0.03749269247055054,0.02719211578369141,1,0.026576803997159,0.7048013806343079,-0.4761388897895813,-0.5252050757408142,-0.7150220274925232,0.6990832090377808,-0.0050973747856915,0,0,0,-1,197187.821040375,3,2,1561914472.658577,1561913957.287787,32,0.8918345,0,0,26.32609,0,0,1561914413.669193,197185.822804,0,1.186279,75.29399,3232235528,177845136,1,1,0.53,-28.85829,-35.675,2
1561914473.562148,29,0,0,1561914473.000176,4.634741633203472,-74.15106489329985,2552.92,0,195.1171875,4,30,-9999,1561914473.558532,7.787139892578125,24.91728210449219,12.91656494140625,22.67738151550293,30.17084884643555,15,197188.7180907917,-0.6983642578125,0.7034149169921875,-0.0070648193359375,197188.7008787917,-0.1367538546077869,0.01164440555026246,-0.1073192666596861,197188.6917847917,-67.97509765625,-4.66204833984375,-550.673583984375,197188.7008787917,0.7003147846351057,-1.566290765733355,-0.7715794922681798,-0.1394855976104736,0.004989496897906065,-0.1105537116527557,0.007345616817474365,-0.006777584552764893,0.01293420791625977,1,0.02625983953475952,0.7054754495620728,-0.4746153652667999,-0.5256949067115784,-0.7168030738830566,0.6972683072090149,-0.003229621797800064,0,0,0,-1,197187.821040375,3,2,1561914472.658577,1561913957.287787,32,0.8918345,0,0,26.32609,0,0,1561914413.669193,197185.822804,0,1.186279,75.29399,3232235528,177845136,1,1,0.53,-28.85829,-35.675,2
1561914473.582639,30,0,0,1561914473.000176,4.634741633203472,-74.15106489329985,2552.92,0,195.1171875,4,30,-9999,1561914473.558532,7.787139892578125,24.91728210449219,12.91656494140625,22.67738151550293,30.17084884643555,15,197188.7383537917,-0.7028045654296875,0.7152557373046875,-0.0083160400390625,197188.7211117917,-0.06623521315525173,0.009218532113309284,-0.07067257216354175,197188.7118957917,-67.92828369140625,-4.326873779296875,-550.4465942382812,197188.7211117917,0.6971609576428919,-1.568445203759691,-0.7697174528557233,-0.06896695494651794,0.002563623245805502,-0.07390701770782471,0.01974111795425415,0.007482528686523438,-0.005376458168029785,1,0.02620341069996357,0.7060235142707825,-0.4733269512653351,-0.5261233448982239,-0.7181053161621094,0.6959323883056641,-0.001688357093371451,0,0,0,-1,197187.821040375,3,2,1561914472.658577,1561913957.287787,32,0.8918345,0,0,26.32609,0,0,1561914413.669193,197185.822804,0,1.186279,75.29399,3232235528,177845136,1,1,0.53,-28.85829,-33.29897,2
1561914473.602679,31,0,0,1561914473.000176,4.634741633203472,-74.15106489329985,2552.92,0,195.1171875,4,30,-9999,1561914473.582813,7.822097778320312,24.93215942382812,13.10443115234375,22.75518989562988,30.2486572265625,15,197188.7586177917,-0.7093048095703125,0.70806884765625,0.0031585693359375,197188.7413757917,0.04114637147394225,-0.04272482705203221,-0.03904993106383187,197188.7320067917,-67.79779052734375,-4.656219482421875,-550.4456787109375,197188.7413757917,0.6967500574556967,-1.569249018366411,-0.76853436150222,0.03841463103890419,-0.04937973245978355,-0.04228438064455986,0.0161246657371521,0.02017349004745483,-0.007203638553619385,1,0.0257399957627058,0.7062444686889648,-0.4729188680648804,-0.5262165665626526,-0.7189292311668396,0.6950823068618774,-0.001112406142055988,0,0,0,-1,197187.821040375,3,2,1561914472.658577,1561913957.287787,32,0.8918345,0,0,26.32609,0,0,1561914413.669193,197185.822804,0,1.186279,75.29399,3232235528,177845136,1,1,0.53,-28.32091,-33.51989,2
1561914473.631438,32,0,0,1561914473.000176,4.634741633203472,-74.15106489329985,2552.92,0,195.1171875,4,30,-9999,1561914473.609138,8.113792419433594,24.74996566772461,13.1611328125,22.63961982727051,30.13308715820312,15,197188.7788817917,-0.7191009521484375,0.69769287109375,0.013885498046875,197188.7616387917,0.07170028602820333,-0.07917364867918369,-0.02955416388104534,197188.7521177917,-67.59347534179688,-4.646194458007812,-550.5498657226562,197188.7616387917,0.6983918838804262,-1.569579757125757,-0.7678264172854565,0.06896854192018509,-0.08582855761051178,-0.03278861194849014,0.0101168155670166,0.01349568367004395,0.004033803939819336,1,0.02483172155916691,0.706360936164856,-0.4731689989566803,-0.5258790254592896,-0.7194216251373291,0.6945731639862061,-0.0008752269204705954,0,0,0,-1,197187.821040375,3,2,1561914472.658577,1561913957.287787,32,0.8918345,0,0,26.32609,0,0,1561914413.669193,197185.822804,0,1.186279,75.29399,3232235528,177845136,1,1,0.53,-28.32091,-31.63497,2
1561914473.643711,33,0,0,1561914473.000176,4.634741633203472,-74.15106489329985,2552.92,0,195.1171875,4,30,-9999,1561914473.634619,7.964805603027344,24.82848930358887,13.10821533203125,22.54880905151367,30.04227638244629,15,197188.7991457917,-0.72674560546875,0.6968536376953125,0.0199737548828125,197188.7819027917,0.03959428119064407,-0.08041574701159665,-0.05200993819259347,197188.7722287917,-68.00914001464844,-4.471328735351562,-550.6085205078125,197188.7819027917,0.6998933746876859,-1.570316903231439,-0.7669543542582605,0.03686254099011421,-0.08707065880298615,-0.05524438619613647,0.0009263157844543457,0.003747344017028809,0.01423072814941406,1,0.02381862886250019,0.7065833806991577,-0.473343700170517,-0.5254695415496826,-0.7200272679328918,0.6939455270767212,-0.0003451980883255601,0,0,0,-1,197188.7936217917,3,2,1561914473.631158,1561913957.287787,32,0.8918345,0,0,26.32609,0,0,1561914413.669193,197185.822804,0,1.186279,75.29399,3232235528,177845136,1,1,0.53,-28.32091,-32.35611,2
1561914473.663432,34,0,0,1561914473.000176,4.634741633203472,-74.15106489329985,2552.92,0,195.1171875,4,30,-9999,1561914473.659887,7.922515869140625,24.89682388305664,13.1468505859375,22.53866386413574,30.03213119506836,15,197188.8193787917,-0.7225189208984375,0.6978607177734375,0.01629638671875,197188.8021667917,0.005825931200657342,-0.05458122022506498,-0.07996593910348226,197188.7923397917,-68.16740417480469,-4.694290161132812,-550.4739990234375,197188.8021667917,0.7004194846781393,-1.571503280853606,-0.765555103825354,0.003094190498813987,-0.06123612821102142,-0.08320039510726929,-0.00574803352355957,0.003916323184967041,0.01946401596069336,1,0.02285760082304478,0.7069175243377686,-0.4731281101703644,-0.5252569913864136,-0.7209975719451904,0.6929373145103455,0.0005097122630104423,0,0,0,-1,197188.7936217917,3,2,1561914473.631158,1561913957.287787,32,0.8918345,0,0,26.32609,0,0,1561914413.669193,197185.822804,0,1.186279,75.29399,3232235528,177845136,1,1,0.53,-28.32091,-32.49875,2
1561914473.6841,35,0,0,1561914473.000176,4.634741633203472,-74.15106489329985,2552.92,0,195.1171875,4,30,-9999,1561914473.659887,7.922515869140625,24.89682388305664,13.1468505859375,22.53866386413574,30.03213119506836,15,197188.8396417917,-0.714202880859375,0.6937255859375,0.0157012939453125,197188.8224297917,-0.004549744406291371,-0.02823643177367413,-0.07284730950970046,197188.8124207917,-68.04498291015625,-4.627731323242188,-550.6090087890625,197188.8224297917,0.7003109650059127,-1.572456720928543,-0.7640127009066253,-0.007281485013663769,-0.03489134088158607,-0.07608175277709961,-0.0004540681838989258,0.006036281585693359,0.01509749889373779,1,0.02212574891746044,0.7071844935417175,-0.4727045595645905,-0.5253103971481323,-0.7220648527145386,0.6918244361877441,0.001198913319967687,0,0,0,-1,197188.7936217917,3,2,1561914473.631158,1561913957.287787,32,0.8918345,0,0,26.32609,0,0,1561914413.669193,197185.822804,0,1.186279,75.29399,3232235528,177845136,1,1,0.53,-26.35819,-31.9568,2
1561914473.713036,36,0,0,1561914473.000176,4.634741633203472,-74.15106489329985,2552.92,0,195.1171875,4,30,-9999,1561914473.686842,7.903419494628906,24.82567977905273,13.02215576171875,22.54259300231934,30.03606033325195,15,197188.8599057917,-0.71307373046875,0.6937713623046875,0.0180816650390625,197188.8426937917,0.006573746834751592,-0.01357999103053205,-0.07988577795467088,197188.8325317917,-68.17086791992188,-4.762985229492188,-550.6669311523438,197188.8426937917,0.7002841017832603,-1.573071082784961,-0.7624472899090076,0.003842006204649806,-0.02023489959537983,-0.08312022686004639,0.008943140506744385,0.003032326698303223,0.01405632495880127,1,0.02143732085824013,0.7073633670806885,-0.472291886806488,-0.5254692435264587,-0.7231460213661194,0.6906932592391968,0.001644983654841781,0,0,0,-1,197188.7936217917,3,2,1561914473.631158,1561913957.287787,32,0.8918345,0,0,26.32609,0,0,1561914413.669193,197185.822804,0,1.186279,75.29399,3232235528,177845136,1,1,0.53,-18.01513,-23.04559,2
1561914473.724253,37,0,0,1561914473.000176,4.634741633203472,-74.15106489329985,2552.92,0,195.1171875,4,30,-9999,1561914473.720862,7.720207214355469,24.92589569091797,13.13262939453125,22.5305290222168,30.02399635314941,15,197188.8801697917,-0.7104034423828125,0.6906890869140625,0.020416259765625,197188.8629577917,0.01069259177666814,-0.0002394181819981235,-0.06135816625098962,197188.8526427917,-68.04376220703125,-4.589187622070312,-550.4896850585938,197188.8629577917,0.7004418076474708,-1.573242051924681,-0.7609503935910654,0.007960851304233074,-0.006894326768815517,-0.06459261476993561,0.0111052393913269,0.004161357879638672,0.01631057262420654,1,0.02081268653273582,0.7074266076087952,-0.4719404876232147,-0.5257249474525452,-0.7241789102554321,0.6896100044250488,0.001771146198734641,0,0,0,-1,197188.7936217917,3,2,1561914473.631158,1561913957.287787,32,0.8918345,0,0,26.32609,0,0,1561914413.669193,197185.822804,0,1.186279,75.29399,3232235528,177845136,1,1,0.53,-18.01513,-23.04559,2
1561914473.744588,38,0,0,1561914473.000176,4.634741633203472,-74.15106489329985,2552.92,0,195.1171875,4,30,-9999,1561914473.720862,7.720207214355469,24.92589569091797,13.13262939453125,22.5305290222168,30.02399635314941,15,197188.9004327917,-0.7121429443359375,0.684906005859375,0.02801513671875,197188.8832207917,0.02169570813643952,-0.02360892306355244,-0.07029493592096851,197188.8727537917,-68.08596801757812,-4.440353393554688,-550.732177734375,197188.8832207917,0.7007589653160011,-1.573368107831535,-0.7596515088201979,0.01896396838128567,-0.03026383183896542,-0.07352939248085022,0.01467025279998779,0.002020299434661865,0.01855146884918213,1,0.02021214179694653,0.7074770927429199,-0.4716825485229492,-0.525911808013916,-0.7250736951828003,0.6886687874794006,0.001864734920673072,0,0,0,-1,197188.7936217917,3,2,1561914473.631158,1561913957.287787,32,0.8918345,0,0,26.32609,0,0,1561914413.669193,197185.822804,0,1.186279,75.29399,3232235528,177845136,1,1,0.53,-17.06276,-21.29832,2
1561914473.764884,39,0,0,1561914473.000176,4.634741633203472,-74.15106489329985,2552.92,0,195.1171875,4,30,-9999,1561914473.761107,7.753746032714844,24.87877082824707,12.95172119140625,22.51526641845703,30.00873374938965,15,197188.9206967917,-0.71368408203125,0.690093994140625,0.0309600830078125,197188.9034547917,-0.00106846022933979,-0.04570170851852278,-0.1154570880026412,197188.8928647917,-68.06228637695312,-4.5189208984375,-550.5526733398438,197188.9034547917,0.7011001238872376,-1.574111937780393,-0.7576878874618317,-0.003800200764089823,-0.05235661566257477,-0.1186915338039398,0.01427978277206421,-0.00233769416809082,0.02560663223266602,1,0.01922284252941608,0.707696795463562,-0.471261203289032,-0.5260308384895325,-0.7264227271080017,0.6872437000274658,0.002408544067293406,0,0,0,-1,197188.7936217917,3,2,1561914473.631158,1561913957.287787,32,0.8918345,0,0,26.32609,0,0,1561914413.669193,197185.822804,0,1.186279,75.29399,3232235528,177845136,1,1,0.53,-15.20902,-18.74588,2
1561914473.791194,40,0,0,1561914473.000176,4.634741633203472,-74.15106489329985,2552.92,0,195.1171875,4,30,-9999,1561914473.785468,7.6273193359375,24.9769401550293,13.06683349609375,22.66753578186035,30.16100311279297,15,197188.9409607917,-0.7067108154296875,0.70135498046875,0.0212860107421875,197188.9237177917,-0.06129851144257184,-0.007568171185787179,-0.1119366553576655,197188.9129757917,-67.91828918457031,-4.24859619140625,-550.6494750976562,197188.9237177917,0.7001281212229288,-1.575600485995575,-0.7552576300591913,-0.06403025239706039,-0.01422308012843132,-0.1151711046695709,0.01440232992172241,0.004617750644683838,0.02746212482452393,1,0.01835888996720314,0.7081044316291809,-0.4703766107559204,-0.5263048410415649,-0.7280864119529724,0.6854762434959412,0.003497869940474629,0,0,0,-1,197188.7936217917,3,2,1561914473.631158,1561913957.287787,32,0.8918345,0,0,26.32609,0,0,1561914413.669193,197185.822804,0,1.186279,75.29399,3232235528,177845136,1,1,0.53,-13.60208,-18.5521,2
1561914473.805318,41,0,0,1561914473.000176,4.634741633203472,-74.15106489329985,2552.92,0,195.1171875,4,30,-9999,1561914473.785468,7.6273193359375,24.9769401550293,13.06683349609375,22.66753578186035,30.16100311279297,15,197188.9612237917,-0.7026519775390625,0.7017059326171875,0.016204833984375,197188.9439817917,-0.09209211049494005,0.01847328321744364,-0.07222865718847506,197188.9330867917,-68.25308227539062,-4.517044067382812,-550.6448974609375,197188.9439817917,0.6976975813168365,-1.577160036204601,-0.7534020666446949,-0.09482385218143463,0.01181837357580662,-0.07546310126781464,0.02263987064361572,0.01723086833953857,0.01664447784423828,1,0.01819890737533569,0.7085121870040894,-0.4692588150501251,-0.5267592668533325,-0.729350745677948,0.6841240525245667,0.004641438834369183,0,0,0,-1,197188.7936217917,3,2,1561914473.631158,1561913957.287787,32,0.8918345,0,0,26.32609,0,0,1561914413.669193,197185.822804,0,1.186279,75.29399,3232235528,177845136,1,1,0.53,-13.60208,-18.60444,2
1561914473.82557,42,0,0,1561914473.000176,4.634741633203472,-74.15106489329985,2552.92,0,195.1171875,4,30,-9999,1561914473.811823,7.635520935058594,24.83855438232422,13.27349853515625,22.83338928222656,30.32685661315918,15,197188.9814877917,-0.703826904296875,0.698272705078125,0.012786865234375,197188.9642457917,-0.07032396437685037,-0.006450176160171915,-0.05641054557784041,197188.9531977917,-68.01191711425781,-4.712966918945312,-550.5615234375,197188.9642457917,0.6953139486572761,-1.578834593692588,-0.7520520572673586,-0.07305570691823959,-0.01310508511960506,-0.05964499339461327,0.02761292457580566,0.01856714487075806,0.01033461093902588,1,0.0181752871721983,0.7089462280273438,-0.4682869613170624,-0.527040958404541,-0.7302649021148682,0.6831387877464294,0.00587019044905901,0,0,0,-1,197188.7936217917,3,2,1561914473.631158,1561913957.287787,32,0.8918345,0,0,26.32609,0,0,1561914413.669193,197185.822804,0,1.186279,75.29399,3232235528,177845136,1,1,0.53,-13.60208,-18.7893,2
1561914473.845807,43,0,0,1561914473.000176,4.634741633203472,-74.15106489329985,2552.92,0,195.1171875,4,30,-9999,1561914473.836126,7.520263671875,24.86795425415039,13.055908203125,22.94598770141602,30.43945503234863,15,197189.0017207917,-0.703582763671875,0.693389892578125,0.013458251953125,197188.9845087917,-0.04746418852793723,-0.008815329524271286,-0.03461603416495895,197188.9732787917,-68.2503662109375,-4.473907470703125,-550.5076293945312,197188.9845087917,0.6935863236025558,-1.58040676297836,-0.7510907776777007,-0.05019592866301537,-0.01547023840248585,-0.03785048425197601,0.02708429098129272,0.01583623886108398,0.005762338638305664,1,0.01808145642280579,0.7093555927276611,-0.4675895571708679,-0.5271126627922058,-0.7309112548828125,0.682436466217041,0.007024591788649559,0,0,0,-1,197188.7936217917,3,2,1561914473.631158,1561913957.287787,32,0.8918345,0,0,26.32609,0,0,1561914413.669193,197185.822804,0,1.186279,75.29399,3232235528,177845136,1,1,0.53,-13.60208,-19.28617,2
1561914473.871601,44,0,0,1561914473.000176,4.634741633203472,-74.15106489329985,2552.92,0,195.1171875,4,30,-9999,1561914473.863156,7.602371215820312,24.88760185241699,13.071044921875,23.06690216064453,30.56036949157715,15,197189.0219847917,-0.703948974609375,0.6832122802734375,0.0186614990234375,197189.0047727917,-0.05553436557920434,-0.0002759034889322091,-0.02869529442949478,197188.9933897917,-68.26803588867188,-4.4345703125,-550.3419189453125,197189.0047727917,0.6920915390240389,-1.581626010107192,-0.750463338294762,-0.05826610699295998,-0.006930811796337366,-0.03192974627017975,0.02774757146835327,0.01141220331192017,0.005537867546081543,1,0.0181060079485178,0.7096706032752991,-0.4670389294624329,-0.5271760821342468,-0.7313303351402283,0.6819776892662048,0.007920385338366032,0,0,0,-1,197188.7936217917,3,2,1561914473.631158,1561913957.287787,32,0.8918345,0,0,26.32609,0,0,1561914413.669193,197185.822804,0,1.186279,75.29399,3232235528,177845136,1,1,0.53,-13.60208,-20.11351,2
1561914473.886546,45,0,0,1561914473.000176,4.634741633203472,-74.15106489329985,2552.92,0,195.1171875,4,30,-9999,1561914473.863156,7.602371215820312,24.88760185241699,13.071044921875,23.06690216064453,30.56036949157715,15,197189.0422487917,-0.7056121826171875,0.6846923828125,0.0210113525390625,197189.0250367917,-0.08195904886329757,0.008619054551932447,-0.04986635983118869,197189.0135007917,-68.08023071289062,-4.747940063476562,-550.4556884765625,197189.0250367917,0.6901248728359403,-1.583077533060639,-0.7496256111243034,-0.08469078689813614,0.001964145805686712,-0.05310080945491791,0.02793979644775391,0.001847505569458008,0.009672641754150391,1,0.01817050948739052,0.7100452780723572,-0.4663094282150269,-0.5273149013519287,-0.7318887710571289,0.6813647747039795,0.008988928981125355,0,0,0,-1,197188.7936217917,3,2,1561914473.631158,1561913957.287787,32,0.8918345,0,0,26.32609,0,0,1561914413.669193,197185.822804,0,1.186279,75.29399,3232235528,177845136,1,1,0.53,-13.60208,-20.11351,2
1561914473.906658,46,0,0,1561914473.000176,4.634741633203472,-74.15106489329985,2552.92,0,195.1171875,4,30,-9999,1561914473.886773,7.708534240722656,24.64876747131348,13.24774169921875,23.24829864501953,30.74176597595215,15,197189.0625117917,-0.7050018310546875,0.6902923583984375,0.0158538818359375,197189.0452997917,-0.1041671491934683,0.02157373535851389,-0.0386073136906607,197189.0336117917,-68.14093017578125,-4.96832275390625,-550.4229125976562,197189.0452997917,0.6874088269146071,-1.584765184241584,-0.7486745882527045,-0.1068988889455795,0.01491882652044296,-0.04184176400303841,0.02690792083740234,0.004024028778076172,0.01077818870544434,1,0.0184075590223074,0.7104771137237549,-0.4653533697128296,-0.5275695323944092,-0.7325201034545898,0.6806683540344238,0.01023313496261835,0,0,0,-1,197188.7936217917,3,2,1561914473.631158,1561913957.287787,32,0.8918345,0,0,26.32609,0,0,1561914413.669193,197185.822804,0,1.186279,75.29399,3232235528,177845136,1,1,0.53,-13.60208,-21.06103,2
1561914473.926934,47,0,0,1561914473.000176,4.634741633203472,-74.15106489329985,2552.92,0,195.1171875,4,30,-9999,1561914473.913073,7.593284606933594,24.79287147521973,13.1500244140625,23.47287559509277,30.96634292602539,15,197189.0827757917,-0.704071044921875,0.6892852783203125,0.0084228515625,197189.0655637917,-0.1160501739774019,0.03789678231182756,0.01602051185348067,197189.0537227917,-68.10989379882812,-4.792007446289062,-550.4389038085938,197189.0655637917,0.684233571795211,-1.586443866747627,-0.7483897058564363,-0.118778333067894,0.03124549053609371,0.01278561074286699,0.02769392728805542,0.009832680225372314,0.004387974739074707,1,0.01904554851353168,0.7108939290046692,-0.4644546806812286,-0.5277773141860962,-0.7326958179473877,0.6804596185684204,0.0114658223465085,0,0,0,-1,197188.7936217917,3,2,1561914473.631158,1561913957.287787,32,0.8918345,0,0,26.32609,0,0,1561914413.669193,197185.822804,0,1.186279,75.29399,3232235528,177845136,1,1,0.53,-13.60208,-21.95653,2
1561914473.951008,48,0,0,1561914473.000176,4.634741633203472,-74.15106489329985,2552.92,0,195.1171875,4,30,-9999,1561914473.93746,7.672996520996094,24.80844879150391,13.221435546875,23.67350196838379,31.16696929931641,15,197189.1030397917,-0.70892333984375,0.689971923828125,0.0111541748046875,197189.0857967917,-0.09197972509693872,0.008082960224499496,0.04135862541282156,197189.0738337917,-68.01141357421875,-4.67877197265625,-550.2277221679688,197189.0857967917,0.6811492218287124,-1.588138061252759,-0.7490292106107148,-0.09470788389444351,0.00143166771158576,0.0381237231194973,0.02816891670227051,0.00835716724395752,-0.004276752471923828,1,0.01997354254126549,0.7113022208213806,-0.4638298153877258,-0.527742326259613,-0.7322399020195007,0.680928111076355,0.01269958354532719,0,0,0,-1,197188.7936217917,3,2,1561914473.631158,1561913957.287787,32,0.8918345,0,0,26.32609,0,0,1561914413.669193,197185.822804,0,1.186279,75.29399,3232235528,177845136,1,1,0.53,-13.60208,-22.90193,2
1561914473.967444,49,0,0,1561914473.000176,4.634741633203472,-74.15106489329985,2552.92,0,195.1171875,4,30,-9999,1561914473.963729,7.727005004882812,24.73490905761719,13.31396484375,23.79971122741699,31.29317855834961,15,197189.1233027917,-0.714599609375,0.683868408203125,0.014739990234375,197189.1060607917,-0.05665768692699976,-0.03098694454750797,0.04093198700619087,197189.1140557917,-68.27487182617188,-4.411651611328125,-550.3135986328125,197189.1060607917,0.6790573958094061,-1.589981892986493,-0.7497982807638366,-0.05938584730029106,-0.03763823583722115,0.03769708797335625,0.02276837825775146,0.00848078727722168,-0.00288546085357666,1,0.02056019194424152,0.7117563486099243,-0.4635044932365417,-0.5273934006690979,-0.7316917181015015,0.6814911365509033,0.01403964217752218,0,0,0,-1,197188.7936217917,3,2,1561914473.631158,1561913957.287787,32,0.8918345,0,0,26.32609,0,0,1561914413.669193,197185.822804,0,1.186279,75.29399,3232235528,177845136,1,1,0.53,-13.60208,-23.87328,2
1561914473.987685,50,0,0,1561914473.000176,4.634741633203472,-74.15106489329985,2552.92,0,195.1171875,4,30,-9999,1561914473.963729,7.727005004882812,24.73490905761719,13.31396484375,23.79971122741699,31.29317855834961,15,197189.1435667917,-0.7238616943359375,0.68280029296875,0.01800537109375,197189.1263237917,-0.05827182886369679,-0.05686701138867999,0.04215064952101113,197189.1341367917,-67.87693786621094,-4.629776000976562,-550.28076171875,197189.1263237917,0.6773840440248923,-1.592202138183491,-0.7506164081292098,-0.06099998950958252,-0.06351830065250397,0.03891574963927269,0.01650154590606689,0.001778781414031982,-0.0009121894836425781,1,0.02092834934592247,0.7123118042945862,-0.4633079767227173,-0.5268014073371887,-0.7311011552810669,0.682089626789093,0.01565220393240452,0,0,0,-1,197188.7936217917,3,2,1561914473.631158,1561913957.287787,32,0.8918345,0,0,26.32609,0,0,1561914413.669193,197185.822804,0,1.186279,75.29399,3232235528,177845136,1,1,0.53,-13.60208,-24.71858,2
1561914474.007962,51,0,0,1561914473.000176,4.634741633203472,-74.15106489329985,2552.92,0,195.1171875,4,30,-9999,1561914473.988201,7.671554565429688,24.83332824707031,13.3607177734375,23.92757606506348,31.42104339599609,15,197189.1638307917,-0.73065185546875,0.6786651611328125,0.0178985595703125,197189.1465877917,-0.06763736746917845,-0.05180833689807448,0.04669879603064845,197189.1542477917,-68.05215454101562,-4.857376098632812,-550.27783203125,197189.1465877917,0.6755208598786361,-1.5947036418383,-0.751485257154186,-0.07036552578210831,-0.05845962837338448,0.04346389696002007,0.006604969501495361,7.551908493041992e-05,0.0005385875701904297,1,0.0213171411305666,0.7129368782043457,-0.4630796611309052,-0.5261403918266296,-0.7304667234420776,0.6827247738838196,0.017466826364398,0,0,0,-1,197188.7936217917,3,2,1561914473.631158,1561913957.287787,32,0.8918345,0,0,26.32609,0,0,1561914413.669193,197185.822804,0,1.186279,75.29399,3232235528,177845136,1,1,0.53,-13.60208,-25.71791,2
1561914474.042868,52,0,0,1561914473.000176,4.634741633203472,-74.15106489329985,2552.92,0,195.1171875,4,30,-9999,1561914474.04066,7.726898193359375,24.61957168579102,13.35601806640625,24.12701988220215,31.62048721313477,15,197189.1840637917,-0.7350616455078125,0.6836700439453125,0.0181732177734375,197189.1668517917,-0.05783267359994272,-0.06644853235856707,0.05414499443851,197189.1743587917,-68.07571411132812,-4.515365600585938,-550.14111328125,197189.1668517917,0.6736654417659407,-1.597325014193991,-0.7524545046685416,-0.06056083366274834,-0.07309982180595398,0.0509100928902626,-0.0008951425552368164,-0.004767477512359619,-0.001465439796447754,1,0.02171118184924126,0.7135899662971497,-0.4628835022449493,-0.5254111289978027,-0.7297567129135132,0.6834326386451721,0.01936403103172779,0,0,0,-1,197188.7936217917,3,2,1561914473.631158,1561913957.287787,32,0.8918345,0,0,26.32609,0,0,1561914413.669193,197185.822804,0,1.186279,75.29399,3232235528,177845136,1,1,0.53,-13.60208,-26.18322,2
1561914474.04837,53,0,0,1561914473.000176,4.634741633203472,-74.15106489329985,2552.92,0,195.1171875,4,30,-9999,1561914474.04066,7.726898193359375,24.61957168579102,13.35601806640625,24.12701988220215,31.62048721313477,15,197189.2043267917,-0.735260009765625,0.6814117431640625,0.019561767578125,197189.1871147917,-0.02347816185402956,-0.05313352585649791,0.09528843643525316,197189.1944697917,-68.29727172851562,-4.922866821289062,-550.08447265625,197189.1871147917,0.6723213116766135,-1.599508102707056,-0.7538460620791875,-0.02620632015168667,-0.05978481844067574,0.09205353260040283,-0.006300270557403564,-0.0007777810096740723,-0.002756595611572266,1,0.02217206358909607,0.7141241431236267,-0.4629334807395935,-0.5246214866638184,-0.7287613749504089,0.6844478249549866,0.02092978358268738,0,0,0,-1,197188.7936217917,3,2,1561914473.631158,1561913957.287787,32,0.8918345,0,0,26.32609,0,0,1561914413.669193,197186.768377,0,1.278809,75.29311,3232235528,177845136,1,1,0.53,-13.60208,-26.18322,2
1561914474.069052,54,0,0,1561914474.000176,4.634736143056895,-74.15108048363975,2552.928,0.23,252.421875,4,30,-9999,1561914474.04066,7.726898193359375,24.61957168579102,13.35601806640625,24.12701988220215,31.62048721313477,15,197189.2245907917,-0.7443389892578125,0.679168701171875,0.0339508056640625,197189.2073787917,0.05670988488436531,-0.09804667237624823,0.1293947415675709,197189.2145807917,-67.81698608398438,-4.756912231445312,-550.1774291992188,197189.2073787917,0.6725795185211869,-1.600903543394391,-0.7561820083197601,0.0539817251265049,-0.1046979650855064,0.1261598318815231,-0.008128523826599121,-0.004737257957458496,-0.002336740493774414,1,0.02257254347205162,0.7144506573677063,-0.4636530876159668,-0.5235233306884766,-0.7271315455436707,0.686149001121521,0.02189852297306061,0,0,0,-1,197188.7936217917,3,2,1561914473.631158,1561913957.287787,32,0.8918345,0,0,26.32609,0,0,1561914413.669193,197186.768377,0,1.278809,75.29311,3232235528,177845136,1,1,0.53,-13.60208,-27.1095,2
1561914474.089034,55,0,0,1561914474.000176,4.634736143056895,-74.15108048363975,2552.928,0.23,252.421875,4,30,-9999,1561914474.067302,7.828727722167969,24.44477272033691,13.572265625,24.02415466308594,31.51762199401855,15,197189.2448547917,-0.7587127685546875,0.6718902587890625,0.0452423095703125,197189.2276427917,0.1195253328838463,-0.1943132878798875,0.1220864949041755,197189.2346917917,-67.81996154785156,-4.784530639648438,-550.176025390625,197189.2276427917,0.6749632572959017,-1.602269175205135,-0.7587874431825897,0.1167971715331078,-0.2009645849466324,0.1188515946269035,-0.01902741193771362,-0.008873343467712402,0.0111156702041626,1,0.02231328375637531,0.7147864699363708,-0.4650006890296936,-0.521878182888031,-0.7253115177154541,0.6880420446395874,0.02283515967428684,0,0,0,-1,197188.7936217917,3,2,1561914473.631158,1561913957.287787,32,0.8918345,0,0,26.32609,0,0,1561914413.669193,197186.768377,0,1.278809,75.29311,3232235528,177845136,1,1,0.53,-13.60208,-27.91462,2
1561914474.123358,56,0,0,1561914474.000176,4.634736143056895,-74.15108048363975,2552.928,0.23,252.421875,4,30,-9999,1561914474.116062,8.165618896484375,24.49667930603027,13.13726806640625,23.38442230224609,30.87788963317871,15,197189.2651177917,-0.7885284423828125,0.6821441650390625,0.0597076416015625,197189.2479057917,0.1527344190449164,-0.2990719251514624,0.08217476491159398,197189.2548027917,-67.60752868652344,-4.953216552734375,-550.5764770507812,197189.2479057917,0.678637680892902,-1.604916503750905,-0.7608619053717296,0.1500062495470047,-0.3057231903076172,0.07893986254930496,-0.03489226102828979,-0.01765567064285278,0.02053582668304443,1,0.0211065448820591,0.7154772877693176,-0.4665502905845642,-0.5195937156677246,-0.7238204479217529,0.6895459294319153,0.02470647171139717,0,0,0,-1,197188.7936217917,3,2,1561914473.631158,1561913957.287787,32,0.8918345,0,0,26.32609,0,0,1561914413.669193,197186.768377,0,1.278809,75.29311,3232235528,177845136,1,1,0.53,-13.60208,-29.57136,2
1561914474.129436,57,0,0,1561914474.000176,4.634736143056895,-74.15108048363975,2552.928,0.23,252.421875,4,30,-9999,1561914474.116062,8.165618896484375,24.49667930603027,13.13726806640625,23.38442230224609,30.87788963317871,15,197189.2853817917,-0.81988525390625,0.716461181640625,0.0806884765625,197189.2681397917,0.2516628640580899,-0.3892851754973516,0.03161944530640179,197189.2749147917,-67.37646484375,-4.834869384765625,-550.4854125976562,197189.2681397917,0.6839347109692381,-1.608359191613558,-0.7620341506255754,0.2489346861839294,-0.3959364593029022,0.02838454395532608,-0.0656057596206665,-0.008250296115875244,0.0325397253036499,1,0.01881422474980354,0.716400682926178,-0.468275785446167,-0.5168498754501343,-0.7229227423667908,0.6903944611549377,0.02716782689094543,0,0,0,-1,197188.7936217917,3,2,1561914473.631158,1561913957.287787,32,0.8918345,0,0,26.32609,0,0,1561914413.669193,197186.768377,0,1.278809,75.29311,3232235528,177845136,1,1,0.53,-13.60208,-29.57136,2
1561914474.151559,58,0,0,1561914474.000176,4.634736143056895,-74.15108048363975,2552.928,0.23,252.421875,4,30,-9999,1561914474.139985,8.405357360839844,24.46217727661133,13.15185546875,22.62871551513672,30.12218284606934,15,197189.3056457917,-0.8381500244140625,0.720123291015625,0.0875396728515625,197189.2884027917,0.4174110860857874,-0.4996012973317038,0.02747849612743758,197189.2950257917,-67.37124633789062,-4.531829833984375,-550.7174682617188,197189.2884027917,0.6931935951786038,-1.610895116514525,-0.7627394982286033,0.414682924747467,-0.5062525868415833,0.02424359321594238,-0.09752041101455688,0.02555668354034424,0.05170691013336182,1,0.01514617539942265,0.7171201705932617,-0.4708738923072815,-0.5136020183563232,-0.7223648428916931,0.6909045577049255,0.02898149192333221,0,0,0,-1,197188.7936217917,3,2,1561914473.631158,1561913957.287787,32,0.8918345,0,0,26.32609,0,0,1561914413.669193,197186.768377,0,1.278809,75.29311,3232235528,177845136,1,1,0.53,-13.60208,-30.49985,2
1561914474.170051,59,0,0,1561914474.000176,4.634736143056895,-74.15108048363975,2552.928,0.23,252.421875,4,30,-9999,1561914474.167211,8.430625915527344,24.72926330566406,12.65057373046875,21.44632720947266,28.93979454040527,15,197189.3259087917,-0.93798828125,0.7465057373046875,0.0867767333984375,197189.3086667917,0.581544100912352,-0.6953138100483189,0.003818440370955612,197189.3151367917,-67.13302612304688,-4.661376953125,-551.3021240234375,197189.3086667917,0.7070923402438891,-1.613494517664852,-0.7634005981381321,0.5788159370422363,-0.7019650936126709,0.0005835387855768204,-0.116319477558136,0.02874094247817993,0.05670011043548584,1,0.00977556686848402,0.7178608775138855,-0.4746228456497192,-0.5092281699180603,-0.7218305468559265,0.6913823485374451,0.03083960153162479,0,0,0,-1,197188.7936217917,3,2,1561914473.631158,1561913957.287787,32,0.8918345,0,0,26.32609,0,0,1561914413.669193,197186.768377,0,1.278809,75.29311,3232235528,177845136,1,1,0.53,-13.60208,-30.87442,2
1561914474.195453,60,0,0,1561914474.000176,4.634736143056895,-74.15108048363975,2552.928,0.23,252.421875,4,30,-9999,1561914474.190642,8.859275817871094,25.23836517333984,11.47235107421875,19.77463531494141,27.26810264587402,15,197189.3461727917,-1.157379150390625,0.80560302734375,0.06195068359375,197189.3289307917,0.7945418606841264,-0.8915759992139265,-0.01161857288768869,197189.3352477917,-66.94227600097656,-4.435806274414062,-551.86279296875,197189.3289307917,0.7262311475588423,-1.616497280832053,-0.7638120852382642,0.7918136715888977,-0.8982272744178772,-0.01485347468405962,-0.2165377140045166,0.05482620000839233,0.05378282070159912,1,0.002328858245164156,0.7186734676361084,-0.4795880913734436,-0.5034862160682678,-0.7214505672454834,0.6916795969009399,0.03299395367503166,0,0,0,-1,197188.7936217917,3,2,1561914473.631158,1561913957.287787,32,0.8918345,0,0,26.32609,0,0,1561914413.669193,197186.768377,0,1.278809,75.29311,3232235528,177845136,1,1,0.53,-13.60208,-31.46961,2
1561914474.21047,61,0,0,1561914474.000176,4.634736143056895,-74.15108048363975,2552.928,0.23,252.421875,4,30,-9999,1561914474.190642,8.859275817871094,25.23836517333984,11.47235107421875,19.77463531494141,27.26810264587402,15,197189.3664057917,-1.417953491210938,0.8804779052734375,0.0308990478515625,197189.3491937917,0.9153793330370547,-0.7542722018410382,-0.04661144434689385,197189.3553587917,-66.77763366699219,-4.307861328125,-552.2634887695312,197189.3491937917,0.7505298302378021,-1.617483121168086,-0.764157007601278,0.9126511812210083,-0.7609235048294067,-0.0498463436961174,-0.436199963092804,0.1136743426322937,0.02825665473937988,1,-0.006522095762193203,0.7188911437988281,-0.4857578277587891,-0.4971843659877777,-0.721179187297821,0.6919286251068115,0.03369402885437012,0,0,0,-1,197188.7936217917,3,2,1561914473.631158,1561913957.287787,32,0.8918345,0,0,26.32609,0,0,1561914413.669193,197186.768377,0,1.278809,75.29311,3232235528,177845136,1,1,0.53,-13.60208,-31.46961,2
1561914474.230753,62,0,0,1561914474.000176,4.634736143056895,-74.15108048363975,2552.928,0.23,252.421875,4,30,-9999,1561914474.21785,8.87799072265625,25.35732841491699,11.08233642578125,17.94959259033203,25.44305992126465,15,197189.3866707917,-1.538040161132812,0.8902587890625,0.0036773681640625,197189.3694577917,0.8781717768153396,-0.152855060242297,-0.4872519530408974,197189.3754707917,-67.13026428222656,-3.831146240234375,-552.690185546875,197189.3694577917,0.7760917267972777,-1.609525470506683,-0.7603878926291249,0.8754435777664185,-0.1595063507556915,-0.4904868304729462,-0.6939281821250916,0.1912753582000732,0.002844095230102539,1,-0.01506520248949528,0.7167987823486328,-0.4911480247974396,-0.4947182238101959,-0.7240253090858459,0.6892025470733643,0.02805490978062153,0,0,0,-1,197188.7936217917,3,2,1561914473.631158,1561913957.287787,32,0.8918345,0,0,26.32609,0,0,1561914413.669193,197186.768377,0,1.278809,75.29311,3232235528,177845136,1,1,0.53,-13.60208,-31.72946,2
1561914474.251772,63,0,0,1561914474.000176,4.634736143056895,-74.15108048363975,2552.928,0.23,252.421875,4,30,-9999,1561914474.242253,8.461570739746094,25.66228294372559,10.75140380859375,16.26130867004395,23.75477600097656,15,197189.4069347917,-1.600189208984375,1.03759765625,-0.051422119140625,197189.3897227917,0.8277509468451965,0.5885506114242414,-1.394104110583627,197189.3955517917,-68.03060913085938,-3.357284545898438,-553.1553955078125,197189.3897227917,0.8001526352438895,-1.588931158345557,-0.7425007452944441,0.8250227570533752,0.5818993449211121,-1.39733898639679,-0.8013810515403748,0.2141262292861938,-0.00968325138092041,1,-0.02484871074557304,0.7113809585571289,-0.4927099049091339,-0.500556468963623,-0.7366591095924377,0.6761325001716614,0.0133606530725956,0,0,0,-1,197188.7936217917,3,2,1561914473.631158,1561913957.287787,32,0.8918345,0,0,26.32609,0,0,1561914413.669193,197186.768377,0,1.278809,75.29311,3232235528,177845136,1,1,0.53,-13.60208,-32.36512,2
1561914474.27474,64,0,0,1561914474.000176,4.634736143056895,-74.15108048363975,2552.928,0.23,252.421875,4,30,-9999,1561914474.268171,7.371330261230469,26.035888671875,10.304443359375,14.76723480224609,22.26070213317871,15,197189.4271977917,-1.559005737304688,1.106643676757812,-0.0973358154296875,197189.4099857917,0.8469776383350235,1.515806843974723,-2.546767900953434,197189.4156627917,-69.58563232421875,-2.849151611328125,-553.7103271484375,197189.4099857917,0.8225747792562864,-1.553379612443998,-0.7021728306764816,0.8442494869232178,1.509155511856079,-2.550002813339233,-0.8368643522262573,0.3917196393013,-0.03812617063522339,1,-0.03828844800591469,0.7013458609580994,-0.4887082576751709,-0.5175058245658875,-0.7633249163627625,0.6458780169487,-0.01329595595598221,0,0,0,-1,197188.7936217917,3,2,1561914473.631158,1561913957.287787,32,0.8918345,0,0,26.32609,0,0,1561914413.669193,197186.768377,0,1.278809,75.29311,3232235528,177845136,1,1,0.53,-13.60208,-31.69427,2
1561914474.291693,65,0,0,1561914474.000176,4.634736143056895,-74.15108048363975,2552.928,0.23,252.421875,4,30,-9999,1561914474.268171,7.371330261230469,26.035888671875,10.304443359375,14.76723480224609,22.26070213317871,15,197189.4474617917,-1.446731567382812,1.1331787109375,-0.1356964111328125,197189.4302497917,0.8848770838079412,2.56408084488393,-3.115414579022641,197189.4357737917,-71.83790588378906,-2.443115234375,-553.9503173828125,197189.4302497917,0.8417523156937136,-1.500168698472138,-0.642789387160916,0.8821489214897156,2.557429313659668,-3.118649482727051,-0.7605744600296021,0.5072132349014282,-0.04085057973861694,1,-0.05330854281783104,0.6847741007804871,-0.4801596105098724,-0.545609176158905,-0.7984312772750854,0.5994304418563843,-0.05648526176810265,0,0,0,-1,197188.7936217917,3,2,1561914473.631158,1561913957.287787,32,0.8918345,0,0,26.32609,0,0,1561914413.669193,197186.768377,0,1.278809,75.29311,3232235528,177845136,1,1,0.53,-13.60208,-32.28463,2
1561914474.31182,66,0,0,1561914474.000176,4.634736143056895,-74.15108048363975,2552.928,0.23,252.421875,4,30,-9999,1561914474.291869,3.119102478027344,26.9112663269043,9.46661376953125,13.66226959228516,21.15573692321777,15,197189.4677257917,-1.348648071289062,1.034149169921875,-0.2028656005859375,197189.4504827917,0.906316595847515,3.411884329472987,-2.928410603070585,197189.4558847917,-74.44416809082031,-1.9593505859375,-554.2451782226562,197189.4504827917,0.8561574763502533,-1.430874480980839,-0.5793005078835224,0.9035884141921997,3.405232906341553,-2.931645393371582,-0.6180644631385803,0.5857400298118591,-0.01898515224456787,1,-0.06482416391372681,0.6613941192626953,-0.4707298874855042,-0.5803179740905762,-0.8286671042442322,0.5474386811256409,-0.1167112961411476,0,0,0,-1,197188.7936217917,3,2,1561914473.631158,1561913957.287787,32,0.8918345,0,0,26.32609,0,0,1561914413.669193,197186.768377,0,1.278809,75.29311,3232235528,177845136,1,1,0.53,-13.60208,-32.59343,2
1561914474.33526,67,0,0,1561914474.000176,4.634736143056895,-74.15108048363975,2552.928,0.23,252.421875,4,30,-9999,1561914474.318389,0.74237060546875,27.50729370117188,9.2044677734375,13.11570739746094,20.60917472839355,15,197189.4879887917,-1.253463745117188,0.876922607421875,-0.2880706787109375,197189.4707467917,0.7627154877610254,4.071929897205387,-2.570299858661483,197189.4759957917,-76.86090087890625,-1.743988037109375,-554.6365966796875,197189.4707467917,0.8639983087104919,-1.350636735204318,-0.5213769313683713,0.7599872946739197,4.06527853012085,-2.573534727096558,-0.5024442076683044,0.5360745787620544,-0.01349622011184692,1,-0.07020597904920578,0.6327609419822693,-0.4620732665061951,-0.6173921227455139,-0.8462038636207581,0.4980745911598206,-0.1893694251775742,0,0,0,-1,197188.7936217917,3,2,1561914473.631158,1561913957.287787,32,0.8918345,0,0,26.32609,0,0,1561914413.669193,197186.768377,0,1.278809,75.29311,3232235528,177845136,1,1,0.53,-13.60208,-33.09312,2
1561914474.357862,68,0,0,1561914474.000176,4.634736143056895,-74.15108048363975,2552.928,0.23,252.421875,4,30,-9999,1561914474.342891,-1.643257141113281,27.51346015930176,8.55938720703125,12.88405609130859,20.37752342224121,15,197189.5082527917,-1.154983520507812,0.7287750244140625,-0.3785858154296875,197189.4910107917,0.9241123708836425,4.201555534839468,-2.421041131155229,197189.4961067917,-78.77330017089844,-1.88323974609375,-555.4736938476562,197189.4910107917,0.86710409901616,-1.264488168754925,-0.4687452218299406,0.9213842153549194,4.194904327392578,-2.424275875091553,-0.4028539061546326,0.4251554012298584,-0.01905542612075806,1,-0.07146178930997849,0.6003212332725525,-0.454170286655426,-0.6543981432914734,-0.8506098389625549,0.4517672061920166,-0.2690152525901794,0,0,0,-1,197188.7936217917,3,2,1561914473.631158,1561913957.287787,32,0.8918345,0,0,26.32609,0,0,1561914413.669193,197186.768377,0,1.278809,75.29311,3232235528,177845136,1,1,0.53,-13.60208,-33.23335,2
1561914474.372575,69,0,0,1561914474.000176,4.634736143056895,-74.15108048363975,2552.928,0.23,252.421875,4,30,-9999,1561914474.369156,-3.722175598144531,27.42952156066895,7.8291015625,12.51635551452637,20.00982284545898,15,197189.5285167917,-1.01611328125,0.5891876220703125,-0.4686126708984375,197189.5112737917,1.301224503354351,3.86178385032887,-2.516100269420626,197189.5162177917,-80.95333862304688,-1.757598876953125,-556.4932861328125,197189.5112737917,0.8717678394830251,-1.180640195886034,-0.4142763617776933,1.29849636554718,3.855132341384888,-2.519335031509399,-0.3083688616752625,0.3262473940849304,-0.03042620420455933,1,-0.07511140406131744,0.565931499004364,-0.4470319449901581,-0.6886524558067322,-0.8466145992279053,0.4025276005268097,-0.3481596410274506,0,0,0,-1,197188.7936217917,3,2,1561914473.631158,1561913957.287787,32,0.8918345,0,0,26.32609,0,0,1561914413.669193,197186.768377,0,1.278809,75.29311,3232235528,177845136,1,1,0.53,-13.60208,-33.23335,2
1561914474.392972,70,0,0,1561914474.000176,4.634736143056895,-74.15108048363975,2552.928,0.23,252.421875,4,30,-9999,1561914474.369156,-3.722175598144531,27.42952156066895,7.8291015625,12.51635551452637,20.00982284545898,15,197189.5487497917,-0.8367156982421875,0.52325439453125,-0.473541259765625,197189.5315377917,1.661205053164797,3.527653806271495,-2.735648073893451,197189.5363287917,-82.78465270996094,-2.114288330078125,-557.9647827148438,197189.5315377917,0.8769833724440972,-1.103881966842055,-0.3533881548456353,1.658476948738098,3.521002292633057,-2.738883018493652,-0.1783318519592285,0.2431090474128723,-0.04629534482955933,1,-0.08364098519086838,0.5308912396430969,-0.4393466711044312,-0.7198147177696228,-0.8377814292907715,0.3460785746574402,-0.4223173558712006,0,0,0,-1,197188.7936217917,3,2,1561914473.631158,1561913957.287787,32,0.8918345,0,0,26.32609,0,0,1561914413.669193,197186.768377,0,1.278809,75.29311,3232235528,177845136,1,1,0.53,-13.60208,-33.37881,2
1561914474.41305,71,0,0,1561914474.000176,4.634736143056895,-74.15108048363975,2552.928,0.23,252.421875,4,30,-9999,1561914474.39315,-7.839515686035156,27.13447570800781,5.04052734375,12.03063011169434,19.52409744262695,15,197189.5690127917,-0.7006072998046875,0.4688262939453125,-0.4854736328125,197189.5518017917,2.228873019533401,2.859076801987027,-2.666030646153799,197189.5564397917,-85.04478454589844,-2.350082397460938,-559.6834716796875,197189.5518017917,0.8848502410431209,-1.035790211890063,-0.2857673935252057,2.226144790649414,2.852425336837769,-2.669265508651733,-0.0113377571105957,0.241360604763031,0.01562851667404175,1,-0.09797636419534683,0.4957980811595917,-0.4319046437740326,-0.7470229268074036,-0.8253779411315918,0.2818938195705414,-0.4891697764396667,0,0,0,-1,197188.7936217917,3,2,1561914473.631158,1561913957.287787,32,0.8918345,0,0,26.32609,0,0,1561914413.669193,197186.768377,0,1.278809,75.29311,3232235528,177845136,1,1,0.53,-13.60208,-31.36308,2
1561914474.439141,72,0,0,1561914474.000176,4.634736143056895,-74.15108048363975,2552.928,0.23,252.421875,4,30,-9999,1561914474.419796,-9.513442993164062,26.86721801757812,3.21209716796875,10.84344100952148,18.3369083404541,15,197189.5892767917,-0.6189117431640625,0.376068115234375,-0.523529052734375,197189.5720647917,2.679661503561151,1.780870734638091,-2.201988142012942,197189.5765207917,-86.45243835449219,-2.6273193359375,-561.6290283203125,197189.5720647917,0.9012196632481846,-0.9848789868071577,-0.217104361378146,2.676933288574219,1.774219393730164,-2.205223083496094,0.1130385994911194,0.2534234225749969,0.05450963973999023,1,-0.118752121925354,0.464657187461853,-0.4276163280010223,-0.7662479281425476,-0.8136458992958069,0.2154028713703156,-0.5399832725524902,0,0,0,-1,197188.7936217917,3,2,1561914473.631158,1561913957.287787,32,0.8918345,0,0,26.32609,0,0,1561914413.669193,197186.768377,0,1.278809,75.29311,3232235528,177845136,1,1,0.53,-13.60208,-31.93589,2
1561914474.453649,73,0,0,1561914474.000176,4.634736143056895,-74.15108048363975,2552.928,0.23,252.421875,4,30,-9999,1561914474.444032,-10.81867980957031,26.47646522521973,1.55645751953125,8.884239196777344,16.37770652770996,15,197189.6095407917,-0.527557373046875,0.311553955078125,-0.5073089599609375,197189.5923287917,3.034127445702371,0.9803522078356088,-1.803339292122871,197189.5966317917,-87.43113708496094,-3.143356323242188,-563.4060668945312,197189.5923287917,0.9264805301692272,-0.9530733017075423,-0.1510753731139013,3.031399250030518,0.9737009406089783,-1.806574106216431,0.1870023012161255,0.2255667746067047,0.04905444383621216,1,-0.1443963944911957,0.4391559362411499,-0.426901251077652,-0.7772046327590942,-0.805914044380188,0.1505013406276703,-0.5725834965705872,0,0,0,-1,197188.7936217917,3,2,1561914473.631158,1561913957.287787,32,0.8918345,0,0,26.32609,0,0,1561914413.669193,197186.768377,0,1.278809,75.29311,3232235528,177845136,1,1,0.53,-13.60208,-32.6629,2
1561914474.473886,74,0,0,1561914474.000176,4.634736143056895,-74.15108048363975,2552.928,0.23,252.421875,4,30,-9999,1561914474.470784,-11.97853851318359,26.11279106140137,-0.39422607421875,6.122485637664795,13.61595344543457,15,197189.6298037917,-0.439666748046875,0.31488037109375,-0.425018310546875,197189.6125927917,3.428289668103984,0.4721190727787402,-1.497625709528861,197189.6167427917,-88.51643371582031,-3.619781494140625,-565.4049072265625,197189.6125927917,0.9597338116105874,-0.9351722672747432,-0.08532355547873413,3.425561428070068,0.465467780828476,-1.500860571861267,0.2742165923118591,0.226333886384964,0.08421111106872559,1,-0.1741254925727844,0.4170374870300293,-0.4287830293178558,-0.7822436690330505,-0.8017739653587341,0.08522006869316101,-0.5915200710296631,0,0,0,-1,197188.7936217917,3,2,1561914473.631158,1561913957.287787,32,0.8918345,0,0,26.32609,0,0,1561914413.669193,197186.768377,0,1.278809,75.29311,3232235528,177845136,1,1,0.53,-13.60208,-31.70863,2
1561914474.494337,75,0,0,1561914474.000176,4.634736143056895,-74.15108048363975,2552.928,0.23,252.421875,4,30,-9999,1561914474.470784,-11.97853851318359,26.11279106140137,-0.39422607421875,6.122485637664795,13.61595344543457,15,197189.6500677917,-0.346466064453125,0.239990234375,-0.389373779296875,197189.6328257917,3.803880869276148,0.03810450887685374,-0.8134324612443854,197189.6368537917,-88.794677734375,-3.935699462890625,-567.1705322265625,197189.6328257917,1.004104636135323,-0.9271634970811488,-0.02218086340985063,3.80115270614624,0.0314532145857811,-0.816667377948761,0.3600574731826782,0.2927013337612152,0.1749395132064819,1,-0.2064734399318695,0.3967238664627075,-0.4347560405731201,-0.781643271446228,-0.7997242212295532,0.02217904478311539,-0.5999577641487122,0,0,0,-1,197188.7936217917,3,2,1561914473.631158,1561913957.287787,32,0.8918345,0,0,26.32609,0,0,1561914413.669193,197186.768377,0,1.278809,75.29311,3232235528,177845136,1,1,0.53,-13.60208,-31.74755,2
1561914474.519075,76,0,0,1561914474.000176,4.634736143056895,-74.15108048363975,2552.928,0.23,252.421875,4,30,-9999,1561914474.494557,-13.20743560791016,25.40689849853516,-4.26611328125,2.185710430145264,9.679178237915039,15,197189.6703317917,-0.3458099365234375,0.1953125,-0.4177093505859375,197189.6530887917,3.78318890655456,-0.697903201576203,0.06834044199695936,197189.6569647917,-88.98574829101562,-4.387405395507812,-569.0008544921875,197189.6530887917,1.061896335064904,-0.9350223929558231,0.03017076583823906,3.780460596084595,-0.7045544981956482,0.06510554254055023,0.4577800631523132,0.2701564133167267,0.2041563987731934,1,-0.2397814840078354,0.3817587792873383,-0.4461022913455963,-0.7731479406356812,-0.804246187210083,-0.03016618825495243,-0.5935301780700684,0,0,0,-1,197188.7936217917,3,2,1561914473.631158,1561913957.287787,32,0.8918345,0,0,26.32609,0,0,1561914413.669193,197186.768377,0,1.278809,75.29311,3232235528,177845136,1,1,0.53,-13.60208,-32.28228,2
1561914474.534901,77,0,0,1561914474.000176,4.634736143056895,-74.15108048363975,2552.928,0.23,252.421875,4,30,-9999,1561914474.52106,-13.15568542480469,24.91286087036133,-6.00830078125,357.4352111816406,4.92868709564209,15,197189.6905947917,-0.304931640625,0.1269073486328125,-0.4531402587890625,197189.6733527917,3.751567863351504,-0.9198739500087814,0.6755640737204004,197189.6770757917,-89.035400390625,-4.751571655273438,-570.6564331054688,197189.6733527917,1.128030456469505,-0.9548386220811773,0.06786867522411055,3.748839616775513,-0.9265252351760864,0.6723291277885437,0.4685315489768982,0.2631290853023529,0.1587010622024536,1,-0.2709605395793915,0.3719881176948547,-0.4613603949546814,-0.7585195899009705,-0.8143414855003357,-0.06781658530235291,-0.5764104723930359,0,0,0,-1,197188.7936217917,3,2,1561914473.631158,1561913957.287787,32,0.8918345,0,0,26.32609,0,0,1561914413.669193,197186.768377,0,1.278809,75.29311,3232235528,177845136,1,1,0.53,-13.60208,-32.28228,2
1561914474.555035,78,0,0,1561914474.000176,4.634736143056895,-74.15108048363975,2552.928,0.23,252.421875,4,30,-9999,1561914474.545225,-13.02588653564453,24.46819305419922,-7.6678466796875,351.9983825683594,359.4918518066406,15,197189.7108587917,-0.2967529296875,0.1448974609375,-0.395294189453125,197189.6936167917,3.928843578157609,-1.049776822712339,0.988324913190979,197189.6971567917,-88.47604370117188,-5.07733154296875,-572.39453125,197189.6936167917,1.202134449631989,-0.9820048385358843,0.0984441817112046,3.926115274429321,-1.056428074836731,0.9850899577140808,0.5226543545722961,0.2251925766468048,0.09952723979949951,1,-0.3021115958690643,0.3638609945774078,-0.4789751768112183,-0.7395380139350891,-0.8275859951972961,-0.0982852503657341,-0.552667498588562,0,0,0,-1,197188.7936217917,3,2,1561914473.631158,1561913957.287787,32,0.8918345,0,0,26.32609,0,0,1561914413.669193,197186.768377,0,1.278809,75.29311,3232235528,177845136,1,1,0.53,-13.60208,-30.31676,2
1561914474.576207,79,0,0,1561914474.000176,4.634736143056895,-74.15108048363975,2552.928,0.23,252.421875,4,30,-9999,1561914474.571555,-12.00646209716797,23.66843032836914,-10.80499267578125,346.1620483398438,353.655517578125,15,197189.7311227917,-0.2249603271484375,0.1009063720703125,-0.2649993896484375,197189.7138797917,3.763723595831062,-0.8723602266845687,1.509546551200273,197189.7172677917,-87.89060974121094,-5.418960571289062,-573.94580078125,197189.7138797917,1.281731519434647,-1.010018973262289,0.1200295634527919,3.760995388031006,-0.8790115118026733,1.506311655044556,0.5439960360527039,0.2646390199661255,0.132723867893219,1,-0.3308237791061401,0.3557338714599609,-0.4990522265434265,-0.7176042795181274,-0.8407489657402039,-0.1197415590286255,-0.528018057346344,0,0,0,-1,197188.7936217917,3,2,1561914473.631158,1561913957.287787,32,0.8918345,0,0,26.32609,0,0,1561914413.669193,197186.768377,0,1.278809,75.29311,3232235528,177845136,1,1,0.53,-13.60208,-28.34051,2
1561914474.596575,80,0,0,1561914474.000176,4.634736143056895,-74.15108048363975,2552.928,0.23,252.421875,4,30,-9999,1561914474.571555,-12.00646209716797,23.66843032836914,-10.80499267578125,346.1620483398438,353.655517578125,15,197189.7513557917,-0.1724700927734375,0.0308685302734375,-0.1309661865234375,197189.7341437917,3.580036587016699,-1.206144059800233,2.038022107386725,197189.7373787917,-87.42514038085938,-5.740142822265625,-575.041748046875,197189.7341437917,1.364762664306192,-1.040585218169898,0.1277623967815529,3.577308416366577,-1.212795376777649,2.034787178039551,0.6307084560394287,0.2283214628696442,0.2365942001342773,1,-0.3558615744113922,0.3500939011573792,-0.5214467644691467,-0.6920187473297119,-0.855668842792511,-0.1274150907993317,-0.5015935897827148,0,0,0,-1,197188.7936217917,3,2,1561914473.631158,1561913957.287787,32,0.8918345,0,0,26.32609,0,0,1561914413.669193,197186.768377,0,1.278809,75.29311,3232235528,177845136,1,1,0.53,-13.60208,-28.56587,2
1561914474.61808,81,0,0,1561914474.000176,4.634736143056895,-74.15108048363975,2552.928,0.23,252.421875,4,30,-9999,1561914474.596371,-11.22928619384766,23.39368438720703,-12.07147216796875,340.2432861328125,347.7367553710938,15,197189.7716197917,-0.11236572265625,-0.0555877685546875,-0.069244384765625,197189.7544077917,3.088542750991524,-1.431540964975198,2.33817793910185,197189.7574897917,-86.48550415039062,-6.295425415039062,-576.4609375,197189.7544077917,1.446679051485162,-1.078709688950582,0.1224877933572152,3.085814476013184,-1.438192248344421,2.334943056106567,0.7022755146026611,0.1530502438545227,0.3379599452018738,1,-0.3786652982234955,0.3494989573955536,-0.5433018803596497,-0.6627866625785828,-0.8747456073760986,-0.122181735932827,-0.4689261317253113,0,0,0,-1,197188.7936217917,3,2,1561914473.631158,1561913957.287787,32,0.8918345,0,0,26.32609,0,0,1561914413.669193,197186.768377,0,1.278809,75.29311,3232235528,177845136,1,1,0.53,-13.60208,-29.04237,2
1561914474.636096,82,0,0,1561914474.000176,4.634736143056895,-74.15108048363975,2552.928,0.23,252.421875,4,30,-9999,1561914474.62224,-10.43398284912109,23.25405693054199,-13.06683349609375,335.1480407714844,342.6415100097656,15,197189.7918827917,-0.109466552734375,-0.158782958984375,-0.02752685546875,197189.7746707917,2.202717581835514,-1.262409463098664,2.724301409753059,197189.7776007917,-85.76174926757812,-6.193145751953125,-577.3058471679688,197189.7746707917,1.518188080804197,-1.113781449310292,0.1015088906666802,2.199989318847656,-1.269060730934143,2.721066474914551,0.7803887128829956,0.04574689269065857,0.3697553873062134,1,-0.3945567011833191,0.3533059656620026,-0.5640641450881958,-0.6335073113441467,-0.8927543759346008,-0.1013346537947655,-0.4389998018741608,0,0,0,-1,197188.7936217917,3,2,1561914473.631158,1561913957.287787,32,0.8918345,0,0,26.32609,0,0,1561914413.669193,197186.768377,0,1.278809,75.29311,3232235528,177845136,1,1,0.53,-13.60208,-29.15154,2
1561914474.657216,83,0,0,1561914474.000176,4.634736143056895,-74.15108048363975,2552.928,0.23,252.421875,4,30,-9999,1561914474.646484,-9.777381896972656,23.03557968139648,-13.692138671875,331.2815856933594,338.7750549316406,15,197189.8121467917,-0.1739654541015625,-0.1990966796875,-0.0179443359375,197189.7949347917,1.45943704476156,-1.461946807772851,2.869082564518563,197189.7976817917,-84.65467834472656,-6.195785522460938,-577.760498046875,197189.7949347917,1.575981912986155,-1.146073753317216,0.06543460556398095,1.456708908081055,-1.468598127365112,2.865847587585449,0.799736499786377,-0.09339505434036255,0.3836592435836792,1,-0.4035558104515076,0.3626977205276489,-0.5828635692596436,-0.6048661470413208,-0.9092031121253967,-0.06538791954517365,-0.4111861288547516,0,0,0,-1,197188.7936217917,3,2,1561914473.631158,1561913957.287787,32,0.8918345,0,0,26.32609,0,0,1561914413.669193,197186.768377,0,1.278809,75.29311,3232235528,177845136,1,1,0.53,-13.60208,-29.3319,2
1561914474.679436,84,0,0,1561914474.000176,4.634736143056895,-74.15108048363975,2552.928,0.23,252.421875,4,30,-9999,1561914474.673368,-7.745124816894531,23.70989799499512,-14.029052734375,328.5951843261719,336.0886535644531,15,197189.8324107917,-0.252166748046875,-0.1749267578125,-0.0426177978515625,197189.8151677917,0.7671437920216092,-1.737097421064895,2.984871482393028,197189.8177927917,-83.78173828125,-5.92034912109375,-577.7267456054688,197189.8151677917,1.61984606509865,-1.180375011917481,0.02023819332685869,0.7644156217575073,-1.743748664855957,2.981636524200439,0.7505940198898315,-0.1788598895072937,0.3625558018684387,1,-0.408825010061264,0.3776400983333588,-0.5978060960769653,-0.5769557952880859,-0.924559473991394,-0.02023681253194809,-0.3805001378059387,0,0,0,-1,197188.7936217917,3,2,1561914473.631158,1561913957.287787,32,0.8918345,0,0,26.32609,0,0,1561914413.669193,197186.768377,0,1.278809,75.29311,3232235528,177845136,1,1,0.53,-13.60208,-29.3319,2
1561914474.696923,85,0,0,1561914474.000176,4.634736143056895,-74.15108048363975,2552.928,0.23,252.421875,4,30,-9999,1561914474.673368,-7.745124816894531,23.70989799499512,-14.029052734375,328.5951843261719,336.0886535644531,15,197189.8526737917,-0.3776702880859375,-0.0936279296875,-0.0860443115234375,197189.8354317917,0.3660978308343587,-2.150138526117971,3.207905631048875,197189.8379037917,-82.86082458496094,-5.698028564453125,-577.7206420898438,197189.8354317917,1.652602874210179,-1.219653569430443,-0.03399723852173427,0.3633696734905243,-2.156790018081665,3.204670667648315,0.6862709522247314,-0.2089174389839172,0.3011544942855835,1,-0.4116971790790558,0.3982703685760498,-0.6093763113021851,-0.5482213497161865,-0.9384376406669617,0.03399068862199783,-0.343772292137146,0,0,0,-1,197188.7936217917,3,2,1561914473.631158,1561913957.287787,32,0.8918345,0,0,26.32609,0,0,1561914413.669193,197186.768377,0,1.278809,75.29311,3232235528,177845136,1,1,0.53,-13.60208,-30.02309,2
1561914474.717884,86,0,0,1561914474.000176,4.634736143056895,-74.15108048363975,2552.928,0.23,252.421875,4,30,-9999,1561914474.6971,-6.483131408691406,24.02193450927734,-13.8929443359375,326.5705261230469,334.0639953613281,15,197189.8729377917,-0.47650146484375,0.038726806640625,-0.093414306640625,197189.8556957917,0.2307021883825122,-2.379050271299623,3.448373631148708,197189.8580147917,-81.74441528320312,-5.16546630859375,-577.5353393554688,197189.8556957917,1.679903192573156,-1.264767413722811,-0.09607892665686635,0.2279740273952484,-2.385701656341553,3.445138692855835,0.5714694857597351,-0.1895591020584106,0.213840663433075,1,-0.4137533605098724,0.4229251444339752,-0.618871808052063,-0.5166625380516052,-0.9491397142410278,0.09593117237091064,-0.2998849451541901,0,0,0,-1,197188.7936217917,3,2,1561914473.631158,1561913957.287787,32,0.8918345,0,0,26.32609,0,0,1561914413.669193,197186.768377,0,1.278809,75.29311,3232235528,177845136,1,1,0.53,-14.15936,-30.83942,2
1561914474.755581,87,0,0,1561914474.000176,4.634736143056895,-74.15108048363975,2552.928,0.23,252.421875,4,30,-9999,1561914474.747732,-4.430686950683594,24.55332374572754,-13.737548828125,323.1208190917969,330.6142883300781,15,197189.8932017917,-0.6194915771484375,0.092926025390625,-0.097259521484375,197189.8759587917,0.244541837619327,-2.315291797958145,3.630212672482664,197189.8781257917,-80.81277465820312,-4.919479370117188,-577.4774169921875,197189.8759587917,1.704377387540353,-1.309291220352213,-0.163881191653296,0.2418136745691299,-2.321943283081055,3.626977682113647,0.4765574932098389,-0.1244218349456787,0.1616564989089966,1,-0.414034515619278,0.44837486743927,-0.6279134154319763,-0.4829700887203217,-0.9530589580535889,0.1631486117839813,-0.2550708055496216,0,0,0,-1,197188.7936217917,3,2,1561914473.631158,1561913957.287787,32,0.8918345,0,0,26.32609,0,0,1561914413.669193,197186.768377,0,1.278809,75.29311,3232235528,177845136,1,1,0.53,-15.27392,-32.15736,2
1561914474.757744,88,0,0,1561914474.000176,4.634736143056895,-74.15108048363975,2552.928,0.23,252.421875,4,30,-9999,1561914474.747732,-4.430686950683594,24.55332374572754,-13.737548828125,323.1208190917969,330.6142883300781,15,197189.9134647917,-0.8153533935546875,0.17071533203125,-0.10076904296875,197189.8962227917,0.4242793785371018,-1.990878030821815,3.262573404009368,197189.8982067917,-79.38609313964844,-4.5928955078125,-577.260009765625,197189.8962227917,1.728472089929264,-1.349370244905781,-0.231293459469117,0.4215511977672577,-1.997529268264771,3.259338617324829,0.330114483833313,-0.1363106966018677,0.1165132522583008,1,-0.4134361445903778,0.4713641703128815,-0.6367821097373962,-0.4487704038619995,-0.9496060609817505,0.2292367368936539,-0.2137727439403534,0,0,0,-1,197188.7936217917,3,2,1561914473.631158,1561913957.287787,32,0.8918345,0,0,26.32609,0,0,1561914413.669193,197186.768377,0,1.278809,75.29311,3232235528,177845136,1,1,0.53,-15.27392,-32.15736,2
1561914474.777764,89,0,0,1561914474.000176,4.634736143056895,-74.15108048363975,2552.928,0.23,252.421875,4,30,-9999,1561914474.774597,-2.222969055175781,24.98283386230469,-13.7899169921875,321.9357299804688,329.42919921875,15,197189.9336987917,-0.935028076171875,0.2434844970703125,-0.0992584228515625,197189.9164867917,0.3296822987208332,-0.846523303053056,2.359384424546042,197189.9183177917,-78.15625,-4.526657104492188,-577.1580810546875,197189.9164867917,1.748885378423845,-1.37393791615688,-0.2856411196943688,0.3269541263580322,-0.8531745672225952,2.356149435043335,0.125596284866333,-0.111057311296463,0.08689528703689575,1,-0.4110043942928314,0.4870761930942535,-0.6450279355049133,-0.4216291308403015,-0.9409496784210205,0.281772643327713,-0.1876643449068069,0,0,0,-1,197188.7936217917,3,2,1561914473.631158,1561913957.287787,32,0.8918345,0,0,26.32609,0,0,1561914413.669193,197186.768377,0,1.278809,75.29311,3232235528,177845136,1,1,0.53,-15.8312,-32.86872,2
1561914474.801429,90,0,0,1561914474.000176,4.634736143056895,-74.15108048363975,2552.928,0.23,252.421875,4,30,-9999,1561914474.774597,-2.222969055175781,24.98283386230469,-13.7899169921875,321.9357299804688,329.42919921875,15,197189.9539617917,-1.088851928710938,0.353179931640625,-0.1812591552734375,197189.9367497917,0.2318473476512463,0.143109488549261,1.427821594196794,197189.9384287917,-77.58009338378906,-4.5364990234375,-577.4375610351562,197189.9367497917,1.762143513327353,-1.37671096541265,-0.3221529312816502,0.2291191816329956,0.1364581882953644,1.424586772918701,-0.00428164005279541,-0.07312497496604919,0.08368879556655884,1,-0.4048998355865479,0.4945528507232666,-0.6528821587562561,-0.4064708948135376,-0.9307464361190796,0.3166094720363617,-0.1829472035169601,0,0,0,-1,197188.7936217917,3,2,1561914473.631158,1561913957.287787,32,0.8918345,0,0,26.32609,0,0,1561914413.669193,197186.768377,0,1.278809,75.29311,3232235528,177845136,1,1,0.53,-16.38848,-29.53633,2
1561914474.819677,91,0,0,1561914474.000176,4.634736143056895,-74.15108048363975,2552.928,0.23,252.421875,4,30,-9999,1561914474.800533,-1.41375732421875,25.05345153808594,-14.03912353515625,321.2332763671875,328.7267456054688,15,197189.9742257917,-1.236663818359375,0.413818359375,-0.266265869140625,197189.9570137917,0.2508300935852221,0.8191382838798802,0.6248340507476989,197189.9585397917,-76.95433044433594,-4.308685302734375,-577.789306640625,197189.9570137917,1.771222959810869,-1.363545600237806,-0.3411443300002702,0.2481019198894501,0.812487006187439,0.6215991377830505,-0.1666459441184998,0.01861423254013062,0.01265305280685425,1,-0.3974556624889374,0.4950483739376068,-0.6601789593696594,-0.4013974070549011,-0.9222059845924377,0.3345656991004944,-0.1939122080802917,0,0,0,-1,197188.7936217917,3,2,1561914473.631158,1561913957.287787,32,0.8918345,0,0,26.32609,0,0,1561914413.669193,197186.768377,0,1.278809,75.29311,3232235528,177845136,1,1,0.53,-16.94576,-30.24426,2
1561914474.841384,92,0,0,1561914474.000176,4.634736143056895,-74.15108048363975,2552.928,0.23,252.421875,4,30,-9999,1561914474.824929,-0.8862762451171875,25.00273895263672,-14.1517333984375,320.6440124511719,328.1374816894531,15,197189.9944897917,-1.359054565429688,0.473785400390625,-0.31500244140625,197189.9772777917,0.3760018606122543,1.083118001663477,0.1423821792555603,197189.9786507917,-76.33267211914062,-4.499160766601562,-577.890869140625,197189.9772777917,1.779412471453634,-1.340810718260447,-0.3468845177888782,0.3732737004756927,1.076466679573059,0.1391472667455673,-0.3209893107414246,0.07384878396987915,-0.05188065767288208,1,-0.3902983665466309,0.4903820753097534,-0.6671224236488342,-0.4026665687561035,-0.9156745076179504,0.3399695456027985,-0.2143852114677429,0,0,0,-1,197188.7936217917,3,2,1561914473.631158,1561913957.287787,32,0.8918345,0,0,26.32609,0,0,1561914413.669193,197186.768377,0,1.278809,75.29311,3232235528,177845136,1,1,0.53,-16.94576,-30.24426,2
1561914474.858822,93,0,0,1561914474.000176,4.634736143056895,-74.15108048363975,2552.928,0.23,252.421875,4,30,-9999,1561914474.850761,-0.4152603149414062,24.74449729919434,-14.3214111328125,319.9762268066406,327.4696960449219,15,197190.0147527917,-1.399490356445312,0.51153564453125,-0.321929931640625,197189.9975107917,0.4740748982832944,1.055844835256085,-0.04794302489193347,197189.9987307917,-75.97915649414062,-4.636810302734375,-578.0029296875,197189.9975107917,1.788292118132183,-1.316095357327722,-0.3451874122402217,0.4713467359542847,1.049193501472473,-0.05117792636156082,-0.4484008550643921,0.1354123950004578,-0.07790881395339966,1,-0.3846597075462341,0.4832081198692322,-0.6734724044799805,-0.4061793088912964,-0.9106536507606506,0.3383730351924896,-0.2370936423540115,0,0,0,-1,197188.7936217917,3,2,1561914473.631158,1561913957.287787,32,0.8918345,0,0,26.32609,0,0,1561914413.669193,197186.768377,0,1.278809,75.29311,3232235528,177845136,1,1,0.53,-17.50304,-31.07814,2
1561914474.879079,94,0,0,1561914474.000176,4.634736143056895,-74.15108048363975,2552.928,0.23,252.421875,4,30,-9999,1561914474.875986,0.027130126953125,24.44247627258301,-14.83868408203125,319.0728149414062,326.5662841796875,15,197190.0350167917,-1.368728637695312,0.4879302978515625,-0.2690277099609375,197190.0177737917,0.6387192400391541,0.7822822649220555,-0.05196066971242701,197190.0188427917,-76.12930297851562,-4.973419189453125,-578.3702392578125,197190.0177737917,1.799442232471201,-1.293351594009698,-0.3411481692049508,0.635991096496582,0.7756309509277344,-0.05519556999206543,-0.4931570291519165,0.1769663393497467,-0.06381547451019287,1,-0.3807887434959412,0.4753342866897583,-0.6795574426651001,-0.4089729487895966,-0.9063333868980408,0.3345693051815033,-0.2581144869327545,0,0,0,-1,197188.7936217917,3,2,1561914473.631158,1561913957.287787,32,0.8918345,0,0,26.32609,0,0,1561914413.669193,197186.768377,0,1.278809,75.29311,3232235528,177845136,1,1,0.53,-18.06031,-31.53993,2
1561914474.916799,95,0,0,1561914474.000176,4.634736143056895,-74.15108048363975,2552.928,0.23,252.421875,4,30,-9999,1561914474.900083,-0.01263427734375,24.20332527160645,-15.18487548828125,318.178466796875,325.6719360351562,15,197190.0552807917,-1.292098999023438,0.4417724609375,-0.187530517578125,197190.0380377917,0.6941100612356031,0.4682985018789125,-0.09803202499025279,197190.0389537917,-75.57183837890625,-5.156814575195312,-578.73046875,197190.0380377917,1.812923733782773,-1.276578023072664,-0.3359218068027182,0.6913818717002869,0.4616472125053406,-0.1012669280171394,-0.4651909470558167,0.1582907140254974,0.004755556583404541,1,-0.3797303736209869,0.4678816199302673,-0.6848272681236267,-0.4097599387168884,-0.9035376906394958,0.3296395838260651,-0.273783266544342,0,0,0,-1,197188.7936217917,3,2,1561914473.631158,1561913957.287787,32,0.8918345,0,0,26.32609,0,0,1561914413.669193,197186.768377,0,1.278809,75.29311,3232235528,177845136,1,1,0.53,-19.17487,-32.30827,2
1561914474.92165,96,0,0,1561914474.000176,4.634736143056895,-74.15108048363975,2552.928,0.23,252.421875,4,30,-9999,1561914474.900083,-0.01263427734375,24.20332527160645,-15.18487548828125,318.178466796875,325.6719360351562,15,197190.0755437917,-1.180587768554688,0.4164886474609375,-0.141204833984375,197190.0583017917,0.5557750878886362,0.3812421626892032,-0.2915170697711256,197190.0590647917,-75.81703186035156,-4.990814208984375,-578.6107177734375,197190.0583017917,1.824712245391909,-1.264597938927964,-0.3284355303873321,0.5530517101287842,0.3745956718921661,-0.2947525680065155,-0.3895782232284546,0.1192099153995514,0.09779322147369385,1,-0.3804696202278137,0.4610650837421417,-0.688569188117981,-0.4105292856693268,-0.9025207757949829,0.322562575340271,-0.2853237092494965,0,0,0,-1,197188.7936217917,3,2,1561914473.631158,1561913957.287787,32,0.8918345,0,0,26.32609,0,0,1561914413.669193,197186.768377,0,1.278809,75.29311,3232235528,177845136,1,1,0.53,-19.17487,-32.30827,2
1561914474.939895,97,0,0,1561914474.000176,4.634736143056895,-74.15108048363975,2552.928,0.23,252.421875,4,30,-9999,1561914474.92617,-0.07324981689453125,24.11081886291504,-15.30206298828125,317.7265014648438,325.219970703125,15,197190.0958077917,-1.075775146484375,0.4084930419921875,-0.1317596435546875,197190.0785647917,0.3415533392798614,0.3446716346002351,-0.4775979940893602,197190.0791757917,-76.02572631835938,-5.207138061523438,-579.0001220703125,197190.0785647917,1.831186460324414,-1.255237146056307,-0.318026763717747,0.3388299345970154,0.3380251526832581,-0.4808334708213806,-0.2776345610618591,0.1037957370281219,0.1535806059837341,1,-0.381650298833847,0.4549179375171661,-0.6903742551803589,-0.4132505357265472,-0.9029532670974731,0.3126928806304932,-0.2947854399681091,0,0,0,-1,197188.7936217917,3,2,1561914473.631158,1561913957.287787,32,0.8918345,0,0,26.32609,0,0,1561914413.669193,197186.768377,0,1.278809,75.29311,3232235528,177845136,1,1,0.53,-19.73215,-32.92951,2
1561914474.960113,98,0,0,1561914474.000176,4.634736143056895,-74.15108048363975,2552.928,0.23,252.421875,4,30,-9999,1561914474.950472,-0.106475830078125,24.01581192016602,-15.3997802734375,317.7045288085938,325.197998046875,15,197190.1160407917,-0.97857666015625,0.388397216796875,-0.1407928466796875,197190.0988287917,0.1608267003332312,0.2540671658902134,-0.5661385129545705,197190.0992867917,-76.057373046875,-5.294464111328125,-579.2262573242188,197190.0988287917,1.8326177740042,-1.248827981148078,-0.3062098064029491,0.1581033170223236,0.2474206835031509,-0.5693740248680115,-0.1712875366210938,0.1070460975170135,0.1699551343917847,1,-0.3830690681934357,0.4498896598815918,-0.6904042363166809,-0.4173718988895416,-0.9044876098632812,0.3014469146728516,-0.3017147779464722,0,0,0,-1,197188.7936217917,3,2,1561914473.631158,1561913957.287787,32,0.8918345,0,0,26.32609,0,0,1561914413.669193,197186.768377,0,1.278809,75.29311,3232235528,177845136,1,1,0.53,-20.28943,-33.67963,2
1561914474.994454,99,0,0,1561914474.000176,4.634736143056895,-74.15108048363975,2552.928,0.23,252.421875,4,30,-9999,1561914474.976818,-0.4822463989257812,23.97490692138672,-15.63043212890625,317.9743957519531,325.4678649902344,15,197190.1363047917,-0.8845977783203125,0.358551025390625,-0.166748046875,197190.1190927917,-0.001801628477438605,0.1388918403309025,-0.5470582953246979,197190.1193977917,-76.13754272460938,-5.638290405273438,-579.0573120117188,197190.1190927917,1.830299930082458,-1.245548178733249,-0.2948426220468449,-0.00452501280233264,0.1322453767061234,-0.5502938032150269,-0.07189488410949707,0.09780794382095337,0.1649620532989502,1,-0.3845917284488678,0.4463314116001129,-0.6890959143638611,-0.4219292998313904,-0.9066817760467529,0.2905892729759216,-0.3057549595832825,0,0,0,-1,197188.7936217917,3,2,1561914473.631158,1561913957.287787,32,0.8918345,0,0,26.32609,0,0,1561914413.669193,197187.714118,0,1.352783,75.29241,3232235528,177845136,1,1,0.53,-20.84671,-33.74594,2
1561914475.002752,100,0,0,1561914474.000176,4.634736143056895,-74.15108048363975,2552.928,0.23,252.421875,4,30,-9999,1561914474.976818,-0.4822463989257812,23.97490692138672,-15.63043212890625,317.9743957519531,325.4678649902344,15,197190.1565677917,-0.805450439453125,0.3244476318359375,-0.2018890380859375,197190.1393557917,-0.1164184891561598,-0.01195279960449364,-0.431514121954411,197190.1395087917,-76.47193908691406,-5.298431396484375,-579.2220458984375,197190.1393557917,1.825608099448729,-1.245767523360549,-0.285628286128404,-0.1191418692469597,-0.01859926991164684,-0.4347496032714844,0.024649977684021,0.07679072022438049,0.1396501064300537,1,-0.3861908316612244,0.4445869624614716,-0.6868639588356018,-0.4259308576583862,-0.9092477560043335,0.2817603349685669,-0.3063981533050537,0,0,0,-1,197188.7936217917,3,2,1561914473.631158,1561913957.287787,32,0.8918345,0,0,26.32609,0,0,1561914413.669193,197187.714118,0,1.352783,75.29241,3232235528,177845136,1,1,0.53,-20.84671,-33.74594,2
1561914475.020913,101,0,0,1561914474.000176,4.634736143056895,-74.15108048363975,2552.928,0.23,252.421875,4,30,-9999,1561914475.002217,-0.6091842651367188,23.8791618347168,-15.4910888671875,318.3588562011719,325.8523254394531,15,197190.1768317917,-0.76483154296875,0.2980499267578125,-0.2415771484375,197190.1596197917,-0.2005533406300521,-0.1391003658442557,-0.2069121703648343,197190.1595897917,-76.73428344726562,-5.469268798828125,-579.1315307617188,197190.1596197917,1.820131781965523,-1.248959533984169,-0.2803539654018951,-0.2032767236232758,-0.1457468271255493,-0.2101476788520813,0.1061677932739258,0.04775181412696838,0.1020710468292236,1,-0.3875374495983124,0.4447861015796661,-0.6843812465667725,-0.428488552570343,-0.9116182327270508,0.2766958177089691,-0.3039600849151611,0,0,0,-1,197188.7936217917,3,2,1561914473.631158,1561913957.287787,32,0.8918345,0,0,26.32609,0,0,1561914413.669193,197187.714118,0,1.352783,75.29241,3232235528,177845136,1,1,0.53,-21.40399,-32.61089,2
1561914475.041203,102,0,0,1561914474.000176,4.634736143056895,-74.15108048363975,2552.928,0.23,252.421875,4,30,-9999,1561914475.02747,-0.783233642578125,23.77339935302734,-15.34881591796875,318.7034606933594,326.1969299316406,15,197190.1970957917,-0.7612152099609375,0.28338623046875,-0.2716064453125,197190.1798527917,-0.2178007707977323,-0.2815302156833285,0.05269463690885284,197190.1797007917,-76.84637451171875,-5.404617309570312,-579.0322265625,197190.1798527917,1.815243684227992,-1.254714455815472,-0.2802185474631612,-0.2205241471529007,-0.2881766855716705,0.04945913329720497,0.1485562920570374,0.02148428559303284,0.05714321136474609,1,-0.3884517252445221,0.446928471326828,-0.6821988821029663,-0.4289111196994781,-0.9133878350257874,0.2765656709671021,-0.2987203896045685,0,0,0,-1,197188.7936217917,3,2,1561914473.631158,1561913957.287787,32,0.8918345,0,0,26.32609,0,0,1561914413.669193,197187.714118,0,1.352783,75.29241,3232235528,177845136,1,1,0.53,-21.96127,-33.00863,2
1561914475.073634,103,0,0,1561914475.000177,4.634734718133355,-74.15109020664742,2552.941,0.42,232.03125,4,30,-9999,1561914475.068933,-1.041313171386719,24.09975433349609,-15.2486572265625,318.9102783203125,326.4037475585938,15,197190.2173587917,-0.780914306640625,0.263641357421875,-0.2991943359375,197190.2001167917,-0.223470374442402,-0.3687095929153994,0.3049583101088645,197190.1998117917,-76.62263488769531,-5.149063110351562,-578.8607177734375,197190.2001167917,1.811979564110487,-1.26246166955093,-0.2850049551728264,-0.226193755865097,-0.3753560781478882,0.3017228245735168,0.1531877517700195,0.002223998308181763,0.01962381601333618,1,-0.3890221416950226,0.4506069719791412,-0.6806394457817078,-0.4270188212394714,-0.914402961730957,0.2811622023582458,-0.2912302613258362,0,0,0,-1,197188.7936217917,3,2,1561914473.631158,1561913957.287787,32,0.8918345,0,0,26.32609,0,0,1561914413.669193,197187.714118,0,1.352783,75.29241,3232235528,177845136,1,1,0.53,-22.51855,-33.7519,2
1561914475.085281,104,0,0,1561914475.000177,4.634734718133355,-74.15109020664742,2552.941,0.42,232.03125,4,30,-9999,1561914475.068933,-1.041313171386719,24.09975433349609,-15.2486572265625,318.9102783203125,326.4037475585938,15,197190.2376227917,-0.8110504150390625,0.25421142578125,-0.3191680908203125,197190.2203807917,-0.215638550308697,-0.4191639787152776,0.516478814423972,197190.2199227917,-76.47569274902344,-5.096359252929688,-578.6124267578125,197190.2203807917,1.809996724679806,-1.271176183821372,-0.2944367175251249,-0.2183619290590286,-0.4258104562759399,0.5132433176040649,0.1334173679351807,-0.0265595018863678,-0.0167388916015625,1,-0.3888980150222778,0.4555552899837494,-0.6797965168952942,-0.4232072830200195,-0.9143316745758057,0.2902008593082428,-0.2824554145336151,0,0,0,-1,197188.7936217917,3,2,1561914473.631158,1561913957.287787,32,0.8918345,0,0,26.32609,0,0,1561914413.669193,197187.714118,0,1.352783,75.29241,3232235528,177845136,1,1,0.53,-23.07582,-31.56415,2
1561914475.102202,105,0,0,1561914475.000177,4.634734718133355,-74.15109020664742,2552.941,0.42,232.03125,4,30,-9999,1561914475.068933,-1.041313171386719,24.09975433349609,-15.2486572265625,318.9102783203125,326.4037475585938,15,197190.2578867917,-0.838775634765625,0.250518798828125,-0.317840576171875,197190.2406437917,-0.1251741638720134,-0.4856191689765698,0.6459268192133445,197190.2400337917,-76.7174072265625,-4.949951171875,-578.576904296875,197190.2406437917,1.810037834221104,-1.280385432589698,-0.3068078746119587,-0.1278975456953049,-0.4922656416893005,0.6426913142204285,0.1023337841033936,-0.04780566692352295,-0.04619383811950684,1,-0.3885688185691833,0.4610066413879395,-0.6796795725822449,-0.4177592992782593,-0.9133841991424561,0.3020171225070953,-0.2729743123054504,0,0,0,-1,197188.7936217917,3,2,1561914473.631158,1561913957.287787,32,0.8918345,0,0,26.32609,0,0,1561914413.669193,197187.714118,0,1.352783,75.29241,3232235528,177845136,1,1,0.53,-23.6331,-32.25698,2
1561914475.122303,106,0,0,1561914475.000177,4.634734718133355,-74.15109020664742,2552.941,0.42,232.03125,4,30,-9999,1561914475.102369,-0.684295654296875,24.43376922607422,-15.2381591796875,318.841552734375,326.3350219726562,15,197190.2781497917,-0.868408203125,0.24835205078125,-0.297515869140625,197190.2609077917,-0.02259079657881516,-0.5373995426831985,0.6768216183871357,197190.2601147917,-76.45872497558594,-5.110946655273438,-578.6036987304688,197190.2609077917,1.812572319749726,-1.290161574686623,-0.320153050259668,-0.02531418018043041,-0.5440459847450256,0.6735860705375671,0.07327926158905029,-0.06419304013252258,-0.05494832992553711,1,-0.3887323141098022,0.4663057625293732,-0.6800866723060608,-0.4110088348388672,-0.9120548963546753,0.3147118389606476,-0.2628922462463379,0,0,0,-1,197188.7936217917,3,2,1561914473.631158,1561913957.287787,32,0.8918345,0,0,26.32609,0,0,1561914413.669193,197187.714118,0,1.352783,75.29241,3232235528,177845136,1,1,0.53,-24.19038,-32.63117,2
1561914475.154197,107,0,0,1561914475.000177,4.634734718133355,-74.15109020664742,2552.941,0.42,232.03125,4,30,-9999,1561914475.153018,-0.53765869140625,24.41787910461426,-14.94158935546875,318.4657287597656,325.9591979980469,15,197190.2983837917,-0.8945770263671875,0.2364501953125,-0.275665283203125,197190.2811717917,-0.0005960154519597335,-0.5161626972025796,0.5818903118540623,197190.2802257917,-76.517578125,-4.956390380859375,-578.62744140625,197190.2811717917,1.816093884454676,-1.299974421800947,-0.3326247596362379,-0.003319399897009134,-0.5228091478347778,0.5786547660827637,0.04232960939407349,-0.07817301154136658,-0.04465568065643311,1,-0.389391154050827,0.4711098074913025,-0.6805451512336731,-0.4040897488594055,-0.9107378125190735,0.3265250325202942,-0.2528601586818695,0,0,0,-1,197188.7936217917,3,2,1561914473.631158,1561913957.287787,32,0.8918345,0,0,26.32609,0,0,1561914413.669193,197187.714118,0,1.352783,75.29241,3232235528,177845136,1,1,0.53,-24.74766,-32.8423,2
1561914475.162863,108,0,0,1561914475.000177,4.634734718133355,-74.15109020664742,2552.941,0.42,232.03125,4,30,-9999,1561914475.153018,-0.53765869140625,24.41787910461426,-14.94158935546875,318.4657287597656,325.9591979980469,15,197190.3186467917,-0.9297332763671875,0.2492828369140625,-0.26385498046875,197190.3014347917,-0.02823616545756512,-0.4438892989077912,0.3634346697442794,197190.3003367917,-76.11878967285156,-5.128265380859375,-578.4454956054688,197190.3014347917,1.818441472869955,-1.309218179575429,-0.3419729420216481,-0.03095955029129982,-0.450535774230957,0.3601991832256317,0.01547074317932129,-0.09889623522758484,-0.03203451633453369,1,-0.3904647529125214,0.4751019775867462,-0.6804419159889221,-0.3985150456428528,-0.9100477695465088,0.3353464305400848,-0.2436307817697525,0,0,0,-1,197188.7936217917,3,2,1561914473.631158,1561913957.287787,32,0.8918345,0,0,26.32609,0,0,1561914413.669193,197187.714118,0,1.352783,75.29241,3232235528,177845136,1,1,0.53,-24.74766,-32.8423,2
1561914475.185787,109,0,0,1561914475.000177,4.634734718133355,-74.15109020664742,2552.941,0.42,232.03125,4,30,-9999,1561914475.179508,-0.4706573486328125,24.55978012084961,-14.95428466796875,318.5335693359375,326.0270385742188,15,197190.3389107917,-0.9482879638671875,0.308380126953125,-0.270233154296875,197190.3216987917,-0.07825272757423429,-0.2765242717823065,0.1329391426623574,197190.3204477917,-76.02349853515625,-5.012908935546875,-578.42578125,197190.3216987917,1.818727832311518,-1.31681676419984,-0.347001338263875,-0.08097610622644424,-0.283170759677887,0.1297036409378052,-0.01950418949127197,-0.09079656004905701,-0.02757292985916138,1,-0.3917038440704346,0.4779404401779175,-0.6796723008155823,-0.39520463347435,-0.9102290868759155,0.3400793969631195,-0.2362820655107498,0,0,0,-1,197188.7936217917,3,2,1561914473.631158,1561913957.287787,32,0.8918345,0,0,26.32609,0,0,1561914413.669193,197187.714118,0,1.352783,75.29241,3232235528,177845136,1,1,0.53,-25.30494,-33.43697,2
1561914475.20349,110,0,0,1561914475.000177,4.634734718133355,-74.15109020664742,2552.941,0.42,232.03125,4,30,-9999,1561914475.179508,-0.4706573486328125,24.55978012084961,-14.95428466796875,318.5335693359375,326.0270385742188,15,197190.3591747917,-0.943572998046875,0.3491363525390625,-0.2876739501953125,197190.3419627917,-0.09223086118773319,-0.03191958356125372,0.02769634270460606,197190.3405587917,-76.03929138183594,-4.877120971679688,-578.409423828125,197190.3419627917,1.816944743531139,-1.320449341810878,-0.3487740373800557,-0.0949542447924614,-0.03856605291366577,0.02446084097027779,-0.03779208660125732,-0.03336575627326965,-0.03740882873535156,1,-0.3920125663280487,0.4794934689998627,-0.6788415908813477,-0.3944443762302399,-0.9104958772659302,0.341745913028717,-0.2328243255615234,0,0,0,-1,197188.7936217917,3,2,1561914473.631158,1561913957.287787,32,0.8918345,0,0,26.32609,0,0,1561914413.669193,197187.714118,0,1.352783,75.29241,3232235528,177845136,1,1,0.53,-25.86222,-34.04569,2
1561914475.237799,111,0,0,1561914475.000177,4.634734718133355,-74.15109020664742,2552.941,0.42,232.03125,4,30,-9999,1561914475.229995,-0.1654739379882812,24.5858268737793,-14.91009521484375,318.3863220214844,325.8797912597656,15,197190.3794377917,-0.93670654296875,0.3675689697265625,-0.2850494384765625,197190.3621957917,0.05754425325388714,0.06330254016285647,0.02863910173049411,197190.3606387917,-76.24713134765625,-4.80059814453125,-578.593017578125,197190.3621957917,1.816460965815759,-1.320170309190613,-0.349259299906896,0.05482086911797523,0.05665607005357742,0.02540360018610954,-0.033302903175354,0.006934404373168945,-0.05463671684265137,1,-0.3916653990745544,0.479666143655777,-0.6788647174835205,-0.394539475440979,-0.910270094871521,0.3422019183635712,-0.2330372184514999,0,0,0,-1,197188.7936217917,3,2,1561914473.631158,1561913957.287787,32,0.8918345,0,0,26.32609,0,0,1561914413.669193,197187.714118,0,1.352783,75.29241,3232235528,177845136,1,1,0.53,-26.97678,-31.48567,2
1561914475.243869,112,0,0,1561914475.000177,4.634734718133355,-74.15109020664742,2552.941,0.42,232.03125,4,30,-9999,1561914475.229995,-0.1654739379882812,24.5858268737793,-14.91009521484375,318.3863220214844,325.8797912597656,15,197190.39972275,-0.9290008544921875,0.3628692626953125,-0.26495361328125,197190.3824587917,0.2017762642026165,0.139679869697457,0.05607711780936249,197190.38077175,-76.09088134765625,-4.942581176757812,-578.6325073242188,197190.3824587917,1.819548683547374,-1.317263372854355,-0.3492528695226669,0.1990528851747513,0.1330333948135376,0.05284161493182182,-0.02711564302444458,0.02537310123443604,-0.04936659336090088,1,-0.3914192914962769,0.4784866869449615,-0.6800417900085449,-0.3941885530948639,-0.9095908999443054,0.3421958684921265,-0.2356828600168228,0,0,0,-1,197188.7936217917,3,2,1561914473.631158,1561913957.287787,32,0.8918345,0,0,26.32609,0,0,1561914413.669193,197187.714118,0,1.352783,75.29241,3232235528,177845136,1,1,0.53,-26.97678,-31.48567,2
1561914475.264057,113,0,0,1561914475.000177,4.634734718133355,-74.15109020664742,2552.941,0.42,232.03125,4,30,-9999,1561914475.254362,-0.294189453125,24.31420516967773,-14.99755859375,318.0067138671875,325.5001831054688,15,197190.41998675,-0.928253173828125,0.3548583984375,-0.2377471923828125,197190.40274375,0.2507648461385151,0.2115924096645396,0.06927814101677626,197190.40088275,-75.5958251953125,-4.962188720703125,-578.7471923828125,197190.40274375,1.824688015323768,-1.311890678169636,-0.3492142827905207,0.2480414658784866,0.2049459367990494,0.06604263931512833,-0.02067649364471436,0.02070963382720947,-0.02438384294509888,1,-0.3908274173736572,0.4764126837253571,-0.6820998191833496,-0.3937318325042725,-0.9083243012428284,0.342159628868103,-0.2405697703361511,0,0,0,-1,197188.7936217917,3,2,1561914473.631158,1561913957.287787,32,0.8918345,0,0,26.32609,0,0,1561914413.669193,197187.714118,0,1.352783,75.29241,3232235528,177845136,1,1,0.53,-27.53406,-32.24366,2
1561914475.285061,114,0,0,1561914475.000177,4.634734718133355,-74.15109020664742,2552.941,0.42,232.03125,4,30,-9999,1561914475.254362,-0.294189453125,24.31420516967773,-14.99755859375,318.0067138671875,325.5001831054688,15,197190.44024975,-0.9235992431640625,0.3458099365234375,-0.2172393798828125,197190.42300775,0.2404336453217707,0.2128914996442803,0.03944141574407352,197190.42099375,-75.74128723144531,-5.092559814453125,-578.7893676757812,197190.42300775,1.830082673964813,-1.305798953775143,-0.3488226492818783,0.2377102673053741,0.2062450349330902,0.03620591014623642,-0.02128195762634277,0.01306679844856262,0.008386433124542236,1,-0.390138179063797,0.4740521013736725,-0.6843004822731018,-0.3934459388256073,-0.9069712162017822,0.3417915999889374,-0.2461336106061935,0,0,0,-1,197188.7936217917,3,2,1561914473.631158,1561913957.287787,32,0.8918345,0,0,26.32609,0,0,1561914413.669193,197187.714118,0,1.352783,75.29241,3232235528,177845136,1,1,0.53,-28.09134,-32.94156,2
1561914475.316313,115,0,0,1561914475.000177,4.634734718133355,-74.15109020664742,2552.941,0.42,232.03125,4,30,-9999,1561914475.305054,0.1223373413085938,24.11091995239258,-15.3016357421875,317.4369812011719,324.9304504394531,15,197190.46051375,-0.9184417724609375,0.3495025634765625,-0.2152099609375,197190.44327175,0.16838368624244,0.1914506560241613,-0.003733485532182084,197190.44110475,-75.60552978515625,-5.457244873046875,-578.6407470703125,197190.44327175,1.83445733441003,-1.300276597983186,-0.347929783222774,0.1656603068113327,0.1848041862249374,-0.006968988571316004,-0.0177074670791626,0.004857540130615234,0.03398048877716064,1,-0.3895308375358582,0.4718641638755798,-0.6861239671707153,-0.3935019075870514,-0.9058917760848999,0.3409523665904999,-0.2512198686599731,0,0,0,-1,197188.7936217917,3,2,1561914473.631158,1561913957.287787,32,0.8918345,0,0,26.32609,0,0,1561914413.669193,197187.714118,0,1.352783,75.29241,3232235528,177845136,1,1,0.53,-28.64861,-33.62185,2
1561914475.324942,116,0,0,1561914475.000177,4.634734718133355,-74.15109020664742,2552.941,0.42,232.03125,4,30,-9999,1561914475.305054,0.1223373413085938,24.11091995239258,-15.3016357421875,317.4369812011719,324.9304504394531,15,197190.48074675,-0.91412353515625,0.372711181640625,-0.22735595703125,197190.46353475,0.09472810734190049,0.1508835220873113,0.006217682197007997,197190.46121575,-75.40937805175781,-5.215301513671875,-578.850830078125,197190.46353475,1.837070700992306,-1.295999276199904,-0.3471422899470755,0.09200472384691238,0.1442370563745499,0.002982179168611765,-0.0133746862411499,0.009290605783462524,0.03995513916015625,1,-0.3888980448246002,0.470293253660202,-0.6873714327812195,-0.3938311636447906,-0.9050670862197876,0.3402119576931,-0.2551651298999786,0,0,0,-1,197188.7936217917,3,2,1561914473.631158,1561913957.287787,32,0.8918345,0,0,26.32609,0,0,1561914413.669193,197187.714118,0,1.352783,75.29241,3232235528,177845136,1,1,0.53,-28.64861,-33.62185,2
1561914475.345082,117,0,0,1561914475.000177,4.634734718133355,-74.15109020664742,2552.941,0.42,232.03125,4,30,-9999,1561914475.333985,0.2121353149414062,24.12482452392578,-15.44842529296875,317.30078125,324.7942504882812,15,197190.50101075,-0.9067230224609375,0.371368408203125,-0.2294921875,197190.48379875,0.0825079263639629,0.09412356977445251,0.07508196798038595,197190.48132675,-75.54533386230469,-5.11724853515625,-579.1433715820312,197190.48379875,1.838917329529319,-1.292907076350053,-0.3474390433561343,0.07978454232215881,0.08747710287570953,0.07184646278619766,-0.009946942329406738,0.03222018480300903,0.0305788516998291,1,-0.3881853520870209,0.4694088995456696,-0.6883729696273804,-0.393839955329895,-0.9041765928268433,0.340490996837616,-0.2579348385334015,0,0,0,-1,197188.7936217917,3,2,1561914473.631158,1561913957.287787,32,0.8918345,0,0,26.32609,0,0,1561914413.669193,197187.714118,0,1.352783,75.29241,3232235528,177845136,1,1,0.53,-29.20589,-34.0969,2
1561914475.368309,118,0,0,1561914475.000177,4.634734718133355,-74.15109020664742,2552.941,0.42,232.03125,4,30,-9999,1561914475.355529,0.0979766845703125,24.21577453613281,-15.45770263671875,317.1177978515625,324.6112670898438,15,197190.52127375,-0.8992462158203125,0.3497314453125,-0.229034423828125,197190.50406275,0.1044292042447321,0.01825889874969227,0.1042821977525598,197190.50140775,-75.35609436035156,-5.20556640625,-578.78955078125,197190.50406275,1.84141877499818,-1.29124054235572,-0.3487336371059572,0.1017058193683624,0.0116124302148819,0.101046696305275,-0.003401756286621094,0.02966046333312988,0.02982735633850098,1,-0.3878360390663147,0.4689599573612213,-0.6893497109413147,-0.3930099904537201,-0.9033212065696716,0.3417079448699951,-0.259319543838501,0,0,0,-1,197188.7936217917,3,2,1561914473.631158,1561913957.287787,32,0.8918345,0,0,26.32609,0,0,1561914413.669193,197187.714118,0,1.352783,75.29241,3232235528,177845136,1,1,0.53,-29.76317,-34.91476,2
1561914475.395751,119,0,0,1561914475.000177,4.634734718133355,-74.15109020664742,2552.941,0.42,232.03125,4,30,-9999,1561914475.383546,0.30560302734375,24.11421775817871,-15.64727783203125,316.9967651367188,324.490234375,15,197190.54153775,-0.8951416015625,0.3371429443359375,-0.2279205322265625,197190.52432575,0.06677769906930087,0.01820510289567267,0.07991400746222571,197190.52151875,-75.54202270507812,-4.981216430664062,-579.3079223632812,197190.52432575,1.843721879502805,-1.290368337090813,-0.3500153425577425,0.06405431777238846,0.01155863329768181,0.07667849957942963,0.003426671028137207,0.006819188594818115,0.03095138072967529,1,-0.3877169191837311,0.4687031805515289,-0.6901295185089111,-0.3920638561248779,-0.9026729464530945,0.3429122269153595,-0.2599858343601227,0,0,0,-1,197188.7936217917,3,2,1561914473.631158,1561913957.287787,32,0.8918345,0,0,26.32609,0,0,1561914413.669193,197187.714118,0,1.352783,75.29241,3232235528,177845136,1,1,0.53,-30.32045,-35.8017,2
1561914475.40648,120,0,0,1561914475.000177,4.634734718133355,-74.15109020664742,2552.941,0.42,232.03125,4,30,-9999,1561914475.383546,0.30560302734375,24.11421775817871,-15.64727783203125,316.9967651367188,324.490234375,15,197190.56180175,-0.897003173828125,0.33306884765625,-0.2326812744140625,197190.54455875,0.01439731516907737,0.03197497731192737,0.03821795953929111,197190.54162975,-75.63697814941406,-5.201446533203125,-579.2981567382812,197190.54455875,1.844785656240095,-1.289704807104707,-0.3509207384626496,0.01167393010109663,0.02532850950956345,0.03498245403170586,0.007060050964355469,-0.006619662046432495,0.0325779914855957,1,-0.3874841034412384,0.468622237443924,-0.6905782222747803,-0.391600638628006,-0.9022017121315002,0.3437625765800476,-0.2604985237121582,0,0,0,-1,197188.7936217917,3,2,1561914473.631158,1561913957.287787,32,0.8918345,0,0,26.32609,0,0,1561914413.669193,197187.714118,0,1.352783,75.29241,3232235528,177845136,1,1,0.53,-30.87773,-36.28202,2
