loggingTime,loggingSample,identifierForVendor,deviceID,locationTimestamp_since1970,locationLatitude,locationLongitude,locationAltitude,locationSpeed,locationCourse,locationVerticalAccuracy,locationHorizontalAccuracy,locationFloor,locationHeadingTimestamp_since1970,locationHeadingX,locationHeadingY,locationHeadingZ,locationTrueHeading,locationMagneticHeading,locationHeadingAccuracy,accelerometerTimestamp_sinceReboot,accelerometerAccelerationX,accelerometerAccelerationY,accelerometerAccelerationZ,gyroTimestamp_sinceReboot,gyroRotationX,gyroRotationY,gyroRotationZ,magnetometerTimestamp_sinceReboot,magnetometerX,magnetometerY,magnetometerZ,motionTimestamp_sinceReboot,motionYaw,motionRoll,motionPitch,motionRotationRateX,motionRotationRateY,motionRotationRateZ,motionUserAccelerationX,motionUserAccelerationY,motionUserAccelerationZ,motionAttitudeReferenceFrame,motionQuaternionX,motionQuaternionY,motionQuaternionZ,motionQuaternionW,motionGravityX,motionGravityY,motionGravityZ,motionMagneticFieldX,motionMagneticFieldY,motionMagneticFieldZ,motionMagneticFieldCalibrationAccuracy,activityTimestamp_sinceReboot,activity,activityActivityConfidence,activityActivityStartDate,pedometerStartDate,pedometerNumberofSteps,pedometerAverageActivePace,pedometerCurrentPace,pedometerCurrentCadence,pedometerDistance,pedometerFloorAscended,pedometerFloorDescended,pedometerEndDate,altimeterTimestamp_sinceReboot,altimeterReset,altimeterRelativeAltitude,altimeterPressure,IP_en0,IP_pdp_ip0,deviceOrientation,batteryState,batteryLevel,avAudioRecorderPeakPower,avAudioRecorderAveragePower,label
1561914479.973695,1,0,0,1561914479.000175,4.634723402564074,-74.15109138011387,2552.925,0.35,80.5078125,4,30,-9999,1561914479.961248,-6.71453857421875,27.96104431152344,-3.3441162109375,350.8017272949219,358.2951965332031,15,197195.1001520417,-0.901763916015625,0.199615478515625,-0.3494873046875,197195.0829400417,-0.190564622329492,0.02679939004946737,-0.02778875439443181,197195.0861750417,-82.5347900390625,-1.460067749023438,-566.9628295898438,197195.0829400417,1.256488422493747,-1.230675237260387,-0.1869979377603366,-0.1932963579893112,0.02014448121190071,-0.03102320432662964,0.01612353324890137,0.008898943662643433,-0.01144790649414062,1,-0.2760920226573944,0.5097846984863281,-0.5214295983314514,-0.6261022090911865,-0.9262797832489014,0.1859100162982941,-0.3277855217456818,0,0,0,-1,197188.7936217917,3,2,1561914473.631158,1561913957.287787,32,0.8918345,0,0,26.32609,0,0,1561914413.669193,197192.442127,0,1.326416,75.29265,3232235528,177845136,1,1,0.53,-23.67685,-31.31727,3
1561914479.994115,2,0,0,1561914479.000175,4.634723402564074,-74.15109138011387,2552.925,0.35,80.5078125,4,30,-9999,1561914479.991448,-6.480918884277344,28.0391674041748,-3.0924072265625,351.1120300292969,358.6054992675781,15,197195.1204160417,-0.905181884765625,0.196563720703125,-0.352569580078125,197195.1032040417,-0.1747108243602503,0.02463077797381585,0.05826783412206167,197195.1062860417,-82.40589904785156,-1.648193359375,-566.9930419921875,197195.1032040417,1.252985617625113,-1.230838218170409,-0.1884156836459936,-0.1774425655603409,0.01797586865723133,0.05503338575363159,0.02431988716125488,0.01231265068054199,-0.02194094657897949,1,-0.2747518420219421,0.5106253623962402,-0.5206080675125122,-0.6266900897026062,-0.9260837435722351,0.1873028576374054,-0.3275463283061981,0,0,0,-1,197188.7936217917,3,2,1561914473.631158,1561913957.287787,32,0.8918345,0,0,26.32609,0,0,1561914413.669193,197192.442127,0,1.326416,75.29265,3232235528,177845136,1,1,0.53,-23.67685,-31.80191,3
1561914479.996176,3,0,0,1561914479.000175,4.634723402564074,-74.15109138011387,2552.925,0.35,80.5078125,4,30,-9999,1561914479.991448,-6.480918884277344,28.0391674041748,-3.0924072265625,351.1120300292969,358.6054992675781,15,197195.1406800417,-0.9193572998046875,0.191864013671875,-0.3504791259765625,197195.1234680417,-0.1578924294441818,-0.03217364912924728,0.1425161362583914,197195.1263970417,-82.28399658203125,-1.333877563476562,-566.7503662109375,197195.1234680417,1.250356253611115,-1.231474969128909,-0.1914724289321629,-0.160624161362648,-0.03882855549454689,0.139281690120697,0.02056598663330078,0.00625908374786377,-0.02580511569976807,1,-0.2731896638870239,0.5118448734283447,-0.5203397274017334,-0.626600980758667,-0.9257478713989258,0.1903046220541,-0.3267644643783569,0,0,0,-1,197188.7936217917,3,2,1561914473.631158,1561913957.287787,32,0.8918345,0,0,26.32609,0,0,1561914413.669193,197192.442127,0,1.326416,75.29265,3232235528,177845136,1,1,0.53,-23.67685,-31.80191,3
1561914480.00508,4,0,0,1561914479.000175,4.634723402564074,-74.15109138011387,2552.925,0.35,80.5078125,4,30,-9999,1561914479.991448,-6.480918884277344,28.0391674041748,-3.0924072265625,351.1120300292969,358.6054992675781,15,197195.1609430417,-0.9348297119140625,0.1897735595703125,-0.3448486328125,197195.1437010417,-0.1122397230897165,-0.1014190332646156,0.1948600348516808,197195.1465090417,-81.97396850585938,-1.292556762695312,-566.75634765625,197195.1437010417,1.24878263448111,-1.23332935962244,-0.1955730476174642,-0.1149714663624763,-0.1080739423632622,0.1916255801916122,0.006250739097595215,-0.00246468186378479,-0.02569299936294556,1,-0.2718510627746582,0.513521134853363,-0.5204564332962036,-0.6257140636444092,-0.9256080389022827,0.1943286955356598,-0.3247860968112946,0,0,0,-1,197188.7936217917,3,2,1561914473.631158,1561913957.287787,32,0.8918345,0,0,26.32609,0,0,1561914413.669193,197192.442127,0,1.326416,75.29265,3232235528,177845136,1,1,0.53,-23.67685,-32.4488,3
1561914480.040155,5,0,0,1561914479.000175,4.634723402564074,-74.15109138011387,2552.925,0.35,80.5078125,4,30,-9999,1561914480.018589,-6.187858581542969,28.06007766723633,-3.029052734375,351.0911560058594,358.5846252441406,15,197195.1812070417,-0.94366455078125,0.1849822998046875,-0.33685302734375,197195.1639650417,-0.04284786509439387,-0.1111723281248128,0.2267513889053796,197195.1666200417,-82.15333557128906,-1.4407958984375,-566.7278442382812,197195.1639650417,1.248633453400223,-1.235673260481998,-0.2001423879098972,-0.04557960480451584,-0.1178272366523743,0.2235169410705566,-0.009311079978942871,-0.009035348892211914,-0.02252835035324097,1,-0.2708424031734467,0.515251636505127,-0.5210518836975098,-0.6242316365242004,-0.9255186319351196,0.198808878660202,-0.322320282459259,0,0,0,-1,197188.7936217917,3,2,1561914473.631158,1561913957.287787,32,0.8918345,0,0,26.32609,0,0,1561914413.669193,197192.442127,0,1.326416,75.29265,3232235528,177845136,1,1,0.53,-23.67685,-32.90541,3
1561914480.045451,6,0,0,1561914479.000175,4.634723402564074,-74.15109138011387,2552.925,0.35,80.5078125,4,30,-9999,1561914480.018589,-6.187858581542969,28.06007766723633,-3.029052734375,351.0911560058594,358.5846252441406,15,197195.2014710417,-0.9426727294921875,0.17364501953125,-0.321990966796875,197195.1842280417,0.01430916453699575,-0.08595778524005154,0.2160990108611717,197195.1867000417,-81.96929931640625,-1.423690795898438,-566.7046508789062,197195.1842280417,1.249879546026586,-1.237556865024089,-0.2044905715246806,0.01157742366194725,-0.09261269867420197,0.212864562869072,-0.01836621761322021,-0.01808607578277588,-0.01656246185302734,1,-0.2701509594917297,0.5165976881980896,-0.5220979452133179,-0.6225423216819763,-0.9252983927726746,0.2030683755874634,-0.3202905654907227,0,0,0,-1,197188.7936217917,3,2,1561914473.631158,1561913957.287787,32,0.8918345,0,0,26.32609,0,0,1561914413.669193,197192.442127,0,1.326416,75.29265,3232235528,177845136,1,1,0.53,-23.67685,-33.45409,3
1561914480.069335,7,0,0,1561914480.000174,4.634727048691953,-74.15109716362706,2552.905,0.35,344.1796875,4,30,-9999,1561914480.041838,-6.185935974121094,27.98405075073242,-3.0848388671875,350.974609375,358.4680786132812,15,197195.2217340417,-0.93890380859375,0.1670989990234375,-0.3092193603515625,197195.2044920417,0.02654212868816572,-0.06886961210555811,0.1851466874078347,197195.2068420417,-81.99269104003906,-1.394805908203125,-566.6173095703125,197195.2044920417,1.251636010050447,-1.238746753976546,-0.2081267215755711,0.02381038852035999,-0.07552452385425568,0.1819122433662415,-0.01769798994064331,-0.03298237919807434,-0.003044426441192627,1,-0.2696583271026611,0.5175046920776367,-0.5232449769973755,-0.6210378408432007,-0.9249747395515442,0.2066274136304855,-0.3189465701580048,0,0,0,-1,197188.7936217917,3,2,1561914473.631158,1561913957.287787,32,0.8918345,0,0,26.32609,0,0,1561914413.669193,197192.442127,0,1.326416,75.29265,3232235528,177845136,1,1,0.53,-23.67685,-34.09366,3
1561914480.086037,8,0,0,1561914480.000174,4.634727048691953,-74.15109716362706,2552.905,0.35,344.1796875,4,30,-9999,1561914480.068777,-5.921592712402344,28.00202560424805,-2.96990966796875,350.8721923828125,358.3656616210938,15,197195.2419980417,-0.9376373291015625,0.1621856689453125,-0.30059814453125,197195.2247560417,-0.01124759454784065,-0.0776649679216538,0.1358204166457141,197195.2269530417,-81.85261535644531,-1.287078857421875,-566.5479736328125,197195.2247560417,1.252876502627489,-1.239999576754059,-0.2111061379131212,-0.01397933531552553,-0.08431987464427948,0.1325859725475311,-0.01411664485931396,-0.04244261980056763,0.008366763591766357,1,-0.2692773342132568,0.5183596014976501,-0.5240838527679443,-0.6197814345359802,-0.9247871041297913,0.2095416039228439,-0.3175860941410065,0,0,0,-1,197188.7936217917,3,2,1561914473.631158,1561913957.287787,32,0.8918345,0,0,26.32609,0,0,1561914413.669193,197192.442127,0,1.326416,75.29265,3232235528,177845136,1,1,0.53,-23.67685,-34.09366,3
1561914480.121187,9,0,0,1561914480.000174,4.634727048691953,-74.15109716362706,2552.905,0.35,344.1796875,4,30,-9999,1561914480.117342,-5.862174987792969,28.25059509277344,-3.04296875,351.0980529785156,358.5915222167969,15,197195.2622310417,-0.9336700439453125,0.167266845703125,-0.29815673828125,197195.2450190417,-0.0746667811664426,-0.06328709382853401,0.04137646859212509,197195.2470330417,-81.68093872070312,-1.238983154296875,-566.7619018554688,197195.2450190417,1.252637617463388,-1.241664356403932,-0.2129722801517142,-0.07739852368831635,-0.06994200497865677,0.03814201802015305,-0.01269435882568359,-0.0491802990436554,0.01532101631164551,1,-0.2690063416957855,0.5193033814430237,-0.524175763130188,-0.6190310120582581,-0.9249430298805237,0.2113659530878067,-0.3159191608428955,0,0,0,-1,197188.7936217917,3,2,1561914473.631158,1561913957.287787,32,0.8918345,0,0,26.32609,0,0,1561914413.669193,197192.442127,0,1.326416,75.29265,3232235528,177845136,1,1,0.53,-23.67685,-33.57436,3
1561914480.126539,10,0,0,1561914480.000174,4.634727048691953,-74.15109716362706,2552.905,0.35,344.1796875,4,30,-9999,1561914480.117342,-5.862174987792969,28.25059509277344,-3.04296875,351.0980529785156,358.5915222167969,15,197195.2824950417,-0.9289398193359375,0.1851348876953125,-0.3047943115234375,197195.2652830417,-0.1572900224056059,-0.02714932941670379,-0.03686773686662094,197195.2671450417,-81.79275512695312,-1.056411743164062,-566.6985473632812,197195.2652830417,1.250293392488287,-1.243185874681728,-0.213624675746275,-0.1600217670202255,-0.03380423784255981,-0.04010218754410744,-0.008378148078918457,-0.04473671317100525,0.01631033420562744,1,-0.2685699760913849,0.5202274918556213,-0.5233821272850037,-0.6191160678863525,-0.9252918362617493,0.2120035737752914,-0.3144670426845551,0,0,0,-1,197188.7936217917,3,2,1561914473.631158,1561913957.287787,32,0.8918345,0,0,26.32609,0,0,1561914413.669193,197192.442127,0,1.326416,75.29265,3232235528,177845136,1,1,0.53,-23.67685,-33.57436,3
1561914480.146761,11,0,0,1561914480.000174,4.634727048691953,-74.15109716362706,2552.905,0.35,344.1796875,4,30,-9999,1561914480.14363,-6.053421020507812,28.08744621276855,-2.89190673828125,351.4143676757812,358.9078369140625,15,197195.3027590417,-0.9237213134765625,0.2070159912109375,-0.315643310546875,197195.2855470417,-0.1995495952152013,0.02636636005622049,-0.08463286259773711,197195.2872560417,-81.91552734375,-1.318328857421875,-566.6197509765625,197195.2855470417,1.24624794378161,-1.244219058349025,-0.2134205265837013,-0.2022813409566879,0.01971145160496235,-0.08786730468273163,-0.003282546997070312,-0.02666917443275452,0.008730471134185791,1,-0.2678574919700623,0.5210469961166382,-0.5219476222991943,-0.6199461221694946,-0.9256572723388672,0.2118040472269058,-0.3135247826576233,0,0,0,-1,197188.7936217917,3,2,1561914473.631158,1561913957.287787,32,0.8918345,0,0,26.32609,0,0,1561914413.669193,197192.442127,0,1.326416,75.29265,3232235528,177845136,1,1,0.53,-23.67685,-34.1221,3
1561914480.168781,12,0,0,1561914480.000174,4.634727048691953,-74.15109716362706,2552.905,0.35,344.1796875,4,30,-9999,1561914480.14363,-6.053421020507812,28.08744621276855,-2.89190673828125,351.4143676757812,358.9078369140625,15,197195.3230220417,-0.92071533203125,0.218536376953125,-0.3202972412109375,197195.3058100417,-0.1879043907166118,0.04247928359952691,-0.08418385363794977,197195.3073670417,-82.30427551269531,-1.424453735351562,-566.1876220703125,197195.3058100417,1.241713810917765,-1.244421649096867,-0.2128969639571279,-0.1906361281871796,0.03582437708973885,-0.08741830289363861,0.002104282379150391,-0.0042763352394104,-0.002270638942718506,1,-0.2669098377227783,0.5216059684753418,-0.5204035639762878,-0.6211814284324646,-0.9258255362510681,0.2112923413515091,-0.3133727014064789,0,0,0,-1,197188.7936217917,3,2,1561914473.631158,1561913957.287787,32,0.8918345,0,0,26.32609,0,0,1561914413.669193,197192.442127,0,1.326416,75.29265,3232235528,177845136,1,1,0.53,-23.67685,-34.3361,3
1561914480.202003,13,0,0,1561914480.000174,4.634727048691953,-74.15109716362706,2552.905,0.35,344.1796875,4,30,-9999,1561914480.193965,-6.035804748535156,28.17820358276367,-2.55767822265625,351.9487915039062,359.4422607421875,15,197195.3432860417,-0.914642333984375,0.2274932861328125,-0.3177337646484375,197195.3260740417,-0.1491756368802435,0.01868660242075899,-0.09116985780944561,197195.3274780417,-81.86213684082031,-1.207015991210938,-566.2946166992188,197195.3260740417,1.237771431934876,-1.244876665844624,-0.2121304492275333,-0.1519073694944382,0.01203169301152229,-0.09440430998802185,0.005405902862548828,0.00799328088760376,-0.007294058799743652,1,-0.2662651836872101,0.5221123099327087,-0.5189557671546936,-0.6222430467605591,-0.9261212348937988,0.2105430662631989,-0.3130031824111938,0,0,0,-1,197188.7936217917,3,2,1561914473.631158,1561913957.287787,32,0.8918345,0,0,26.32609,0,0,1561914413.669193,197192.442127,0,1.326416,75.29265,3232235528,177845136,1,1,0.53,-23.67685,-35.15673,3
1561914480.20768,14,0,0,1561914480.000174,4.634727048691953,-74.15109716362706,2552.905,0.35,344.1796875,4,30,-9999,1561914480.193965,-6.035804748535156,28.17820358276367,-2.55767822265625,351.9487915039062,359.4422607421875,15,197195.3635500417,-0.9050140380859375,0.2352142333984375,-0.315643310546875,197195.3463070417,-0.1292450719143085,0.0444620070310909,-0.07754778883369032,197195.3475890417,-81.66085815429688,-1.21075439453125,-566.0341186523438,197195.3463070417,1.234378791876354,-1.245209651211148,-0.2112554868365723,-0.1319768130779266,0.03780709952116013,-0.08078223466873169,0.0117572546005249,0.01780566573143005,-0.004980146884918213,1,-0.2657691240310669,0.5224844217300415,-0.5176701545715332,-0.623212993144989,-0.9263996481895447,0.2096876353025436,-0.3127536177635193,0,0,0,-1,197188.7936217917,3,2,1561914473.631158,1561913957.287787,32,0.8918345,0,0,26.32609,0,0,1561914413.669193,197192.442127,0,1.326416,75.29265,3232235528,177845136,1,1,0.53,-23.67685,-35.67383,3
1561914480.227891,15,0,0,1561914480.000174,4.634727048691953,-74.15109716362706,2552.905,0.35,344.1796875,4,30,-9999,1561914480.218084,-6.223640441894531,28.24112510681152,-2.52447509765625,352.1238708496094,359.6173400878906,15,197195.3838130417,-0.89892578125,0.2398529052734375,-0.3044281005859375,197195.3665710417,-0.08820629214840545,0.09077064996204273,-0.06369402484309812,197195.3677000417,-81.80606079101562,-1.094390869140625,-566.0796508789062,197195.3665710417,1.231675142326349,-1.244589114312776,-0.2105066499536855,-0.0909380316734314,0.08411573618650436,-0.06692847609519958,0.02133983373641968,0.02625882625579834,-0.002264678478240967,1,-0.2651624381542206,0.5224936008453369,-0.5167507529258728,-0.624225914478302,-0.9263538718223572,0.208955392241478,-0.313378632068634,0,0,0,-1,197188.7936217917,3,2,1561914473.631158,1561913957.287787,32,0.8918345,0,0,26.32609,0,0,1561914413.669193,197192.442127,0,1.326416,75.29265,3232235528,177845136,1,1,0.53,-23.67685,-35.67383,3
1561914480.248094,16,0,0,1561914480.000174,4.634727048691953,-74.15109716362706,2552.905,0.35,344.1796875,4,30,-9999,1561914480.24446,-5.921218872070312,28.30501937866211,-2.4111328125,352.2039794921875,359.6974487304688,15,197195.404086125,-0.892059326171875,0.2407073974609375,-0.291168212890625,197195.3868340417,-0.04245185304029909,0.1139609241022347,-0.03332466735237952,197195.387820125,-82.08157348632812,-1.209793090820312,-566.113525390625,197195.3868340417,1.229994282660007,-1.24291764578442,-0.2098699841309172,-0.04518359154462814,0.1073060110211372,-0.03655911609530449,0.02702867984771729,0.03152018785476685,0.01054120063781738,1,-0.2645131945610046,0.5220614075660706,-0.5163121223449707,-0.6252250075340271,-0.9259544610977173,0.2083327323198318,-0.3149693012237549,0,0,0,-1,197188.7936217917,3,2,1561914473.631158,1561913957.287787,32,0.8918345,0,0,26.32609,0,0,1561914413.669193,197192.442127,0,1.326416,75.29265,3232235528,177845136,1,1,0.53,-23.67685,-33.14903,3
1561914480.273474,17,0,0,1561914480.000174,4.634727048691953,-74.15109716362706,2552.905,0.35,344.1796875,4,30,-9999,1561914480.2692,-6.045257568359375,28.4233512878418,-2.3585205078125,352.2230834960938,359.716552734375,15,197195.424350125,-0.8915863037109375,0.2329559326171875,-0.284912109375,197195.407107125,-0.02470880859375517,0.08225066500266125,0.03433080961221146,197195.407931125,-82.02549743652344,-1.124740600585938,-565.9775390625,197195.407107125,1.229323634021213,-1.241170581678462,-0.2100161730054116,-0.02744054980576038,0.07559575140476227,0.03109635785222054,0.03331470489501953,0.03223168849945068,0.02540844678878784,1,-0.2638362646102905,0.521634042263031,-0.5163640975952148,-0.6258246302604675,-0.9253740310668945,0.208475723862648,-0.3165766894817352,0,0,0,-1,197188.7936217917,3,2,1561914473.631158,1561913957.287787,32,0.8918345,0,0,26.32609,0,0,1561914413.669193,197192.442127,0,1.326416,75.29265,3232235528,177845136,1,1,0.53,-23.67685,-33.81137,3
1561914480.288607,18,0,0,1561914480.000174,4.634727048691953,-74.15109716362706,2552.905,0.35,344.1796875,4,30,-9999,1561914480.2692,-6.045257568359375,28.4233512878418,-2.3585205078125,352.2230834960938,359.716552734375,15,197195.444583125,-0.9042510986328125,0.2235565185546875,-0.2870941162109375,197195.427371125,-0.04122040735224645,0.03737480273817203,0.1053242926871078,197195.428042125,-81.97456359863281,-1.058914184570312,-565.7007446289062,197195.427371125,1.229119206486317,-1.240084699471803,-0.2116113396594541,-0.04395214840769768,0.03071989305317402,0.1020898371934891,0.03312760591506958,0.02292037010192871,0.03256082534790039,1,-0.2629471123218536,0.5216534733772278,-0.5167804360389709,-0.6258388757705688,-0.9247139096260071,0.2100355625152588,-0.3174729347229004,0,0,0,-1,197188.7936217917,3,2,1561914473.631158,1561913957.287787,32,0.8918345,0,0,26.32609,0,0,1561914413.669193,197192.442127,0,1.326416,75.29265,3232235528,177845136,1,1,0.53,-23.67685,-34.60198,3
1561914480.30886,19,0,0,1561914480.000174,4.634727048691953,-74.15109716362706,2552.905,0.35,344.1796875,4,30,-9999,1561914480.295101,-6.032585144042969,28.34408760070801,-2.4501953125,352.2342224121094,359.7276916503906,15,197195.464846125,-0.920562744140625,0.2214813232421875,-0.2864837646484375,197195.447634125,-0.04792970908648307,-0.002130528872063391,0.1229608106900485,197195.448123125,-81.7393798828125,-1.262481689453125,-565.9901123046875,197195.447634125,1.228970704216585,-1.23991118391205,-0.2141955771069554,-0.05066144838929176,-0.008785437792539597,0.1197263598442078,0.01989138126373291,0.01099509000778198,0.03036189079284668,1,-0.2619630992412567,0.5221564173698425,-0.5173022747039795,-0.6254009604454041,-0.9241424798965454,0.2125614583492279,-0.3174560070037842,0,0,0,-1,197188.7936217917,3,2,1561914473.631158,1561913957.287787,32,0.8918345,0,0,26.32609,0,0,1561914413.669193,197192.442127,0,1.326416,75.29265,3232235528,177845136,1,1,0.53,-23.67685,-35.17727,3
1561914480.329126,20,0,0,1561914480.000174,4.634727048691953,-74.15109716362706,2552.905,0.35,344.1796875,4,30,-9999,1561914480.319332,-6.020576477050781,28.0589714050293,-2.4013671875,352.2503051757812,359.7437744140625,15,197195.485110125,-0.9366302490234375,0.2221527099609375,-0.2865753173828125,197195.467898125,-0.04544737663442022,-0.01258503404727845,0.1117584898807392,197195.468234125,-81.57527160644531,-1.184173583984375,-566.0654907226562,197195.467898125,1.228771661190952,-1.240288168810757,-0.2167850489331909,-0.04817911610007286,-0.01923994161188602,0.1085240393877029,0.003175616264343262,0.006390273571014404,0.03044420480728149,1,-0.2611059844493866,0.5228381156921387,-0.5177366137504578,-0.6248302459716797,-0.923738420009613,0.2150910347700119,-0.3169279396533966,0,0,0,-1,197188.7936217917,3,2,1561914473.631158,1561913957.287787,32,0.8918345,0,0,26.32609,0,0,1561914413.669193,197192.442127,0,1.326416,75.29265,3232235528,177845136,1,1,0.53,-23.67685,-35.61089,3
1561914480.354561,21,0,0,1561914480.000174,4.634727048691953,-74.15109716362706,2552.905,0.35,344.1796875,4,30,-9999,1561914480.346222,-5.537513732910156,28.0610237121582,-2.32281494140625,352.3280944824219,359.8215637207031,15,197195.505374125,-0.9601593017578125,0.22882080078125,-0.2913360595703125,197195.488162125,-0.09439547852174959,-0.004621117123505494,0.1215719721815722,197195.488345125,-81.54707336425781,-1.308700561523438,-565.95166015625,197195.488162125,1.228224589845486,-1.240735327961809,-0.2194093897414936,-0.09712722152471542,-0.01127602532505989,0.1183375269174576,-0.01328754425048828,0.004499524831771851,0.02975547313690186,1,-0.2601634860038757,0.5235929489135742,-0.5180600881576538,-0.6243228316307068,-0.9233427047729492,0.217653214931488,-0.316330760717392,0,0,0,-1,197188.7936217917,3,2,1561914473.631158,1561913957.287787,32,0.8918345,0,0,26.32609,0,0,1561914413.669193,197192.442127,0,1.326416,75.29265,3232235528,177845136,1,1,0.53,-23.67685,-35.70388,3
1561914480.370016,22,0,0,1561914480.000174,4.634727048691953,-74.15109716362706,2552.905,0.35,344.1796875,4,30,-9999,1561914480.346222,-5.537513732910156,28.0610237121582,-2.32281494140625,352.3280944824219,359.8215637207031,15,197195.525637125,-0.9865570068359375,0.24652099609375,-0.2985382080078125,197195.508426125,-0.1344909666295466,-0.07720504000139712,0.1392167459838922,197195.508456125,-81.55741882324219,-0.9939422607421875,-565.9998779296875,197195.508426125,1.226648034175635,-1.241893554441061,-0.2227790906550454,-0.1372227072715759,-0.08385995030403137,0.1359823048114777,-0.03715008497238159,0.007879912853240967,0.02368640899658203,1,-0.2588743269443512,0.5248550772666931,-0.5181269645690918,-0.6237432956695557,-0.9230092167854309,0.220940887928009,-0.3150224685668945,0,0,0,-1,197188.7936217917,3,2,1561914473.631158,1561913957.287787,32,0.8918345,0,0,26.32609,0,0,1561914413.669193,197192.442127,0,1.326416,75.29265,3232235528,177845136,1,1,0.53,-23.67685,-36.35114,3
1561914480.389927,23,0,0,1561914480.000174,4.634727048691953,-74.15109716362706,2552.905,0.35,344.1796875,4,30,-9999,1561914480.37011,-5.567283630371094,28.2379322052002,-2.13946533203125,352.4410400390625,359.9345092773438,15,197195.545901125,-0.9905853271484375,0.251007080078125,-0.295928955078125,197195.528659125,-0.07476585075899354,-0.1559408649973718,0.09433901950663991,197195.528567125,-81.52601623535156,-1.239730834960938,-565.6416015625,197195.528659125,1.225197757379914,-1.244930744958015,-0.2258127228216092,-0.07749759405851364,-0.1625957638025284,0.09110456705093384,-0.06323444843292236,0.0226224958896637,0.01346349716186523,1,-0.2582206726074219,0.5266129970550537,-0.5179210901260376,-0.6227027177810669,-0.9233225584030151,0.2238985300064087,-0.3120016753673553,0,0,0,-1,197188.7936217917,3,2,1561914473.631158,1561913957.287787,32,0.8918345,0,0,26.32609,0,0,1561914413.669193,197192.442127,0,1.326416,75.29265,3232235528,177845136,1,1,0.53,-23.67685,-36.35114,3
1561914480.410172,24,0,0,1561914480.000174,4.634727048691953,-74.15109716362706,2552.905,0.35,344.1796875,4,30,-9999,1561914480.396396,-5.687553405761719,28.25519371032715,-2.022705078125,352.4941101074219,359.9875793457031,15,197195.566165125,-0.962615966796875,0.233642578125,-0.2826690673828125,197195.548922125,-0.0405263875721718,-0.06914764612336238,0.01313923787012394,197195.548678125,-81.33818054199219,-1.048171997070312,-565.8858642578125,197195.548922125,1.224486776510251,-1.247785504055334,-0.2271311212930645,-0.04325812682509422,-0.07580255717039108,0.009904787875711918,-0.06665670871734619,0.02582386136054993,0.01334160566329956,1,-0.2583121657371521,0.5278632044792175,-0.5176092386245728,-0.6218647956848145,-0.9239286184310913,0.2251832634210587,-0.3092705309391022,0,0,0,-1,197188.7936217917,3,2,1561914473.631158,1561913957.287787,32,0.8918345,0,0,26.32609,0,0,1561914413.669193,197192.442127,0,1.326416,75.29265,3232235528,177845136,1,1,0.53,-23.67685,-36.58419,3
1561914480.435947,25,0,0,1561914480.000174,4.634727048691953,-74.15109716362706,2552.905,0.35,344.1796875,4,30,-9999,1561914480.420571,-5.557365417480469,28.33198738098145,-2.1751708984375,352.6167602539062,0.1102371141314507,15,197195.586428125,-0.920196533203125,0.2142333984375,-0.2769775390625,197195.569186125,-0.08683210102592455,0.01107289118033146,-0.04282842401843629,197195.568789125,-81.43928527832031,-1.2989501953125,-565.712890625,197195.569186125,1.223123211567652,-1.248698768781167,-0.2271291980343479,-0.08956383913755417,0.004417982418090105,-0.04606287181377411,-0.03840482234954834,0.008461177349090576,0.02575767040252686,1,-0.2581889927387238,0.5283228754997253,-0.5170668959617615,-0.6219768524169922,-0.9242111444473267,0.2251813858747482,-0.3084267675876617,0,0,0,-1,197188.7936217917,3,2,1561914473.631158,1561913957.287787,32,0.8918345,0,0,26.32609,0,0,1561914413.669193,197192.442127,0,1.326416,75.29265,3232235528,177845136,1,1,0.53,-23.67685,-37.32722,3
1561914480.45105,26,0,0,1561914480.000174,4.634727048691953,-74.15109716362706,2552.905,0.35,344.1796875,4,30,-9999,1561914480.447021,-5.651664733886719,28.38008880615234,-1.86175537109375,352.8522033691406,0.3456770181655884,15,197195.606692125,-0.897552490234375,0.2047119140625,-0.2803497314453125,197195.589450125,-0.1394923831567154,-0.05305016891437842,-0.07013141783003765,197195.588900125,-81.3114013671875,-0.852935791015625,-565.6085815429688,197195.589450125,1.220383178559838,-1.249730985214068,-0.2267220744549475,-0.1422241181135178,-0.05970507487654686,-0.07336586713790894,0.004419326782226562,-0.0105513334274292,0.03052395582199097,1,-0.25787353515625,0.5289144515991211,-0.5159950852394104,-0.6224946975708008,-0.9246158599853516,0.2247847020626068,-0.307501494884491,0,0,0,-1,197188.7936217917,3,2,1561914473.631158,1561913957.287787,32,0.8918345,0,0,26.32609,0,0,1561914413.669193,197192.442127,0,1.326416,75.29265,3232235528,177845136,1,1,0.53,-23.67685,-37.59594,3
1561914480.471092,27,0,0,1561914480.000174,4.634727048691953,-74.15109716362706,2552.905,0.35,344.1796875,4,30,-9999,1561914480.447021,-5.651664733886719,28.38008880615234,-1.86175537109375,352.8522033691406,0.3456770181655884,15,197195.626925125,-0.8995513916015625,0.2030792236328125,-0.2821197509765625,197195.609713125,-0.1677178959699202,-0.1964246419921023,-0.1114362473888396,197195.608981125,-81.72618103027344,-1.271987915039062,-565.4658203125,197195.609713125,1.216648718677113,-1.253256872584829,-0.2260016098282019,-0.1704496294260025,-0.2030795365571976,-0.1146706938743591,0.02829551696777344,-0.01937070488929749,0.02394026517868042,1,-0.2580442130565643,0.5303472280502319,-0.5142247676849365,-0.6226699352264404,-0.9258480072021484,0.2240826189517975,-0.3042899966239929,0,0,0,-1,197188.7936217917,3,2,1561914473.631158,1561913957.287787,32,0.8918345,0,0,26.32609,0,0,1561914413.669193,197192.442127,0,1.326416,75.29265,3232235528,177845136,1,1,0.53,-23.67685,-38.20601,3
1561914480.491216,28,0,0,1561914480.000174,4.634727048691953,-74.15109716362706,2552.905,0.35,344.1796875,4,30,-9999,1561914480.471284,-5.780914306640625,28.26972579956055,-1.7314453125,353.1551818847656,0.6486388444900513,15,197195.647189125,-0.90386962890625,0.20587158203125,-0.2825927734375,197195.629977125,-0.1674332040493907,-0.2722216687251745,-0.2036274274763306,197195.629092125,-81.66197204589844,-1.086227416992188,-565.5786743164062,197195.629977125,1.212276005710747,-1.259383569749391,-0.2240162773581947,-0.170164942741394,-0.2788765728473663,-0.2068618685007095,0.02856522798538208,-0.01906809210777283,0.01662790775299072,1,-0.2591464817523956,0.5324183106422424,-0.5116467475891113,-0.6225684881210327,-0.9281166195869446,0.2221473306417465,-0.2987476885318756,0,0,0,-1,197188.7936217917,3,2,1561914473.631158,1561913957.287787,32,0.8918345,0,0,26.32609,0,0,1561914413.669193,197192.442127,0,1.326416,75.29265,3232235528,177845136,1,1,0.53,-23.67685,-38.7496,3
1561914480.514301,29,0,0,1561914480.000174,4.634727048691953,-74.15109716362706,2552.905,0.35,344.1796875,4,30,-9999,1561914480.49771,-5.898963928222656,28.28974342346191,-1.8653564453125,353.5458679199219,1.039337754249573,15,197195.667453125,-0.906951904296875,0.2167205810546875,-0.285797119140625,197195.650241125,-0.2201531409885993,-0.1947220831072146,-0.2912235894189989,197195.649203125,-81.673095703125,-1.261520385742188,-565.19140625,197195.650241125,1.206880114677238,-1.265648629931418,-0.2203182326277241,-0.2228848785161972,-0.2013769894838333,-0.2944580316543579,0.02687752246856689,-0.01266860961914062,0.01057916879653931,1,-0.2605942487716675,0.5343263745307922,-0.5083543658256531,-0.6230262517929077,-0.9307471513748169,0.2185401767492294,-0.2931719124317169,0,0,0,-1,197188.7936217917,3,2,1561914473.631158,1561913957.287787,32,0.8918345,0,0,26.32609,0,0,1561914413.669193,197192.442127,0,1.326416,75.29265,3232235528,177845136,1,1,0.53,-23.67685,-39.21926,3
1561914480.534778,30,0,0,1561914480.000174,4.634727048691953,-74.15109716362706,2552.905,0.35,344.1796875,4,30,-9999,1561914480.521962,-6.1651611328125,28.05476570129395,-1.59136962890625,354.0885620117188,1.582030415534973,15,197195.687716125,-0.9080657958984375,0.2352447509765625,-0.2941741943359375,197195.670504125,-0.2980013343932505,-0.08598734632815141,-0.3211450032143662,197195.669314125,-81.92716979980469,-1.337127685546875,-564.9697265625,197195.670504125,1.199713432588477,-1.270089082051424,-0.2158426080172303,-0.3007330596446991,-0.09264225512742996,-0.3243794441223145,0.02601277828216553,0.002550005912780762,0.003525793552398682,1,-0.2613607048988342,0.5357509851455688,-0.5045644640922546,-0.6245607137680054,-0.9329646825790405,0.2141705602407455,-0.2893229424953461,0,0,0,-1,197188.7936217917,3,2,1561914473.631158,1561913957.287787,32,0.8918345,0,0,26.32609,0,0,1561914413.669193,197192.442127,0,1.326416,75.29265,3232235528,177845136,1,1,0.53,-23.67685,-37.25827,3
1561914480.552039,31,0,0,1561914480.000174,4.634727048691953,-74.15109716362706,2552.905,0.35,344.1796875,4,30,-9999,1561914480.550224,-6.510665893554688,28.21307563781738,-1.16827392578125,354.6794738769531,2.172951221466064,15,197195.707980125,-0.9039459228515625,0.2411041259765625,-0.303131103515625,197195.690768125,-0.3312980385541843,-0.05218943525006482,-0.2934547857802673,197195.689425125,-82.35865783691406,-1.228836059570312,-564.9300537109375,197195.690768125,1.191386194899033,-1.273263203591351,-0.2116994502320309,-0.3340297639369965,-0.05884434282779694,-0.2966892421245575,0.02665293216705322,0.02512305974960327,-0.007556438446044922,1,-0.2613687813282013,0.5370078682899475,-0.5006338953971863,-0.6266375184059143,-0.9347186684608459,0.2101217061281204,-0.2866178154945374,0,0,0,-1,197188.7936217917,3,2,1561914473.631158,1561913957.287787,32,0.8918345,0,0,26.32609,0,0,1561914413.669193,197192.442127,0,1.326416,75.29265,3232235528,177845136,1,1,0.53,-23.67685,-37.25827,3
1561914480.572376,32,0,0,1561914480.000174,4.634727048691953,-74.15109716362706,2552.905,0.35,344.1796875,4,30,-9999,1561914480.550224,-6.510665893554688,28.21307563781738,-1.16827392578125,354.6794738769531,2.172951221466064,15,197195.728244125,-0.9097442626953125,0.2433013916015625,-0.31170654296875,197195.711001125,-0.2842237368098346,-0.1096284936408938,-0.2151871445039286,197195.709536125,-82.51193237304688,-1.133392333984375,-564.843994140625,197195.711001125,1.18357685385589,-1.276583758013021,-0.2085311742934123,-0.2869554758071899,-0.1162834018468857,-0.2184215933084488,0.03235185146331787,0.03408101201057434,-0.01942694187164307,1,-0.2612019777297974,0.5384435653686523,-0.4970475137233734,-0.6283278465270996,-0.9362977743148804,0.2070231139659882,-0.2837041020393372,0,0,0,-1,197188.7936217917,3,2,1561914473.631158,1561913957.287787,32,0.8918345,0,0,26.32609,0,0,1561914413.669193,197192.442127,0,1.326416,75.29265,3232235528,177845136,1,1,0.53,-23.67685,-33.82738,3
1561914480.593369,33,0,0,1561914480.000174,4.634727048691953,-74.15109716362706,2552.905,0.35,344.1796875,4,30,-9999,1561914480.572563,-6.666595458984375,28.18828964233398,-1.1759033203125,355.1336364746094,2.627094268798828,15,197195.748507125,-0.9193878173828125,0.228790283203125,-0.311065673828125,197195.731265125,-0.1929002146054914,-0.1319404572535777,-0.1168195612163258,197195.729647125,-82.5499267578125,-1.03167724609375,-564.724365234375,197195.731265125,1.177726475715014,-1.280420445091517,-0.2066893712336904,-0.1956319510936737,-0.1385953575372696,-0.1200540065765381,0.02799880504608154,0.03808054327964783,-0.03148806095123291,1,-0.2612178325653076,0.5400518774986267,-0.4942959547042847,-0.6291110515594482,-0.937743067741394,0.2052208632230759,-0.2802184224128723,0,0,0,-1,197188.7936217917,3,2,1561914473.631158,1561913957.287787,32,0.8918345,0,0,26.32609,0,0,1561914413.669193,197192.442127,0,1.326416,75.29265,3232235528,177845136,1,1,0.53,-23.67685,-33.39109,3
1561914480.612775,34,0,0,1561914480.000174,4.634727048691953,-74.15109716362706,2552.905,0.35,344.1796875,4,30,-9999,1561914480.600265,-6.891654968261719,28.13020896911621,-0.93316650390625,355.38671875,2.880190849304199,15,197195.768771125,-0.9365997314453125,0.204864501953125,-0.303741455078125,197195.751529125,-0.1186227875904184,-0.1181945512871337,-0.05927956902018277,197195.749759125,-82.68580627441406,-1.145828247070312,-564.4166870117188,197195.751529125,1.174179048684046,-1.283857589951256,-0.2059539217153771,-0.1213545277714729,-0.1248494610190392,-0.06251402199268341,0.01945734024047852,0.02428928017616272,-0.03402942419052124,1,-0.2613631784915924,0.5414528250694275,-0.492565780878067,-0.6292034983634949,-0.938845157623291,0.2045010179281235,-0.2770362496376038,0,0,0,-1,197188.7936217917,3,2,1561914473.631158,1561913957.287787,32,0.8918345,0,0,26.32609,0,0,1561914413.669193,197192.442127,0,1.326416,75.29265,3232235528,177845136,1,1,0.53,-22.63695,-22.63695,3
1561914480.634361,35,0,0,1561914480.000174,4.634727048691953,-74.15109716362706,2552.905,0.35,344.1796875,4,30,-9999,1561914480.623971,-6.875648498535156,28.11514282226562,-0.87945556640625,355.5955810546875,3.089040994644165,15,197195.789035125,-0.9422149658203125,0.184478759765625,-0.296661376953125,197195.771792125,-0.1249179677751477,-0.04984745138744914,-0.0858286219271827,197195.769870125,-82.68075561523438,-1.271484375,-564.557861328125,197195.771792125,1.171461077368058,-1.286335036636823,-0.2052805174513501,-0.1276497095823288,-0.05650235712528229,-0.08906307816505432,0.003060817718505859,0.001022696495056152,-0.02899342775344849,1,-0.2614707946777344,0.5424564480781555,-0.4912349283695221,-0.6293347477912903,-0.9396605491638184,0.2038417905569077,-0.2747480571269989,0,0,0,-1,197188.7936217917,3,2,1561914473.631158,1561913957.287787,32,0.8918345,0,0,26.32609,0,0,1561914413.669193,197192.442127,0,1.326416,75.29265,3232235528,177845136,1,1,0.53,-20.2179,-23.00611,3
1561914480.653314,36,0,0,1561914480.000174,4.634727048691953,-74.15109716362706,2552.905,0.35,344.1796875,4,30,-9999,1561914480.650064,-6.92913818359375,28.09698295593262,-0.6702880859375,355.9255981445312,3.419059038162231,15,197195.809268125,-0.9315338134765625,0.1834259033203125,-0.29559326171875,197195.792056125,-0.1961045300290748,0.08720654147518969,-0.1330760291423875,197195.789981125,-82.75189208984375,-1.331298828125,-564.2916259765625,197195.792056125,1.167605337537777,-1.286793544902933,-0.2040666575661545,-0.1988362669944763,0.0805516317486763,-0.1363104730844498,-0.002191603183746338,-0.01817452907562256,-0.02227503061294556,1,-0.2609603404998779,0.5428687930107117,-0.4896861612796783,-0.6303973197937012,-0.9400234222412109,0.2026532739400864,-0.2743863463401794,0,0,0,-1,197188.7936217917,3,2,1561914473.631158,1561913957.287787,32,0.8918345,0,0,26.32609,0,0,1561914413.669193,197193.387753,0,1.400391,75.29195,3232235528,177845136,1,1,0.53,-18.94987,-23.4463,3
1561914480.674102,37,0,0,1561914480.000174,4.634727048691953,-74.15109716362706,2552.905,0.35,344.1796875,4,30,-9999,1561914480.650064,-6.92913818359375,28.09698295593262,-0.6702880859375,355.9255981445312,3.419059038162231,15,197195.829531125,-0.9249420166015625,0.18719482421875,-0.2948150634765625,197195.812320125,-0.2042596619191154,0.1427963008050677,-0.1353322592179026,197195.810092125,-82.82786560058594,-1.282928466796875,-564.1096801757812,197195.812320125,1.162580729758295,-1.285269598914309,-0.2026306891724165,-0.2069914042949677,0.1361413896083832,-0.1385667026042938,0.008348405361175537,-0.01782098412513733,-0.01969301700592041,1,-0.2597256004810333,0.5427637696266174,-0.4879727959632874,-0.632323145866394,-0.939882218837738,0.2012468874454498,-0.2759002149105072,0,0,0,-1,197188.7936217917,3,2,1561914473.631158,1561913957.287787,32,0.8918345,0,0,26.32609,0,0,1561914413.669193,197193.387753,0,1.400391,75.29195,3232235528,177845136,1,1,0.53,-17.11571,-18.86931,3
1561914480.693816,38,0,0,1561914480.000174,4.634727048691953,-74.15109716362706,2552.905,0.35,344.1796875,4,30,-9999,1561914480.673924,-7.113739013671875,28.0165843963623,-0.80889892578125,356.2357177734375,3.729190587997437,15,197195.849795125,-0.9334259033203125,0.1915740966796875,-0.2840118408203125,197195.832583125,-0.1208324123468572,0.09753428018251697,-0.08630319723343481,197195.830203125,-82.97396850585938,-1.297454833984375,-564.146240234375,197195.832583125,1.158610909238727,-1.283581058923404,-0.2013699408882078,-0.1235641539096832,0.09087936580181122,-0.08953765034675598,0.01471567153930664,-0.01281696557998657,-0.01725649833679199,1,-0.2586779296398163,0.5425001978874207,-0.4866486191749573,-0.6339972019195557,-0.9396577477455139,0.2000117748975754,-0.2775585353374481,0,0,0,-1,197188.7936217917,3,2,1561914473.631158,1561913957.287787,32,0.8918345,0,0,26.32609,0,0,1561914413.669193,197193.387753,0,1.400391,75.29195,3232235528,177845136,1,1,0.53,-17.11571,-18.86931,3
1561914480.714037,39,0,0,1561914480.000174,4.634727048691953,-74.15109716362706,2552.905,0.35,344.1796875,4,30,-9999,1561914480.701421,-7.150787353515625,28.08194351196289,-0.50543212890625,356.3722534179688,3.865721464157104,15,197195.870059125,-0.9520111083984375,0.1882781982421875,-0.273284912109375,197195.852847125,-0.04734727575608275,0.02597114695045273,-0.01038126824523788,197195.850314125,-82.77479553222656,-1.302719116210938,-564.4024658203125,197195.852847125,1.156661479333779,-1.282762037393959,-0.2009107489593593,-0.05007901415228844,0.01931623741984367,-0.01361571811139584,0.00609201192855835,-0.007987737655639648,-0.005657792091369629,1,-0.2581108212471008,0.5424036979675293,-0.4860317409038544,-0.6347835063934326,-0.9395179748535156,0.1995618492364883,-0.2783540785312653,0,0,0,-1,197188.7936217917,3,2,1561914473.631158,1561913957.287787,32,0.8918345,0,0,26.32609,0,0,1561914413.669193,197193.387753,0,1.400391,75.29195,3232235528,177845136,1,1,0.53,-17.11571,-19.53186,3
1561914480.734951,40,0,0,1561914480.000174,4.634727048691953,-74.15109716362706,2552.905,0.35,344.1796875,4,30,-9999,1561914480.724519,-7.11566162109375,28.17729949951172,-0.431396484375,356.394287109375,3.887748956680298,15,197195.890322125,-0.97467041015625,0.1779632568359375,-0.258392333984375,197195.873111125,-0.003158242736724969,-0.05094467375656178,0.0008596683998775781,197195.870425125,-82.76959228515625,-1.311813354492188,-564.0369262695312,197195.873111125,1.156136788520634,-1.283189028486518,-0.2010138639200117,-0.005889983382076025,-0.05759958177804947,-0.002374781295657158,-0.01239407062530518,-0.01138469576835632,0.004662156105041504,1,-0.2580361068248749,0.5426267981529236,-0.4858335554599762,-0.6347749829292297,-0.9396170377731323,0.1996628791093826,-0.2779470384120941,0,0,0,-1,197188.7936217917,3,2,1561914473.631158,1561913957.287787,32,0.8918345,0,0,26.32609,0,0,1561914413.669193,197193.387753,0,1.400391,75.29195,3232235528,177845136,1,1,0.53,-17.11571,-19.84854,3
1561914480.75511,41,0,0,1561914480.000174,4.634727048691953,-74.15109716362706,2552.905,0.35,344.1796875,4,30,-9999,1561914480.751472,-7.176437377929688,27.95317268371582,-0.57659912109375,356.4578247070312,3.951302528381348,15,197195.910586125,-0.984344482421875,0.178985595703125,-0.2465972900390625,197195.893344125,-0.01328278225287921,-0.08243202627289564,-0.0716488870191648,197195.890536125,-83.00875854492188,-1.237579345703125,-564.024658203125,197195.893344125,1.155881118142982,-1.284891811016583,-0.2002619399215122,-0.01601452380418777,-0.08908693492412567,-0.07488334178924561,-0.03443777561187744,-0.02096280455589294,0.01799660921096802,1,-0.2586434185504913,0.5430553555488586,-0.4853613376617432,-0.6345224380493164,-0.9402326345443726,0.1989260464906693,-0.2763889133930206,0,0,0,-1,197188.7936217917,3,2,1561914473.631158,1561913957.287787,32,0.8918345,0,0,26.32609,0,0,1561914413.669193,197193.387753,0,1.400391,75.29195,3232235528,177845136,1,1,0.53,-17.11571,-20.50836,3
1561914480.775025,42,0,0,1561914480.000174,4.634727048691953,-74.15109716362706,2552.905,0.35,344.1796875,4,30,-9999,1561914480.751472,-7.176437377929688,27.95317268371582,-0.57659912109375,356.4578247070312,3.951302528381348,15,197195.930850125,-0.9752197265625,0.180816650390625,-0.245269775390625,197195.913607125,-0.1000291294917032,-0.001511876550837984,-0.1290924727838469,197195.910647125,-83.13801574707031,-1.374404907226562,-564.3238525390625,197195.913607125,1.154123732702728,-1.286241773762133,-0.1984964401826767,-0.1027608662843704,-0.008166785351932049,-0.1323269158601761,-0.04340386390686035,-0.01820993423461914,0.02862030267715454,1,-0.259111076593399,0.5433715581893921,-0.4842261373996735,-0.634928286075592,-0.9409406781196594,0.1971955150365829,-0.275217592716217,0,0,0,-1,197188.7936217917,3,2,1561914473.631158,1561913957.287787,32,0.8918345,0,0,26.32609,0,0,1561914413.669193,197193.387753,0,1.400391,75.29195,3232235528,177845136,1,1,0.53,-17.11571,-21.17972,3
1561914480.795138,43,0,0,1561914480.000174,4.634727048691953,-74.15109716362706,2552.905,0.35,344.1796875,4,30,-9999,1561914480.775203,-7.135063171386719,27.95602989196777,-0.69122314453125,356.6914672851562,4.184920787811279,15,197195.951113125,-0.95556640625,0.1771697998046875,-0.246307373046875,197195.933871125,-0.1589867223360954,0.009796438069856478,-0.1951817447113623,197195.930758125,-83.04206848144531,-1.19183349609375,-564.041748046875,197195.933871125,1.150471063786065,-1.28678172690223,-0.196064955577463,-0.1617184579372406,0.003141529392451048,-0.1984161883592606,-0.03367316722869873,-0.01399454474449158,0.02957326173782349,1,-0.259099930524826,0.5435491800308228,-0.4824391603469849,-0.6361399292945862,-0.9415465593338013,0.1948111951351166,-0.2748430371284485,0,0,0,-1,197188.7936217917,3,2,1561914473.631158,1561913957.287787,32,0.8918345,0,0,26.32609,0,0,1561914413.669193,197193.387753,0,1.400391,75.29195,3232235528,177845136,1,1,0.53,-17.11571,-21.96187,3
1561914480.8178,44,0,0,1561914480.000174,4.634727048691953,-74.15109716362706,2552.905,0.35,344.1796875,4,30,-9999,1561914480.801656,-7.391105651855469,28.07874298095703,-0.4459228515625,357.0439453125,4.537405490875244,15,197195.971377125,-0.9344024658203125,0.181121826171875,-0.2600860595703125,197195.954135125,-0.2039262341506375,-0.01656432934807485,-0.2372780657461358,197195.950869125,-83.03022766113281,-1.427688598632812,-563.9930419921875,197195.954135125,1.145569602189257,-1.287954920796257,-0.1926776618589758,-0.2066579759120941,-0.02321923896670341,-0.2405125051736832,-0.01306986808776855,-0.01431792974472046,0.02761340141296387,1,-0.2592355012893677,0.5439085960388184,-0.4799481332302094,-0.6376598477363586,-0.9424965381622314,0.1914876848459244,-0.2739207744598389,0,0,0,-1,197188.7936217917,3,2,1561914473.631158,1561913957.287787,32,0.8918345,0,0,26.32609,0,0,1561914413.669193,197193.387753,0,1.400391,75.29195,3232235528,177845136,1,1,0.53,-17.11571,-22.41989,3
1561914480.838864,45,0,0,1561914480.000174,4.634727048691953,-74.15109716362706,2552.905,0.35,344.1796875,4,30,-9999,1561914480.825674,-7.602577209472656,27.6953239440918,-0.1702880859375,357.453125,4.946605682373047,15,197195.991610125,-0.925384521484375,0.1741790771484375,-0.2768402099609375,197195.974398125,-0.2245265841307274,-0.04493525075679798,-0.2192045230083131,197195.970980125,-83.45005798339844,-1.525543212890625,-563.7984619140625,197195.974398125,1.139802135299107,-1.28978058433996,-0.1894191169541057,-0.2272583246231079,-0.05159015581011772,-0.2224389612674713,0.009187161922454834,-0.007166594266891479,0.01228523254394531,1,-0.259243905544281,0.5446163415908813,-0.4771180748939514,-0.6391744613647461,-0.9435896277427673,0.1882884353399277,-0.2723712623119354,0,0,0,-1,197188.7936217917,3,2,1561914473.631158,1561913957.287787,32,0.8918345,0,0,26.32609,0,0,1561914413.669193,197193.387753,0,1.400391,75.29195,3232235528,177845136,1,1,0.53,-17.11571,-23.27193,3
1561914480.855884,46,0,0,1561914480.000174,4.634727048691953,-74.15109716362706,2552.905,0.35,344.1796875,4,30,-9999,1561914480.8523,-7.642036437988281,27.75055885314941,0.0179443359375,357.8335266113281,5.326982975006104,15,197196.011874125,-0.923675537109375,0.1669158935546875,-0.2886810302734375,197195.994662125,-0.1895986938021202,-0.07086352081370044,-0.2417598995446302,197195.991092125,-83.56111145019531,-1.616928100585938,-563.3399658203125,197195.994662125,1.134362158811894,-1.292266666398081,-0.1860266084507726,-0.1923304349184036,-0.07751843333244324,-0.2449943423271179,0.01948791742324829,-0.01077646017074585,-0.006641566753387451,1,-0.2595410048961639,0.5454714894294739,-0.4742675721645355,-0.6404447555541992,-0.9448724985122681,0.1849555224180222,-0.27019864320755,0,0,0,-1,197188.7936217917,3,2,1561914473.631158,1561913957.287787,32,0.8918345,0,0,26.32609,0,0,1561914413.669193,197193.387753,0,1.400391,75.29195,3232235528,177845136,1,1,0.53,-17.11571,-23.27193,3
1561914480.876866,47,0,0,1561914480.000174,4.634727048691953,-74.15109716362706,2552.905,0.35,344.1796875,4,30,-9999,1561914480.8523,-7.642036437988281,27.75055885314941,0.0179443359375,357.8335266113281,5.326982975006104,15,197196.032138125,-0.9157562255859375,0.169952392578125,-0.3011627197265625,197196.014926125,-0.2040633869467766,0.002872219235650458,-0.2466872801934948,197196.011203125,-83.66203308105469,-1.466018676757812,-563.425048828125,197196.014926125,1.12900739989187,-1.294326937266635,-0.1822061493960772,-0.2067951261997223,-0.003782689105719328,-0.2499217242002487,0.02242445945739746,-0.01428371667861938,-0.02023875713348389,1,-0.2599050402641296,0.54610276222229,-0.4713910818099976,-0.6418811678886414,-0.9460999965667725,0.1811996400356293,-0.2684422731399536,0,0,0,-1,197188.7936217917,3,2,1561914473.631158,1561913957.287787,32,0.8918345,0,0,26.32609,0,0,1561914413.669193,197193.387753,0,1.400391,75.29195,3232235528,177845136,1,1,0.53,-17.11571,-24.15992,3
1561914480.914283,48,0,0,1561914480.000174,4.634727048691953,-74.15109716362706,2552.905,0.35,344.1796875,4,30,-9999,1561914480.903174,-8.209686279296875,27.98551559448242,0.1739501953125,358.4989624023438,5.992415904998779,15,197196.052401125,-0.9096221923828125,0.1682586669921875,-0.309356689453125,197196.035189125,-0.1870348686207009,0.1062124569106492,-0.2051390377110596,197196.031314125,-83.76042175292969,-1.750564575195312,-563.6407470703125,197196.035189125,1.123635101297917,-1.294283138665482,-0.1788371426211398,-0.189766600728035,0.0995575487613678,-0.208373486995697,0.03091412782669067,-0.007932960987091064,-0.03251379728317261,1,-0.2596082985401154,0.5461493134498596,-0.4688794016838074,-0.6437986493110657,-0.9466703534126282,0.1778853833675385,-0.2686489224433899,0,0,0,-1,197188.7936217917,3,2,1561914473.631158,1561913957.287787,32,0.8918345,0,0,26.32609,0,0,1561914413.669193,197193.387753,0,1.400391,75.29195,3232235528,177845136,1,1,0.53,-17.11571,-25.61611,3
1561914480.920092,49,0,0,1561914480.000174,4.634727048691953,-74.15109716362706,2552.905,0.35,344.1796875,4,30,-9999,1561914480.903174,-8.209686279296875,27.98551559448242,0.1739501953125,358.4989624023438,5.992415904998779,15,197196.072665125,-0.9176025390625,0.1663055419921875,-0.3071746826171875,197196.055453125,-0.09625516391095192,0.0930684253505631,-0.1711091653020271,197196.051425125,-84.02534484863281,-1.610031127929688,-563.604248046875,197196.055453125,1.119667695798887,-1.293004609787407,-0.1759027267557222,-0.0989869013428688,0.08641351759433746,-0.17434361577034,0.0372016429901123,-0.006738334894180298,-0.03935569524765015,1,-0.2592554986476898,0.545697808265686,-0.4670756459236145,-0.6456320285797119,-0.9468238353729248,0.1749970018863678,-0.2700009644031525,0,0,0,-1,197188.7936217917,3,2,1561914473.631158,1561913957.287787,32,0.8918345,0,0,26.32609,0,0,1561914413.669193,197193.387753,0,1.400391,75.29195,3232235528,177845136,1,1,0.53,-17.11571,-25.61611,3
1561914480.937005,50,0,0,1561914480.000174,4.634727048691953,-74.15109716362706,2552.905,0.35,344.1796875,4,30,-9999,1561914480.9273,-8.3328857421875,27.60432052612305,0.2586669921875,358.6207275390625,6.114181995391846,15,197196.092929125,-0.9233856201171875,0.1599884033203125,-0.2996826171875,197196.075686125,-0.02782470706914788,0.06330653490449159,-0.1279292040197003,197196.071536125,-84.27458190917969,-1.927947998046875,-563.2293701171875,197196.075686125,1.117527178091898,-1.291880138654816,-0.1732561758890812,-0.03057200089097023,0.05663593113422394,-0.1311616897583008,0.02935904264450073,-0.006085127592086792,-0.03598266839981079,1,-0.2593384087085724,0.5451124310493469,-0.4659057557582855,-0.6469372510910034,-0.9469615817070007,0.1723906844854355,-0.2711920440196991,0,0,0,-1,197188.7936217917,3,2,1561914473.631158,1561913957.287787,32,0.8918345,0,0,26.32609,0,0,1561914413.669193,197193.387753,0,1.400391,75.29195,3232235528,177845136,1,1,0.53,-17.11571,-26.38017,3
1561914480.957251,51,0,0,1561914480.000174,4.634727048691953,-74.15109716362706,2552.905,0.35,344.1796875,4,30,-9999,1561914480.954144,-8.433395385742188,27.66002082824707,0.2669677734375,358.6120300292969,6.105497360229492,15,197196.113192125,-0.9307098388671875,0.155181884765625,-0.2862091064453125,197196.095950125,0.03987151626012132,0.03012061824490519,-0.09670257497408523,197196.091647125,-84.2236328125,-1.505508422851562,-563.2664184570312,197196.095950125,1.116973308651285,-1.291130711806831,-0.171033122345843,0.03712422400712967,0.02345001883804798,-0.09993506968021393,0.02373844385147095,-0.01021206378936768,-0.02767586708068848,1,-0.2597935497760773,0.5445217490196228,-0.4652990698814392,-0.6476882100105286,-0.9471240043640137,0.1702004820108414,-0.2720067501068115,0,0,0,-1,197188.7936217917,3,2,1561914473.631158,1561913957.287787,32,0.8918345,0,0,26.32609,0,0,1561914413.669193,197193.387753,0,1.400391,75.29195,3232235528,177845136,1,1,0.53,-17.11571,-27.32279,3
1561914480.991754,52,0,0,1561914480.000174,4.634727048691953,-74.15109716362706,2552.905,0.35,344.1796875,4,30,-9999,1561914480.978135,-8.438644409179688,27.63951873779297,0.2281494140625,358.5745544433594,6.068015098571777,15,197196.133456125,-0.9387664794921875,0.150787353515625,-0.2763214111328125,197196.116214125,0.05930833115995562,0.08359103397929812,-0.09374193879024414,197196.111758125,-84.05976867675781,-1.782333374023438,-563.1919555664062,197196.116214125,1.11746672107523,-1.290190471717291,-0.1687981235688319,0.05656103789806366,0.07692043483257294,-0.09697443246841431,0.016521155834198,-0.01281577348709106,-0.01320731639862061,1,-0.260493665933609,0.543729841709137,-0.4650534689426422,-0.6482484340667725,-0.9472309947013855,0.1679976731538773,-0.2730018198490143,0,0,0,-1,197188.7936217917,3,2,1561914473.631158,1561913957.287787,32,0.8918345,0,0,26.32609,0,0,1561914413.669193,197193.387753,0,1.400391,75.29195,3232235528,177845136,1,1,0.53,-17.11571,-28.25568,3
1561914480.997823,53,0,0,1561914480.000174,4.634727048691953,-74.15109716362706,2552.905,0.35,344.1796875,4,30,-9999,1561914480.978135,-8.438644409179688,27.63951873779297,0.2281494140625,358.5745544433594,6.068015098571777,15,197196.153720125,-0.9548492431640625,0.1554412841796875,-0.26910400390625,197196.136477125,0.03936951039464138,0.1879882802909493,-0.07002702191530655,197196.131869125,-84.45236206054688,-1.636383056640625,-563.461181640625,197196.136477125,1.117931853547765,-1.287378314398383,-0.1668939060334461,0.03662221506237984,0.1813176870346069,-0.07325951755046844,0.007998526096343994,-0.01533284783363342,-0.0005679130554199219,1,-0.2606345117092133,0.5423955321311951,-0.465121328830719,-0.6492602229118347,-0.9467650055885315,0.1661202162504196,-0.2757534682750702,0,0,0,-1,197188.7936217917,3,2,1561914473.631158,1561913957.287787,32,0.8918345,0,0,26.32609,0,0,1561914413.669193,197193.387753,0,1.400391,75.29195,3232235528,177845136,1,1,0.53,-17.11571,-29.21938,3
1561914481.018574,54,0,0,1561914480.000174,4.634727048691953,-74.15109716362706,2552.905,0.35,344.1796875,4,30,-9999,1561914481.004433,-8.582984924316406,27.84092140197754,0.10235595703125,358.5608825683594,6.054349422454834,15,197196.173983125,-0.9665069580078125,0.1500244140625,-0.261688232421875,197196.156741125,0.03707173500612101,0.2563803876130562,-0.07382575489419557,197196.151980125,-84.25595092773438,-1.526901245117188,-563.640380859375,197196.156741125,1.118115902783164,-1.282674250063933,-0.1652995269876069,0.03432444110512733,0.2497097849845886,-0.07705824077129364,-0.009139120578765869,-0.00910651683807373,0.01117491722106934,1,-0.2601502537727356,0.5405389666557312,-0.4654181003570557,-0.6507882475852966,-0.9457100629806519,0.1645477861166,-0.2802789509296417,0,0,0,-1,197188.7936217917,3,2,1561914473.631158,1561913957.287787,32,0.8918345,0,0,26.32609,0,0,1561914413.669193,197193.387753,0,1.400391,75.29195,3232235528,177845136,1,1,0.53,-17.11571,-29.21938,3
1561914481.038356,55,0,0,1561914480.000174,4.634727048691953,-74.15109716362706,2552.905,0.35,344.1796875,4,30,-9999,1561914481.028562,-8.349685668945312,27.68314933776855,0.062255859375,358.5108642578125,6.004335403442383,15,197196.194217125,-0.9742431640625,0.127105712890625,-0.2318267822265625,197196.177005125,0.08562622168433667,0.09857877196204606,-0.1242780101652017,197196.172091125,-84.25025939941406,-1.77703857421875,-563.630126953125,197196.177005125,1.118635308330514,-1.278713893415088,-0.1631415420019695,0.08287893235683441,0.09190817177295685,-0.1275105029344559,-0.02157628536224365,-0.01239439845085144,0.02243548631668091,1,-0.2601275742053986,0.5387687683105469,-0.4655954241752625,-0.6521371603012085,-0.9449306726455688,0.1624188274145126,-0.2841237187385559,0,0,0,-1,197188.7936217917,3,2,1561914473.631158,1561913957.287787,32,0.8918345,0,0,26.32609,0,0,1561914413.669193,197193.387753,0,1.400391,75.29195,3232235528,177845136,1,1,0.53,-17.11571,-29.63191,3
1561914481.077569,56,0,0,1561914481.000173,4.634731994014825,-74.15108324966779,2552.833,0.37,35.15625,4,30,-9999,1561914481.028562,-8.349685668945312,27.68314933776855,0.062255859375,358.5108642578125,6.004335403442383,15,197196.214480125,-0.9837493896484375,0.1163482666015625,-0.2095489501953125,197196.197268125,0.09895454399185624,-0.1598301454533235,-0.2441562118934835,197196.192202125,-84.52847290039062,-1.886886596679688,-563.54931640625,197196.197268125,1.119448400841678,-1.279386443932325,-0.1589480922576722,0.09620725363492966,-0.1665007323026657,-0.2473887056112289,-0.02847754955291748,-0.0311739444732666,0.05185455083847046,1,-0.2619775235652924,0.5380772352218628,-0.4647875726222992,-0.6525437235832214,-0.9457656145095825,0.1582796424627304,-0.283681333065033,0,0,0,-1,197188.7936217917,3,2,1561914473.631158,1561913957.287787,32,0.8918345,0,0,26.32609,0,0,1561914413.669193,197193.387753,0,1.400391,75.29195,3232235528,177845136,1,1,0.53,-17.11571,-31.00645,3
1561914481.07999,57,0,0,1561914481.000173,4.634731994014825,-74.15108324966779,2552.833,0.37,35.15625,4,30,-9999,1561914481.078298,-8.677177429199219,27.48449516296387,0.06396484375,358.4949035644531,5.988365650177002,15,197196.234744125,-0.9923553466796875,0.1327362060546875,-0.2123870849609375,197196.217532125,-0.009467271359122684,-0.2352958749467899,-0.2571457801103449,197196.212313125,-84.54621887207031,-1.970199584960938,-563.47998046875,197196.217532125,1.118803418140958,-1.28394219741593,-0.1534877860971879,-0.01221456378698349,-0.2419664710760117,-0.2603782713413239,-0.03588646650314331,-0.03653755784034729,0.0700610876083374,1,-0.2647769749164581,0.5385982990264893,-0.4626887440681458,-0.6524753570556641,-0.9478628635406494,0.152885839343071,-0.2796100378036499,0,0,0,-1,197188.7936217917,3,2,1561914473.631158,1561913957.287787,32,0.8918345,0,0,26.32609,0,0,1561914413.669193,197193.387753,0,1.400391,75.29195,3232235528,177845136,1,1,0.53,-17.11571,-31.00645,3
1561914481.100699,58,0,0,1561914481.000173,4.634731994014825,-74.15108324966779,2552.833,0.37,35.15625,4,30,-9999,1561914481.078298,-8.677177429199219,27.48449516296387,0.06396484375,358.4949035644531,5.988365650177002,15,197196.255008125,-1.00091552734375,0.141326904296875,-0.233795166015625,197196.237796125,-0.05849180596973733,-0.1913004537386808,-0.1779042208233643,197196.232425125,-84.7034912109375,-1.776031494140625,-563.516845703125,197196.237796125,1.116566861013423,-1.288815762517028,-0.1494507775125834,-0.0612390972673893,-0.1979710459709167,-0.1811367124319077,-0.04255592823028564,-0.01615884900093079,0.06276971101760864,1,-0.2667127847671509,0.5397090911865234,-0.4603528678417206,-0.6524212956428528,-0.9497994184494019,0.1488950550556183,-0.2751567661762238,0,0,0,-1,197188.7936217917,3,2,1561914473.631158,1561913957.287787,32,0.8918345,0,0,26.32609,0,0,1561914413.669193,197193.387753,0,1.400391,75.29195,3232235528,177845136,1,1,0.53,-17.11571,-31.50272,3
1561914481.119342,59,0,0,1561914481.000173,4.634731994014825,-74.15108324966779,2552.833,0.37,35.15625,4,30,-9999,1561914481.105605,-8.984176635742188,27.43844795227051,0.248291015625,358.7411193847656,6.234593391418457,15,197196.275271125,-1.013458251953125,0.1150360107421875,-0.2485809326171875,197196.258029125,0.01136264310693208,-0.1331367492152413,-0.1408380784555324,197196.252536125,-84.65371704101562,-1.95513916015625,-563.6973266601562,197196.258029125,1.115056080391266,-1.292380591224767,-0.1466040236202897,0.008615350350737572,-0.1398073434829712,-0.144070565700531,-0.04973757266998291,-0.004752546548843384,0.03808939456939697,1,-0.2681194543838501,0.5405272245407104,-0.4587036669254303,-0.6523290276527405,-0.9511779546737671,0.1460794359445572,-0.271884560585022,0,0,0,-1,197188.7936217917,3,2,1561914473.631158,1561913957.287787,32,0.8918345,0,0,26.32609,0,0,1561914413.669193,197193.387753,0,1.400391,75.29195,3232235528,177845136,1,1,0.53,-17.11571,-32.31336,3
1561914481.155607,60,0,0,1561914481.000173,4.634731994014825,-74.15108324966779,2552.833,0.37,35.15625,4,30,-9999,1561914481.129791,-8.923713684082031,27.41965293884277,0.21661376953125,358.7238159179688,6.217272281646729,15,197196.295535125,-1.035552978515625,0.0964813232421875,-0.2595062255859375,197196.278292125,0.07319245518697473,-0.1562657706503615,-0.1639900030760273,197196.272647125,-84.79597473144531,-1.96875,-563.3374633789062,197196.278292125,1.115052192034071,-1.295488473297517,-0.143314312271836,0.07044516503810883,-0.1629363596439362,-0.1672224998474121,-0.06098264455795288,-0.02778822183609009,0.02047532796859741,1,-0.2699790298938751,0.5409095883369446,-0.4574954807758331,-0.6520935297012329,-0.9524756669998169,0.1428242325782776,-0.2690562903881073,0,0,0,-1,197188.7936217917,3,2,1561914473.631158,1561913957.287787,32,0.8918345,0,0,26.32609,0,0,1561914413.669193,197193.387753,0,1.400391,75.29195,3232235528,177845136,1,1,0.53,-17.11571,-33.15456,3
1561914481.159828,61,0,0,1561914481.000173,4.634731994014825,-74.15108324966779,2552.833,0.37,35.15625,4,30,-9999,1561914481.156335,-9.118080139160156,27.39803886413574,-0.02801513671875,358.6111145019531,6.104569911956787,15,197196.315799125,-1.083847045898438,0.0888671875,-0.2596435546875,197196.298556125,0.1126767478245985,-0.2272113168256363,-0.1493833634452697,197196.292758125,-84.91925048828125,-1.8245849609375,-563.4383544921875,197196.298556125,1.115797280654393,-1.299361527487421,-0.1396434719746645,0.1099294573068619,-0.2338819056749344,-0.1526158601045609,-0.08154380321502686,-0.04270875453948975,0.005997836589813232,1,-0.2723447978496552,0.5413652062416077,-0.4563294053077698,-0.651548445224762,-0.9540091753005981,0.1391900628805161,-0.2655040621757507,0,0,0,-1,197188.7936217917,3,2,1561914473.631158,1561913957.287787,32,0.8918345,0,0,26.32609,0,0,1561914413.669193,197193.387753,0,1.400391,75.29195,3232235528,177845136,1,1,0.53,-17.11571,-33.78537,3
1561914481.180137,62,0,0,1561914481.000173,4.634731994014825,-74.15108324966779,2552.833,0.37,35.15625,4,30,-9999,1561914481.156335,-9.118080139160156,27.39803886413574,-0.02801513671875,358.6111145019531,6.104569911956787,15,197196.336062125,-1.171539306640625,0.059234619140625,-0.239013671875,197196.318820125,0.2648263366941335,-0.4110748932202709,-0.1686710413240596,197196.312869125,-85.09503173828125,-1.919296264648438,-563.5452880859375,197196.318820125,1.118525960975884,-1.305525600314571,-0.1356705466348059,0.2620790302753448,-0.4177454710006714,-0.1719035357236862,-0.127693235874176,-0.04638752341270447,0.0001178383827209473,1,-0.2758694887161255,0.5422317981719971,-0.4554113745689392,-0.6499854922294617,-0.9561538100242615,0.1352547258138657,-0.2597613930702209,0,0,0,-1,197188.7936217917,3,2,1561914473.631158,1561913957.287787,32,0.8918345,0,0,26.32609,0,0,1561914413.669193,197193.387753,0,1.400391,75.29195,3232235528,177845136,1,1,0.53,-17.11571,-33.78537,3
1561914481.201068,63,0,0,1561914481.000173,4.634731994014825,-74.15108324966779,2552.833,0.37,35.15625,4,30,-9999,1561914481.180496,-9.339553833007812,27.29909515380859,0.06195068359375,358.2610168457031,5.754475593566895,15,197196.356326125,-1.27947998046875,0.0100860595703125,-0.2095794677734375,197196.339083125,0.3962996754925113,-0.5673158964724946,-0.2925820678910483,197196.332980125,-85.10150146484375,-2.194229125976562,-563.5660400390625,197196.339083125,1.12393891875837,-1.315130027856996,-0.1296533966802916,0.3935523629188538,-0.5739864706993103,-0.2958145439624786,-0.2121647596359253,-0.07005584239959717,0.01175379753112793,1,-0.2816037833690643,0.543429434299469,-0.4543632864952087,-0.6472539305686951,-0.9593744874000549,0.1292904615402222,-0.2507675290107727,0,0,0,-1,197188.7936217917,3,2,1561914473.631158,1561913957.287787,32,0.8918345,0,0,26.32609,0,0,1561914413.669193,197193.387753,0,1.400391,75.29195,3232235528,177845136,1,1,0.53,-17.11571,-31.15965,3
1561914481.23559,64,0,0,1561914481.000173,4.634731994014825,-74.15108324966779,2552.833,0.37,35.15625,4,30,-9999,1561914481.207143,-9.843772888183594,27.21813201904297,-0.21209716796875,357.8567199707031,5.350174427032471,15,197196.376559125,-1.373733520507812,-0.01495361328125,-0.2008056640625,197196.359347125,0.375754985579204,-0.4633612675340146,-0.5517494535848725,197196.353091125,-85.44526672363281,-2.15484619140625,-563.7534790039062,197196.359347125,1.129714903851333,-1.325466421047547,-0.1193564751878929,0.3730076849460602,-0.4700318574905396,-0.5549819469451904,-0.3163242340087891,-0.1089872121810913,0.03156900405883789,1,-0.2890530824661255,0.5439431071281433,-0.4522257745265961,-0.6450318694114685,-0.9631558060646057,0.119073286652565,-0.2411484271287918,0,0,0,-1,197188.7936217917,3,2,1561914473.631158,1561913957.287787,32,0.8918345,0,0,26.32609,0,0,1561914413.669193,197193.387753,0,1.400391,75.29195,3232235528,177845136,1,1,0.53,-17.11571,-32.15165,3
1561914481.241482,65,0,0,1561914481.000173,4.634731994014825,-74.15108324966779,2552.833,0.37,35.15625,4,30,-9999,1561914481.207143,-9.843772888183594,27.21813201904297,-0.21209716796875,357.8567199707031,5.350174427032471,15,197196.3968090417,-1.519775390625,0.0019989013671875,-0.1799774169921875,197196.379611125,0.2364841774251832,-0.2067081722253343,-0.7957546642445484,197196.373202125,-86.04515075683594,-2.327804565429688,-563.7864990234375,197196.379611125,1.132235895756161,-1.331865634048614,-0.1045096551909029,0.2337368726730347,-0.2133787721395493,-0.7989871501922607,-0.4074431657791138,-0.1192731261253357,0.03456687927246094,1,-0.2962431013584137,0.542728066444397,-0.4484196603298187,-0.645450234413147,-0.9662903547286987,0.1043195128440857,-0.2353725433349609,0,0,0,-1,197188.7936217917,3,2,1561914473.631158,1561913957.287787,32,0.8918345,0,0,26.32609,0,0,1561914413.669193,197193.387753,0,1.400391,75.29195,3232235528,177845136,1,1,0.53,-17.11571,-32.15165,3
1561914481.261124,66,0,0,1561914481.000173,4.634731994014825,-74.15108324966779,2552.833,0.37,35.15625,4,30,-9999,1561914481.245199,-10.28319549560547,27.01190185546875,-0.19415283203125,357.7328186035156,5.226298332214355,15,197196.4170720417,-1.608993530273438,-0.0531158447265625,-0.11822509765625,197196.3998600417,0.437093444438127,-0.4820430762648115,-1.141240427190021,197196.3932990417,-86.36395263671875,-2.193511962890625,-563.7962646484375,197196.3998600417,1.133677885576019,-1.337683684554507,-0.08449256048403639,0.4343461394309998,-0.4887136518955231,-1.14447295665741,-0.5502942204475403,-0.08239316940307617,0.05020558834075928,1,-0.3047129213809967,0.5404244065284729,-0.4429896473884583,-0.6471874713897705,-0.9694811701774597,0.08439206331968307,-0.2301829904317856,0,0,0,-1,197188.7936217917,3,2,1561914473.631158,1561913957.287787,32,0.8918345,0,0,26.32609,0,0,1561914413.669193,197193.387753,0,1.400391,75.29195,3232235528,177845136,1,1,0.53,-17.11571,-32.87786,3
1561914481.281864,67,0,0,1561914481.000173,4.634731994014825,-74.15108324966779,2552.833,0.37,35.15625,4,30,-9999,1561914481.245199,-10.28319549560547,27.01190185546875,-0.19415283203125,357.7328186035156,5.226298332214355,15,197196.4373360417,-1.6864013671875,-0.086822509765625,-0.0684661865234375,197196.4201240417,0.6835887107170271,-1.078139754637792,-1.632681532625613,197196.4134100417,-87.20733642578125,-2.6539306640625,-563.9261474609375,197196.4201240417,1.138846244116644,-1.353662847488361,-0.05414617698605763,0.6808413863182068,-1.084810376167297,-1.635913968086243,-0.6339056491851807,-0.1072355508804321,0.09689044952392578,1,-0.3197848200798035,0.5386834740638733,-0.4344227910041809,-0.6471742987632751,-0.9750878214836121,0.05411972478032112,-0.215115562081337,0,0,0,-1,197188.7936217917,3,2,1561914473.631158,1561913957.287787,32,0.8918345,0,0,26.32609,0,0,1561914413.669193,197193.387753,0,1.400391,75.29195,3232235528,177845136,1,1,0.53,-17.11571,-33.5968,3
1561914481.311811,68,0,0,1561914481.000173,4.634731994014825,-74.15108324966779,2552.833,0.37,35.15625,4,30,-9999,1561914481.308822,-14.01637268066406,25.48526000976562,-0.49761962890625,357.1690979003906,4.662572860717773,15,197196.4576000417,-1.771087646484375,-0.1304168701171875,-0.0570831298828125,197196.4403570417,0.521251731729612,-1.234508056990122,-2.021452984348688,197196.4335210417,-88.29562377929688,-3.170440673828125,-564.237060546875,197196.4403570417,1.143707152298352,-1.377995297757396,-0.01514433643332245,0.5185044407844543,-1.241178631782532,-2.024685382843018,-0.7050424814224243,-0.1019662618637085,0.1231206655502319,1,-0.339145302772522,0.5377611517906189,-0.4217731654644012,-0.6464525461196899,-0.9813588857650757,0.01514375768601894,-0.1915868073701859,0,0,0,-1,197188.7936217917,3,2,1561914473.631158,1561913957.287787,32,0.8918345,0,0,26.32609,0,0,1561914413.669193,197193.387753,0,1.400391,75.29195,3232235528,177845136,1,1,0.53,-17.11571,-34.07365,3
1561914481.321988,69,0,0,1561914481.000173,4.634731994014825,-74.15108324966779,2552.833,0.37,35.15625,4,30,-9999,1561914481.308822,-14.01637268066406,25.48526000976562,-0.49761962890625,357.1690979003906,4.662572860717773,15,197196.4778630417,-1.802490234375,-0.1861419677734375,-0.06732177734375,197196.4606210417,0.2549446774693945,-1.170335994731355,-2.56211862779276,197196.4536320417,-89.19026184082031,-3.673583984375,-564.2528076171875,197196.4606210417,1.142957449554592,-1.402093983642171,0.03132101403890648,0.2521973848342896,-1.177006602287292,-2.565351009368896,-0.785767674446106,-0.09910097718238831,0.1107378005981445,1,-0.3588975667953491,0.5359870195388794,-0.404773473739624,-0.6481271982192993,-0.985319972038269,-0.03131589293479919,-0.1678209006786346,0,0,0,-1,197188.7936217917,3,2,1561914473.631158,1561913957.287787,32,0.8918345,0,0,26.32609,0,0,1561914413.669193,197193.387753,0,1.400391,75.29195,3232235528,177845136,1,1,0.53,-17.11571,-34.64185,3
1561914481.342175,70,0,0,1561914481.000173,4.634731994014825,-74.15108324966779,2552.833,0.37,35.15625,4,30,-9999,1561914481.336008,-15.48954010009766,24.54851531982422,-0.2508544921875,357.6376647949219,5.131147384643555,15,197196.4981270417,-1.762863159179688,-0.202423095703125,-0.0780181884765625,197196.4808850417,0.1206502521282958,-1.259945240142014,-3.31084692719258,197196.4737440417,-90.83555603027344,-4.461532592773438,-563.951171875,197196.4808850417,1.137226392522455,-1.426437286415484,0.09094477314944355,0.1179029643535614,-1.266615867614746,-3.314079284667969,-0.8169814348220825,-0.09532248973846436,0.07594192028045654,1,-0.3809051215648651,0.5322400331497192,-0.3817365765571594,-0.6526171565055847,-0.9855087995529175,-0.09081945568323135,-0.1432636678218842,0,0,0,-1,197188.7936217917,3,2,1561914473.631158,1561913957.287787,32,0.8918345,0,0,26.32609,0,0,1561914413.669193,197193.387753,0,1.400391,75.29195,3232235528,177845136,1,1,0.53,-17.11571,-34.64185,3
1561914481.362432,71,0,0,1561914481.000173,4.634731994014825,-74.15108324966779,2552.833,0.37,35.15625,4,30,-9999,1561914481.358752,-17.42813873291016,23.12458229064941,-0.03570556640625,358.1412658691406,5.634722709655762,15,197196.5183910417,-1.66021728515625,-0.1837310791015625,-0.1047210693359375,197196.5011480417,0.08692158323855122,-1.494842706189728,-3.831178270449461,197196.4938550417,-92.7860107421875,-5.676437377929688,-563.509521484375,197196.5011480417,1.129454453706136,-1.453189491570541,0.1633678627881242,0.08417429029941559,-1.501513242721558,-3.834410667419434,-0.7829937934875488,-0.03978091478347778,0.03775537014007568,1,-0.4058703482151031,0.5266711115837097,-0.3528971970081329,-0.6582935452461243,-0.9798694252967834,-0.1626421362161636,-0.1157736033201218,0,0,0,-1,197188.7936217917,3,2,1561914473.631158,1561913957.287787,32,0.8918345,0,0,26.32609,0,0,1561914413.669193,197193.387753,0,1.400391,75.29195,3232235528,177845136,1,1,0.53,-17.11571,-35.34337,3
1561914481.390836,72,0,0,1561914481.000173,4.634731994014825,-74.15108324966779,2552.833,0.37,35.15625,4,30,-9999,1561914481.385075,-19.40997314453125,21.62904739379883,0.7735595703125,358.1139526367188,5.60742712020874,15,197196.5386540417,-1.536285400390625,-0.2108612060546875,-0.143524169921875,197196.5214120417,0.2456254778668802,-1.999488030626042,-4.180698189814185,197196.5139660417,-94.66091918945312,-7.206802368164062,-563.1013793945312,197196.5214120417,1.124150608796422,-1.487387318804507,0.2446603151883762,0.242878183722496,-2.006158590316772,-4.18393087387085,-0.6933706998825073,0.05849567055702209,-0.02388978004455566,1,-0.4341027140617371,0.520710289478302,-0.3193981349468231,-0.662118136882782,-0.9668466448783875,-0.2422267645597458,-0.08083125948905945,0,0,0,-1,197188.7936217917,3,2,1561914473.631158,1561913957.287787,32,0.8918345,0,0,26.32609,0,0,1561914413.669193,197193.387753,0,1.400391,75.29195,3232235528,177845136,1,1,0.53,-17.11571,-36.25819,3
1561914481.403105,73,0,0,1561914481.000173,4.634731994014825,-74.15108324966779,2552.833,0.37,35.15625,4,30,-9999,1561914481.385075,-19.40997314453125,21.62904739379883,0.7735595703125,358.1139526367188,5.60742712020874,15,197196.5588880417,-1.437652587890625,-0.288726806640625,-0.192474365234375,197196.5416760417,0.51352377087842,-2.696197603401671,-4.332710625887581,197196.5340770417,-96.24375915527344,-8.799819946289062,-562.3367919921875,197196.5416760417,1.126541363341478,-1.535511280046797,0.3315527305578124,0.5107764601707458,-2.702868223190308,-4.335943222045898,-0.5913358926773071,0.1146503686904907,-0.1101677417755127,1,-0.466143399477005,0.5157830119132996,-0.2819949686527252,-0.6611785292625427,-0.9449495077133179,-0.3255115747451782,-0.0333564318716526,0,0,0,-1,197188.7936217917,3,2,1561914473.631158,1561913957.287787,32,0.8918345,0,0,26.32609,0,0,1561914413.669193,197193.387753,0,1.400391,75.29195,3232235528,177845136,1,1,0.53,-17.11571,-36.25819,3
1561914481.423204,74,0,0,1561914481.000173,4.634731994014825,-74.15108324966779,2552.833,0.37,35.15625,4,30,-9999,1561914481.409878,-22.57543182373047,17.86355972290039,2.55474853515625,357.1582641601562,4.651741981506348,15,197196.5791510417,-1.365570068359375,-0.405792236328125,-0.1990966796875,197196.5619390417,0.6860292315399757,-3.251139920817439,-4.511920061961193,197196.5541880417,-97.98622131347656,-10.93162536621094,-561.396484375,197196.5619390417,1.139621287472557,-1.601441312755898,0.4210484934916709,0.6832819581031799,-3.257810592651367,-4.515152454376221,-0.5254201889038086,0.1199907660484314,-0.2204384803771973,1,-0.5012129545211792,0.5126086473464966,-0.2409719377756119,-0.6541792154312134,-0.9122323393821716,-0.4087176024913788,0.02796410210430622,0,0,0,-1,197188.7936217917,3,2,1561914473.631158,1561913957.287787,32,0.8918345,0,0,26.32609,0,0,1561914413.669193,197193.387753,0,1.400391,75.29195,3232235528,177845136,1,1,0.53,-17.11571,-36.92854,3
1561914481.443464,75,0,0,1561914481.000173,4.634731994014825,-74.15108324966779,2552.833,0.37,35.15625,4,30,-9999,1561914481.436359,-24.14396667480469,15.83834838867188,3.883056640625,355.2169494628906,2.71040940284729,15,197196.5994150417,-1.271224975585938,-0.492645263671875,-0.205963134765625,197196.5822030417,0.7635133708236131,-3.474722946973952,-4.80395485024823,197196.5742990417,-99.75515747070312,-13.06434631347656,-559.9298706054688,197196.5822030417,1.163606179320581,-1.681153413960289,0.5139161221181763,0.7607660889625549,-3.481393575668335,-4.807187080383301,-0.5000413656234741,0.08579903841018677,-0.2950036525726318,1,-0.5376030802726746,0.5088579058647156,-0.196331262588501,-0.6430401206016541,-0.8655287027359009,-0.4915912747383118,0.09590688347816467,0,0,0,-1,197188.7936217917,3,2,1561914473.631158,1561913957.287787,32,0.8918345,0,0,26.32609,0,0,1561914413.669193,197193.387753,0,1.400391,75.29195,3232235528,177845136,1,1,0.53,-17.11571,-37.19051,3
1561914481.468246,76,0,0,1561914481.000173,4.634731994014825,-74.15108324966779,2552.833,0.37,35.15625,4,30,-9999,1561914481.460137,-25.48138427734375,13.23712730407715,5.11944580078125,352.3357543945312,359.8292236328125,15,197196.6196790417,-1.169662475585938,-0.5366973876953125,-0.2088775634765625,197196.6024670417,0.6092516288935363,-3.211516877487023,-5.147101026176068,197196.5944100417,-101.1135711669922,-15.25933837890625,-558.6454467773438,197196.6024670417,1.19840877145309,-1.767997924357779,0.6115890115271606,0.6065043210983276,-3.218187570571899,-5.150333404541016,-0.4683563709259033,0.08152389526367188,-0.3663749694824219,1,-0.5735170841217041,0.5012823939323425,-0.1487730145454407,-0.6306034922599792,-0.8028686046600342,-0.5741691589355469,0.1604117751121521,0,0,0,-1,197188.7936217917,3,2,1561914473.631158,1561913957.287787,32,0.8918345,0,0,26.32609,0,0,1561914413.669193,197193.387753,0,1.400391,75.29195,3232235528,177845136,1,1,0.53,-17.11571,-36.71493,3
1561914481.485022,77,0,0,1561914481.000173,4.634731994014825,-74.15108324966779,2552.833,0.37,35.15625,4,30,-9999,1561914481.460137,-25.48138427734375,13.23712730407715,5.11944580078125,352.3357543945312,359.8292236328125,15,197196.6399420417,-1.02655029296875,-0.5783233642578125,-0.22369384765625,197196.6227000417,0.4135055603471862,-2.886367811573722,-5.4614392559603,197196.6145210417,-101.5630493164062,-17.83763122558594,-557.5144653320312,197196.6227000417,1.243993443383278,-1.858259767483242,0.7133812772113981,0.4107582569122314,-2.893038511276245,-5.464671611785889,-0.4445368051528931,0.1176968812942505,-0.4232627153396606,1,-0.6072397828102112,0.4883159101009369,-0.09945280849933624,-0.618802547454834,-0.7251256704330444,-0.654394268989563,0.2143851667642593,0,0,0,-1,197188.7936217917,3,2,1561914473.631158,1561913957.287787,32,0.8918345,0,0,26.32609,0,0,1561914413.669193,197193.387753,0,1.400391,75.29195,3232235528,177845136,1,1,0.53,-17.11571,-37.242,3
1561914481.50481,78,0,0,1561914481.000173,4.634731994014825,-74.15108324966779,2552.833,0.37,35.15625,4,30,-9999,1561914481.487086,-26.11997985839844,10.52748107910156,6.5216064453125,348.294677734375,355.7881469726562,15,197196.6602060417,-0.8512725830078125,-0.59613037109375,-0.2127685546875,197196.6429640417,0.2254389831201886,-2.16158798827644,-5.717242802881246,197196.6346320417,-102.4767608642578,-21.1005859375,-555.9368896484375,197196.6429640417,1.303908463386162,-1.951887509842775,0.8184257311295029,0.222691684961319,-2.168258666992188,-5.720475196838379,-0.3922047019004822,0.1517475247383118,-0.4778624773025513,1,-0.6382700800895691,0.4687170088291168,-0.04998302832245827,-0.6086190938949585,-0.6343455910682678,-0.730070948600769,0.2541686594486237,0,0,0,-1,197188.7936217917,3,2,1561914473.631158,1561913957.287787,32,0.8918345,0,0,26.32609,0,0,1561914413.669193,197193.387753,0,1.400391,75.29195,3232235528,177845136,1,1,0.53,-17.11571,-37.242,3
1561914481.524576,79,0,0,1561914481.000173,4.634731994014825,-74.15108324966779,2552.833,0.37,35.15625,4,30,-9999,1561914481.510699,-27.33407592773438,4.199338912963867,8.5849609375,342.3347473144531,349.8282165527344,15,197196.6804700417,-0.718780517578125,-0.629058837890625,-0.1409454345703125,197196.6632270417,0.170230854774519,-1.261721035956878,-5.913033612533909,197196.6547430417,-102.9931640625,-24.53427124023438,-555.242919921875,197196.6632270417,1.386126853426616,-2.049706659415362,0.9243100638420173,0.1674835532903671,-1.268391609191895,-5.916265964508057,-0.3166570663452148,0.2020750045776367,-0.4903551340103149,1,-0.6668434739112854,0.440582662820816,-0.003780114464461803,-0.6009927988052368,-0.5346155166625977,-0.7982053160667419,0.2775866091251373,0,0,0,-1,197188.7936217917,3,2,1561914473.631158,1561913957.287787,32,0.8918345,0,0,26.32609,0,0,1561914413.669193,197193.387753,0,1.400391,75.29195,3232235528,177845136,1,1,0.53,-17.11571,-33.7572,3
1561914481.549393,80,0,0,1561914481.000173,4.634731994014825,-74.15108324966779,2552.833,0.37,35.15625,4,30,-9999,1561914481.537059,-27.58849334716797,0.8263282775878906,9.15283203125,333.1615600585938,340.655029296875,15,197196.7007330417,-0.6022796630859375,-0.6587066650390625,-0.0623321533203125,197196.6834910417,0.166468607102564,-0.4275835625015631,-6.04439350066985,197196.6748240417,-103.3955841064453,-27.43467712402344,-554.4371337890625,197196.6834910417,1.501522808207967,-2.162293845409633,1.026888234572515,0.1637213081121445,-0.4342541396617889,-6.04762601852417,-0.2892134487628937,0.2266340255737305,-0.4294971227645874,1,-0.6933160424232483,0.404460996389389,0.0374596081674099,-0.5952486991882324,-0.4295670688152313,-0.8556928634643555,0.2885516583919525,0,0,0,-1,197188.7936217917,3,2,1561914473.631158,1561913957.287787,32,0.8918345,0,0,26.32609,0,0,1561914413.669193,197193.387753,0,1.400391,75.29195,3232235528,177845136,1,1,0.53,-17.11571,-20.84757,3
1561914481.567071,81,0,0,1561914481.000173,4.634731994014825,-74.15108324966779,2552.833,0.37,35.15625,4,30,-9999,1561914481.561428,-27.4039306640625,-2.614959716796875,9.27337646484375,96.06856536865234,103.5620346069336,15,197196.7209970417,-0.4462738037109375,-0.6652679443359375,-0.010040283203125,197196.7037550417,0.2096211378256629,0.2578397998904196,-6.297803931035249,197196.6949350417,-103.3626708984375,-30.8868408203125,-554.4411010742188,197196.7037550417,1.670592195434994,-2.313132017528848,1.122647033252801,0.2068738341331482,0.2511692047119141,-6.301036357879639,-0.2829858064651489,0.2425438761711121,-0.3552464246749878,1,-0.7183757424354553,0.3611003458499908,0.07430417835712433,-0.5899336338043213,-0.3192938268184662,-0.9012505412101746,0.2929143309593201,0,0,0,-1,197188.7936217917,3,2,1561914473.631158,1561913957.287787,32,0.8918345,0,0,26.32609,0,0,1561914413.669193,197193.387753,0,1.400391,75.29195,3232235528,177845136,1,1,0.53,-17.11571,-21.11716,3
1561914481.585596,82,0,0,1561914481.000173,4.634731994014825,-74.15108324966779,2552.833,0.37,35.15625,4,30,-9999,1561914481.561428,-27.4039306640625,-2.614959716796875,9.27337646484375,96.06856536865234,103.5620346069336,15,197196.7412300417,-0.31390380859375,-0.629852294921875,0.0322418212890625,197196.7240180417,0.01762959378410654,0.9367402818244712,-6.630265504669689,197196.7150460417,-102.9363555908203,-34.49591064453125,-554.6121826171875,197196.7240180417,1.926071957503262,-2.535575402253757,1.207435258401194,0.01488230098038912,0.9300696849822998,-6.633497714996338,-0.2438284158706665,0.2694395780563354,-0.3021663427352905,1,-0.741758406162262,0.3096086084842682,0.1077510342001915,-0.5850868821144104,-0.2024454027414322,-0.9347075223922729,0.2921260595321655,0,0,0,-1,197188.7936217917,3,2,1561914473.631158,1561913957.287787,32,0.8918345,0,0,26.32609,0,0,1561914413.669193,197193.387753,0,1.400391,75.29195,3232235528,177845136,1,1,0.53,-17.11571,-22.12272,3
1561914481.605598,83,0,0,1561914481.000173,4.634731994014825,-74.15108324966779,2552.833,0.37,35.15625,4,30,-9999,1561914481.586644,-27.03225708007812,-6.132007598876953,8.729736328125,94.56774139404297,102.0612106323242,15,197196.7614940417,-0.0909423828125,-0.5603179931640625,0.0433502197265625,197196.7442820417,-0.06098345948561547,1.187497138479716,-6.594520556518646,197196.7351570417,-102.2394866943359,-37.87358093261719,-555.1046142578125,197196.7442820417,2.298560755351622,-2.86615836385717,1.266729412706208,-0.06373075395822525,1.180826544761658,-6.597753047943115,-0.2324767112731934,0.3242744207382202,-0.255875825881958,1,-0.7617678046226501,0.2525244951248169,0.1388940215110779,-0.5802151560783386,-0.08142708986997604,-0.9541267156600952,0.2881176173686981,0,0,0,-1,197188.7936217917,3,2,1561914473.631158,1561913957.287787,32,0.8918345,0,0,26.32609,0,0,1561914413.669193,197194.333387,0,1.521973,75.2908,3232235528,177845136,1,1,0.53,-17.67299,-23.12551,3
1561914481.634599,84,0,0,1561914481.000173,4.634731994014825,-74.15108324966779,2552.833,0.37,35.15625,4,30,-9999,1561914481.612505,-24.64317321777344,-12.84613800048828,7.47454833984375,92.66391754150391,100.1573867797852,15,197196.7817570417,0.102691650390625,-0.50714111328125,0.07049560546875,197196.7645460417,0.002079396179133869,1.33030515719358,-6.238846870823076,197196.7552680417,-100.9734497070312,-41.31373596191406,-555.8062744140625,197196.7645460417,2.744771766458126,3.015362070680421,1.27739706114684,-0.0006678965874016285,1.323634505271912,-6.242079257965088,-0.1273523569107056,0.3969483375549316,-0.2435563802719116,1,-0.7781419157981873,0.1948035508394241,0.1669204384088516,-0.5733098983764648,0.03640997037291527,-0.9572663307189941,0.2869065403938293,0,0,0,-1,197188.7936217917,3,2,1561914473.631158,1561913957.287787,32,0.8918345,0,0,26.32609,0,0,1561914413.669193,197194.333387,0,1.521973,75.2908,3232235528,177845136,1,1,0.53,-18.23026,-24.07634,3
1561914481.646063,85,0,0,1561914481.000173,4.634731994014825,-74.15108324966779,2552.833,0.37,35.15625,4,30,-9999,1561914481.637987,-23.07849884033203,-15.67413330078125,6.983154296875,90.43499755859375,97.928466796875,15,197196.8020210417,0.317047119140625,-0.47601318359375,0.118255615234375,197196.7848090417,0.1271419736014729,1.565843113483458,-5.610677477126161,197196.7753790417,-99.36260986328125,-44.54450988769531,-556.3153686523438,197196.7848090417,3.120918174752127,2.686115961691594,1.241240067723467,0.1243946775794029,1.559172511100769,-5.613909721374512,-0.03966706991195679,0.4390449523925781,-0.2201346158981323,1,-0.791113018989563,0.1394822597503662,0.1895182728767395,-0.5645951628684998,0.1423587203025818,-0.9461860656738281,0.2906302213668823,0,0,0,-1,197188.7936217917,3,2,1561914473.631158,1561913957.287787,32,0.8918345,0,0,26.32609,0,0,1561914413.669193,197194.333387,0,1.521973,75.2908,3232235528,177845136,1,1,0.53,-18.23026,-24.07634,3
1561914481.667139,86,0,0,1561914481.000173,4.634731994014825,-74.15108324966779,2552.833,0.37,35.15625,4,30,-9999,1561914481.662642,-21.07615661621094,-18.23386383056641,6.18560791015625,88.36500549316406,95.85847473144531,15,197196.8222850417,0.4603118896484375,-0.41595458984375,0.2070159912109375,197196.8050730417,0.3725663828060521,1.516635886022064,-5.298384555059109,197196.7954900417,-97.40432739257812,-46.80618286132812,-556.9889526367188,197196.8050730417,-2.905595687439611,2.477359981051471,1.178167460700761,0.3698190748691559,1.509965300559998,-5.30161714553833,0.08117994666099548,0.4478932023048401,-0.1830145120620728,1,-0.8018751740455627,0.08735693246126175,0.2073709964752197,-0.5534999966621399,0.2358671873807907,-0.9239063858985901,0.301270067691803,0,0,0,-1,197188.7936217917,3,2,1561914473.631158,1561913957.287787,32,0.8918345,0,0,26.32609,0,0,1561914413.669193,197194.333387,0,1.521973,75.2908,3232235528,177845136,1,1,0.53,-18.78754,-24.96982,3
1561914481.687271,87,0,0,1561914481.000173,4.634731994014825,-74.15108324966779,2552.833,0.37,35.15625,4,30,-9999,1561914481.662642,-21.07615661621094,-18.23386383056641,6.18560791015625,88.36500549316406,95.85847473144531,15,197196.8425480417,0.5653839111328125,-0.362396240234375,0.3279876708984375,197196.8253060417,0.4604680093257525,1.311037186706857,-5.129667441048191,197196.8156010417,-95.57695007324219,-49.06968688964844,-557.5950317382812,197196.8253060417,-2.730825437930192,2.34699562026893,1.10091194036193,0.4577206969261169,1.304366588592529,-5.132899761199951,0.1372143626213074,0.4756660461425781,-0.1101913452148438,1,-0.8106603622436523,0.03786052763462067,0.2244746088981628,-0.5394510626792908,0.3230975270271301,-0.8916206359863281,0.3172072768211365,0,0,0,-1,197188.7936217917,3,2,1561914473.631158,1561913957.287787,32,0.8918345,0,0,26.32609,0,0,1561914413.669193,197194.333387,0,1.521973,75.2908,3232235528,177845136,1,1,0.53,-19.34482,-25.81439,3
1561914481.711006,88,0,0,1561914481.000173,4.634731994014825,-74.15108324966779,2552.833,0.37,35.15625,4,30,-9999,1561914481.690589,-19.13864898681641,-20.31261444091797,6.08099365234375,86.78623199462891,94.27970123291016,15,197196.8628120417,0.5756072998046875,-0.2282562255859375,0.49127197265625,197196.8455700417,0.4624861527998145,1.310170327772036,-4.978636379836489,197196.8357130417,-93.70587158203125,-51.07553100585938,-557.7252807617188,197196.8455700417,-2.604574220227707,2.262379770257182,1.018609715860557,0.4597388505935669,1.303499698638916,-4.981868743896484,0.1613558828830719,0.4889833331108093,-0.006548166275024414,1,-0.8168090581893921,-0.009534633718430996,0.2412045896053314,-0.523977518081665,0.404028058052063,-0.8513795733451843,0.3345358967781067,0,0,0,-1,197188.7936217917,3,2,1561914473.631158,1561913957.287787,32,0.8918345,0,0,26.32609,0,0,1561914413.669193,197194.333387,0,1.521973,75.2908,3232235528,177845136,1,1,0.53,-19.9021,-26.37129,3
1561914481.727143,89,0,0,1561914481.000173,4.634731994014825,-74.15108324966779,2552.833,0.37,35.15625,4,30,-9999,1561914481.713453,-14.70755767822266,-23.84751129150391,5.3153076171875,84.62090301513672,92.11437225341797,15,197196.8830760417,0.613677978515625,-0.035125732421875,0.6390533447265625,197196.8658330417,0.3875650397492694,2.41751084481422,-4.934897154725246,197196.8558240417,-91.10528564453125,-52.7261962890625,-558.06494140625,197196.8658330417,-2.506219592175178,2.216604687009538,0.9343228782872038,0.3848177492618561,2.410840034484863,-4.938129425048828,0.1009406745433807,0.5759406089782715,0.133557915687561,1,-0.8218331336975098,-0.058714359998703,0.2525412738323212,-0.5073124766349792,0.4746666252613068,-0.804196834564209,0.3577141463756561,0,0,0,-1,197188.7936217917,3,2,1561914473.631158,1561913957.287787,32,0.8918345,0,0,26.32609,0,0,1561914413.669193,197194.333387,0,1.521973,75.2908,3232235528,177845136,1,1,0.53,-20.45938,-27.29011,3
1561914481.747383,90,0,0,1561914481.000173,4.634731994014825,-74.15108324966779,2552.833,0.37,35.15625,4,30,-9999,1561914481.738064,-12.89071655273438,-25.05868148803711,4.57379150390625,79.94814300537109,87.44161224365234,15,197196.9033390417,0.8313751220703125,-0.2229766845703125,0.6450347900390625,197196.8860970417,-0.5020420844707615,3.688861604956716,-3.082432926818664,197196.8759350417,-88.90438842773438,-54.27024841308594,-558.6432495117188,197196.8860970417,-2.425149473348522,2.217480376374191,0.8654826764856954,-0.5047893524169922,3.682190895080566,-3.085665464401245,0.09630048274993896,0.7262824773788452,0.2484409809112549,1,-0.8265849947929382,-0.1098336279392242,0.247393324971199,-0.4934474229812622,0.5173774361610413,-0.761408269405365,0.3906123638153076,0,0,0,-1,197188.7936217917,3,2,1561914473.631158,1561913957.287787,32,0.8918345,0,0,26.32609,0,0,1561914413.669193,197194.333387,0,1.521973,75.2908,3232235528,177845136,1,1,0.53,-21.01666,-28.12848,3
1561914481.767759,91,0,0,1561914481.000173,4.634731994014825,-74.15108324966779,2552.833,0.37,35.15625,4,30,-9999,1561914481.763989,-11.82875061035156,-25.72449493408203,3.3475341796875,75.57169342041016,83.06516265869141,15,197196.9235730417,0.7987060546875,-0.1492156982421875,0.6963348388671875,197196.9063610417,-1.655799635100264,2.321692971954259,-1.342775941630094,197196.8960460417,-87.81507873535156,-54.90962219238281,-559.9146118164062,197196.9063610417,-2.357442661364986,2.230895778558723,0.8461522190110395,-1.658546924591064,2.315022230148315,-1.34600841999054,0.3077539801597595,0.525758683681488,0.2385663986206055,1,-0.8257728815078735,-0.1460593640804291,0.2296762019395828,-0.4939785003662109,0.523621141910553,-0.7487353682518005,0.406468391418457,0,0,0,-1,197188.7936217917,3,2,1561914473.631158,1561913957.287787,32,0.8918345,0,0,26.32609,0,0,1561914413.669193,197194.333387,0,1.521973,75.2908,3232235528,177845136,1,1,0.53,-21.57394,-29.07354,3
1561914481.79254,92,0,0,1561914481.000173,4.634731994014825,-74.15108324966779,2552.833,0.37,35.15625,4,30,-9999,1561914481.788741,-11.06888580322266,-26.0738639831543,2.32708740234375,73.69682312011719,81.19029235839844,15,197196.9438360417,0.67767333984375,-0.118255615234375,0.5950775146484375,197196.9266240417,-1.957482257068331,0.3229381095763165,-0.8043084713497739,197196.9161260417,-87.21382141113281,-55.26054382324219,-561.1614990234375,197196.9266240417,-2.293755431732518,2.208871876491188,0.8527480799525757,-1.960229516029358,0.3162675201892853,-0.8075409531593323,0.270238995552063,0.6038755774497986,0.3044464588165283,1,-0.8177489042282104,-0.1650178730487823,0.2211957722902298,-0.5051023364067078,0.5284669995307922,-0.7530912756919861,0.3918883502483368,0,0,0,-1,197188.7936217917,3,2,1561914473.631158,1561913957.287787,32,0.8918345,0,0,26.32609,0,0,1561914413.669193,197194.333387,0,1.521973,75.2908,3232235528,177845136,1,1,0.53,-22.13122,-29.89595,3
1561914481.808158,93,0,0,1561914481.000173,4.634731994014825,-74.15108324966779,2552.833,0.37,35.15625,4,30,-9999,1561914481.788741,-11.06888580322266,-26.0738639831543,2.32708740234375,73.69682312011719,81.19029235839844,15,197196.9641000417,0.677734375,-0.1767120361328125,0.564178466796875,197196.9468880417,-1.78879816625493,-0.3300703212916578,-0.7275969150983685,197196.9362370417,-86.61244201660156,-55.84613037109375,-562.2523803710938,197196.9468880417,-2.231770377466397,2.159571422366382,0.8623718365415036,-1.791545391082764,-0.3367409110069275,-0.7308294177055359,0.1365888714790344,0.6411322951316833,0.2337504625320435,1,-0.8062541484832764,-0.1749793291091919,0.22285196185112,-0.5193008184432983,0.5410844683647156,-0.7593879103660583,0.3613270223140717,0,0,0,-1,197188.7936217917,3,2,1561914473.631158,1561913957.287787,32,0.8918345,0,0,26.32609,0,0,1561914413.669193,197194.333387,0,1.521973,75.2908,3232235528,177845136,1,1,0.53,-22.13122,-29.89595,3
1561914481.828417,94,0,0,1561914481.000173,4.634731994014825,-74.15108324966779,2552.833,0.37,35.15625,4,30,-9999,1561914481.815298,-10.19805145263672,-26.69371032714844,0.4716796875,72.4801025390625,79.97357177734375,15,197196.9843640417,0.63494873046875,-0.168792724609375,0.56207275390625,197196.9671520417,-1.651857624054728,-0.1494731119740053,-0.3432255381283221,197196.9563490417,-85.97909545898438,-55.96676635742188,-562.62451171875,197196.9671520417,-2.177550791573115,2.113135951980225,0.8706849386623196,-1.654604911804199,-0.1561437100172043,-0.3464580178260803,0.1258864998817444,0.5880583524703979,0.2316269874572754,1,-0.7956678867340088,-0.1821766793727875,0.2249551266431808,-0.5320898294448853,0.5518478751182556,-0.7647704482078552,0.3325514495372772,0,0,0,-1,197188.7936217917,3,2,1561914473.631158,1561913957.287787,32,0.8918345,0,0,26.32609,0,0,1561914413.669193,197194.333387,0,1.521973,75.2908,3232235528,177845136,1,1,0.53,-22.6885,-30.34268,3
1561914481.850782,95,0,0,1561914481.000173,4.634731994014825,-74.15108324966779,2552.833,0.37,35.15625,4,30,-9999,1561914481.838877,-10.00642395019531,-26.68454742431641,-0.19464111328125,70.90313720703125,78.3966064453125,15,197197.0046270417,0.6291656494140625,-0.177642822265625,0.5305023193359375,197196.9874150417,-2.033726428548428,-0.08258382645503015,0.319558824469115,197196.9764600417,-85.78216552734375,-56.09748840332031,-563.5900268554688,197196.9874150417,-2.127201829742148,2.072148368156524,0.888741653065371,-2.036473751068115,-0.08925442397594452,0.3163263499736786,0.08213907480239868,0.607486367225647,0.2591003179550171,1,-0.7854607701301575,-0.1858430206775665,0.2225252240896225,-0.5468055605888367,0.5528096556663513,-0.776279091835022,0.3029724955558777,0,0,0,-1,197188.7936217917,3,2,1561914473.631158,1561913957.287787,32,0.8918345,0,0,26.32609,0,0,1561914413.669193,197194.333387,0,1.521973,75.2908,3232235528,177845136,1,1,0.53,-23.24577,-31.09134,3
1561914481.871014,96,0,0,1561914481.000173,4.634731994014825,-74.15108324966779,2552.833,0.37,35.15625,4,30,-9999,1561914481.865514,-10.17851257324219,-26.66518783569336,-1.342041015625,69.59217834472656,77.08564758300781,15,197197.0248910417,0.6244964599609375,-0.1835174560546875,0.4390869140625,197197.0076490417,-2.385435200013088,-0.5112084186267052,0.7027911674409345,197196.9965710417,-85.87925720214844,-56.19535827636719,-564.781494140625,197197.0076490417,-2.070313926280562,2.022362374743178,0.9193822034300324,-2.388182401657104,-0.5178790092468262,0.6995586752891541,0.08362805843353271,0.6175844073295593,0.2659231424331665,1,-0.7733238935470581,-0.1850938647985458,0.2172149866819382,-0.5661518573760986,0.545537531375885,-0.7952271699905396,0.264579176902771,0,0,0,-1,197188.7936217917,3,2,1561914473.631158,1561913957.287787,32,0.8918345,0,0,26.32609,0,0,1561914413.669193,197194.333387,0,1.521973,75.2908,3232235528,177845136,1,1,0.53,-23.80305,-27.16825,3
1561914481.889343,97,0,0,1561914481.000173,4.634731994014825,-74.15108324966779,2552.833,0.37,35.15625,4,30,-9999,1561914481.865514,-10.17851257324219,-26.66518783569336,-1.342041015625,69.59217834472656,77.08564758300781,15,197197.0451550417,0.597076416015625,-0.163818359375,0.3153228759765625,197197.0279120417,-2.497413666999868,-1.264873153423096,0.7990258250114928,197197.0166820417,-86.31591796875,-56.23887634277344,-566.0274658203125,197197.0279120417,-2.004498282486669,1.950758506702041,0.9532976837029483,-2.500160932540894,-1.271543741226196,0.795793354511261,0.08679401874542236,0.6318118572235107,0.224345326423645,1,-0.7584507465362549,-0.179229661822319,0.2154282182455063,-0.5884044170379639,0.5377024412155151,-0.8153293132781982,0.2147416174411774,0,0,0,-1,197188.7936217917,3,2,1561914473.631158,1561913957.287787,32,0.8918345,0,0,26.32609,0,0,1561914413.669193,197194.333387,0,1.521973,75.2908,3232235528,177845136,1,1,0.53,-24.36033,-27.90557,3
1561914481.909494,98,0,0,1561914481.000173,4.634731994014825,-74.15108324966779,2552.833,0.37,35.15625,4,30,-9999,1561914481.889537,-10.58999633789062,-26.81116485595703,-2.57843017578125,69.06324005126953,76.55670928955078,15,197197.0654180417,0.5797271728515625,-0.1376495361328125,0.2474822998046875,197197.0481760417,-2.874130586364808,-1.215154599032407,1.127150440810739,197197.0367930417,-86.83012390136719,-55.92762756347656,-566.9862060546875,197197.0481760417,-1.924220242468501,1.8579757704507,0.9888123092937421,-2.876877784729004,-1.221825242042542,1.123917937278748,0.06990551948547363,0.6715553998947144,0.1596262454986572,1,-0.7408827543258667,-0.1701206117868423,0.2149850726127625,-0.6131337881088257,0.5271708369255066,-0.8353736996650696,0.1556965559720993,0,0,0,-1,197188.7936217917,3,2,1561914473.631158,1561913957.287787,32,0.8918345,0,0,26.32609,0,0,1561914413.669193,197194.333387,0,1.521973,75.2908,3232235528,177845136,1,1,0.53,-24.91761,-28.39616,3
1561914481.92985,99,0,0,1561914481.000173,4.634731994014825,-74.15108324966779,2552.833,0.37,35.15625,4,30,-9999,1561914481.91859,-12.02197265625,-25.91584777832031,-4.90399169921875,68.14246368408203,75.63593292236328,15,197197.0856820417,0.5725250244140625,-0.127685546875,0.2014312744140625,197197.0684400417,-2.877972462553357,-0.8882931205381858,1.923786611376103,197197.0569040417,-87.39561462402344,-55.47354125976562,-568.0933227539062,197197.0684400417,-1.828982138441758,1.75625096602474,1.032159726594379,-2.880719661712646,-0.8949636816978455,1.920554161071777,0.07555735111236572,0.7207593321800232,0.1528948545455933,1,-0.7225592136383057,-0.1587512046098709,0.2083151042461395,-0.6397741436958313,0.5041698217391968,-0.8584088683128357,0.0945875272154808,0,0,0,-1,197188.7936217917,3,2,1561914473.631158,1561913957.287787,32,0.8918345,0,0,26.32609,0,0,1561914413.669193,197194.333387,0,1.521973,75.2908,3232235528,177845136,1,1,0.53,-25.47489,-28.88582,3
1561914481.951526,100,0,0,1561914481.000173,4.634731994014825,-74.15108324966779,2552.833,0.37,35.15625,4,30,-9999,1561914481.940178,-13.40949249267578,-25.50841903686523,-5.85693359375,67.83161163330078,75.32508087158203,15,197197.1059150417,0.5150146484375,-0.051025390625,0.1665496826171875,197197.0887030417,-2.580233715843588,-1.283064407881101,2.67390108612331,197197.0770150417,-88.82200622558594,-54.976318359375,-569.0362548828125,197197.0887030417,-1.729224815886766,1.648405008265566,1.086331276964238,-2.582981109619141,-1.289734959602356,2.670668601989746,0.108191967010498,0.7572386860847473,0.1653225421905518,1,-0.7058734893798828,-0.1407018750905991,0.1961665600538254,-0.6659311056137085,0.4643330574035645,-0.8849242329597473,0.03610880300402641,0,0,0,-1,197188.7936217917,3,2,1561914473.631158,1561913957.287787,32,0.8918345,0,0,26.32609,0,0,1561914413.669193,197194.333387,0,1.521973,75.2908,3232235528,177845136,1,1,0.53,-26.03217,-29.50288,3
1561914481.970247,101,0,0,1561914481.000173,4.634731994014825,-74.15108324966779,2552.833,0.37,35.15625,4,30,-9999,1561914481.96676,-15.18830871582031,-24.50815200805664,-6.59320068359375,69.72068786621094,77.21415710449219,15,197197.1261790417,0.425689697265625,0.003692626953125,0.1132049560546875,197197.1089670417,-2.194596005775209,-2.382826633725355,3.016316756964139,197197.0971260417,-90.27507019042969,-54.22819519042969,-570.1150512695312,197197.1089670417,-1.620202811983565,1.513903323301857,1.144850341494205,-2.197343349456787,-2.38949728012085,3.013084173202515,0.1025006175041199,0.8596228361129761,0.1900441646575928,1,-0.6895955801010132,-0.1127416417002678,0.1861739307641983,-0.6907145380973816,0.4125140309333801,-0.9106482863426208,-0.02349451556801796,0,0,0,-1,197188.7936217917,3,2,1561914473.631158,1561913957.287787,32,0.8918345,0,0,26.32609,0,0,1561914413.669193,197194.333387,0,1.521973,75.2908,3232235528,177845136,1,1,0.53,-26.03217,-29.50288,3
1561914481.990513,102,0,0,1561914481.000173,4.634731994014825,-74.15108324966779,2552.833,0.37,35.15625,4,30,-9999,1561914481.96676,-15.18830871582031,-24.50815200805664,-6.59320068359375,69.72068786621094,77.21415710449219,15,197197.1464430417,0.270050048828125,0.065765380859375,0.0719757080078125,197197.1292310417,-1.723663903894317,-3.388551309898367,3.587665478275341,197197.1172370417,-92.24946594238281,-53.07728576660156,-570.3975830078125,197197.1292310417,-1.493550838972657,1.337611296323226,1.204705375690388,-1.72641122341156,-3.395221948623657,3.584433078765869,0.07740962505340576,0.9374264478683472,0.195923388004303,1,-0.673283576965332,-0.07300687581300735,0.18132084608078,-0.7130792737007141,0.3482800722122192,-0.9337338209152222,-0.08271843940019608,0,0,0,-1,197188.7936217917,3,2,1561914473.631158,1561913957.287787,32,0.8918345,0,0,26.32609,0,0,1561914413.669193,197194.333387,0,1.521973,75.2908,3232235528,177845136,1,1,0.53,-26.58945,-30.00758,3
1561914482.010652,103,0,0,1561914481.000173,4.634731994014825,-74.15108324966779,2552.833,0.37,35.15625,4,30,-9999,1561914481.990887,-17.31013488769531,-23.12343978881836,-6.5087890625,73.87614440917969,81.36961364746094,15,197197.1667060417,0.010986328125,0.1660919189453125,0.028717041015625,197197.1494940417,-1.172366921378649,-4.127219251964304,4.597377705548528,197197.1574290417,-97.76318359375,-49.77861022949219,-568.561279296875,197197.1494940417,-1.319764157771749,1.097567583832302,1.272028011890908,-1.175114154815674,-4.133889675140381,4.59414529800415,0.008054614067077637,1.021465063095093,0.2061263918876648,1,-0.6576384305953979,-0.02088909782469273,0.1759365648031235,-0.7322033047676086,0.2619954347610474,-0.9556997418403625,-0.1341506838798523,0,0,0,-1,197188.7936217917,3,2,1561914473.631158,1561913957.287787,32,0.8918345,0,0,26.32609,0,0,1561914413.669193,197194.333387,0,1.521973,75.2908,3232235528,177845136,1,1,0.53,-27.14673,-30.29089,3
1561914482.034374,104,0,0,1561914481.000173,4.634731994014825,-74.15108324966779,2552.833,0.37,35.15625,4,30,-9999,1561914482.02155,-22.84916687011719,-19.45622253417969,-4.346435546875,80.68400573730469,88.17747497558594,15,197197.1869700417,-0.3267669677734375,0.1032867431640625,0.0258636474609375,197197.1697580417,-0.1283015139400934,-5.657030328531208,5.564453522717874,197197.1775400417,-100.3712921142578,-46.9954833984375,-566.0206909179688,197197.1697580417,-1.03074457611687,0.7201922101774474,1.345637662301504,-0.1310488134622574,-5.663700580596924,5.561221122741699,-0.1362611651420593,1.14085054397583,0.1965380311012268,1,-0.6432862877845764,0.04766808450222015,0.1696596294641495,-0.7450679540634155,0.1472475081682205,-0.9747586846351624,-0.167821004986763,0,0,0,-1,197188.7936217917,3,2,1561914473.631158,1561913957.287787,32,0.8918345,0,0,26.32609,0,0,1561914413.669193,197194.333387,0,1.521973,75.2908,3232235528,177845136,1,1,0.53,-27.70401,-30.48522,3
1561914482.051345,105,0,0,1561914482.00017,4.634724701759065,-74.15106573149016,2552.868,0.86,98.0859375,4,30,-9999,1561914482.02155,-22.84916687011719,-19.45622253417969,-4.346435546875,80.68400573730469,88.17747497558594,15,197197.2072340417,-0.7453155517578125,-0.1350250244140625,-0.0048828125,197197.1899910417,1.360725913693337,-6.907694984906514,6.299210080090811,197197.1976510417,-102.4361877441406,-43.28739929199219,-562.0506591796875,197197.1899910417,-0.4731798528284671,0.04394260689751069,1.404150003604339,1.357978582382202,-6.914365291595459,6.295977592468262,-0.334053635597229,1.089433312416077,0.1915794014930725,1,-0.6315932869911194,0.1350261121988297,0.1651208847761154,-0.7453810572624207,0.00728667201474309,-0.9861466288566589,-0.1657157391309738,0,0,0,-1,197188.7936217917,3,2,1561914473.631158,1561913957.287787,32,0.8918345,0,0,26.32609,0,0,1561914413.669193,197194.333387,0,1.521973,75.2908,3232235528,177845136,1,1,0.53,-27.81285,-30.62787,3
1561914482.071555,106,0,0,1561914482.00017,4.634724701759065,-74.15106573149016,2552.868,0.86,98.0859375,4,30,-9999,1561914482.068725,-27.10855102539062,-12.93520355224609,2.91455078125,98.90634155273438,106.3998107910156,15,197197.2274970417,-1.063583374023438,-0.35064697265625,-0.0420684814453125,197197.2102550417,2.041892213082829,-6.308199846666483,6.120113562047418,197197.2177620417,-103.5397491455078,-39.70625305175781,-558.007080078125,197197.2102550417,0.2997226718008422,-0.8560019484358875,1.38602780566016,2.039144992828369,-6.314870357513428,6.116880893707275,-0.6065657138824463,0.8479537963867188,0.1155381202697754,1,-0.6223906874656677,0.2289527803659439,0.1576880812644958,-0.7316727042198181,-0.1387498080730438,-0.9829788208007812,-0.1204209104180336,0,0,0,-1,197188.7936217917,3,2,1561914473.631158,1561913957.287787,32,0.8918345,0,0,26.32609,0,0,1561914413.669193,197194.333387,0,1.521973,75.2908,3232235528,177845136,1,1,0.53,-26.22543,-31.0697,3
1561914482.092295,107,0,0,1561914482.00017,4.634724701759065,-74.15106573149016,2552.868,0.86,98.0859375,4,30,-9999,1561914482.068725,-27.10855102539062,-12.93520355224609,2.91455078125,98.90634155273438,106.3998107910156,15,197197.2477610417,-1.112350463867188,-0.677825927734375,-0.1603240966796875,197197.2305180417,0.9441401412293654,-3.730969910216395,5.470312908712445,197197.2378730417,-104.1449432373047,-36.84736633300781,-555.7589721679688,197197.2305180417,0.6695716405996304,-1.321307708805258,1.296773874189616,0.9413928389549255,-3.737640619277954,5.467080593109131,-0.8013558387756348,0.6120432019233704,0.02474641799926758,1,-0.6110644340515137,0.3052749931812286,0.1432162672281265,-0.7161679267883301,-0.2622275948524475,-0.9626901745796204,-0.06681486964225769,0,0,0,-1,197188.7936217917,3,2,1561914473.631158,1561913957.287787,32,0.8918345,0,0,26.32609,0,0,1561914413.669193,197194.333387,0,1.521973,75.2908,3232235528,177845136,1,1,0.53,-26.22543,-31.57001,3
1561914482.113132,108,0,0,1561914482.00017,4.634724701759065,-74.15106573149016,2552.868,0.86,98.0859375,4,30,-9999,1561914482.092856,-28.43437194824219,-6.328514099121094,8.00799560546875,103.0316848754883,110.5251541137695,15,197197.2680250417,-0.9679718017578125,-0.82208251953125,-0.3637542724609375,197197.2507820417,-2.577058428875886,-0.938952037109782,5.346765669950361,197197.2579840417,-104.6608734130859,-34.0546875,-555.48583984375,197197.2507820417,0.6982536247579864,-1.394837564939031,1.187032217909799,-2.579805612564087,-0.9456226229667664,5.343533039093018,-0.7437183260917664,0.2494359016418457,-0.09478223323822021,1,-0.5849505662918091,0.3536409139633179,0.1201617941260338,-0.7199528217315674,-0.3686321377754211,-0.9272618889808655,-0.06554187834262848,0,0,0,-1,197188.7936217917,3,2,1561914473.631158,1561913957.287787,32,0.8918345,0,0,26.32609,0,0,1561914413.669193,197194.333387,0,1.521973,75.2908,3232235528,177845136,1,1,0.53,-26.22543,-32.10797,3
1561914482.133939,109,0,0,1561914482.00017,4.634724701759065,-74.15106573149016,2552.868,0.86,98.0859375,4,30,-9999,1561914482.120639,-28.84952545166016,-4.032489776611328,8.09130859375,105.7789993286133,113.2724685668945,15,197197.2882580417,-0.9873504638671875,-0.6618499755859375,-0.5454559326171875,197197.2710460417,-5.721330755154518,0.8380565813154761,4.887842294056854,197197.2780950417,-105.0153350830078,-32.20034790039062,-556.184814453125,197197.2710460417,0.5553274385275357,-1.266395525055285,1.064613822356825,-5.724077701568604,0.8313859701156616,4.884609699249268,-0.5054193735122681,0.05251926183700562,-0.218436598777771,1,-0.5332190990447998,0.3781779408454895,0.09841469675302505,-0.7503156065940857,-0.4625524282455444,-0.8746017813682556,-0.1453176736831665,0,0,0,-1,197188.7936217917,3,2,1561914473.631158,1561913957.287787,32,0.8918345,0,0,26.32609,0,0,1561914413.669193,197194.333387,0,1.521973,75.2908,3232235528,177845136,1,1,0.53,-26.22543,-32.78599,3
1561914482.152536,110,0,0,1561914482.00017,4.634724701759065,-74.15106573149016,2552.868,0.86,98.0859375,4,30,-9999,1561914482.142766,-29.21604919433594,-2.285938262939453,7.0458984375,108.4056777954102,115.8991470336914,15,197197.3085210417,-0.948089599609375,-0.5470428466796875,-0.6650848388671875,197197.2913090417,-5.142984844395241,1.396794435916825,3.746889488264562,197197.2982060417,-105.5675811767578,-30.45327758789062,-556.8955078125,197197.2913090417,0.4130639476914711,-1.121383909038891,0.9394620243977864,-5.145731925964355,1.390123844146729,3.743656873703003,-0.4557358622550964,0.1453906893730164,-0.2890419960021973,1,-0.4724316298961639,0.3854884803295135,0.08073099702596664,-0.7884727716445923,-0.5316146016120911,-0.8072406649589539,-0.2564139664173126,0,0,0,-1,197188.7936217917,3,2,1561914473.631158,1561913957.287787,32,0.8918345,0,0,26.32609,0,0,1561914413.669193,197194.333387,0,1.521973,75.2908,3232235528,177845136,1,1,0.53,-26.22543,-32.78599,3
1561914482.172827,111,0,0,1561914482.00017,4.634724701759065,-74.15106573149016,2552.868,0.86,98.0859375,4,30,-9999,1561914482.169533,-29.62330627441406,-0.666168212890625,6.8720703125,109.7636566162109,117.2571258544922,15,197197.3287850417,-0.836578369140625,-0.399932861328125,-0.5239715576171875,197197.3115730417,-0.9310709444959105,-0.3698544858680244,3.285257943858554,197197.3183180417,-105.1334838867188,-28.49320983886719,-556.6727294921875,197197.3115730417,0.371975434594496,-1.074685173773352,0.8485661692979661,-0.9338182210922241,-0.3765250742435455,3.282025337219238,-0.3667269945144653,0.2032904624938965,-0.3504143953323364,1,-0.4338114857673645,0.3930297195911407,0.06230802834033966,-0.8083643913269043,-0.5813626050949097,-0.750333309173584,-0.3146704733371735,0,0,0,-1,197188.7936217917,3,2,1561914473.631158,1561913957.287787,32,0.8918345,0,0,26.32609,0,0,1561914413.669193,197194.333387,0,1.521973,75.2908,3232235528,177845136,1,1,0.53,-26.22543,-33.39573,3
1561914482.193748,112,0,0,1561914482.00017,4.634724701759065,-74.15106573149016,2552.868,0.86,98.0859375,4,30,-9999,1561914482.169533,-29.62330627441406,-0.666168212890625,6.8720703125,109.7636566162109,117.2571258544922,15,197197.3490490417,-0.948028564453125,-0.508514404296875,-0.333465576171875,197197.3318370417,2.396514216463927,-2.705970871970044,3.789849738756957,197197.3384290417,-104.6623077392578,-25.84573364257812,-555.20751953125,197197.3318370417,0.4439344861308803,-1.160833898702337,0.7929884346759933,2.3937668800354,-2.712641477584839,3.786617279052734,-0.1930065751075745,0.3125206232070923,-0.24428391456604,1,-0.4263777136802673,0.4223247766494751,0.03676470741629601,-0.7990570068359375,-0.6435718536376953,-0.7124534845352173,-0.2796876430511475,0,0,0,-1,197188.7936217917,3,2,1561914473.631158,1561913957.287787,32,0.8918345,0,0,26.32609,0,0,1561914413.669193,197194.333387,0,1.521973,75.2908,3232235528,177845136,1,1,0.53,-26.22543,-34.21863,3
1561914482.213325,113,0,0,1561914482.00017,4.634724701759065,-74.15106573149016,2552.868,0.86,98.0859375,4,30,-9999,1561914482.195689,-28.45318603515625,4.519966125488281,8.84393310546875,109.962646484375,117.4561157226562,15,197197.3693120417,-1.175796508789062,-0.5475616455078125,-0.0356903076171875,197197.3521000417,2.980155823050825,-2.254562137724414,3.916711015179536,197197.3585400417,-103.7343902587891,-23.20433044433594,-554.22412109375,197197.3521000417,0.556625843245781,-1.293919785954194,0.7383728964461148,2.977408409118652,-2.261232852935791,3.91347861289978,-0.2366310954093933,0.1645710468292236,-0.1313037872314453,1,-0.4312968850135803,0.4614131450653076,0.004696402233093977,-0.7752797603607178,-0.7113974690437317,-0.6730854511260986,-0.2021618187427521,0,0,0,-1,197188.7936217917,3,2,1561914473.631158,1561913957.287787,32,0.8918345,0,0,26.32609,0,0,1561914413.669193,197194.333387,0,1.521973,75.2908,3232235528,177845136,1,1,0.53,-26.22543,-35.0135,3
1561914482.234437,114,0,0,1561914482.00017,4.634724701759065,-74.15106573149016,2552.868,0.86,98.0859375,4,30,-9999,1561914482.220769,-27.64262390136719,7.335397720336914,9.4393310546875,108.5442581176758,116.037727355957,15,197197.3895760417,-1.24896240234375,-0.4737701416015625,0.156463623046875,197197.3723340417,2.040206964745026,-0.6093235342429685,3.954155859054377,197197.3786200417,-103.0681610107422,-20.52084350585938,-554.1200561523438,197197.3723340417,0.645588290093158,-1.379871164028742,0.6729390487441894,2.0374596118927,-0.6159940958023071,3.950923442840576,-0.4080129861831665,0.07572531700134277,0.1127064228057861,1,-0.4320772886276245,0.4889896214008331,-0.03165905922651291,-0.757097065448761,-0.767783522605896,-0.6232869625091553,-0.1483967304229736,0,0,0,-1,197188.7936217917,3,2,1561914473.631158,1561913957.287787,32,0.8918345,0,0,26.32609,0,0,1561914413.669193,197194.333387,0,1.521973,75.2908,3232235528,177845136,1,1,0.53,-26.22543,-35.56102,3
1561914482.253858,115,0,0,1561914482.00017,4.634724701759065,-74.15106573149016,2552.868,0.86,98.0859375,4,30,-9999,1561914482.244051,-26.87188720703125,9.576873779296875,9.27081298828125,106.6850662231445,114.1785354614258,15,197197.409846125,-1.439620971679688,-0.545166015625,0.1459503173828125,197197.392603125,1.664149976698207,-0.116693327380656,3.950218109066586,197197.398737125,-101.9911804199219,-18.10617065429688,-554.26416015625,197197.392603125,0.7074724115346556,-1.423278722623951,0.5994409168247447,1.661402702331543,-0.1233639270067215,3.946985483169556,-0.4322786927223206,0.09041076898574829,0.2778204083442688,1,-0.4258925914764404,0.5078750848770142,-0.06975080817937851,-0.7455287575721741,-0.8166836500167847,-0.5641809701919556,-0.121356800198555,0,0,0,-1,197188.7936217917,3,2,1561914473.631158,1561913957.287787,32,0.8918345,0,0,26.32609,0,0,1561914413.669193,197194.333387,0,1.521973,75.2908,3232235528,177845136,1,1,0.53,-26.22543,-36.30888,3
1561914482.27425,116,0,0,1561914482.00017,4.634724701759065,-74.15106573149016,2552.868,0.86,98.0859375,4,30,-9999,1561914482.271162,-25.967529296875,11.99976539611816,9.2679443359375,18.31781578063965,25.81128311157227,15,197197.430109125,-1.756134033203125,-0.6625823974609375,0.07281494140625,197197.412867125,1.178017882895688,0.365605146032694,3.317779135510056,197197.418848125,-101.1166076660156,-16.02362060546875,-554.5303955078125,197197.412867125,0.7541572882189286,-1.447135251804378,0.5293857525906023,1.175270557403564,0.3589345514774323,3.314546585083008,-0.5830945372581482,-0.04016274213790894,0.2524124979972839,1,-0.4175760447978973,0.5219187140464783,-0.1053052842617035,-0.7363028526306152,-0.8565263748168945,-0.5050032734870911,-0.1064622029662132,0,0,0,-1,197188.7936217917,3,2,1561914473.631158,1561913957.287787,32,0.8918345,0,0,26.32609,0,0,1561914413.669193,197194.333387,0,1.521973,75.2908,3232235528,177845136,1,1,0.53,-26.22543,-36.84905,3
1561914482.294389,117,0,0,1561914482.00017,4.634724701759065,-74.15106573149016,2552.868,0.86,98.0859375,4,30,-9999,1561914482.271162,-25.967529296875,11.99976539611816,9.2679443359375,18.31781578063965,25.81128311157227,15,197197.450373125,-1.801773071289062,-0.6635589599609375,0.0104827880859375,197197.433131125,0.246626293804532,1.049752055314202,2.361647312524282,197197.438960125,-100.6206665039062,-14.914794921875,-555.4925537109375,197197.433131125,0.7784614860707736,-1.443588783142429,0.4739575609225705,0.2438789904117584,1.043081402778625,2.358414888381958,-0.8735544085502625,-0.2061712145805359,0.1856952905654907,1,-0.4067651033401489,0.5273537635803223,-0.1333669722080231,-0.7339301109313965,-0.8825796842575073,-0.4564111530780792,-0.1128803193569183,0,0,0,-1,197188.7936217917,3,2,1561914473.631158,1561913957.287787,32,0.8918345,0,0,26.32609,0,0,1561914413.669193,197194.333387,0,1.521973,75.2908,3232235528,177845136,1,1,0.53,-26.22543,-36.84905,3
1561914482.314702,118,0,0,1561914482.00017,4.634724701759065,-74.15106573149016,2552.868,0.86,98.0859375,4,30,-9999,1561914482.294755,-24.6500244140625,15.01578617095947,8.3233642578125,17.57356834411621,25.06703567504883,15,197197.470637125,-1.660888671875,-0.575164794921875,-0.0113983154296875,197197.453394125,0.1881701741934017,0.3462394375339648,1.382025077143464,197197.459071125,-100.1374816894531,-13.92778015136719,-555.2374877929688,197197.453394125,0.7866817606181582,-1.430697586682262,0.4369740679316399,0.185422882437706,0.3395688533782959,1.378792643547058,-0.9046139121055603,-0.2403591573238373,0.1370024681091309,1,-0.3965313732624054,0.5286804437637329,-0.1511359810829163,-0.7351310849189758,-0.8971591591835022,-0.4231998026371002,-0.1265197098255157,0,0,0,-1,197188.7936217917,3,2,1561914473.631158,1561913957.287787,32,0.8918345,0,0,26.32609,0,0,1561914413.669193,197194.333387,0,1.521973,75.2908,3232235528,177845136,1,1,0.53,-26.22543,-34.79173,3
1561914482.334936,119,0,0,1561914482.00017,4.634724701759065,-74.15106573149016,2552.868,0.86,98.0859375,4,30,-9999,1561914482.321157,-24.23125457763672,15.76764583587646,8.25390625,16.66018867492676,24.15365600585938,15,197197.490870125,-1.5711669921875,-0.5198822021484375,-0.0303955078125,197197.473658125,0.6604109534339585,-0.9745071018751029,0.7413135262928217,197197.479182125,-100.0081939697266,-13.37005615234375,-555.1317138671875,197197.473658125,0.7992955117777141,-1.443154712659326,0.4176315522519618,0.6576636433601379,-0.9811776876449585,0.7380810379981995,-0.7542725801467896,-0.1695681214332581,0.1049561500549316,1,-0.3948107361793518,0.5347403287887573,-0.1596260666847229,-0.7298607230186462,-0.9066160917282104,-0.4055967032909393,-0.1163545250892639,0,0,0,-1,197188.7936217917,3,2,1561914473.631158,1561913957.287787,32,0.8918345,0,0,26.32609,0,0,1561914413.669193,197194.333387,0,1.521973,75.2908,3232235528,177845136,1,1,0.53,-26.22543,-34.79092,3
1561914482.355662,120,0,0,1561914482.00017,4.634724701759065,-74.15106573149016,2552.868,0.86,98.0859375,4,30,-9999,1561914482.345421,-24.09440612792969,16.02325439453125,8.50103759765625,15.32495880126953,22.81842613220215,15,197197.511134125,-1.5787353515625,-0.5183258056640625,-0.044525146484375,197197.493922125,0.8293049013412577,-1.001489717407568,0.4317615296196794,197197.499293125,-99.34884643554688,-13.27572631835938,-555.0820922851562,197197.493922125,0.8179663958764942,-1.473833863866061,0.407914349040735,0.8265575766563416,-1.008160352706909,0.4285290539264679,-0.6575285196304321,-0.1231865584850311,0.05847179889678955,1,-0.3993262052536011,0.5441552400588989,-0.1635061055421829,-0.7195133566856384,-0.9136384725570679,-0.3966956734657288,-0.08886731415987015,0,0,0,-1,197188.7936217917,3,2,1561914473.631158,1561913957.287787,32,0.8918345,0,0,26.32609,0,0,1561914413.669193,197194.333387,0,1.521973,75.2908,3232235528,177845136,1,1,0.53,-26.22543,-34.93491,3
