loggingTime,loggingSample,identifierForVendor,deviceID,locationTimestamp_since1970,locationLatitude,locationLongitude,locationAltitude,locationSpeed,locationCourse,locationVerticalAccuracy,locationHorizontalAccuracy,locationFloor,locationHeadingTimestamp_since1970,locationHeadingX,locationHeadingY,locationHeadingZ,locationTrueHeading,locationMagneticHeading,locationHeadingAccuracy,accelerometerTimestamp_sinceReboot,accelerometerAccelerationX,accelerometerAccelerationY,accelerometerAccelerationZ,gyroTimestamp_sinceReboot,gyroRotationX,gyroRotationY,gyroRotationZ,magnetometerTimestamp_sinceReboot,magnetometerX,magnetometerY,magnetometerZ,motionTimestamp_sinceReboot,motionYaw,motionRoll,motionPitch,motionRotationRateX,motionRotationRateY,motionRotationRateZ,motionUserAccelerationX,motionUserAccelerationY,motionUserAccelerationZ,motionAttitudeReferenceFrame,motionQuaternionX,motionQuaternionY,motionQuaternionZ,motionQuaternionW,motionGravityX,motionGravityY,motionGravityZ,motionMagneticFieldX,motionMagneticFieldY,motionMagneticFieldZ,motionMagneticFieldCalibrationAccuracy,activityTimestamp_sinceReboot,activity,activityActivityConfidence,activityActivityStartDate,pedometerStartDate,pedometerNumberofSteps,pedometerAverageActivePace,pedometerCurrentPace,pedometerCurrentCadence,pedometerDistance,pedometerFloorAscended,pedometerFloorDescended,pedometerEndDate,altimeterTimestamp_sinceReboot,altimeterReset,altimeterRelativeAltitude,altimeterPressure,IP_en0,IP_pdp_ip0,deviceOrientation,batteryState,batteryLevel,avAudioRecorderPeakPower,avAudioRecorderAveragePower,label
1561914486.461802,1,0,0,1561914486.000159,4.634700771425511,-74.15103002458265,2552.919,0,85.78125,4,30,-9999,1561914486.454508,-22.83268737792969,18.88115310668945,4.18280029296875,2.560266971588135,10.05373477935791,15,197201.603767,-0.955169677734375,-0.36761474609375,0.0006866455078125,197201.586555,0.06303515878941252,-0.06710100682563648,-0.08214200803018601,197201.581184,-98.44944763183594,-10.32156372070312,-559.2713623046875,197201.586555,1.051819073154731,-1.52879709136682,0.3660295827861484,0.06029265373945236,-0.07376678287982941,-0.0853751003742218,-0.02916502952575684,-0.0210411548614502,0.02141368389129639,1,-0.4552454650402069,0.5226364135742188,-0.2473534941673279,-0.6770663261413574,-0.9329321384429932,-0.3579108715057373,-0.03920549154281616,0,0,0,-1,197201.445716,3,2,1561914486.283253,1561913957.287787,32,0.8918345,0,0,26.32609,0,0,1561914413.669193,197199.061189,0,1.928955,75.28696,3232235528,177845136,1,1,0.53,-25.1975,-33.97052,4
1561914486.46866,2,0,0,1561914486.000159,4.634700771425511,-74.15103002458265,2552.919,0,85.78125,4,30,-9999,1561914486.454508,-22.83268737792969,18.88115310668945,4.18280029296875,2.560266971588135,10.05373477935791,15,197201.624031,-0.948760986328125,-0.3582916259765625,-0.0016326904296875,197201.606819,0.02835680665494571,-0.08973308240134786,-0.1198393195763666,197201.601295,-98.6553955078125,-10.64393615722656,-559.4636840820312,197201.606819,1.052758447294828,-1.530896961541375,0.3681932631140037,0.02561430260539055,-0.09639885276556015,-0.1230724081397057,-0.02293318510055542,-0.00768435001373291,0.03790199756622314,1,-0.4563450813293457,0.5226293802261353,-0.2464843690395355,-0.6766483783721924,-0.9322364926338196,-0.3599303662776947,-0.03721539676189423,0,0,0,-1,197201.445716,3,2,1561914486.283253,1561913957.287787,32,0.8918345,0,0,26.32609,0,0,1561914413.669193,197199.061189,0,1.928955,75.28696,3232235528,177845136,1,1,0.53,-25.1975,-33.97052,4
1561914486.488341,3,0,0,1561914486.000159,4.634700771425511,-74.15103002458265,2552.919,0,85.78125,4,30,-9999,1561914486.474659,-22.72016143798828,18.79556655883789,4.1552734375,2.598283290863037,10.09175109863281,15,197201.644294,-0.9370574951171875,-0.3706512451171875,-0.0147552490234375,197201.627052,-0.06338110341501381,-0.0470735027960226,-0.1094058533737632,197201.621406,-98.634765625,-10.51123046875,-559.3248901367188,197201.627052,1.052332412086957,-1.532328772995456,0.3705956510317566,-0.06612361222505569,-0.0537392720580101,-0.1126389428973198,-0.01733899116516113,0.00387910008430481,0.03421449661254883,1,-0.457068920135498,0.5226513147354126,-0.245225727558136,-0.6766001582145691,-0.9314220547676086,-0.3621706962585449,-0.03584720939397812,0,0,0,-1,197201.445716,3,2,1561914486.283253,1561913957.287787,32,0.8918345,0,0,26.32609,0,0,1561914413.669193,197199.061189,0,1.928955,75.28696,3232235528,177845136,1,1,0.53,-25.1975,-34.26102,4
1561914486.51168,4,0,0,1561914486.000159,4.634700771425511,-74.15103002458265,2552.919,0,85.78125,4,30,-9999,1561914486.501359,-22.79512786865234,18.73407554626465,4.223388671875,2.777753353118896,10.27122116088867,15,197201.664558,-0.9438934326171875,-0.360107421875,-0.0232086181640625,197201.647315,-0.1172275574953259,-0.005411277018932004,-0.08813545206340934,197201.641487,-98.88850402832031,-10.84487915039062,-559.42041015625,197201.647315,1.050060884073737,-1.532193916555212,0.3724815929731959,-0.1199700608849525,-0.01207704842090607,-0.09136854112148285,-0.006324470043182373,-0.006723254919052124,0.02119112014770508,1,-0.4569758772850037,0.5226852297782898,-0.2438689917325974,-0.6771270036697388,-0.9307330846786499,-0.363927960395813,-0.03594639524817467,0,0,0,-1,197201.445716,3,2,1561914486.283253,1561913957.287787,32,0.8918345,0,0,26.32609,0,0,1561914413.669193,197199.061189,0,1.928955,75.28696,3232235528,177845136,1,1,0.53,-25.1975,-34.57136,4
1561914486.528872,5,0,0,1561914486.000159,4.634700771425511,-74.15103002458265,2552.919,0,85.78125,4,30,-9999,1561914486.52528,-23.13518524169922,18.69409561157227,4.2705078125,2.904041767120361,10.39750957489014,15,197201.684822,-0.9351348876953125,-0.3649444580078125,-0.0272216796875,197201.667579,-0.0754500168430349,0.0679383046723574,-0.0893711588092061,197201.661598,-98.70651245117188,-10.61993408203125,-559.2235107421875,197201.667579,1.047672529219409,-1.530810444999161,0.3743313819800809,-0.07819252461194992,0.06127253174781799,-0.09260424971580505,-0.01388514041900635,0.005542874336242676,0.01399838924407959,1,-0.4566910862922668,0.5223310589790344,-0.2427686899900436,-0.6779873371124268,-0.9300082921981812,-0.3656502962112427,-0.03720703348517418,0,0,0,-1,197201.445716,3,2,1561914486.283253,1561913957.287787,32,0.8918345,0,0,26.32609,0,0,1561914413.669193,197199.061189,0,1.928955,75.28696,3232235528,177845136,1,1,0.53,-25.1975,-34.87141,4
1561914486.549519,6,0,0,1561914486.000159,4.634700771425511,-74.15103002458265,2552.919,0,85.78125,4,30,-9999,1561914486.52528,-23.13518524169922,18.69409561157227,4.2705078125,2.904041767120361,10.39750957489014,15,197201.705085,-0.9295196533203125,-0.3501129150390625,-0.0072174072265625,197201.687843,-0.005239769444730901,0.1007100997824365,-0.04451021024682133,197201.681709,-98.74658203125,-10.69664001464844,-559.307861328125,197201.687843,1.046664637833288,-1.528850128145448,0.3757843497322149,-0.007982274517416954,0.09404432773590088,-0.0477433018386364,-0.005733132362365723,0.002057790756225586,0.01178604364395142,1,-0.4565893411636353,0.5215575695037842,-0.2423975020647049,-0.678783655166626,-0.9294017553329468,-0.3670022487640381,-0.03900774940848351,0,0,0,-1,197201.445716,3,2,1561914486.283253,1561913957.287787,32,0.8918345,0,0,26.32609,0,0,1561914413.669193,197199.061189,0,1.928955,75.28696,3232235528,177845136,1,1,0.53,-25.1975,-35.57372,4
1561914486.569353,7,0,0,1561914486.000159,4.634700771425511,-74.15103002458265,2552.919,0,85.78125,4,30,-9999,1561914486.550052,-22.95329284667969,18.76076507568359,4.33746337890625,2.896746158599854,10.39021396636963,15,197201.725318,-0.93988037109375,-0.375091552734375,0.0147705078125,197201.708107,0.03732446899356953,0.03531111920946962,-0.001167796137999746,197201.70182,-98.44334411621094,-10.86778259277344,-559.289306640625,197201.708107,1.047061794499565,-1.527799589308515,0.3762239256508316,0.03458196297287941,0.02864534594118595,-0.0044008893892169,-0.0003204941749572754,0.01729825139045715,0.03275978565216064,1,-0.4566862285137177,0.521007776260376,-0.2426279932260513,-0.6790584325790405,-0.9291991591453552,-0.3674111366271973,-0.03997717052698135,0,0,0,-1,197201.445716,3,2,1561914486.283253,1561913957.287787,32,0.8918345,0,0,26.32609,0,0,1561914413.669193,197199.061189,0,1.928955,75.28696,3232235528,177845136,1,1,0.53,-25.1975,-36.22275,4
1561914486.591308,8,0,0,1561914486.000159,4.634700771425511,-74.15103002458265,2552.919,0,85.78125,4,30,-9999,1561914486.576426,-22.86223602294922,18.63899993896484,4.14404296875,2.859891414642334,10.35335922241211,15,197201.745582,-0.9479827880859375,-0.3778076171875,0.0248565673828125,197201.72837,0.01214747668017843,-0.01885810999496009,-0.02256389865180536,197201.721931,-98.79953002929688,-10.51747131347656,-559.4752197265625,197201.72837,1.047637289652361,-1.52810523228976,0.376486989243477,0.009404971264302731,-0.02552388235926628,-0.02579699270427227,-0.01076579093933105,-0.007435768842697144,0.05445957183837891,1,-0.456945538520813,0.5209186673164368,-0.2426672428846359,-0.6789382100105286,-0.9291145801544189,-0.3676557838916779,-0.03968903422355652,0,0,0,-1,197201.445716,3,2,1561914486.283253,1561913957.287787,32,0.8918345,0,0,26.32609,0,0,1561914413.669193,197199.061189,0,1.928955,75.28696,3232235528,177845136,1,1,0.53,-25.1975,-36.22275,4
1561914486.609897,9,0,0,1561914486.000159,4.634700771425511,-74.15103002458265,2552.919,0,85.78125,4,30,-9999,1561914486.600368,-22.97323608398438,18.63472175598145,4.3148193359375,2.881370067596436,10.37483787536621,15,197201.765846,-0.942840576171875,-0.3741302490234375,0.031402587890625,197201.748634,-0.01271499630847431,-0.07062783105722842,-0.06149958010487282,197201.742042,-98.70124816894531,-10.73603820800781,-559.2400512695312,197201.748634,1.047482123181945,-1.529105844816163,0.3773406574617965,-0.01545750163495541,-0.07729360461235046,-0.06473267078399658,-0.019142746925354,-0.009358108043670654,0.06360280513763428,1,-0.4572607576847076,0.5210945010185242,-0.2421057820320129,-0.6787915825843811,-0.9288400411605835,-0.3684495091438293,-0.03874624148011208,0,0,0,-1,197201.445716,3,2,1561914486.283253,1561913957.287787,32,0.8918345,0,0,26.32609,0,0,1561914413.669193,197199.061189,0,1.928955,75.28696,3232235528,177845136,1,1,0.53,-25.1975,-36.78572,4
1561914486.630151,10,0,0,1561914486.000159,4.634700771425511,-74.15103002458265,2552.919,0,85.78125,4,30,-9999,1561914486.626532,-23.07637786865234,18.5046501159668,4.3935546875,2.938351154327393,10.43181896209717,15,197201.786109,-0.930908203125,-0.3602447509765625,0.0295867919921875,197201.768898,-0.02436126607149983,-0.1339511438765875,-0.0885378557041203,197201.762153,-98.70603942871094,-10.94474792480469,-559.3899536132812,197201.768898,1.046972023681517,-1.531097548504872,0.3789630929811146,-0.02710377052426338,-0.1406169086694717,-0.09177094697952271,-0.01452398300170898,-0.00417289137840271,0.06827497482299805,1,-0.4578133225440979,0.5215081572532654,-0.2409441322088242,-0.6785145401954651,-0.928316593170166,-0.3699573278427124,-0.03687240555882454,0,0,0,-1,197201.445716,3,2,1561914486.283253,1561913957.287787,32,0.8918345,0,0,26.32609,0,0,1561914413.669193,197199.061189,0,1.928955,75.28696,3232235528,177845136,1,1,0.53,-25.1975,-34.05671,4
1561914486.650881,11,0,0,1561914486.000159,4.634700771425511,-74.15103002458265,2552.919,0,85.78125,4,30,-9999,1561914486.626532,-23.07637786865234,18.5046501159668,4.3935546875,2.938351154327393,10.43181896209717,15,197201.806373,-0.9139251708984375,-0.3599090576171875,0.0106201171875,197201.789161,-0.08392552701221208,-0.1962419491413229,-0.1050332091799621,197201.782264,-98.59397888183594,-10.93910217285156,-559.1073608398438,197201.789161,1.045735606637586,-1.534277479061386,0.3809211606453575,-0.08666802942752838,-0.2029077112674713,-0.1082663014531136,-0.003204584121704102,0.01153105497360229,0.06348055601119995,1,-0.4584082067012787,0.5224127173423767,-0.2391523569822311,-0.6780509352684021,-0.9277036786079407,-0.37177574634552,-0.03389373794198036,0,0,0,-1,197201.445716,3,2,1561914486.283253,1561913957.287787,32,0.8918345,0,0,26.32609,0,0,1561914413.669193,197199.061189,0,1.928955,75.28696,3232235528,177845136,1,1,0.53,-25.1975,-34.53549,4
1561914486.671979,12,0,0,1561914486.000159,4.634700771425511,-74.15103002458265,2552.919,0,85.78125,4,30,-9999,1561914486.666832,-22.82177734375,18.42375373840332,4.4373779296875,3.109961032867432,10.60342884063721,15,197201.826637,-0.914398193359375,-0.359222412109375,-0.010955810546875,197201.809394,-0.1441017823714245,-0.2019059601477034,-0.07939042999191614,197201.802375,-98.76902770996094,-11.01260375976562,-558.958251953125,197201.809394,1.043033928640084,-1.537687423132474,0.3828170463326585,-0.146844282746315,-0.20857173204422,-0.08262351900339127,0.01318246126174927,0.01362603902816772,0.04132688045501709,1,-0.458625316619873,0.523745596408844,-0.2368299514055252,-0.677690863609314,-0.9271076321601868,-0.3735350966453552,-0.03070673905313015,0,0,0,-1,197201.445716,3,2,1561914486.283253,1561913957.287787,32,0.8918345,0,0,26.32609,0,0,1561914413.669193,197199.061189,0,1.928955,75.28696,3232235528,177845136,1,1,0.53,-25.1975,-34.97987,4
1561914486.691038,13,0,0,1561914486.000159,4.634700771425511,-74.15103002458265,2552.919,0,85.78125,4,30,-9999,1561914486.666832,-22.82177734375,18.42375373840332,4.4373779296875,3.109961032867432,10.60342884063721,15,197201.8469,-0.924224853515625,-0.3656158447265625,-0.02618408203125,197201.829658,-0.1297705135973811,-0.1645109173852468,-0.0517082020410875,197201.822486,-98.70388793945312,-11.23646545410156,-559.01708984375,197201.829658,1.039894062958312,-1.540454761734811,0.3840142933398564,-0.132513016462326,-0.1711766868829727,-0.05494129657745361,0.01234316825866699,0.01542297005653381,0.01717162132263184,1,-0.4584548771381378,0.525124192237854,-0.2347362786531448,-0.6774677634239197,-0.9267414212226868,-0.3746454119682312,-0.02812741696834564,0,0,0,-1,197201.445716,3,2,1561914486.283253,1561913957.287787,32,0.8918345,0,0,26.32609,0,0,1561914413.669193,197199.061189,0,1.928955,75.28696,3232235528,177845136,1,1,0.53,-25.1975,-35.40071,4
1561914486.711237,14,0,0,1561914486.000159,4.634700771425511,-74.15103002458265,2552.919,0,85.78125,4,30,-9999,1561914486.70206,-22.93281555175781,18.2482795715332,4.881591796875,3.481911182403564,10.97537899017334,15,197201.867164,-0.9264678955078125,-0.36297607421875,-0.02764892578125,197201.849922,-0.08325947042358325,-0.1315409830900658,-0.03501763885734289,197201.842597,-98.66217041015625,-10.98893737792969,-558.6265869140625,197201.849922,1.037576301700791,-1.542777848294083,0.384893647729619,-0.08600197732448578,-0.1382067501544952,-0.03825073316693306,0.002249717712402344,0.009844720363616943,-0.0002188682556152344,1,-0.4583571255207062,0.5262377262115479,-0.2331279069185257,-0.6772251725196838,-0.9264745712280273,-0.3754605650901794,-0.02596520259976387,0,0,0,-1,197201.445716,3,2,1561914486.283253,1561913957.287787,32,0.8918345,0,0,26.32609,0,0,1561914413.669193,197199.061189,0,1.928955,75.28696,3232235528,177845136,1,1,0.53,-25.1975,-35.77863,4
1561914486.731502,15,0,0,1561914486.000159,4.634700771425511,-74.15103002458265,2552.919,0,85.78125,4,30,-9999,1561914486.727804,-23.01634979248047,18.41540145874023,4.9205322265625,3.605589389801025,11.0990571975708,15,197201.887428,-0.9191131591796875,-0.367828369140625,-0.0319976806640625,197201.870185,-0.0706235699994843,-0.1315899852541232,-0.05042588997621435,197201.862709,-98.72999572753906,-11.08030700683594,-558.6605224609375,197201.870185,1.035951716360724,-1.54513469018547,0.3857528880279501,-0.07336607575416565,-0.1382557451725006,-0.05365898460149765,-0.0002576112747192383,0.01328068971633911,-0.003875613212585449,1,-0.4584372043609619,0.5272083878517151,-0.2317530512809753,-0.6768878102302551,-0.9262102842330933,-0.3762567937374115,-0.02377329021692276,0,0,0,-1,197201.445716,3,2,1561914486.283253,1561913957.287787,32,0.8918345,0,0,26.32609,0,0,1561914413.669193,197199.061189,0,1.928955,75.28696,3232235528,177845136,1,1,0.53,-25.1975,-36.20272,4
1561914486.751943,16,0,0,1561914486.000159,4.634700771425511,-74.15103002458265,2552.919,0,85.78125,4,30,-9999,1561914486.727804,-23.01634979248047,18.41540145874023,4.9205322265625,3.605589389801025,11.0990571975708,15,197201.907661,-0.91473388671875,-0.370697021484375,-0.0385284423828125,197201.890449,-0.1071357748605797,-0.07281801473770959,-0.06230145790909569,197201.88282,-98.72268676757812,-11.08161926269531,-558.348388671875,197201.890449,1.033956925509381,-1.546794012129991,0.3868892330857516,-0.1098782792687416,-0.07948378473520279,-0.06553454697132111,0.006707191467285156,0.009481042623519897,-0.009771585464477539,1,-0.4584119021892548,0.5279635190963745,-0.230320617556572,-0.6768052577972412,-0.9258204102516174,-0.3773094117641449,-0.02222610078752041,0,0,0,-1,197201.445716,3,2,1561914486.283253,1561913957.287787,32,0.8918345,0,0,26.32609,0,0,1561914413.669193,197199.061189,0,1.928955,75.28696,3232235528,177845136,1,1,0.53,-25.1975,-36.20272,4
1561914486.771975,17,0,0,1561914486.000159,4.634700771425511,-74.15103002458265,2552.919,0,85.78125,4,30,-9999,1561914486.752127,-23.06049346923828,18.10943222045898,5.06378173828125,3.784188747406006,11.27765655517578,15,197201.927925,-0.909698486328125,-0.37054443359375,-0.0419921875,197201.910713,-0.1058049932638671,-0.04812704932325795,-0.0652059013939361,197201.902931,-98.83583068847656,-11.2789306640625,-558.5135498046875,197201.910713,1.031421729774989,-1.547044266651178,0.3881111207447461,-0.1085475012660027,-0.05479282140731812,-0.06843899190425873,0.01063048839569092,0.007743656635284424,-0.01654505729675293,1,-0.4581035971641541,0.5283458828926086,-0.2289993613958359,-0.6771638989448547,-0.9253643751144409,-0.3784407079219818,-0.02198344469070435,0,0,0,-1,197201.445716,3,2,1561914486.283253,1561913957.287787,32,0.8918345,0,0,26.32609,0,0,1561914413.669193,197199.061189,0,1.928955,75.28696,3232235528,177845136,1,1,0.53,-25.1975,-36.69481,4
1561914486.792296,18,0,0,1561914486.000159,4.634700771425511,-74.15103002458265,2552.919,0,85.78125,4,30,-9999,1561914486.779171,-23.11315155029297,18.2335090637207,5.0404052734375,3.929773807525635,11.42324161529541,15,197201.948188,-0.904083251953125,-0.3619232177734375,-0.044219970703125,197201.930976,-0.07306808556406803,-0.06556968919884093,-0.07954089859350562,197201.923042,-98.87008666992188,-11.04901123046875,-558.6368408203125,197201.930976,1.029381287946234,-1.547604095710033,0.389555980640342,-0.07581058889627457,-0.07223546504974365,-0.08277399092912674,0.01513051986694336,0.009233236312866211,-0.02053952217102051,1,-0.458021491765976,0.5286681056022644,-0.2276999801397324,-0.6774061322212219,-0.9248290061950684,-0.3797776997089386,-0.02145269513130188,0,0,0,-1,197201.445716,3,2,1561914486.283253,1561913957.287787,32,0.8918345,0,0,26.32609,0,0,1561914413.669193,197199.061189,0,1.928955,75.28696,3232235528,177845136,1,1,0.53,-25.1975,-37.04766,4
1561914486.812575,19,0,0,1561914486.000159,4.634700771425511,-74.15103002458265,2552.919,0,85.78125,4,30,-9999,1561914486.802966,-22.88410949707031,17.93953514099121,5.360595703125,4.041059970855713,11.53452777862549,15,197201.968452,-0.8813018798828125,-0.366729736328125,-0.045135498046875,197201.95124,-0.06224206941678691,-0.05875918734318129,-0.08646884585323775,197201.943122,-99.11006164550781,-11.46775817871094,-558.1368408203125,197201.95124,1.027777765007447,-1.548359653418844,0.3912205080420497,-0.06498457491397858,-0.06542495638132095,-0.08970193564891815,0.02012842893600464,0.01939377188682556,-0.02348023653030396,1,-0.4581361413002014,0.5289058685302734,-0.2264300882816315,-0.6775686740875244,-0.9242116808891296,-0.3813169896602631,-0.0207397174090147,0,0,0,-1,197201.445716,3,2,1561914486.283253,1561913957.287787,32,0.8918345,0,0,26.32609,0,0,1561914413.669193,197199.061189,0,1.928955,75.28696,3232235528,177845136,1,1,0.53,-25.1975,-37.39583,4
1561914486.842208,20,0,0,1561914486.000159,4.634700771425511,-74.15103002458265,2552.919,0,85.78125,4,30,-9999,1561914486.829396,-23.11036682128906,17.98931503295898,5.23883056640625,4.114357471466064,11.60782527923584,15,197201.988716,-0.8748321533203125,-0.3572540283203125,-0.049163818359375,197201.971504,-0.04532114279875046,-0.05722227707809656,-0.06376965861805636,197201.963233,-98.66645812988281,-11.45249938964844,-558.4880981445312,197201.971504,1.026445397498803,-1.549209898539283,0.3928618335392292,-0.04806365072727203,-0.06388805061578751,-0.06700275093317032,0.04229998588562012,0.01610404253005981,-0.02519512176513672,1,-0.4583260416984558,0.5291191339492798,-0.2252374291419983,-0.6776711344718933,-0.9236018657684326,-0.3828337788581848,-0.01994036324322224,0,0,0,-1,197201.445716,3,2,1561914486.283253,1561913957.287787,32,0.8918345,0,0,26.32609,0,0,1561914413.669193,197199.061189,0,1.928955,75.28696,3232235528,177845136,1,1,0.53,-25.1975,-37.44299,4
1561914486.853296,21,0,0,1561914486.000159,4.634700771425511,-74.15103002458265,2552.919,0,85.78125,4,30,-9999,1561914486.829396,-23.11036682128906,17.98931503295898,5.23883056640625,4.114357471466064,11.60782527923584,15,197202.008979,-0.8900146484375,-0.36309814453125,-0.0538177490234375,197201.991737,0.0206597384723987,-0.05600787562102043,-0.00167273148067877,197201.983375,-98.89344787597656,-11.17578125,-558.330322265625,197201.991737,1.025930920589986,-1.550251218550555,0.3935532768344692,0.01791723445057869,-0.0626736506819725,-0.004905824549496174,0.04852527379989624,0.02621841430664062,-0.03019070625305176,1,-0.4584948420524597,0.5294297933578491,-0.2245941162109375,-0.677527904510498,-0.9233574271202087,-0.3834724724292755,-0.01897314749658108,0,0,0,-1,197201.445716,3,2,1561914486.283253,1561913957.287787,32,0.8918345,0,0,26.32609,0,0,1561914413.669193,197199.061189,0,1.928955,75.28696,3232235528,177845136,1,1,0.53,-25.1975,-38.09419,4
1561914486.87387,22,0,0,1561914486.000159,4.634700771425511,-74.15103002458265,2552.919,0,85.78125,4,30,-9999,1561914486.853587,-23.04279327392578,18.09162712097168,5.38787841796875,4.041572093963623,11.5350399017334,15,197202.029243,-0.906463623046875,-0.3784332275390625,-0.0498809814453125,197202.012001,0.1236396504519097,-0.0956764590060777,0.0223202194120631,197202.003486,-98.93879699707031,-11.5748291015625,-558.291259765625,197202.012001,1.027467576615425,-1.552391528640842,0.3932703072495823,0.1208971440792084,-0.1023422330617905,0.01908712461590767,0.03348970413208008,0.02011299133300781,-0.03681892156600952,1,-0.4590654075145721,0.5298674702644348,-0.2247177511453629,-0.6767579913139343,-0.9235043525695801,-0.3832111060619354,-0.01699883118271828,0,0,0,-1,197201.445716,3,2,1561914486.283253,1561913957.287787,32,0.8918345,0,0,26.32609,0,0,1561914413.669193,197199.061189,0,1.928955,75.28696,3232235528,177845136,1,1,0.53,-25.1975,-38.78222,4
1561914486.89364,23,0,0,1561914486.000159,4.634700771425511,-74.15103002458265,2552.919,0,85.78125,4,30,-9999,1561914486.879872,-23.15773010253906,18.00712585449219,5.11785888671875,3.820448398590088,11.31391620635986,15,197202.049507,-0.9196014404296875,-0.386810302734375,-0.040985107421875,197202.032264,0.1519445254655989,-0.1615633306907471,-0.001149686642587207,197202.023597,-98.84976196289062,-11.47036743164062,-558.2256469726562,197202.032264,1.030648810116592,-1.556254214799322,0.3930871052710692,0.1492020189762115,-0.1682291030883789,-0.004382779821753502,0.01716971397399902,0.004608631134033203,-0.03644847869873047,1,-0.4602933824062347,0.5304844379425049,-0.2249664217233658,-0.6753565073013306,-0.923633337020874,-0.3830418884754181,-0.0134325260296464,0,0,0,-1,197201.445716,3,2,1561914486.283253,1561913957.287787,32,0.8918345,0,0,26.32609,0,0,1561914413.669193,197199.061189,0,1.928955,75.28696,3232235528,177845136,1,1,0.53,-25.1975,-39.44825,4
1561914486.92407,24,0,0,1561914486.000159,4.634700771425511,-74.15103002458265,2552.919,0,85.78125,4,30,-9999,1561914486.905016,-23.09215545654297,17.82137298583984,5.15679931640625,3.677229404449463,11.17069721221924,15,197202.06977,-0.9323272705078125,-0.39141845703125,-0.0411224365234375,197202.052528,0.07545720737797811,-0.145865860277493,-0.02330638796371945,197202.043708,-98.92530822753906,-11.42523193359375,-558.2742919921875,197202.052528,1.033173294179881,-1.56065215421176,0.3934690611875878,0.07271470129489899,-0.152531623840332,-0.02653948217630386,0.003935694694519043,-0.00341564416885376,-0.03161627054214478,1,-0.461560845375061,0.5312976241111755,-0.2246768474578857,-0.6739471554756165,-0.9235371351242065,-0.3833946883678436,-0.009368841536343098,0,0,0,-1,197201.445716,3,2,1561914486.283253,1561913957.287787,32,0.8918345,0,0,26.32609,0,0,1561914413.669193,197199.061189,0,1.928955,75.28696,3232235528,177845136,1,1,0.53,-25.1975,-36.93545,4
1561914486.934361,25,0,0,1561914486.000159,4.634700771425511,-74.15103002458265,2552.919,0,85.78125,4,30,-9999,1561914486.930563,-23.21122741699219,17.88366317749023,5.41790771484375,3.623799800872803,11.11726760864258,15,197202.090003,-0.93914794921875,-0.3857269287109375,-0.0404052734375,197202.072792,0.03640061841142105,-0.09370864927661815,-0.03018080568554098,197202.063819,-98.67327880859375,-11.55520629882812,-558.345703125,197202.072792,1.034087656388697,-1.563516484392248,0.3939756658450485,0.03365811333060265,-0.1003744229674339,-0.03341389819979668,-0.008961617946624756,-0.007555902004241943,-0.0344003438949585,1,-0.4622614681720734,0.5319335460662842,-0.2241537868976593,-0.6731389164924622,-0.9233656525611877,-0.3838625252246857,-0.006722075399011374,0,0,0,-1,197201.445716,3,2,1561914486.283253,1561913957.287787,32,0.8918345,0,0,26.32609,0,0,1561914413.669193,197199.061189,0,1.928955,75.28696,3232235528,177845136,1,1,0.53,-25.1975,-36.93545,4
1561914486.954575,26,0,0,1561914486.000159,4.634700771425511,-74.15103002458265,2552.919,0,85.78125,4,30,-9999,1561914486.930563,-23.21122741699219,17.88366317749023,5.41790771484375,3.623799800872803,11.11726760864258,15,197202.110267,-0.9267578125,-0.3809967041015625,-0.039337158203125,197202.093055,0.04691264786618182,-0.01360395948034276,-0.06535264156999947,197202.0839,-98.85215759277344,-11.27291870117188,-558.18798828125,197202.093055,1.034936567798769,-1.565058958626699,0.395071926549872,0.04416295513510704,-0.02027697674930096,-0.06858482956886292,-0.01619422435760498,-0.0008523762226104736,-0.03510987758636475,1,-0.4629539251327515,0.5320018529891968,-0.2237157076597214,-0.6727547645568848,-0.9229536652565002,-0.3848745822906494,-0.005295383278280497,0,0,0,-1,197201.445716,3,2,1561914486.283253,1561913957.287787,32,0.8918345,0,0,26.32609,0,0,1561914413.669193,197199.061189,0,1.928955,75.28696,3232235528,177845136,1,1,0.53,-25.1975,-37.38458,4
1561914486.974743,27,0,0,1561914486.000159,4.634700771425511,-74.15103002458265,2552.919,0,85.78125,4,30,-9999,1561914486.954891,-23.07752227783203,17.93430709838867,5.3858642578125,3.560902118682861,11.05436992645264,15,197202.130531,-0.9169158935546875,-0.3798828125,-0.02642822265625,197202.113319,0.04100815341336713,0.06705946151263124,-0.05749205529652159,197202.104011,-98.91116333007812,-11.53285217285156,-558.2088623046875,197202.113319,1.035797650281236,-1.564911274214901,0.3964489045740051,0.03825845941901207,0.06038643792271614,-0.06072424352169037,-0.004335641860961914,0.005148410797119141,-0.03390860557556152,1,-0.4635350704193115,0.5314329266548157,-0.2235785275697708,-0.6728499531745911,-0.9224222302436829,-0.3861451148986816,-0.005428566131740808,0,0,0,-1,197201.445716,3,2,1561914486.283253,1561913957.287787,32,0.8918345,0,0,26.32609,0,0,1561914413.669193,197199.061189,0,1.928955,75.28696,3232235528,177845136,1,1,0.53,-25.1975,-37.85416,4
1561914487.003826,28,0,0,1561914486.000159,4.634700771425511,-74.15103002458265,2552.919,0,85.78125,4,30,-9999,1561914486.982243,-23.04205322265625,17.90672302246094,5.3350830078125,3.486686229705811,10.98015403747559,15,197202.150794,-0.915283203125,-0.38067626953125,-0.0073699951171875,197202.133583,0.06606770032268575,0.08243974944005687,-0.03471084269976576,197202.124122,-98.90756225585938,-11.53317260742188,-558.195556640625,197202.133583,1.03684203414964,-1.563726152712615,0.3974412065658512,0.06331801414489746,0.07576673477888107,-0.0379430316388607,0.005115509033203125,0.007177412509918213,-0.01990914344787598,1,-0.4639454185962677,0.5305611491203308,-0.2238725423812866,-0.6731572151184082,-0.9220314025878906,-0.3870602548122406,-0.006519031245261431,0,0,0,-1,197201.445716,3,2,1561914486.283253,1561913957.287787,32,0.8918345,0,0,26.32609,0,0,1561914413.669193,197199.061189,0,1.928955,75.28696,3232235528,177845136,1,1,0.53,-25.1975,-38.50163,4
1561914487.015602,29,0,0,1561914486.000159,4.634700771425511,-74.15103002458265,2552.919,0,85.78125,4,30,-9999,1561914487.005573,-23.16574096679688,18.05607223510742,5.05218505859375,3.363321781158447,10.85678958892822,15,197202.171058,-0.9178466796875,-0.385894775390625,0.0142822265625,197202.153846,0.08405442400897191,0.03729171211216156,-0.02026825379215705,197202.144233,-98.91790771484375,-11.32012939453125,-558.2272338867188,197202.153846,1.038527183206513,-1.563220086779304,0.3981072695656115,0.08130473643541336,0.0306186955422163,-0.02350044250488281,0.006486773490905762,0.006998062133789062,-0.000386357307434082,1,-0.4645136594772339,0.5298445224761963,-0.2243343144655228,-0.6731760501861572,-0.9217699766159058,-0.3876743316650391,-0.006983684375882149,0,0,0,-1,197201.445716,3,2,1561914486.283253,1561913957.287787,32,0.8918345,0,0,26.32609,0,0,1561914413.669193,197199.061189,0,1.928955,75.28696,3232235528,177845136,1,1,0.53,-25.1975,-38.82939,4
1561914487.035453,30,0,0,1561914486.000159,4.634700771425511,-74.15103002458265,2552.919,0,85.78125,4,30,-9999,1561914487.031827,-23.28679656982422,17.97328186035156,5.234375,3.312934398651123,10.8064022064209,15,197202.191322,-0.9202117919921875,-0.3937225341796875,0.02435302734375,197202.174079,0.0398408899075854,-0.01072428339364008,-0.01459838383137835,197202.164344,-98.91270446777344,-11.22386169433594,-558.4532470703125,197202.174079,1.039936398717653,-1.563653025013795,0.3984781233326973,0.03709119558334351,-0.01739730127155781,-0.01783057115972042,0.003782391548156738,0.002121388912200928,0.020865797996521,1,-0.4650346338748932,0.5295762419700623,-0.2245838642120361,-0.672944188117981,-0.9216290712356567,-0.3880161643028259,-0.00658358633518219,0,0,0,-1,197201.445716,3,2,1561914486.283253,1561913957.287787,32,0.8918345,0,0,26.32609,0,0,1561914413.669193,197199.061189,0,1.928955,75.28696,3232235528,177845136,1,1,0.53,-25.1975,-38.83447,4
1561914487.057242,31,0,0,1561914487.000156,4.634700771425511,-74.15103002458265,2552.926,0,202.1484375,4,30,-9999,1561914487.031827,-23.28679656982422,17.97328186035156,5.234375,3.312934398651123,10.8064022064209,15,197202.211586,-0.9227447509765625,-0.4060211181640625,0.0399322509765625,197202.194343,-0.0468617814893613,-0.08564246696698616,-0.0389633783284043,197202.184455,-99.14826965332031,-11.40605163574219,-558.5512084960938,197202.194343,1.039828441354428,-1.564493019078695,0.3990768031243322,-0.04961147531867027,-0.09231548011302948,-0.04219556599855423,0.001189947128295898,-0.005154669284820557,0.03016102313995361,1,-0.4652601778507233,0.5297442674636841,-0.2241518348455429,-0.6728000640869141,-0.9214017987251282,-0.3885678648948669,-0.005807956214994192,0,0,0,-1,197201.445716,3,2,1561914486.283253,1561913957.287787,32,0.8918345,0,0,26.32609,0,0,1561914413.669193,197199.061189,0,1.928955,75.28696,3232235528,177845136,1,1,0.53,-25.1975,-39.60292,4
1561914487.076522,32,0,0,1561914487.000156,4.634700771425511,-74.15103002458265,2552.926,0,202.1484375,4,30,-9999,1561914487.062572,-23.197265625,18.03553009033203,5.1759033203125,3.432875156402588,10.92634296417236,15,197202.231849,-0.92626953125,-0.4075164794921875,0.0419464111328125,197202.214607,-0.1256583265581898,-0.1799050537503408,-0.09689698573366101,197202.204566,-99.00346374511719,-11.44520568847656,-558.095703125,197202.214607,1.03771885755259,-1.566337436299335,0.4004523761861681,-0.1284080147743225,-0.1865780800580978,-0.100129172205925,-0.001869142055511475,-0.0161861777305603,0.04403835535049438,1,-0.4652740657329559,0.5305346250534058,-0.2225524187088013,-0.6726986765861511,-0.920875608921051,-0.3898349702358246,-0.004106110893189907,0,0,0,-1,197201.445716,3,2,1561914486.283253,1561913957.287787,32,0.8918345,0,0,26.32609,0,0,1561914413.669193,197199.061189,0,1.928955,75.28696,3232235528,177845136,1,1,0.53,-25.1975,-39.60292,4
1561914487.096243,33,0,0,1561914487.000156,4.634700771425511,-74.15103002458265,2552.926,0,202.1484375,4,30,-9999,1561914487.082648,-23.32906341552734,17.86327743530273,5.62896728515625,3.640119075775146,11.13358688354492,15,197202.252113,-0.92022705078125,-0.3807220458984375,0.024322509765625,197202.23487,-0.1152863793767672,-0.2214722046765156,-0.1547823899231873,197202.224678,-99.14669799804688,-11.54209899902344,-558.2301635742188,197202.23487,1.034808302221711,-1.569497398724364,0.4031132987974889,-0.1180360689759254,-0.2281452268362045,-0.1580145657062531,-0.006426215171813965,-0.01523244380950928,0.04314124584197998,1,-0.4655599296092987,0.5316545367240906,-0.2199454456567764,-0.6724740862846375,-0.9198433756828308,-0.3922839760780334,-0.00119481107685715,0,0,0,-1,197201.445716,3,2,1561914486.283253,1561913957.287787,32,0.8918345,0,0,26.32609,0,0,1561914413.669193,197199.061189,0,1.928955,75.28696,3232235528,177845136,1,1,0.53,-25.1975,-39.75898,4
1561914487.116543,34,0,0,1561914487.000156,4.634700771425511,-74.15103002458265,2552.926,0,202.1484375,4,30,-9999,1561914487.107264,-23.43635559082031,17.65708160400391,5.74658203125,3.677453517913818,11.17092132568359,15,197202.272346,-0.895538330078125,-0.365447998046875,0.00732421875,197202.255134,0.01027367653719868,-0.2417913248454931,-0.1054638423282279,197202.244789,-99.24298095703125,-11.65556335449219,-558.0969848632812,197202.255134,1.033482263294242,-1.57382033829376,0.4059516304912554,0.007523984648287296,-0.2484643459320068,-0.1086960285902023,-0.001504063606262207,0.01417118310928345,0.02154421806335449,1,-0.4664342999458313,0.5327552556991577,-0.2175380885601044,-0.6717798709869385,-0.9187229871749878,-0.3948932290077209,0.002778237219899893,0,0,0,-1,197201.445716,3,2,1561914486.283253,1561913957.287787,32,0.8918345,0,0,26.32609,0,0,1561914413.669193,197199.061189,0,1.928955,75.28696,3232235528,177845136,1,1,0.53,-25.1975,-39.79808,4
1561914487.137842,35,0,0,1561914487.000156,4.634700771425511,-74.15103002458265,2552.926,0,202.1484375,4,30,-9999,1561914487.133176,-23.38828277587891,17.66179656982422,5.77392578125,3.468655109405518,10.96212291717529,15,197202.29261,-0.8829345703125,-0.3822174072265625,0.0116424560546875,197202.275398,0.14250308676905,-0.2811792110516561,-0.02013163362823599,197202.2649,-99.19544982910156,-11.77093505859375,-557.8157348632812,197202.275398,1.035221132509989,-1.579898386699748,0.4072294994377875,0.1397533863782883,-0.2878522276878357,-0.02336382120847702,0.02264541387557983,0.03061890602111816,-0.001033425331115723,1,-0.4678954780101776,0.5340904593467712,-0.2162709534168243,-0.6701105833053589,-0.9181837439537048,-0.3960669040679932,0.008357593789696693,0,0,0,-1,197201.445716,3,2,1561914486.283253,1561913957.287787,32,0.8918345,0,0,26.32609,0,0,1561914413.669193,197199.061189,0,1.928955,75.28696,3232235528,177845136,1,1,0.53,-25.1975,-40.04887,4
1561914487.167438,36,0,0,1561914487.000156,4.634700771425511,-74.15103002458265,2552.926,0,202.1484375,4,30,-9999,1561914487.157525,-23.38613891601562,17.96106719970703,5.74871826171875,3.249535083770752,10.74300289154053,15,197202.312873,-0.9006500244140625,-0.388824462890625,0.0306854248046875,197202.295661,0.1584458343187003,-0.2736248883035373,0.03234222722624929,197202.285011,-99.24055480957031,-11.50877380371094,-557.8279418945312,197202.295661,1.038742096145716,-1.587377423455424,0.4070956177593607,0.1556961387395859,-0.2802979052066803,0.02911003679037094,0.03521400690078735,0.01372659206390381,-0.00358283519744873,1,-0.4696097671985626,0.5357978343963623,-0.2157408893108368,-0.6677150130271912,-0.9181485772132874,-0.3959439694881439,0.01522530522197485,0,0,0,-1,197201.445716,3,2,1561914486.283253,1561913957.287787,32,0.8918345,0,0,26.32609,0,0,1561914413.669193,197199.061189,0,1.928955,75.28696,3232235528,177845136,1,1,0.53,-25.1975,-40.18641,4
1561914487.177268,37,0,0,1561914487.000156,4.634700771425511,-74.15103002458265,2552.926,0,202.1484375,4,30,-9999,1561914487.157525,-23.38613891601562,17.96106719970703,5.74871826171875,3.249535083770752,10.74300289154053,15,197202.333137,-0.91107177734375,-0.4035186767578125,0.0424346923828125,197202.315925,0.08963268122825188,-0.1291752970937484,0.01142362949589489,197202.305122,-99.39102172851562,-11.35940551757812,-557.6387939453125,197202.315925,1.041531810009039,-1.592911227460315,0.4066266989289994,0.08688299357891083,-0.1358483135700226,0.008191441185772419,0.01758569478988647,0.006688892841339111,0.01037538051605225,1,-0.470831960439682,0.5370961427688599,-0.2155286520719528,-0.6658772230148315,-0.918235719203949,-0.3955133557319641,0.02031000331044197,0,0,0,-1,197201.445716,3,2,1561914486.283253,1561913957.287787,32,0.8918345,0,0,26.32609,0,0,1561914413.669193,197199.061189,0,1.928955,75.28696,3232235528,177845136,1,1,0.53,-25.1975,-40.25,4
1561914487.198,38,0,0,1561914487.000156,4.634700771425511,-74.15103002458265,2552.926,0,202.1484375,4,30,-9999,1561914487.187468,-23.25202941894531,17.79421615600586,5.7911376953125,3.193394184112549,10.68686199188232,15,197202.353401,-0.89654541015625,-0.39453125,0.045684814453125,197202.336189,-0.009350092271159197,0.01897209328961549,-0.007266701350390209,197202.325233,-99.10464477539062,-11.52810668945312,-557.7242431640625,197202.336189,1.042401436507272,-1.594403876120074,0.4065818710333581,-0.01209978386759758,0.0122990757226944,-0.01049888972193003,0.007150173187255859,-0.008046507835388184,0.02075362205505371,1,-0.4712147414684296,0.5373985171318054,-0.215481698513031,-0.6653773784637451,-0.9182219505310059,-0.3954721689224243,0.02168099768459797,0,0,0,-1,197201.445716,3,2,1561914486.283253,1561913957.287787,32,0.8918345,0,0,26.32609,0,0,1561914413.669193,197199.061189,0,1.928955,75.28696,3232235528,177845136,1,1,0.53,-25.1975,-40.30206,4
1561914487.231235,39,0,0,1561914487.000156,4.634700771425511,-74.15103002458265,2552.926,0,202.1484375,4,30,-9999,1561914487.208721,-23.31879425048828,17.87728881835938,5.95635986328125,3.317200183868408,10.81066799163818,15,197202.373664,-0.8879852294921875,-0.385772705078125,0.0270843505859375,197202.356422,-0.09659791274324513,0.07151519633244283,-0.002477538762100715,197202.345344,-98.97776794433594,-11.49372863769531,-557.7368774414062,197202.356422,1.041154235096714,-1.59304392744159,0.4068912555858634,-0.09934759885072708,0.06484217941761017,-0.005709727294743061,0.02158284187316895,0.001225054264068604,0.02525532245635986,1,-0.4708139598369598,0.5371675491333008,-0.2152820378541946,-0.6659120321273804,-0.9181282520294189,-0.3957563042640686,0.02042952179908752,0,0,0,-1,197201.445716,3,2,1561914486.283253,1561913957.287787,32,0.8918345,0,0,26.32609,0,0,1561914413.669193,197199.061189,0,1.928955,75.28696,3232235528,177845136,1,1,0.53,-25.75478,-40.76192,4
1561914487.238014,40,0,0,1561914487.000156,4.634700771425511,-74.15103002458265,2552.926,0,202.1484375,4,30,-9999,1561914487.234513,-23.30158233642578,17.83799362182617,5.92242431640625,3.421550273895264,10.91501808166504,15,197202.393928,-0.889984130859375,-0.3768157958984375,0.0100250244140625,197202.376686,-0.06906295760069786,0.0291999634560648,0.01184787105754452,197202.365455,-98.91900634765625,-11.39215087890625,-557.7498779296875,197202.376686,1.039012306361229,-1.591109631619958,0.4068506631085824,-0.07181264460086823,0.02252694591879845,0.008615682832896709,0.0301969051361084,0.009946346282958984,0.00843048095703125,1,-0.4700200259685516,0.5370364189147949,-0.2150371968746185,-0.6666573882102966,-0.9181821942329407,-0.3957190215587616,0.01865388080477715,0,0,0,-1,197201.445716,3,2,1561914486.283253,1561913957.287787,32,0.8918345,0,0,26.32609,0,0,1561914413.669193,197199.061189,0,1.928955,75.28696,3232235528,177845136,1,1,0.53,-25.75478,-40.76192,4
1561914487.258596,41,0,0,1561914487.000156,4.634700771425511,-74.15103002458265,2552.926,0,202.1484375,4,30,-9999,1561914487.234513,-23.30158233642578,17.83799362182617,5.92242431640625,3.421550273895264,10.91501808166504,15,197202.41420425,-0.9031524658203125,-0.3671722412109375,0.0026092529296875,197202.39696125,0.03168495906921773,-0.0118340226198761,0.01616858361008907,197202.385566,-99.12994384765625,-11.72683715820312,-557.6689453125,197202.39696125,1.038551972008144,-1.590998717298419,0.4066231156170982,0.02893526665866375,-0.01850704103708267,0.01293639466166496,0.02829015254974365,0.01869428157806396,-0.008528828620910645,1,-0.4698249101638794,0.5371605753898621,-0.2149868905544281,-0.666711151599884,-0.9182742834091187,-0.3955100476741791,0.01855386048555374,0,0,0,-1,197202.40871125,3,2,1561914487.246248,1561913957.287787,32,0.8918345,0,0,26.32609,0,0,1561914413.669193,197199.061189,0,1.928955,75.28696,3232235528,177845136,1,1,0.53,-26.31206,-41.0477,4
1561914487.279135,42,0,0,1561914487.000156,4.634700771425511,-74.15103002458265,2552.926,0,202.1484375,4,30,-9999,1561914487.259181,-23.26603698730469,17.83742332458496,5.99993896484375,3.35514497756958,10.84861278533936,15,197202.43446725,-0.903472900390625,-0.38519287109375,0.0003204345703125,197202.41722525,0.07041344658947704,0.06527354568562412,0.05359798115060772,197202.40568925,-99.00822448730469,-11.73283386230469,-557.889892578125,197202.41722525,1.039794092272983,-1.59135790482504,0.406081067146461,0.0676637589931488,0.0586005263030529,0.05036579072475433,0.01532924175262451,0.02783986926078796,-0.01627886295318604,1,-0.4700553119182587,0.5371145606040955,-0.2155000418424606,-0.666420042514801,-0.918481707572937,-0.3950121402740479,0.01888809539377689,0,0,0,-1,197202.40871125,3,2,1561914487.246248,1561913957.287787,32,0.8918345,0,0,26.32609,0,0,1561914413.669193,197200.006727,0,1.928955,75.28696,3232235528,177845136,1,1,0.53,-26.86934,-39.08519,4
1561914487.319457,43,0,0,1561914487.000156,4.634700771425511,-74.15103002458265,2552.926,0,202.1484375,4,30,-9999,1561914487.309926,-23.48421478271484,17.8663215637207,5.73797607421875,3.173457622528076,10.66692543029785,15,197202.45470125,-0.9107666015625,-0.3909912109375,0.0012969970703125,197202.43748925,0.06184392683382007,0.1633473823049912,0.126809344781322,197202.42580025,-99.14633178710938,-11.93011474609375,-557.734375,197202.43748925,1.041178720054815,-1.589579941623459,0.4041543234685888,0.05909423530101776,0.1566743552684784,0.1235771551728249,0.01579999923706055,0.008048474788665771,-0.01694881916046143,1,-0.4697302877902985,0.536645233631134,-0.2170312702655792,-0.6665303111076355,-0.9192729592323303,-0.3932413458824158,0.01726930029690266,0,0,0,-1,197202.40871125,3,2,1561914487.246248,1561913957.287787,32,0.8918345,0,0,26.32609,0,0,1561914413.669193,197200.006727,0,1.928955,75.28696,3232235528,177845136,1,1,0.53,-27.98389,-34.4826,4
1561914487.322008,44,0,0,1561914487.000156,4.634700771425511,-74.15103002458265,2552.926,0,202.1484375,4,30,-9999,1561914487.309926,-23.48421478271484,17.8663215637207,5.73797607421875,3.173457622528076,10.66692543029785,15,197202.47496425,-0.9243621826171875,-0.38897705078125,0.01031494140625,197202.45775225,0.06037093243489725,0.1442772846872608,0.1208720934470994,197202.44591125,-98.96101379394531,-11.43724060058594,-557.9117431640625,197202.45775225,1.042460943747055,-1.58698130720604,0.4016856458268692,0.05762124061584473,0.1376042664051056,0.1176399067044258,0.009516239166259766,-2.086162567138672e-05,-0.01359903812408447,1,-0.4691433310508728,0.5360527634620667,-0.2189030200242996,-0.6668084859848022,-0.9202828407287598,-0.390970379114151,0.01489606034010649,0,0,0,-1,197202.40871125,3,2,1561914487.246248,1561913957.287787,32,0.8918345,0,0,26.32609,0,0,1561914413.669193,197200.006727,0,1.928955,75.28696,3232235528,177845136,1,1,0.53,-27.98389,-34.4826,4
1561914487.339276,45,0,0,1561914487.000156,4.634700771425511,-74.15103002458265,2552.926,0,202.1484375,4,30,-9999,1561914487.336675,-23.31819915771484,18.04011917114258,5.7613525390625,3.134663105010986,10.62813091278076,15,197202.49522825,-0.9300384521484375,-0.3936004638671875,0.003631591796875,197202.47801625,0.02807104946998021,0.08482567546065886,0.09764080662612015,197202.46602325,-99.03861999511719,-11.42083740234375,-557.7601318359375,197202.47801625,1.043359971351122,-1.585155677557644,0.3994596495667647,0.02532135881483555,0.07815265655517578,0.09440861642360687,-0.00318598747253418,-5.644559860229492e-05,-0.002913475036621094,1,-0.4685987234115601,0.5357512831687927,-0.2203820049762726,-0.6669464111328125,-0.9211762547492981,-0.3889205753803253,0.0132284015417099,0,0,0,-1,197202.40871125,3,2,1561914487.246248,1561913957.287787,32,0.8918345,0,0,26.32609,0,0,1561914413.669193,197200.006727,0,1.928955,75.28696,3232235528,177845136,1,1,0.53,-28.28677,-34.88416,4
1561914487.359813,46,0,0,1561914487.000156,4.634700771425511,-74.15103002458265,2552.926,0,202.1484375,4,30,-9999,1561914487.336675,-23.31819915771484,18.04011917114258,5.7613525390625,3.134663105010986,10.62813091278076,15,197202.51549225,-0.937835693359375,-0.3991241455078125,-0.0108489990234375,197202.49828025,0.008078432850646361,0.09758061918548436,0.04890762183876017,197202.50624525,-98.84498596191406,-11.52459716796875,-558.0447387695312,197202.49828025,1.043645121815203,-1.583576248637392,0.3980081720895615,0.005328740924596786,0.09090760350227356,0.04567543417215347,-0.008279085159301758,-0.006017506122589111,-0.008149027824401855,1,-0.4681185781955719,0.535495400428772,-0.221336305141449,-0.6671729683876038,-0.9217593669891357,-0.3875829875469208,0.01178065408021212,0,0,0,-1,197202.40871125,3,2,1561914487.246248,1561913957.287787,32,0.8918345,0,0,26.32609,0,0,1561914413.669193,197200.006727,0,1.928955,75.28696,3232235528,177845136,1,1,0.53,-28.28677,-35.42863,4
1561914487.403302,47,0,0,1561914487.000156,4.634700771425511,-74.15103002458265,2552.926,0,202.1484375,4,30,-9999,1561914487.387093,-23.03476715087891,18.01885223388672,5.4422607421875,3.195081233978271,10.68854904174805,15,197202.53575525,-0.9333038330078125,-0.40045166015625,-0.0079803466796875,197202.51854325,-0.004240817719842179,0.04481567482385342,-0.01564687035254255,197202.52635625,-98.74125671386719,-11.33839416503906,-558.1199951171875,197202.51854325,1.043545828684221,-1.581733478591522,0.3976065526825152,-0.006990509107708931,0.03814265504479408,-0.01887905783951283,-0.01590049266815186,-0.01191145181655884,-0.02093279361724854,1,-0.4677819013595581,0.5349971652030945,-0.2218696475028992,-0.6676316261291504,-0.9219352602958679,-0.387212723493576,0.0100837480276823,0,0,0,-1,197202.40871125,3,2,1561914487.246248,1561913957.287787,32,0.8918345,0,0,26.32609,0,0,1561914413.669193,197200.006727,0,1.928955,75.28696,3232235528,177845136,1,1,0.53,-28.28677,-36.04381,4
1561914487.406054,48,0,0,1561914487.000156,4.634700771425511,-74.15103002458265,2552.926,0,202.1484375,4,30,-9999,1561914487.387093,-23.03476715087891,18.01885223388672,5.4422607421875,3.195081233978271,10.68854904174805,15,197202.55601925,-0.9359283447265625,-0.3929595947265625,0.0018310546875,197202.53877625,-0.06077120554673615,0.1510206748834504,0.01417121279252964,197202.54646725,-98.99603271484375,-11.16239929199219,-558.3382568359375,197202.53877625,1.042850139592564,-1.57996019331405,0.3977895684516557,-0.0635208934545517,0.1443476527929306,0.01093902438879013,-0.01142299175262451,-0.01307022571563721,-0.01642858982086182,1,-0.467447429895401,0.5345250368118286,-0.2219903171062469,-0.6682037115097046,-0.921880841255188,-0.3873814642429352,0.008448229171335697,0,0,0,-1,197202.40871125,3,2,1561914487.246248,1561913957.287787,32,0.8918345,0,0,26.32609,0,0,1561914413.669193,197200.006727,0,1.928955,75.28696,3232235528,177845136,1,1,0.53,-27.77718,-36.1771,4
1561914487.420381,49,0,0,1561914487.000156,4.634700771425511,-74.15103002458265,2552.926,0,202.1484375,4,30,-9999,1561914487.410683,-23.25260162353516,18.12319374084473,5.31903076171875,3.264819622039795,10.75828742980957,15,197202.57628325,-0.9327850341796875,-0.3963470458984375,0.01153564453125,197202.55904025,-0.03056483351473041,0.1535980821864291,0.03021036677364086,197202.56657825,-99.16421508789062,-11.32528686523438,-558.25244140625,197202.55904025,1.041739963053138,-1.576339823110631,0.3974711583296515,-0.03331452608108521,0.1469250619411469,0.02697817794978619,-0.01389956474304199,-0.005871713161468506,-0.003280282020568848,1,-0.4666643142700195,0.533647894859314,-0.2225716859102249,-0.6692580580711365,-0.9220288395881653,-0.387087881565094,0.005111315753310919,0,0,0,-1,197202.40871125,3,2,1561914487.246248,1561913957.287787,32,0.8918345,0,0,26.32609,0,0,1561914413.669193,197200.006727,0,1.928955,75.28696,3232235528,177845136,1,1,0.53,-27.77718,-36.1771,4
1561914487.440643,50,0,0,1561914487.000156,4.634700771425511,-74.15103002458265,2552.926,0,202.1484375,4,30,-9999,1561914487.437038,-23.34971618652344,17.93347549438477,5.15411376953125,3.29205846786499,10.78552627563477,15,197202.59654625,-0.9334564208984375,-0.387420654296875,0.008270263671875,197202.57930425,-0.02125522129214042,0.077604514164909,0.04929990546732884,197202.58668925,-98.94424438476562,-11.43547058105469,-558.2408447265625,197202.57930425,1.0409686632652,-1.573652273559012,0.3966753597345835,-0.02400491200387478,0.07093149423599243,0.04606771841645241,-0.01043814420700073,-0.009993076324462891,0.008901476860046387,1,-0.4659480154514313,0.5331130623817444,-0.2232073694467545,-0.669971227645874,-0.9223468899726868,-0.386353999376297,0.002634180709719658,0,0,0,-1,197202.40871125,3,2,1561914487.246248,1561913957.287787,32,0.8918345,0,0,26.32609,0,0,1561914413.669193,197200.006727,0,1.928955,75.28696,3232235528,177845136,1,1,0.53,-27.77718,-36.21064,4
1561914487.483633,51,0,0,1561914487.000156,4.634700771425511,-74.15103002458265,2552.926,0,202.1484375,4,30,-9999,1561914487.461332,-22.99905395507812,17.96762466430664,5.3157958984375,3.159243106842041,10.65271091461182,15,197202.61681025,-0.938201904296875,-0.386962890625,-0.00140380859375,197202.59956725,0.06190837533219998,-0.01308837149330342,0.02771924588998074,197202.60680025,-98.63278198242188,-11.27818298339844,-558.434326171875,197202.59956725,1.04128077870772,-1.573154252203436,0.3958749801285671,0.05915868282318115,-0.01976138912141323,0.02448705770075321,-0.01079946756362915,-0.001805007457733154,0.006094694137573242,1,-0.4657629430294037,0.5330597162246704,-0.2236965894699097,-0.6699791550636292,-0.9226569533348083,-0.3856156468391418,0.002175560221076012,0,0,0,-1,197202.40871125,3,2,1561914487.246248,1561913957.287787,32,0.8918345,0,0,26.32609,0,0,1561914413.669193,197200.006727,0,1.928955,75.28696,3232235528,177845136,1,1,0.53,-27.77718,-33.27118,4
1561914487.486133,52,0,0,1561914487.000156,4.634700771425511,-74.15103002458265,2552.926,0,202.1484375,4,30,-9999,1561914487.461332,-22.99905395507812,17.96762466430664,5.3157958984375,3.159243106842041,10.65271091461182,15,197202.63707425,-0.93017578125,-0.4007720947265625,0.0174407958984375,197202.61983125,0.1592927195453455,-0.212043815469308,-0.01451822268256697,197202.62691125,-98.83561706542969,-11.33941650390625,-558.0518798828125,197202.61983125,1.043618916532574,-1.576146564678142,0.3957099599334251,0.1565430164337158,-0.2187168300151825,-0.01775041036307812,-0.01549190282821655,-0.001499474048614502,-0.006340503692626953,1,-0.4666773974895477,0.5335546731948853,-0.2238370925188065,-0.6689010858535767,-0.9227100014686584,-0.3854633867740631,0.004936765413731337,0,0,0,-1,197202.40871125,3,2,1561914487.246248,1561913957.287787,32,0.8918345,0,0,26.32609,0,0,1561914413.669193,197200.006727,0,1.928955,75.28696,3232235528,177845136,1,1,0.53,-27.77718,-33.27118,4
1561914487.501521,53,0,0,1561914487.000156,4.634700771425511,-74.15103002458265,2552.926,0,202.1484375,4,30,-9999,1561914487.487781,-22.96975708007812,17.99797821044922,5.4716796875,2.824641704559326,10.3181095123291,15,197202.65730725,-0.9160919189453125,-0.395751953125,0.0539398193359375,197202.64009525,0.2624337527708063,-0.485186405299432,-0.07666228777123897,197202.64702225,-98.89340209960938,-11.33351135253906,-558.3219604492188,197202.64009525,1.048293083707899,-1.585461399156775,0.3966149229914999,0.2596840560436249,-0.4918594062328339,-0.07989447563886642,-0.007901012897491455,-0.01447385549545288,0.003914594650268555,1,-0.4692056477069855,0.5353589057922363,-0.2229131460189819,-0.6659929752349854,-0.9222747683525085,-0.386298269033432,0.0135261956602335,0,0,0,-1,197202.40871125,3,2,1561914487.246248,1561913957.287787,32,0.8918345,0,0,26.32609,0,0,1561914413.669193,197200.006727,0,1.928955,75.28696,3232235528,177845136,1,1,0.53,-26.67862,-31.66469,4
1561914487.521727,54,0,0,1561914487.000156,4.634700771425511,-74.15103002458265,2552.926,0,202.1484375,4,30,-9999,1561914487.512537,-23.0794677734375,18.01938819885254,5.45318603515625,2.539631366729736,10.03309917449951,15,197202.67757025,-0.906982421875,-0.3741302490234375,0.0684814453125,197202.66035825,0.1481409987967477,-0.44929338539178,-0.06208920397021637,197202.66713325,-98.91554260253906,-11.510986328125,-558.006591796875,197202.66035825,1.053359382399166,-1.597619107661863,0.3983490383800359,0.1453913003206253,-0.4559663832187653,-0.06532139331102371,0.005279123783111572,-0.007854759693145752,0.0292201042175293,1,-0.4723678231239319,0.5377996563911438,-0.2211483418941498,-0.6623696088790894,-0.9213710427284241,-0.3878971636295319,0.02471966110169888,0,0,0,-1,197202.40871125,3,2,1561914487.246248,1561913957.287787,32,0.8918345,0,0,26.32609,0,0,1561914413.669193,197200.006727,0,1.928955,75.28696,3232235528,177845136,1,1,0.53,-21.91036,-24.40336,4
1561914487.564468,55,0,0,1561914487.000156,4.634700771425511,-74.15103002458265,2552.926,0,202.1484375,4,30,-9999,1561914487.538393,-23.04502105712891,17.8878345489502,5.53955078125,2.73101282119751,10.22448062896729,15,197202.69783425,-0.8979949951171875,-0.3614349365234375,0.057525634765625,197202.68062225,-0.116018748676539,-0.170368007570658,0.1132021895076711,197202.68724425,-98.81076049804688,-11.28477478027344,-557.6234741210938,197202.68062225,1.05348981829674,-1.604308223009514,0.3980114815248085,-0.1187684386968613,-0.1770410239696503,0.1099700033664703,0.01433348655700684,0.01345580816268921,0.03759479522705078,1,-0.4730526804924011,0.5400596857070923,-0.2197248041629791,-0.660513162612915,-0.9213158488273621,-0.3875860273838043,0.03088660538196564,0,0,0,-1,197202.40871125,3,2,1561914487.246248,1561913957.287787,32,0.8918345,0,0,26.32609,0,0,1561914413.669193,197200.006727,0,1.928955,75.28696,3232235528,177845136,1,1,0.53,-13.97344,-18.62615,4
1561914487.567362,56,0,0,1561914487.000156,4.634700771425511,-74.15103002458265,2552.926,0,202.1484375,4,30,-9999,1561914487.562629,-22.84832763671875,18.20817184448242,5.97283935546875,3.119897365570068,10.61336517333984,15,197202.71809825,-0.9015655517578125,-0.371246337890625,0.0515289306640625,197202.70088625,-0.2557726542523001,-0.05017981389149102,0.2511110570802254,197202.70735625,-98.71051025390625,-11.26510620117188,-557.759033203125,197202.70088625,1.048796233222131,-1.604448375262498,0.3941821659323478,-0.2585223317146301,-0.05685283243656158,0.2478788793087006,0.02479314804077148,0.02261829376220703,0.02646017074584961,1,-0.4708053171634674,0.5421024560928345,-0.219440370798111,-0.6605400443077087,-0.922788143157959,-0.3840532004833221,0.03106543980538845,0,0,0,-1,197202.40871125,3,2,1561914487.246248,1561913957.287787,32,0.8918345,0,0,26.32609,0,0,1561914413.669193,197200.006727,0,1.928955,75.28696,3232235528,177845136,1,1,0.53,-13.97344,-18.75256,4
1561914487.582382,57,0,0,1561914487.000156,4.634700771425511,-74.15103002458265,2552.926,0,202.1484375,4,30,-9999,1561914487.562629,-22.84832763671875,18.20817184448242,5.97283935546875,3.119897365570068,10.61336517333984,15,197202.73836125,-0.921173095703125,-0.3812408447265625,0.037994384765625,197202.72111925,-0.1726016007769075,-0.08089431705948388,0.1884197123875421,197202.72746725,-98.51641845703125,-11.04208374023438,-557.494140625,197202.72111925,1.04361625869093,-1.603687277775906,0.3899189866606955,-0.1753512918949127,-0.08756732940673828,0.1851875334978104,0.02287411689758301,0.008867174386978149,0.02111232280731201,1,-0.4682050943374634,0.5440517663955688,-0.2193539440631866,-0.6608143448829651,-0.9244396686553955,-0.3801134824752808,0.03041666932404041,0,0,0,-1,197202.40871125,3,2,1561914487.246248,1561913957.287787,32,0.8918345,0,0,26.32609,0,0,1561914413.669193,197200.006727,0,1.928955,75.28696,3232235528,177845136,1,1,0.53,-13.97344,-18.75256,4
1561914487.602611,58,0,0,1561914487.000156,4.634700771425511,-74.15103002458265,2552.926,0,202.1484375,4,30,-9999,1561914487.589559,-22.75191497802734,18.16603851318359,6.06378173828125,3.351661205291748,10.84512901306152,15,197202.75862525,-0.939788818359375,-0.386260986328125,0.038604736328125,197202.74138325,-0.1256085254458053,-0.08555165317381445,0.1336046666187682,197202.74757825,-98.6024169921875,-11.05905151367188,-557.4945068359375,197202.74138325,1.040471202934427,-1.6046232167088,0.3868755341548858,-0.1283582150936127,-0.09222466498613358,0.130372479557991,0.004389762878417969,-0.003944098949432373,0.006673574447631836,1,-0.4666555225849152,0.5457957983016968,-0.2191287577152252,-0.6605470180511475,-0.925562858581543,-0.3772967159748077,0.03132085874676704,0,0,0,-1,197202.40871125,3,2,1561914487.246248,1561913957.287787,32,0.8918345,0,0,26.32609,0,0,1561914413.669193,197200.006727,0,1.928955,75.28696,3232235528,177845136,1,1,0.53,-13.97344,-18.87136,4
1561914487.650171,59,0,0,1561914487.000156,4.634700771425511,-74.15103002458265,2552.926,0,202.1484375,4,30,-9999,1561914487.639794,-22.74772644042969,18.29037857055664,6.13861083984375,4.176248073577881,11.66971588134766,15,197202.77888925,-0.933868408203125,-0.3716583251953125,0.0460662841796875,197202.76164625,-0.2349363481996292,0.07252293648892881,0.08925903972731376,197202.76768925,-98.72607421875,-11.25526428222656,-557.4945068359375,197202.76164625,1.036669493168516,-1.603857680117814,0.3848544408700528,-0.2376860380172729,0.06584992259740829,0.08602684736251831,-0.0134422779083252,-0.01083678007125854,0.007967233657836914,1,-0.4650037884712219,0.5468913912773132,-0.2187368422746658,-0.6609352827072144,-0.9263465404510498,-0.3754242360591888,0.03063743375241756,0,0,0,-1,197202.40871125,3,2,1561914487.246248,1561913957.287787,32,0.8918345,0,0,26.32609,0,0,1561914413.669193,197200.006727,0,1.928955,75.28696,3232235528,177845136,1,1,0.53,-13.97344,-20.0882,4
1561914487.653957,60,0,0,1561914487.000156,4.634700771425511,-74.15103002458265,2552.926,0,202.1484375,4,30,-9999,1561914487.639794,-22.74772644042969,18.29037857055664,6.13861083984375,4.176248073577881,11.66971588134766,15,197202.79915225,-0.906280517578125,-0.357177734375,0.04730224609375,197202.78191025,-0.325476901043489,0.1396439170227409,0.1003835962327928,197202.78780025,-98.61300659179688,-10.99867248535156,-557.3859252929688,197202.78191025,1.03017492081106,-1.599079051380547,0.3833036429010409,-0.3282265663146973,0.1329708993434906,0.09715140610933304,-0.006805300712585449,0.002328097820281982,0.01983940601348877,1,-0.4622972011566162,0.5471697449684143,-0.2182213664054871,-0.6627713441848755,-0.9270631074905396,-0.3739864230155945,0.02622686326503754,0,0,0,-1,197202.40871125,3,2,1561914487.246248,1561913957.287787,32,0.8918345,0,0,26.32609,0,0,1561914413.669193,197200.006727,0,1.928955,75.28696,3232235528,177845136,1,1,0.53,-13.97344,-20.0882,4
1561914487.663716,61,0,0,1561914487.000156,4.634700771425511,-74.15103002458265,2552.926,0,202.1484375,4,30,-9999,1561914487.639794,-22.74772644042969,18.29037857055664,6.13861083984375,4.176248073577881,11.66971588134766,15,197202.81941625,-0.8986968994140625,-0.359283447265625,0.0302276611328125,197202.80217425,-0.2700647745583193,-0.005559082459431402,0.1261677892747219,197202.80791125,-98.34024047851562,-11.06063842773438,-557.5009155273438,197202.80217425,1.02346028880868,-1.595355431648352,0.3812085075851872,-0.2728144526481628,-0.0122321005910635,0.1229356005787849,0.02165532112121582,0.01486477255821228,0.02450835704803467,1,-0.4594980776309967,0.5479584336280823,-0.2175618410110474,-0.6642815470695496,-0.9279358386993408,-0.3720425069332123,0.0227938573807478,0,0,0,-1,197202.40871125,3,2,1561914487.246248,1561913957.287787,32,0.8918345,0,0,26.32609,0,0,1561914413.669193,197200.006727,0,1.928955,75.28696,3232235528,177845136,1,1,0.53,-13.97344,-20.70671,4
1561914487.683676,62,0,0,1561914487.000156,4.634700771425511,-74.15103002458265,2552.926,0,202.1484375,4,30,-9999,1561914487.664053,-22.67391967773438,18.16614723205566,6.31866455078125,4.588325023651123,12.0817928314209,15,197202.83964925,-0.9099578857421875,-0.3652191162109375,0.013153076171875,197202.82243725,-0.2282456885930231,-0.07583617520109638,0.1219818326733354,197202.82802225,-98.5166015625,-11.08737182617188,-557.4482421875,197202.82243725,1.017977128253519,-1.594631212625901,0.3788264263756929,-0.230995386838913,-0.08250918984413147,0.1187496408820152,0.03013861179351807,0.01054689288139343,0.008084774017333984,1,-0.4572808146476746,0.5495140552520752,-0.216713011264801,-0.6648038029670715,-0.9288354516029358,-0.3698303699493408,0.02214288152754307,0,0,0,-1,197202.40871125,3,2,1561914487.246248,1561913957.287787,32,0.8918345,0,0,26.32609,0,0,1561914413.669193,197200.006727,0,1.928955,75.28696,3232235528,177845136,1,1,0.53,-13.97344,-21.32251,4
1561914487.713563,63,0,0,1561914487.000156,4.634700771425511,-74.15103002458265,2552.926,0,202.1484375,4,30,-9999,1561914487.690421,-22.62999725341797,18.12766265869141,6.4259033203125,4.926600933074951,12.42006874084473,15,197202.85991325,-0.9159088134765625,-0.3611602783203125,0.0126953125,197202.84270125,-0.1950512498179484,-0.01247877391978429,0.1069402988365678,197202.84816425,-98.37983703613281,-11.0677490234375,-556.8692626953125,197202.84270125,1.013249783211432,-1.594042672766574,0.3767428122139941,-0.197800949215889,-0.01915179193019867,0.1037081107497215,0.01965874433517456,0.002674579620361328,-0.00846099853515625,1,-0.4553599655628204,0.5508669018745422,-0.215981513261795,-0.6652405261993408,-0.9296166300773621,-0.3678936660289764,0.021614084020257,0,0,0,-1,197202.40871125,3,2,1561914487.246248,1561913957.287787,32,0.8918345,0,0,26.32609,0,0,1561914413.669193,197200.006727,0,1.928955,75.28696,3232235528,177845136,1,1,0.53,-13.97344,-22.20214,4
1561914487.724273,64,0,0,1561914487.000156,4.634700771425511,-74.15103002458265,2552.926,0,202.1484375,4,30,-9999,1561914487.714652,-22.77526092529297,18.4135684967041,6.55108642578125,5.214478015899658,12.70794582366943,15,197202.88017725,-0.9042510986328125,-0.3615875244140625,0.0188751220703125,197202.86296525,-0.1778240596745529,0.07812622742245552,0.09915055264808607,197202.86827525,-98.02139282226562,-10.99710083007812,-557.0255737304688,197202.86296525,1.009200807982661,-1.592105086350833,0.3747679995458857,-0.1805737614631653,0.07145321369171143,0.09591836482286453,0.01447254419326782,0.004896402359008789,-0.007133007049560547,1,-0.4535053670406342,0.5515859127044678,-0.2157434374094009,-0.6659885048866272,-0.9303813576698303,-0.3660566508769989,0.01982827484607697,0,0,0,-1,197202.40871125,3,2,1561914487.246248,1561913957.287787,32,0.8918345,0,0,26.32609,0,0,1561914413.669193,197200.006727,0,1.928955,75.28696,3232235528,177845136,1,1,0.53,-13.97344,-22.20214,4
1561914487.744541,65,0,0,1561914487.000156,4.634700771425511,-74.15103002458265,2552.926,0,202.1484375,4,30,-9999,1561914487.740888,-22.43449401855469,18.37369537353516,6.50164794921875,5.550022602081299,13.04349040985107,15,197202.90044025,-0.888031005859375,-0.3478546142578125,0.028350830078125,197202.88322825,-0.2104328693259191,0.108358432117035,0.1023455470078541,197202.88838625,-98.27287292480469,-10.85824584960938,-556.9979858398438,197202.88322825,1.004967738470478,-1.588634136783402,0.3729588467624496,-0.2131825685501099,0.1016854122281075,0.09911336004734039,0.02685391902923584,0.002784907817840576,0.002264499664306641,1,-0.4514761865139008,0.5517921447753906,-0.2157304584980011,-0.6671993136405945,-0.9311050176620483,-0.3643724620342255,0.0166106354445219,0,0,0,-1,197202.40871125,3,2,1561914487.246248,1561913957.287787,32,0.8918345,0,0,26.32609,0,0,1561914413.669193,197200.006727,0,1.928955,75.28696,3232235528,177845136,1,1,0.53,-13.97344,-22.98231,4
1561914487.764905,66,0,0,1561914487.000156,4.634700771425511,-74.15103002458265,2552.926,0,202.1484375,4,30,-9999,1561914487.740888,-22.43449401855469,18.37369537353516,6.50164794921875,5.550022602081299,13.04349040985107,15,197202.92070425,-0.8788604736328125,-0.3379058837890625,0.017486572265625,197202.90346225,-0.2373012352476195,0.07030345803645677,0.1346691321064729,197202.90849725,-98.20986938476562,-11.02981567382812,-557.082275390625,197202.90346225,0.9999267824314293,-1.585035863642532,0.3708090129837565,-0.2400509268045425,0.06363043934106827,0.1314369440078735,0.04390883445739746,0.0145149827003479,0.01507949829101562,1,-0.449115127325058,0.5522058010101318,-0.2155846059322357,-0.6684964299201965,-0.9319398403167725,-0.362369567155838,0.01327128894627094,0,0,0,-1,197202.40871125,3,2,1561914487.246248,1561913957.287787,32,0.8918345,0,0,26.32609,0,0,1561914413.669193,197200.006727,0,1.928955,75.28696,3232235528,177845136,1,1,0.53,-13.97344,-23.94484,4
1561914487.801269,67,0,0,1561914487.000156,4.634700771425511,-74.15103002458265,2552.926,0,202.1484375,4,30,-9999,1561914487.791764,-22.51025390625,18.59076499938965,6.7564697265625,6.258569240570068,13.75203704833984,15,197202.94096825,-0.88189697265625,-0.3393707275390625,0.0051422119140625,197202.92372525,-0.2257665519342683,0.00983212442846354,0.2168646696745695,197202.92860825,-98.40277099609375,-10.61912536621094,-557.1736450195312,197202.92372525,0.9948178180132148,-1.582677848448277,0.3673948680944247,-0.2285162508487701,0.003159106243401766,0.2136324942111969,0.05433982610702515,0.02127945423126221,0.006398200988769531,1,-0.4465202987194061,0.5533207058906555,-0.2155579924583435,-0.6693209409713745,-0.9332002997398376,-0.3591853678226471,0.01108836103230715,0,0,0,-1,197202.40871125,3,2,1561914487.246248,1561913957.287787,32,0.8918345,0,0,26.32609,0,0,1561914413.669193,197200.006727,0,1.928955,75.28696,3232235528,177845136,1,1,0.53,-13.97344,-25.52567,4
1561914487.805897,68,0,0,1561914487.000156,4.634700771425511,-74.15103002458265,2552.926,0,202.1484375,4,30,-9999,1561914487.791764,-22.51025390625,18.59076499938965,6.7564697265625,6.258569240570068,13.75203704833984,15,197202.96123125,-0.886627197265625,-0.3311767578125,-0.0013885498046875,197202.94398925,-0.2046266455173283,0.08098086979491145,0.2666191767399748,197202.94871925,-98.04815673828125,-11.02987670898438,-556.65185546875,197202.94398925,0.9900811045340076,-1.580349744539578,0.3626646151371081,-0.2073763459920883,0.07430785149335861,0.263386994600296,0.05301535129547119,0.01539605855941772,-0.003789663314819336,1,-0.4436638057231903,0.5546425580978394,-0.2160879224538803,-0.6699553728103638,-0.9349123239517212,-0.3547667860984802,0.008931879885494709,0,0,0,-1,197202.40871125,3,2,1561914487.246248,1561913957.287787,32,0.8918345,0,0,26.32609,0,0,1561914413.669193,197200.006727,0,1.928955,75.28696,3232235528,177845136,1,1,0.53,-13.97344,-25.52567,4
1561914487.82561,69,0,0,1561914487.000156,4.634700771425511,-74.15103002458265,2552.926,0,202.1484375,4,30,-9999,1561914487.816311,-22.47243499755859,18.6881046295166,6.72271728515625,6.557789325714111,14.05125713348389,15,197202.98149525,-0.8817291259765625,-0.3147125244140625,0.01104736328125,197202.96425325,-0.181761543346235,0.1298828989953825,0.3440351390997062,197202.96883025,-97.70533752441406,-10.65908813476562,-556.8319702148438,197202.96425325,0.9857232429597969,-1.576637995858627,0.3566603380248594,-0.1845112442970276,0.1232098862528801,0.3408029675483704,0.05042487382888794,0.01796996593475342,-0.006862640380859375,1,-0.4404007196426392,0.5556835532188416,-0.2174728810787201,-0.6707969307899475,-0.9370520710945129,-0.349146693944931,0.005474010482430458,0,0,0,-1,197202.40871125,3,2,1561914487.246248,1561913957.287787,32,0.8918345,0,0,26.32609,0,0,1561914413.669193,197200.006727,0,1.928955,75.28696,3232235528,177845136,1,1,0.53,-13.97344,-26.44474,4
1561914487.84584,70,0,0,1561914487.000156,4.634700771425511,-74.15103002458265,2552.926,0,202.1484375,4,30,-9999,1561914487.842449,-21.97521209716797,18.75321197509766,6.88409423828125,6.856100559234619,14.34956836700439,15,197203.00175925,-0.8719482421875,-0.3074188232421875,0.0351409912109375,197202.98451625,-0.1748447813630812,0.0157091883220504,0.4810843382723829,197202.98894125,-97.87623596191406,-10.65658569335938,-556.648193359375,197202.98451625,0.9819870205240847,-1.573913480319996,0.3485539538492575,-0.1775944828987122,0.009036170318722725,0.4778521656990051,0.05813384056091309,0.02682653069496155,0.00811767578125,1,-0.4368199110031128,0.5573627352714539,-0.2195464968681335,-0.6710696220397949,-0.9398629665374756,-0.3415390849113464,0.00292970659211278,0,0,0,-1,197202.40871125,3,2,1561914487.246248,1561913957.287787,32,0.8918345,0,0,26.32609,0,0,1561914413.669193,197200.006727,0,1.928955,75.28696,3232235528,177845136,1,1,0.53,-13.97344,-27.19176,4
1561914487.885532,71,0,0,1561914487.000156,4.634700771425511,-74.15103002458265,2552.926,0,202.1484375,4,30,-9999,1561914487.868606,-21.77298736572266,19.31411361694336,7.04461669921875,7.36033296585083,14.85380077362061,15,197203.02199225,-0.8818359375,-0.2905426025390625,0.02691650390625,197203.00478025,-0.2931804801879891,-0.05175187788296479,0.6726308680957871,197203.00905225,-97.61965942382812,-10.14591979980469,-556.6104125976562,197203.00478025,0.9769139785458842,-1.573035573658014,0.3369125024541598,-0.2959301471710205,-0.05842489749193192,0.6693986654281616,0.07182919979095459,0.02315592765808105,0.03302764892578125,1,-0.432061493396759,0.5606955885887146,-0.22194904088974,-0.6705833077430725,-0.9437775015830994,-0.3305747509002686,0.00211335439234972,0,0,0,-1,197202.40871125,3,2,1561914487.246248,1561913957.287787,32,0.8918345,0,0,26.32609,0,0,1561914413.669193,197200.006727,0,1.928955,75.28696,3232235528,177845136,1,1,0.53,-13.97344,-28.19906,4
1561914487.888606,72,0,0,1561914487.000156,4.634700771425511,-74.15103002458265,2552.926,0,202.1484375,4,30,-9999,1561914487.868606,-21.77298736572266,19.31411361694336,7.04461669921875,7.36033296585083,14.85380077362061,15,197203.04225525,-0.8907470703125,-0.28173828125,-0.01934814453125,197203.02504425,-0.3874912701870742,0.04187927340593205,0.8769544458810644,197203.02916325,-97.28958129882812,-10.04974365234375,-556.4276123046875,197203.02504425,0.969392931778475,-1.570820294555187,0.3212244234534469,-0.3902409374713898,0.03520625457167625,0.87372225522995,0.06701374053955078,0.02518600225448608,0.02689385414123535,1,-0.4252885580062866,0.5649256706237793,-0.2251666039228439,-0.6702900528907776,-0.9488496780395508,-0.3157286047935486,2.274180224048905e-05,0,0,0,-1,197202.40871125,3,2,1561914487.246248,1561913957.287787,32,0.8918345,0,0,26.32609,0,0,1561914413.669193,197200.006727,0,1.928955,75.28696,3232235528,177845136,1,1,0.53,-13.97344,-28.19906,4
1561914487.906635,73,0,0,1561914487.000156,4.634700771425511,-74.15103002458265,2552.926,0,202.1484375,4,30,-9999,1561914487.892974,-21.52444458007812,19.38471221923828,7.1468505859375,7.805539608001709,15.29900741577148,15,197203.06251925,-0.947021484375,-0.259918212890625,-0.0462646484375,197203.04530725,-0.1585955039719628,-0.1728785695302757,0.9446765018729074,197203.04927525,-96.65951538085938,-9.58587646484375,-556.372314453125,197203.04530725,0.9628572055303379,-1.569546661466404,0.3025741950424753,-0.1613451987504959,-0.1795515865087509,0.9414443373680115,0.06382477283477783,0.01624017953872681,-0.01815521717071533,1,-0.4179950654506683,0.5698102116584778,-0.2294888943433762,-0.6692766547203064,-0.9545717835426331,-0.2979784607887268,-0.001192895928397775,0,0,0,-1,197202.40871125,3,2,1561914487.246248,1561913957.287787,32,0.8918345,0,0,26.32609,0,0,1561914413.669193,197200.006727,0,1.928955,75.28696,3232235528,177845136,1,1,0.53,-13.97344,-29.035,4
1561914487.92688,74,0,0,1561914487.000156,4.634700771425511,-74.15103002458265,2552.926,0,202.1484375,4,30,-9999,1561914487.917475,-20.90830230712891,19.89740371704102,7.3857421875,7.499478816986084,14.99294662475586,15,197203.08278325,-1.029571533203125,-0.262847900390625,-0.0553131103515625,197203.06557125,0.3218320987756066,-0.6721602875311701,0.9713445980806339,197203.06938625,-96.36637878417969,-9.35882568359375,-556.259521484375,197203.06557125,0.9644250643583355,-1.578600784685536,0.2833226912180378,0.3190824091434479,-0.6788333058357239,0.9681124091148376,0.01308119297027588,0.01962921023368835,-0.05375790596008301,1,-0.4139986932277679,0.5764995217323303,-0.2345646619796753,-0.6642535924911499,-0.9601026773452759,-0.279547393321991,0.007493233308196068,0,0,0,-1,197202.40871125,3,2,1561914487.246248,1561913957.287787,32,0.8918345,0,0,26.32609,0,0,1561914413.669193,197200.006727,0,1.928955,75.28696,3232235528,177845136,1,1,0.53,-13.97344,-29.82864,4
1561914487.96582,75,0,0,1561914487.000156,4.634700771425511,-74.15103002458265,2552.926,0,202.1484375,4,30,-9999,1561914487.94424,-19.58353424072266,20.93130302429199,7.46002197265625,6.478307247161865,13.97177505493164,15,197203.10304625,-1.19622802734375,-0.2852020263671875,-0.05303955078125,197203.08580425,0.7161913950978862,-0.9838670478422954,0.9918602595380592,197203.08949725,-95.6478271484375,-8.49700927734375,-556.2681884765625,197203.08580425,0.9752710599438164,-1.599162397182284,0.2630545983607561,0.7134417295455933,-0.990540087223053,0.988628089427948,-0.06435972452163696,-0.002816587686538696,-0.08269977569580078,1,-0.4138269424438477,0.5851842164993286,-0.2406732141971588,-0.6545098423957825,-0.965211808681488,-0.2600312829017639,0.02738661132752895,0,0,0,-1,197202.40871125,3,2,1561914487.246248,1561913957.287787,32,0.8918345,0,0,26.32609,0,0,1561914413.669193,197200.006727,0,1.928955,75.28696,3232235528,177845136,1,1,0.53,-13.97344,-31.39949,4
1561914487.970885,76,0,0,1561914487.000156,4.634700771425511,-74.15103002458265,2552.926,0,202.1484375,4,30,-9999,1561914487.968815,-19.19626617431641,21.29438400268555,7.447021484375,5.0620436668396,12.55551147460938,15,197203.12331025,-1.447006225585938,-0.4353485107421875,-0.011962890625,197203.10606825,0.9367227049612767,-1.018917177264937,0.566050628638598,197203.10960825,-95.2559814453125,-8.110382080078125,-556.115478515625,197203.10606825,0.9919854790004108,-1.623800611819857,0.2454748749636607,0.933965802192688,-1.025597453117371,0.5628193616867065,-0.2275683283805847,-0.04218500852584839,-0.1044307947158813,1,-0.4168114364147186,0.5932654142379761,-0.2468870282173157,-0.642923891544342,-0.9686596989631653,-0.2430169880390167,0.05139125138521194,0,0,0,-1,197202.40871125,3,2,1561914487.246248,1561913957.287787,32,0.8918345,0,0,26.32609,0,0,1561914413.669193,197200.006727,0,1.928955,75.28696,3232235528,177845136,1,1,0.53,-13.97344,-31.39949,4
1561914487.987684,77,0,0,1561914487.000156,4.634700771425511,-74.15103002458265,2552.926,0,202.1484375,4,30,-9999,1561914487.968815,-19.19626617431641,21.29438400268555,7.447021484375,5.0620436668396,12.55551147460938,15,197203.14357425,-1.681686401367188,-0.62603759765625,0.060577392578125,197203.12633125,0.9586314659849225,-0.900836875588568,-0.415884562148954,197203.12971925,-94.9168701171875,-8.046981811523438,-556.286865234375,197203.12633125,1.012434258880234,-1.648811548797355,0.2420630768663725,0.9558745622634888,-0.90751713514328,-0.4191158413887024,-0.4791138172149658,-0.1956424415111542,-0.08762681484222412,1,-0.4250600039958954,0.5976252555847168,-0.2492952793836594,-0.6324711441993713,-0.9678923487663269,-0.2397060692310333,0.07566390931606293,0,0,0,-1,197202.40871125,3,2,1561914487.246248,1561913957.287787,32,0.8918345,0,0,26.32609,0,0,1561914413.669193,197200.006727,0,1.928955,75.28696,3232235528,177845136,1,1,0.53,-13.97344,-31.93579,4
1561914488.008476,78,0,0,1561914487.000156,4.634700771425511,-74.15103002458265,2552.926,0,202.1484375,4,30,-9999,1561914487.994311,-19.4412841796875,21.05799674987793,7.5166015625,4.008039951324463,11.50150775909424,15,197203.16383725,-1.975738525390625,-0.845916748046875,0.10858154296875,197203.14659525,0.1823391829866732,-0.2141008410952852,-2.3487546833711,197203.14983025,-95.88516235351562,-8.876617431640625,-556.1976318359375,197203.14659525,1.027674992738107,-1.665229090295558,0.2666003835395628,0.1795822829008102,-0.2207811176776886,-2.351985931396484,-0.7213123440742493,-0.3625841438770294,-0.03038394451141357,1,-0.4382392764091492,0.5944972634315491,-0.2422187328338623,-0.6291656494140625,-0.9603740572929382,-0.2634534537792206,0.09096132218837738,0,0,0,-1,197202.40871125,3,2,1561914487.246248,1561913957.287787,32,0.8918345,0,0,26.32609,0,0,1561914413.669193,197200.006727,0,1.928955,75.28696,3232235528,177845136,1,1,0.53,-13.97344,-32.28869,4
1561914488.058936,79,0,0,1561914487.000156,4.634700771425511,-74.15103002458265,2552.926,0,202.1484375,4,30,-9999,1561914488.052128,-20.69752502441406,19.97129249572754,7.59051513671875,4.506426334381104,11.99989414215088,15,197203.18410125,-2.13818359375,-0.7376251220703125,0.127349853515625,197203.16685925,-0.9530540077139696,1.267952832907664,-5.01877394588951,197203.16994125,-97.97367858886719,-11.15385437011719,-556.2506103515625,197203.16685925,1.02737073581328,-1.65555309212043,0.3424790042774282,-0.9558109045028687,1.261272549629211,-5.022005081176758,-1.037194728851318,-0.5100935697555542,0.02884256839752197,1,-0.4569839537143707,0.5753565430641174,-0.2182762920856476,-0.6422507166862488,-0.9385438561439514,-0.3358231484889984,0.07973897457122803,0,0,0,-1,197202.40871125,3,2,1561914487.246248,1561913957.287787,32,0.8918345,0,0,26.32609,0,0,1561914413.669193,197200.006727,0,1.928955,75.28696,3232235528,177845136,1,1,0.53,-13.97344,-33.32249,4
1561914488.062349,80,0,0,1561914487.000156,4.634700771425511,-74.15103002458265,2552.926,0,202.1484375,4,30,-9999,1561914488.052128,-20.69752502441406,19.97129249572754,7.59051513671875,4.506426334381104,11.99989414215088,15,197203.20433425,-1.92578125,-0.719696044921875,0.1355743408203125,197203.18712225,-2.904082093880493,2.900269778780045,-6.788528113505392,197203.19005225,-100.6892395019531,-14.40695190429688,-556.5189208984375,197203.18712225,0.9948813155278268,-1.599299177548965,0.46477070930226,-2.906838893890381,2.893589496612549,-6.791759014129639,-1.244622468948364,-0.2894073128700256,0.1018738746643066,1,-0.4740482866764069,0.5366714000701904,-0.1784980297088623,-0.6748335957527161,-0.8935611248016357,-0.4482178390026093,0.02547593973577023,0,0,0,-1,197202.40871125,3,2,1561914487.246248,1561913957.287787,32,0.8918345,0,0,26.32609,0,0,1561914413.669193,197200.006727,0,1.928955,75.28696,3232235528,177845136,1,1,0.53,-13.97344,-33.32249,4
1561914488.069009,81,0,0,1561914487.000156,4.634700771425511,-74.15103002458265,2552.926,0,202.1484375,4,30,-9999,1561914488.052128,-20.69752502441406,19.97129249572754,7.59051513671875,4.506426334381104,11.99989414215088,15,197203.22459825,-1.73577880859375,-0.5600433349609375,0.2284088134765625,197203.20738625,-5.034811501973967,2.797861647486574,-8.801004913399968,197203.21016325,-103.4256744384766,-19.12991333007812,-557.0128173828125,197203.20738625,0.8923396750872318,-1.483261234771029,0.6193909146241031,-5.03756856918335,2.791181325912476,-8.804235458374023,-1.114666700363159,-0.139156699180603,0.2067571878433228,1,-0.4803440272808075,0.4834026992321014,-0.1173317730426788,-0.7223742604255676,-0.8111145496368408,-0.580539345741272,-0.07118289172649384,0,0,0,-1,197202.40871125,3,2,1561914487.246248,1561913957.287787,32,0.8918345,0,0,26.32609,0,0,1561914413.669193,197200.006727,0,1.928955,75.28696,3232235528,177845136,1,1,0.53,-13.97344,-33.32249,4
1561914488.088936,82,0,0,1561914488.000152,4.634700771425511,-74.15103002458265,2552.935,0,85.78125,4,30,-9999,1561914488.07514,-28.10498809814453,8.148782730102539,6.7376708984375,21.41647720336914,28.90994453430176,15,197203.24486225,-1.823822021484375,-0.2591400146484375,0.150421142578125,197203.22765025,-5.894127299323219,0.4772938610928731,-11.08834390624053,197203.23027425,-104.9380645751953,-26.156494140625,-556.7544555664062,197203.22765025,0.7008636373139144,-1.325449529894494,0.7990027777670287,-5.896884441375732,0.470613569021225,-11.09157466888428,-1.059242725372314,0.1566176414489746,0.3978074789047241,1,-0.4825790524482727,0.4271043539047241,-0.02455222047865391,-0.7642620205879211,-0.6765360236167908,-0.7166609764099121,-0.1693986654281616,0,0,0,-1,197202.40871125,3,2,1561914487.246248,1561913957.287787,32,0.8918345,0,0,26.32609,0,0,1561914413.669193,197200.006727,0,1.928955,75.28696,3232235528,177845136,1,1,0.53,-13.97344,-33.80114,4
1561914488.113107,83,0,0,1561914488.000152,4.634700771425511,-74.15103002458265,2552.935,0,85.78125,4,30,-9999,1561914488.095452,-29.32942962646484,0.8811912536621094,6.842041015625,43.9840202331543,51.47748947143555,15,197203.26512525,-1.410812377929688,-0.038726806640625,-0.2042694091796875,197203.24791325,-5.09549748636582,0.2138536997461259,-12.68716307928968,197203.25038525,-104.9132690429688,-34.13601684570312,-557.1484985351562,197203.24791325,0.3902492784575425,-1.078857458819218,0.9876080174609126,-5.098254680633545,0.2071734219789505,-12.69039440155029,-1.338435411453247,0.5755711197853088,0.410530686378479,1,-0.4866504967212677,0.3648513555526733,0.09235401451587677,-0.788368821144104,-0.4853866100311279,-0.8347111344337463,-0.2601095736026764,0,0,0,-1,197202.40871125,3,2,1561914487.246248,1561913957.287787,32,0.8918345,0,0,26.32609,0,0,1561914413.669193,197200.006727,0,1.928955,75.28696,3232235528,177845136,1,1,0.53,-13.97344,-33.93188,4
1561914488.129425,84,0,0,1561914488.000152,4.634700771425511,-74.15103002458265,2552.935,0,85.78125,4,30,-9999,1561914488.119884,-28.59181976318359,-7.220024108886719,6.3675537109375,108.3075790405273,115.8010482788086,15,197203.28538925,-0.494964599609375,-0.04315185546875,-0.4585418701171875,197203.26814725,-2.350806382674897,0.1745875200017796,-12.46540378584765,197203.27049625,-102.7740783691406,-41.710693359375,-557.57080078125,197203.26814725,-0.07432716399976959,-0.6654391066193083,1.137001328113524,-2.35356330871582,0.1679072380065918,-12.46863460540771,-1.151306629180908,0.8686503171920776,0.1263713836669922,1,-0.4982657730579376,0.2939572036266327,0.205311581492424,-0.7894095778465271,-0.2595058083534241,-0.9073771834373474,-0.3306407630443573,0,0,0,-1,197202.40871125,3,2,1561914487.246248,1561913957.287787,32,0.8918345,0,0,26.32609,0,0,1561914413.669193,197200.006727,0,1.928955,75.28696,3232235528,177845136,1,1,0.53,-13.97344,-34.72158,4
1561914488.14995,85,0,0,1561914488.000152,4.634700771425511,-74.15103002458265,2552.935,0,85.78125,4,30,-9999,1561914488.146171,-22.19447326660156,-19.36770629882812,6.6514892578125,109.6897659301758,117.183235168457,15,197203.30565325,0.122314453125,-0.053253173828125,-0.611724853515625,197203.28841025,0.8294431194018328,-0.9906197591023004,-11.36793534065028,197203.29060825,-99.25486755371094,-47.40443420410156,-557.1221923828125,197203.28841025,-0.6827203104481294,-0.110512521534625,1.219151957874817,0.8266862034797668,-0.9973000288009644,-11.37116622924805,-0.4569768607616425,0.8956557512283325,-0.1162009835243225,1,-0.5235034823417664,0.2340377420186996,0.3038499653339386,-0.7608190774917603,-0.03798772767186165,-0.9388076066970825,-0.342340886592865,0,0,0,-1,197202.40871125,3,2,1561914487.246248,1561913957.287787,32,0.8918345,0,0,26.32609,0,0,1561914413.669193,197200.006727,0,1.928955,75.28696,3232235528,177845136,1,1,0.53,-13.97344,-35.17498,4
1561914488.170237,86,0,0,1561914488.000152,4.634700771425511,-74.15103002458265,2552.935,0,85.78125,4,30,-9999,1561914488.146171,-22.19447326660156,-19.36770629882812,6.6514892578125,109.6897659301758,117.183235168457,15,197203.32591625,0.44140625,0.015838623046875,-0.5786285400390625,197203.30867425,2.553003426329746,-0.5477110361078763,-9.299409119821682,197203.31071925,-94.8968505859375,-51.45539855957031,-556.1950073242188,197203.30867425,-1.312425229367494,0.4635966697963442,1.218154317698256,2.550246477127075,-0.5543912649154663,-9.302639961242676,-0.03212767839431763,0.8852103352546692,-0.302801251411438,1,-0.5561225414276123,0.1904361397027969,0.3828898072242737,-0.7126409411430359,0.1544421315193176,-0.9384635090827942,-0.308923602104187,0,0,0,-1,197202.40871125,3,2,1561914487.246248,1561913957.287787,32,0.8918345,0,0,26.32609,0,0,1561914413.669193,197200.006727,0,1.928955,75.28696,3232235528,177845136,1,1,0.53,-13.97344,-35.17498,4
1561914488.203253,87,0,0,1561914488.000152,4.634700771425511,-74.15103002458265,2552.935,0,85.78125,4,30,-9999,1561914488.17057,-18.17611694335938,-22.83259963989258,7.96136474609375,111.1554412841797,118.6489105224609,15,197203.34618025,0.7113189697265625,0.1128997802734375,-0.4189605712890625,197203.32893825,3.495021294486427,0.07944688900702582,-6.938195103606756,197203.33083025,-91.28080749511719,-53.631591796875,-554.3201293945312,197203.32893825,-1.766004979046945,0.8811503453775554,1.162060647496463,3.49226450920105,0.07276660948991776,-6.941426277160645,0.1347854137420654,0.9334626793861389,-0.325745701789856,1,-0.5906075835227966,0.1572935879230499,0.4355795681476593,-0.6608417630195618,0.3066208362579346,-0.9176240563392639,-0.2528828084468842,0,0,0,-1,197202.40871125,3,2,1561914487.246248,1561913957.287787,32,0.8918345,0,0,26.32609,0,0,1561914413.669193,197200.006727,0,1.928955,75.28696,3232235528,177845136,1,1,0.53,-13.97344,-32.35732,4
1561914488.210605,88,0,0,1561914488.000152,4.634700771425511,-74.15103002458265,2552.935,0,85.78125,4,30,-9999,1561914488.207534,-14.73036956787109,-24.39439392089844,9.881591796875,113.1024398803711,120.5959091186523,15,197203.36644425,0.6602935791015625,0.0702362060546875,-0.1066436767578125,197203.34920125,4.324006616496875,0.2774507855255451,-4.879010719249933,197203.35094125,-88.74040222167969,-54.29586791992188,-552.3980712890625,197203.34920125,-2.072329085722589,1.162608393803065,1.10265403763639,4.321249485015869,0.2707704901695251,-4.882241725921631,0.2971621751785278,1.005307912826538,-0.2398466467857361,1,-0.6255396008491516,0.1383591145277023,0.4660138487815857,-0.6102359890937805,0.4141568243503571,-0.8924080729484558,-0.1791139245033264,0,0,0,-1,197202.40871125,3,2,1561914487.246248,1561913957.287787,32,0.8918345,0,0,26.32609,0,0,1561914413.669193,197200.006727,0,1.928955,75.28696,3232235528,177845136,1,1,0.53,-13.97344,-32.35732,4
1561914488.230702,89,0,0,1561914488.000152,4.634700771425511,-74.15103002458265,2552.935,0,85.78125,4,30,-9999,1561914488.207534,-14.73036956787109,-24.39439392089844,9.881591796875,113.1024398803711,120.5959091186523,15,197203.38667725,0.594970703125,-0.03466796875,0.09527587890625,197203.36946525,4.625316395912331,0.03565386804176283,-3.981823173303101,197203.37105225,-86.69180297851562,-54.412353515625,-549.9362182617188,197203.36946525,-2.311395177085887,1.37614450443208,1.044621667029224,4.622559070587158,0.02897359058260918,-3.985054492950439,0.1675488948822021,0.9349707365036011,-0.009500026702880859,1,-0.6590510010719299,0.1306902766227722,0.484857052564621,-0.559897780418396,0.492744654417038,-0.8647345900535583,-0.09714365750551224,0,0,0,-1,197202.40871125,3,2,1561914487.246248,1561913957.287787,32,0.8918345,0,0,26.32609,0,0,1561914413.669193,197200.952345,0,1.881348,75.28741,3232235528,177845136,1,1,0.53,-13.97344,-32.96651,4
1561914488.251161,90,0,0,1561914488.000152,4.634700771425511,-74.15103002458265,2552.935,0,85.78125,4,30,-9999,1561914488.247218,-9.15814208984375,-24.40763473510742,15.94732666015625,119.0373458862305,126.5308151245117,15,197203.406971125,0.684051513671875,-0.053009033203125,0.119049072265625,197203.38972925,4.083452329977724,0.2204610024106125,-2.956966081542851,197203.391193125,-85.10183715820312,-53.84138488769531,-548.2332153320312,197203.38972925,-2.495956379997195,1.534123203295823,0.9834631748543826,4.080695152282715,0.2137807160615921,-2.960197448730469,0.04120028018951416,0.7977534532546997,0.1155934929847717,1,-0.688029408454895,0.1282837986946106,0.4979129135608673,-0.5120952129364014,0.5537704229354858,-0.8324214816093445,-0.02031760104000568,0,0,0,-1,197202.40871125,3,2,1561914487.246248,1561913957.287787,32,0.8918345,0,0,26.32609,0,0,1561914413.669193,197200.952345,0,1.881348,75.28741,3232235528,177845136,1,1,0.53,-13.97344,-31.61266,4
1561914488.275859,91,0,0,1561914488.000152,4.634700771425511,-74.15103002458265,2552.935,0,85.78125,4,30,-9999,1561914488.271689,-9.280410766601562,-23.50952911376953,17.0726318359375,120.2372741699219,127.7307434082031,15,197203.427234125,1.0509033203125,-0.0817108154296875,0.12384033203125,197203.410022125,2.910233729682468,0.9054550632348743,-0.791573235017015,197203.411304125,-84.80332946777344,-53.08473205566406,-546.90283203125,197203.410022125,-2.619463776812141,1.647269632606777,0.9420541092781445,2.907476902008057,0.8987748026847839,-0.7948045134544373,0.09764236211776733,0.7557588815689087,0.07411682605743408,1,-0.7111772298812866,0.1292017102241516,0.4991089105606079,-0.4779374301433563,0.5864090919494629,-0.8087678551673889,0.04493226855993271,0,0,0,-1,197202.40871125,3,2,1561914487.246248,1561913957.287787,32,0.8918345,0,0,26.32609,0,0,1561914413.669193,197200.952345,0,1.881348,75.28741,3232235528,177845136,1,1,0.53,-13.97344,-30.51252,4
1561914488.291564,92,0,0,1561914488.000152,4.634700771425511,-74.15103002458265,2552.935,0,85.78125,4,30,-9999,1561914488.271689,-9.280410766601562,-23.50952911376953,17.0726318359375,120.2372741699219,127.7307434082031,15,197203.447498125,1.079879760742188,-0.186981201171875,0.24188232421875,197203.430286125,1.779033153485936,0.6005646637338069,1.670240892427327,197203.431415125,-85.65660095214844,-52.22413635253906,-546.0191650390625,197203.430286125,-2.700954559524294,1.729970805283723,0.9463943353130784,1.776276230812073,0.5938844084739685,1.667009592056274,0.4736815690994263,0.729602038860321,0.03117752075195312,1,-0.7256823778152466,0.1404155492782593,0.487616628408432,-0.4646488428115845,0.5772217512130737,-0.8113128542900085,0.09266287833452225,0,0,0,-1,197202.40871125,3,2,1561914487.246248,1561913957.287787,32,0.8918345,0,0,26.32609,0,0,1561914413.669193,197200.952345,0,1.881348,75.28741,3232235528,177845136,1,1,0.53,-13.97344,-30.64389,4
1561914488.311941,93,0,0,1561914488.000152,4.634700771425511,-74.15103002458265,2552.935,0,85.78125,4,30,-9999,1561914488.298023,-10.16735076904297,-22.2741584777832,17.73248291015625,121.1969146728516,128.6903839111328,15,197203.467762125,0.91607666015625,-0.243255615234375,0.297454833984375,197203.450550125,1.299550972925345,-0.1489724376890705,3.506275813253102,197203.451526125,-86.90458679199219,-50.7816162109375,-545.429443359375,197203.450550125,-2.770553643463214,1.791953982781449,0.9922771560373148,1.296794056892395,-0.155652716755867,3.503044605255127,0.5464125871658325,0.6502920389175415,0.1219401359558105,1,-0.7297497391700745,0.1656394898891449,0.4714377522468567,-0.4666639864444733,0.533467173576355,-0.8372732400894165,0.1199422478675842,0,0,0,-1,197202.40871125,3,2,1561914487.246248,1561913957.287787,32,0.8918345,0,0,26.32609,0,0,1561914413.669193,197200.952345,0,1.881348,75.28741,3232235528,177845136,1,1,0.53,-13.97344,-31.38501,4
1561914488.332487,94,0,0,1561914488.000152,4.634700771425511,-74.15103002458265,2552.935,0,85.78125,4,30,-9999,1561914488.322504,-11.62274932861328,-21.08714294433594,18.274658203125,122.2459564208984,129.7394256591797,15,197203.488025125,0.4817047119140625,-0.3570709228515625,0.3388824462890625,197203.470783125,0.7316292073048575,-0.3296830976691602,5.266849531959263,197203.471637125,-88.60383605957031,-49.51834106445312,-544.8529052734375,197203.470783125,-2.855638248338806,1.85861488268046,1.07313555677722,0.7288722991943359,-0.3363633751869202,5.263618469238281,0.458341658115387,0.6354460716247559,0.1619476079940796,1,-0.7251708507537842,0.2046481370925903,0.4506891071796417,-0.4786708354949951,0.4577350318431854,-0.8787016272544861,0.1355072408914566,0,0,0,-1,197202.40871125,3,2,1561914487.246248,1561913957.287787,32,0.8918345,0,0,26.32609,0,0,1561914413.669193,197200.952345,0,1.881348,75.28741,3232235528,177845136,1,1,0.53,-13.97344,-32.03974,4
1561914488.358129,95,0,0,1561914488.000152,4.634700771425511,-74.15103002458265,2552.935,0,85.78125,4,30,-9999,1561914488.350472,-15.26411437988281,-18.33464813232422,18.45733642578125,121.9724578857422,129.4659271240234,15,197203.508289125,0.160430908203125,-0.57879638671875,0.496307373046875,197203.491046125,-0.5738702022312886,-0.04177727433618202,5.260921335372746,197203.491748125,-90.62489318847656,-48.23066711425781,-544.9676513671875,197203.491046125,-2.942451197266238,1.9318649015809,1.176987226134339,-0.5766270756721497,-0.0484575517475605,5.2576904296875,0.1227373778820038,0.5663832426071167,0.203328013420105,1,-0.7121933698654175,0.246084988117218,0.4252569079399109,-0.5013775229454041,0.3589673340320587,-0.9234541654586792,0.1355544328689575,0,0,0,-1,197202.40871125,3,2,1561914487.246248,1561913957.287787,32,0.8918345,0,0,26.32609,0,0,1561914413.669193,197200.952345,0,1.881348,75.28741,3232235528,177845136,1,1,0.53,-13.97344,-32.72227,4
1561914488.372859,96,0,0,1561914488.000152,4.634700771425511,-74.15103002458265,2552.935,0,85.78125,4,30,-9999,1561914488.350472,-15.26411437988281,-18.33464813232422,18.45733642578125,121.9724578857422,129.4659271240234,15,197203.528553125,0.4822540283203125,-0.6781005859375,0.1999053955078125,197203.511310125,-1.85063676676657,0.1422375696083691,4.972405115517923,197203.511859125,-92.45945739746094,-46.99330139160156,-545.4905395507812,197203.511310125,-2.983801282292315,1.973887795398807,1.281598227237447,-1.85339367389679,0.1355572938919067,4.969173908233643,-0.1018965840339661,0.3796764612197876,0.3844399452209473,1,-0.6927192807197571,0.2758146822452545,0.401199072599411,-0.5320767760276794,0.2623274922370911,-0.9584728479385376,0.1118674799799919,0,0,0,-1,197202.40871125,3,2,1561914487.246248,1561913957.287787,32,0.8918345,0,0,26.32609,0,0,1561914413.669193,197200.952345,0,1.881348,75.28741,3232235528,177845136,1,1,0.53,-13.97344,-32.72227,4
1561914488.392886,97,0,0,1561914488.000152,4.634700771425511,-74.15103002458265,2552.935,0,85.78125,4,30,-9999,1561914488.373128,-17.21504974365234,-17.45892333984375,17.54901123046875,121.3977966308594,128.8912658691406,15,197203.548816125,0.5092010498046875,-0.4013824462890625,-0.0138702392578125,197203.531574125,-1.710785655811021,-0.3350048924754656,5.918779648901864,197203.531971125,-94.28398132324219,-45.77354431152344,-546.23095703125,197203.531574125,-3.024032441470573,2.010101031496553,1.395871712266034,-1.713542580604553,-0.3416851758956909,5.915548324584961,0.3247443437576294,0.3066390752792358,0.1258866786956787,1,-0.6659127473831177,0.3058914542198181,0.3781229555606842,-0.5656976103782654,0.1575096696615219,-0.9847396612167358,0.07401873916387558,0,0,0,-1,197202.40871125,3,2,1561914487.246248,1561913957.287787,32,0.8918345,0,0,26.32609,0,0,1561914413.669193,197200.952345,0,1.881348,75.28741,3232235528,177845136,1,1,0.53,-13.97344,-33.04172,4
1561914488.413015,98,0,0,1561914488.000152,4.634700771425511,-74.15103002458265,2552.935,0,85.78125,4,30,-9999,1561914488.399673,-19.11177062988281,-15.77621459960938,17.30255126953125,122.2102661132812,129.7037353515625,15,197203.569049125,0.4687652587890625,-0.1313018798828125,-0.0945587158203125,197203.551837125,-0.1798483284191221,-1.048002092161911,8.099847861603907,197203.552082125,-96.35943603515625,-43.19271850585938,-546.430908203125,197203.551837125,2.451206883992509,2.801942400078199,1.515569375406939,-0.1826052218675613,-1.054682374000549,8.096616744995117,0.4908121228218079,0.5970929265022278,-0.06591284275054932,1,-0.6343722343444824,0.3515582084655762,0.3447461426258087,-0.5959267020225525,0.01838891394436359,-0.9984753727912903,0.05204261094331741,0,0,0,-1,197202.40871125,3,2,1561914487.246248,1561913957.287787,32,0.8918345,0,0,26.32609,0,0,1561914413.669193,197200.952345,0,1.881348,75.28741,3232235528,177845136,1,1,0.53,-13.97344,-33.40932,4
1561914488.444249,99,0,0,1561914488.000152,4.634700771425511,-74.15103002458265,2552.935,0,85.78125,4,30,-9999,1561914488.42449,-20.94844055175781,-12.59953689575195,17.46331787109375,123.0968322753906,130.5903015136719,15,197203.589313125,-0.2818145751953125,-0.0753326416015625,0.2114105224609375,197203.572101125,1.409062820110494,-0.6240859687974957,10.30050309149126,197203.572193125,-98.21542358398438,-38.82650756835938,-545.6746215820312,197203.572101125,0.8984572649838362,-1.955774604435033,1.389602433925781,1.406305909156799,-0.6307662129402161,10.29727172851562,0.6357795000076294,0.8523274064064026,-0.1622323989868164,1,-0.5989114046096802,0.418499618768692,0.2918698787689209,-0.6172318458557129,-0.1670141816139221,-0.9836292266845703,0.06767360121011734,0,0,0,-1,197202.40871125,3,2,1561914487.246248,1561913957.287787,32,0.8918345,0,0,26.32609,0,0,1561914413.669193,197200.952345,0,1.881348,75.28741,3232235528,177845136,1,1,0.53,-13.97344,-33.72203,4
1561914488.453706,100,0,0,1561914488.000152,4.634700771425511,-74.15103002458265,2552.935,0,85.78125,4,30,-9999,1561914488.451599,-24.46009826660156,-2.600090026855469,16.83575439453125,119.5536651611328,127.0471343994141,15,197203.609577125,-0.7783966064453125,-0.2415771484375,0.4061737060546875,197203.592365125,0.9482802914600026,2.502008152512472,11.06032425577959,197203.592304125,-99.83894348144531,-33.65626525878906,-546.1500244140625,197203.592365125,0.7570049292064022,-1.800601906156662,1.173578166620401,0.9455233812332153,2.495327949523926,11.05709266662598,0.09487003087997437,0.8468080759048462,0.1232895851135254,1,-0.5607960224151611,0.4791328608989716,0.2119109034538269,-0.6411188244819641,-0.3766846060752869,-0.9221407175064087,0.0881209522485733,0,0,0,-1,197202.40871125,3,2,1561914487.246248,1561913957.287787,32,0.8918345,0,0,26.32609,0,0,1561914413.669193,197200.952345,0,1.881348,75.28741,3232235528,177845136,1,1,0.53,-13.97344,-34.28746,4
1561914488.47433,101,0,0,1561914488.000152,4.634700771425511,-74.15103002458265,2552.935,0,85.78125,4,30,-9999,1561914488.451599,-24.46009826660156,-2.600090026855469,16.83575439453125,119.5536651611328,127.0471343994141,15,197203.629840125,-0.9713592529296875,-0.3538970947265625,0.156494140625,197203.612628125,-1.480257105531582,4.038361550613265,10.49565420985009,197203.612384125,-101.2996368408203,-28.37295532226562,-548.13720703125,197203.612628125,0.6737554362114604,-1.657976803804166,0.9561489933425478,-1.483014106750488,4.031681060791016,10.49242305755615,-0.2039162516593933,0.5753996968269348,0.3559629917144775,1,-0.5097314715385437,0.5150526165962219,0.1218378022313118,-0.6782699823379517,-0.5744803547859192,-0.8169768452644348,0.05021074041724205,0,0,0,-1,197202.40871125,3,2,1561914487.246248,1561913957.287787,32,0.8918345,0,0,26.32609,0,0,1561914413.669193,197200.952345,0,1.881348,75.28741,3232235528,177845136,1,1,0.53,-14.53072,-35.12357,4
1561914488.494259,102,0,0,1561914488.000152,4.634700771425511,-74.15103002458265,2552.935,0,85.78125,4,30,-9999,1561914488.474413,-25.67489624023438,2.34588623046875,14.865478515625,116.6170272827148,124.1104965209961,15,197203.650104125,-1.265411376953125,-0.3828887939453125,-0.5781402587890625,197203.632892125,-2.224987201186866,3.88518105208576,9.793948546869471,197203.632495125,-101.5768585205078,-23.59254455566406,-550.0574340820312,197203.632892125,0.6045677130367961,-1.523753177282269,0.7520640523944317,-2.227744102478027,3.878500699996948,9.790717124938965,-0.2418867349624634,0.3292504549026489,0.1908361911773682,1,-0.4447998404502869,0.5338371396064758,0.04165065661072731,-0.7179388999938965,-0.7294724583625793,-0.6831475496292114,-0.03434202075004578,0,0,0,-1,197202.40871125,3,2,1561914487.246248,1561913957.287787,32,0.8918345,0,0,26.32609,0,0,1561914413.669193,197200.952345,0,1.881348,75.28741,3232235528,177845136,1,1,0.53,-14.53072,-35.12357,4
1561914488.529245,103,0,0,1561914488.000152,4.634700771425511,-74.15103002458265,2552.935,0,85.78125,4,30,-9999,1561914488.500785,-25.73107147216797,6.896793365478516,13.12677001953125,115.8553466796875,123.3488159179688,15,197203.670368125,-1.660324096679688,-0.30560302734375,-1.040634155273438,197203.653125125,-1.572633641630942,2.882831666278315,8.240998595171414,197203.652607125,-100.8618469238281,-19.7100830078125,-551.4766845703125,197203.653125125,0.575000707143285,-1.436477001721493,0.5627060216623031,-1.575390577316284,2.876151323318481,8.237767219543457,-0.4272152185440063,0.1505881547927856,-0.4648723602294922,1,-0.3797442317008972,0.5469555258750916,-0.02989853546023369,-0.7454797625541687,-0.8381961584091187,-0.5334769487380981,-0.1132679432630539,0,0,0,-1,197202.40871125,3,2,1561914487.246248,1561913957.287787,32,0.8918345,0,0,26.32609,0,0,1561914413.669193,197200.952345,0,1.881348,75.28741,3232235528,177845136,1,1,0.53,-15.64527,-35.79266,4
1561914488.534754,104,0,0,1561914488.000152,4.634700771425511,-74.15103002458265,2552.935,0,85.78125,4,30,-9999,1561914488.525376,-24.84484100341797,10.87126922607422,11.999755859375,27.08280372619629,34.57627105712891,15,197203.690631125,-1.723770141601562,-0.3575897216796875,-0.483978271484375,197203.673389125,1.967118106524456,1.185456358136388,4.18479066946131,197203.672718125,-100.3847198486328,-16.82467651367188,-552.2174072265625,197203.673389125,0.5953258934486101,-1.402184134427007,0.4376947503191629,1.964361190795898,1.178776144981384,4.181559562683105,-0.7674373984336853,0.1182496547698975,-0.8886394500732422,1,-0.3432754576206207,0.5533214211463928,-0.0848807692527771,-0.7541834712028503,-0.8928866982460022,-0.4238526523113251,-0.1519947350025177,0,0,0,-1,197202.40871125,3,2,1561914487.246248,1561913957.287787,32,0.8918345,0,0,26.32609,0,0,1561914413.669193,197200.952345,0,1.881348,75.28741,3232235528,177845136,1,1,0.53,-15.64527,-35.79266,4
1561914488.555102,105,0,0,1561914488.000152,4.634700771425511,-74.15103002458265,2552.935,0,85.78125,4,30,-9999,1561914488.551697,-23.44011688232422,15.23252582550049,9.84979248046875,19.1607551574707,26.65422248840332,15,197203.710895125,-1.358413696289062,-0.5151824951171875,0.0065765380859375,197203.693653125,5.205507877307031,-0.8330096247336669,1.590267496472793,197203.692829125,-99.69461059570312,-14.39628601074219,-553.4713134765625,197203.693653125,0.6916191094299925,-1.437697216155174,0.3957108617159436,5.202750682830811,-0.8396898508071899,1.58703625202179,-0.8092084527015686,0.02787446975708008,-0.3615269660949707,1,-0.3580278158187866,0.5573064088821411,-0.128331184387207,-0.7380764484405518,-0.9145617485046387,-0.38546422123909,-0.1224512979388237,0,0,0,-1,197202.40871125,3,2,1561914487.246248,1561913957.287787,32,0.8918345,0,0,26.32609,0,0,1561914413.669193,197200.952345,0,1.881348,75.28741,3232235528,177845136,1,1,0.53,-16.20255,-36.05246,4
1561914488.578276,106,0,0,1561914488.000152,4.634700771425511,-74.15103002458265,2552.935,0,85.78125,4,30,-9999,1561914488.576172,-22.55199432373047,16.42556571960449,9.5760498046875,15.15452194213867,22.64798927307129,15,197203.731159125,-1.206161499023438,-0.44329833984375,0.09375,197203.713916125,3.461002873670082,-1.945296963500673,0.9076108921372935,197203.712940125,-98.61061096191406,-13.17655944824219,-554.0520629882812,197203.713916125,0.7955103380946774,-1.507358794284174,0.3830263672812356,3.458245992660522,-1.951977252960205,0.9043796062469482,-0.4327414631843567,-0.1414532065391541,0.06537783145904541,1,-0.3881867527961731,0.5656062364578247,-0.1571932584047318,-0.7104160785675049,-0.9256722331047058,-0.3737292587757111,-0.05880125984549522,0,0,0,-1,197202.40871125,3,2,1561914487.246248,1561913957.287787,32,0.8918345,0,0,26.32609,0,0,1561914413.669193,197200.952345,0,1.881348,75.28741,3232235528,177845136,1,1,0.53,-16.75983,-36.6208,4
1561914488.609176,107,0,0,1561914488.000152,4.634700771425511,-74.15103002458265,2552.935,0,85.78125,4,30,-9999,1561914488.602231,-21.97616577148438,17.12393951416016,10.21746826171875,15.25971031188965,22.75317764282227,15,197203.751392125,-1.264373779296875,-0.47540283203125,0.0924072265625,197203.734180125,0.4426013942046289,-1.64097727942121,1.040745244507554,197203.733051125,-97.80300903320312,-12.33049011230469,-553.93017578125,197203.734180125,0.8355246783583039,-1.561556771367797,0.3645455342584776,0.4398444890975952,-1.647657513618469,1.037513971328735,-0.2719153165817261,-0.08677363395690918,0.1023823022842407,1,-0.3985165357589722,0.5804036855697632,-0.1668243557214737,-0.6902796030044556,-0.9342461824417114,-0.3565247356891632,-0.008632265031337738,0,0,0,-1,197202.40871125,3,2,1561914487.246248,1561913957.287787,32,0.8918345,0,0,26.32609,0,0,1561914413.669193,197200.952345,0,1.881348,75.28741,3232235528,177845136,1,1,0.53,-17.31711,-37.09764,4
1561914488.616016,108,0,0,1561914488.000152,4.634700771425511,-74.15103002458265,2552.935,0,85.78125,4,30,-9999,1561914488.602231,-21.97616577148438,17.12393951416016,10.21746826171875,15.25971031188965,22.75317764282227,15,197203.771656125,-1.336517333984375,-0.4111175537109375,-0.1095428466796875,197203.754444125,-0.3549924490887282,-0.3134332876458237,0.7713654349816028,197203.753162125,-97.34542846679688,-11.89234924316406,-553.1657104492188,197203.754444125,0.833690006662131,-1.581344607243421,0.3461141403090459,-0.357749342918396,-0.3201135694980621,0.7681341171264648,-0.3237280249595642,-0.1361578702926636,0.08248472213745117,1,-0.3942438364028931,0.5912132263183594,-0.1686046868562698,-0.6830894351005554,-0.9406457543373108,-0.3392449617385864,0.009922563098371029,0,0,0,-1,197202.40871125,3,2,1561914487.246248,1561913957.287787,32,0.8918345,0,0,26.32609,0,0,1561914413.669193,197200.952345,0,1.881348,75.28741,3232235528,177845136,1,1,0.53,-17.87439,-37.61473,4
1561914488.636044,109,0,0,1561914488.000152,4.634700771425511,-74.15103002458265,2552.935,0,85.78125,4,30,-9999,1561914488.626676,-21.60047149658203,17.4720344543457,10.47955322265625,15.85198020935059,23.3454475402832,15,197203.791919125,-1.288787841796875,-0.32391357421875,-0.223724365234375,197203.774707125,-0.4008709915036323,0.6062712853176286,0.6316397589133964,197203.773273125,-97.28363037109375,-11.76327514648438,-553.181884765625,197203.774707125,0.8245631261348614,-1.573626928394591,0.3322888893419625,-0.403627872467041,0.5995910167694092,0.6284084916114807,-0.3912230134010315,-0.08490997552871704,-0.1122186183929443,1,-0.3868234753608704,0.5930476188659668,-0.1717458516359329,-0.6849564909934998,-0.9452942609786987,-0.3262075781822205,0.002675758674740791,0,0,0,-1,197202.40871125,3,2,1561914487.246248,1561913957.287787,32,0.8918345,0,0,26.32609,0,0,1561914413.669193,197200.952345,0,1.881348,75.28741,3232235528,177845136,1,1,0.53,-18.43167,-38.03825,4
1561914488.657851,110,0,0,1561914488.000152,4.634700771425511,-74.15103002458265,2552.935,0,85.78125,4,30,-9999,1561914488.653245,-21.28976440429688,17.97818756103516,9.9268798828125,15.33577346801758,22.8292407989502,15,197203.812183125,-1.269149780273438,-0.268035888671875,-0.1625518798828125,197203.794971125,0.3162807394833365,0.6052765946504841,0.6751432942681679,197203.793384125,-97.02909851074219,-11.54476928710938,-553.5897216796875,197203.794971125,0.8232508119406601,-1.559760478522723,0.319331884402817,0.3135238289833069,0.5985963344573975,0.6719120144844055,-0.3394002914428711,-0.009981274604797363,-0.2132466435432434,1,-0.3813673853874207,0.5910330414772034,-0.1783902198076248,-0.6880521774291992,-0.9493875503540039,-0.3139322996139526,-0.01047772262245417,0,0,0,-1,197202.40871125,3,2,1561914487.246248,1561913957.287787,32,0.8918345,0,0,26.32609,0,0,1561914413.669193,197200.952345,0,1.881348,75.28741,3232235528,177845136,1,1,0.53,-18.43167,-38.03825,4
1561914488.689383,111,0,0,1561914488.000152,4.634700771425511,-74.15103002458265,2552.935,0,85.78125,4,30,-9999,1561914488.677065,-21.03130340576172,18.41980361938477,9.55902099609375,13.79972076416016,21.29318809509277,15,197203.832447125,-1.23876953125,-0.32196044921875,-0.0563812255859375,197203.815235125,0.9858971755412629,0.2104728167422703,0.6444088173919994,197203.813495125,-96.82289123535156,-11.03153991699219,-554.076416015625,197203.815235125,0.8378564110703254,-1.556066470917069,0.3059188115014034,0.9831402897834778,0.203792542219162,0.6411775350570679,-0.3156825304031372,0.03313356637954712,-0.1485064625740051,1,-0.3813213109970093,0.5895518064498901,-0.1886723637580872,-0.6866043210029602,-0.9534672498703003,-0.3011694550514221,-0.01404545083642006,0,0,0,-1,197202.40871125,3,2,1561914487.246248,1561913957.287787,32,0.8918345,0,0,26.32609,0,0,1561914413.669193,197200.952345,0,1.881348,75.28741,3232235528,177845136,1,1,0.53,-19.54623,-38.64264,4
1561914488.696804,112,0,0,1561914488.000152,4.634700771425511,-74.15103002458265,2552.935,0,85.78125,4,30,-9999,1561914488.677065,-21.03130340576172,18.41980361938477,9.55902099609375,13.79972076416016,21.29318809509277,15,197203.852710125,-1.21282958984375,-0.37237548828125,0.0188140869140625,197203.835468125,0.9948936000196595,0.03634628992518343,0.3324735578593452,197203.833606125,-96.49058532714844,-10.87776184082031,-554.3590087890625,197203.835468125,0.8600532982317646,-1.56083964696171,0.2959804975217014,0.9921367168426514,0.02966601401567459,0.3292422592639923,-0.2823002338409424,-0.03028255701065063,-0.04685759544372559,1,-0.3853532075881958,0.588847279548645,-0.1987173110246658,-0.6821094751358032,-0.9564692974090576,-0.291677862405777,-0.009523573331534863,0,0,0,-1,197202.40871125,3,2,1561914487.246248,1561913957.287787,32,0.8918345,0,0,26.32609,0,0,1561914413.669193,197200.952345,0,1.881348,75.28741,3232235528,177845136,1,1,0.53,-19.54623,-38.64264,4
1561914488.71722,113,0,0,1561914488.000152,4.634700771425511,-74.15103002458265,2552.935,0,85.78125,4,30,-9999,1561914488.70372,-20.81259918212891,18.78555870056152,9.06787109375,12.61369323730469,20.1071605682373,15,197203.872974125,-1.158889770507812,-0.346771240234375,0.05633544921875,197203.855732125,0.5809653960074778,0.154638579224323,0.06376193545089513,197203.853687125,-96.67703247070312,-10.42582702636719,-554.929443359375,197203.855732125,0.8769143092057778,-1.564400846375186,0.2925076925883211,0.5782085061073303,0.1479582935571671,0.0605306550860405,-0.2553254365921021,-0.08402115106582642,0.02493786811828613,1,-0.389640212059021,0.5874679684638977,-0.2049381881952286,-0.679015576839447,-0.9575040936470032,-0.2883543074131012,-0.006123782135546207,0,0,0,-1,197202.40871125,3,2,1561914487.246248,1561913957.287787,32,0.8918345,0,0,26.32609,0,0,1561914413.669193,197200.952345,0,1.881348,75.28741,3232235528,177845136,1,1,0.53,-20.10351,-38.90401,4
1561914488.737618,114,0,0,1561914488.000152,4.634700771425511,-74.15103002458265,2552.935,0,85.78125,4,30,-9999,1561914488.727634,-20.9652099609375,19.17072486877441,8.5931396484375,12.13556480407715,19.62903213500977,15,197203.893238125,-1.0775146484375,-0.3217315673828125,0.0716552734375,197203.875995125,0.2458960550336323,0.209118599327965,-0.100256030816578,197203.873798125,-96.94876098632812,-10.229736328125,-554.9273681640625,197203.875995125,0.8850457324513907,-1.562496195504361,0.2929256408149277,0.2431391626596451,0.2024383246898651,-0.1034873127937317,-0.2015195488929749,-0.05801677703857422,0.06428194046020508,1,-0.391950935125351,0.5851505994796753,-0.2079295963048935,-0.6787772178649902,-0.9573701620101929,-0.2887544631958008,-0.007946480996906757,0,0,0,-1,197202.40871125,3,2,1561914487.246248,1561913957.287787,32,0.8918345,0,0,26.32609,0,0,1561914413.669193,197200.952345,0,1.881348,75.28741,3232235528,177845136,1,1,0.53,-20.66078,-38.91643,4
1561914488.773916,115,0,0,1561914488.000152,4.634700771425511,-74.15103002458265,2552.935,0,85.78125,4,30,-9999,1561914488.727634,-20.9652099609375,19.17072486877441,8.5931396484375,12.13556480407715,19.62903213500977,15,197203.913501125,-1.018630981445312,-0.2881317138671875,0.0588531494140625,197203.896259125,0.2510601907034049,0.08365681405822308,-0.1969972216264693,197203.893909125,-96.94287109375,-10.22740173339844,-555.0171508789062,197203.896259125,0.8900020589408125,-1.561056493580146,0.2964366222269172,0.2483032941818237,0.07697653025388718,-0.2002285122871399,-0.1211766004562378,-0.02961748838424683,0.08097010850906372,1,-0.3942844569683075,0.582994282245636,-0.2087125033140182,-0.6790408492088318,-0.9563380479812622,-0.2921141088008881,-0.009314867667853832,0,0,0,-1,197202.40871125,3,2,1561914487.246248,1561913957.287787,32,0.8918345,0,0,26.32609,0,0,1561914413.669193,197200.952345,0,1.881348,75.28741,3232235528,177845136,1,1,0.53,-21.77534,-37.14656,4
1561914488.777999,116,0,0,1561914488.000152,4.634700771425511,-74.15103002458265,2552.935,0,85.78125,4,30,-9999,1561914488.727634,-20.9652099609375,19.17072486877441,8.5931396484375,12.13556480407715,19.62903213500977,15,197203.933734125,-0.97735595703125,-0.2950592041015625,0.0561370849609375,197203.916523125,0.2452726090224447,0.002746518032198718,-0.1545570864949666,197203.914020125,-96.72142028808594,-10.57359313964844,-555.1390991210938,197203.916523125,0.8952458852925386,-1.562102010874705,0.300252211607458,0.2425157129764557,-0.003933759406208992,-0.1577883660793304,-0.06340503692626953,0.007629424333572388,0.06715846061706543,1,-0.3970430195331573,0.5815532803535461,-0.2090007364749908,-0.6785804629325867,-0.955225944519043,-0.2957611382007599,-0.008305245079100132,0,0,0,-1,197202.40871125,3,2,1561914487.246248,1561913957.287787,32,0.8918345,0,0,26.32609,0,0,1561914413.669193,197200.952345,0,1.881348,75.28741,3232235528,177845136,1,1,0.53,-21.77534,-37.14656,4
1561914488.798036,117,0,0,1561914488.000152,4.634700771425511,-74.15103002458265,2552.935,0,85.78125,4,30,-9999,1561914488.78137,-21.12140655517578,19.06624984741211,8.4984130859375,11.76766395568848,19.26113128662109,15,197203.953998125,-0.9615325927734375,-0.3106842041015625,0.054962158203125,197203.936786125,0.2087036788301307,0.02089729244163377,-0.1903116220259344,197203.934131125,-96.78459167480469,-10.40193176269531,-555.0556640625,197203.936786125,0.9000239550925569,-1.563589190123964,0.3036009021629713,0.2059467881917953,0.01421701442450285,-0.1935429126024246,-0.02311444282531738,0.003899157047271729,0.06301450729370117,1,-0.3995683193206787,0.5804364085197449,-0.2091970890760422,-0.6779936552047729,-0.9542414546012878,-0.2989583611488342,-0.006877467501908541,0,0,0,-1,197202.40871125,3,2,1561914487.246248,1561913957.287787,32,0.8918345,0,0,26.32609,0,0,1561914413.669193,197200.952345,0,1.881348,75.28741,3232235528,177845136,1,1,0.53,-22.33262,-37.25777,4
1561914488.818409,118,0,0,1561914488.000152,4.634700771425511,-74.15103002458265,2552.935,0,85.78125,4,30,-9999,1561914488.806179,-21.01795959472656,18.97415161132812,8.4173583984375,11.15216827392578,18.6456356048584,15,197203.974262125,-0.931610107421875,-0.2994842529296875,0.0567626953125,197203.957050125,0.142201616933653,0.06011686686690369,-0.217352827102381,197203.954242125,-96.79316711425781,-10.40061950683594,-555.334716796875,197203.957050125,0.9037828686099244,-1.564048827469698,0.3079463147414875,0.1394447237253189,0.05343658849596977,-0.2205841094255447,-0.008596181869506836,-0.007582008838653564,0.06139218807220459,1,-0.4019756615161896,0.5789650678634644,-0.2089149951934814,-0.677915632724762,-0.9529364109039307,-0.3031021952629089,-0.006430035457015038,0,0,0,-1,197202.40871125,3,2,1561914487.246248,1561913957.287787,32,0.8918345,0,0,26.32609,0,0,1561914413.669193,197200.952345,0,1.881348,75.28741,3232235528,177845136,1,1,0.53,-22.33262,-37.25777,4
1561914488.838556,119,0,0,1561914488.000152,4.634700771425511,-74.15103002458265,2552.935,0,85.78125,4,30,-9999,1561914488.828987,-21.22066497802734,18.63716888427734,8.4735107421875,11.0933952331543,18.58686256408691,15,197203.994525125,-0.9095001220703125,-0.2987518310546875,0.054443359375,197203.977314125,0.01246625706266091,0.02116920118893086,-0.1968672593652735,197203.974353125,-97.04847717285156,-10.93000793457031,-555.2946166992188,197203.977314125,0.9052700661136236,-1.563693080108429,0.3123193432991835,0.00970936194062233,0.01448892336338758,-0.2000985443592072,0.01998943090438843,0.007782399654388428,0.06352221965789795,1,-0.4036433398723602,0.5776610374450684,-0.2080169767141342,-0.6783131957054138,-0.9515995383262634,-0.3072665929794312,-0.006759560201317072,0,0,0,-1,197202.40871125,3,2,1561914487.246248,1561913957.287787,32,0.8918345,0,0,26.32609,0,0,1561914413.669193,197200.952345,0,1.881348,75.28741,3232235528,177845136,1,1,0.53,-22.8899,-37.71969,4
1561914488.859318,120,0,0,1561914488.000152,4.634700771425511,-74.15103002458265,2552.935,0,85.78125,4,30,-9999,1561914488.855293,-21.50479888916016,18.72225189208984,8.450927734375,11.08352088928223,18.57698822021484,15,197204.014789125,-0.9030303955078125,-0.301177978515625,0.0331268310546875,197203.997577125,0.01552569652294394,-0.1280029735818955,-0.1817026874861443,197203.994464125,-97.15516662597656,-10.69956970214844,-555.3843994140625,197203.997577125,0.905196840253643,-1.564783026669417,0.3161915997543217,0.01276880316436291,-0.1346832513809204,-0.1849339753389359,0.04090911149978638,0.01219740509986877,0.06015849113464355,1,-0.4048618078231812,0.5772601962089539,-0.2064657807350159,-0.6784020662307739,-0.9504092335700989,-0.3109492063522339,-0.005715164821594954,0,0,0,-1,197202.40871125,3,2,1561914487.246248,1561913957.287787,32,0.8918345,0,0,26.32609,0,0,1561914413.669193,197200.952345,0,1.881348,75.28741,3232235528,177845136,1,1,0.53,-23.44718,-32.31026,4
1561914488.879155,121,0,0,1561914488.000152,4.634700771425511,-74.15103002458265,2552.935,0,85.78125,4,30,-9999,1561914488.855293,-21.50479888916016,18.72225189208984,8.450927734375,11.08352088928223,18.57698822021484,15,197204.035053125,-0.9179840087890625,-0.2985076904296875,0.0115966796875,197204.017810125,-0.0130606746179666,-0.1313886502757133,-0.1628802638497912,197204.014576125,-96.96748352050781,-10.86402893066406,-555.2886352539062,197204.017810125,0.905382939166918,-1.567648809720197,0.319797014168157,-0.01581756770610809,-0.1380689293146133,-0.1661115437746048,0.04626423120498657,0.01319587230682373,0.03611475229263306,1,-0.4062564969062805,0.5774614214897156,-0.2047300338745117,-0.6779230237007141,-0.9492946267127991,-0.3143738806247711,-0.002987930784001946,0,0,0,-1,197202.40871125,3,2,1561914487.246248,1561913957.287787,32,0.8918345,0,0,26.32609,0,0,1561914413.669193,197200.952345,0,1.881348,75.28741,3232235528,177845136,1,1,0.53,-24.00446,-32.39214,4
1561914488.914176,122,0,0,1561914488.000152,4.634700771425511,-74.15103002458265,2552.935,0,85.78125,4,30,-9999,1561914488.906439,-21.40190887451172,18.57310485839844,8.4986572265625,11.03521347045898,18.5286808013916,15,197204.055316125,-0.91192626953125,-0.2852935791015625,0.00628662109375,197204.038074125,0.03686187791222277,-0.1154184721668351,-0.1542369745319391,197204.034687125,-97.23347473144531,-10.9263916015625,-555.050048828125,197204.038074125,0.9053861858163939,-1.570492361814026,0.3232970362278244,0.03410498425364494,-0.1220987513661385,-0.1574682593345642,0.03020918369293213,0.01918682456016541,0.01188492774963379,1,-0.4075600802898407,0.5777115821838379,-0.2029683887958527,-0.6774570345878601,-0.9481931924819946,-0.3176945149898529,-0.0002882175322156399,0,0,0,-1,197204.038623125,3,2,1561914488.87616,1561913957.287787,32,0.8918345,0,0,26.32609,0,0,1561914413.669193,197200.952345,0,1.881348,75.28741,3232235528,177845136,1,1,0.53,-25.11901,-33.34639,4
