loggingTime,loggingSample,identifierForVendor,deviceID,locationTimestamp_since1970,locationLatitude,locationLongitude,locationAltitude,locationSpeed,locationCourse,locationVerticalAccuracy,locationHorizontalAccuracy,locationFloor,locationHeadingTimestamp_since1970,locationHeadingX,locationHeadingY,locationHeadingZ,locationTrueHeading,locationMagneticHeading,locationHeadingAccuracy,accelerometerTimestamp_sinceReboot,accelerometerAccelerationX,accelerometerAccelerationY,accelerometerAccelerationZ,gyroTimestamp_sinceReboot,gyroRotationX,gyroRotationY,gyroRotationZ,magnetometerTimestamp_sinceReboot,magnetometerX,magnetometerY,magnetometerZ,motionTimestamp_sinceReboot,motionYaw,motionRoll,motionPitch,motionRotationRateX,motionRotationRateY,motionRotationRateZ,motionUserAccelerationX,motionUserAccelerationY,motionUserAccelerationZ,motionAttitudeReferenceFrame,motionQuaternionX,motionQuaternionY,motionQuaternionZ,motionQuaternionW,motionGravityX,motionGravityY,motionGravityZ,motionMagneticFieldX,motionMagneticFieldY,motionMagneticFieldZ,motionMagneticFieldCalibrationAccuracy,activityTimestamp_sinceReboot,activity,activityActivityConfidence,activityActivityStartDate,pedometerStartDate,pedometerNumberofSteps,pedometerAverageActivePace,pedometerCurrentPace,pedometerCurrentCadence,pedometerDistance,pedometerFloorAscended,pedometerFloorDescended,pedometerEndDate,altimeterTimestamp_sinceReboot,altimeterReset,altimeterRelativeAltitude,altimeterPressure,IP_en0,IP_pdp_ip0,deviceOrientation,batteryState,batteryLevel,avAudioRecorderPeakPower,avAudioRecorderAveragePower,label
1562003727.698044,1,0,0,1562003727.076675,4.634790100299021,-74.15102912286207,2563.782,-1,-1,10,65,-9999,1562003727.697017,-11.29067707061768,13.47339725494385,23.470703125,57.16421890258789,64.65818786621094,15,10216.81375675,-0.948577880859375,0.2671051025390625,-0.152862548828125,10216.81375675,0.2181397912044994,0.003855191993998705,0.2057981700808542,10216.80609675,-12.097900390625,24.23112487792969,-516.8681030273438,10216.80869075,-2.105213317565196,-1.411141394154127,-0.2569944549327229,0.2285522222518921,-0.02179999649524689,0.2009038925170898,0.01169717311859131,0.01117545366287231,0.003701508045196533,1,0.6070078611373901,0.2338016927242279,0.6146929264068604,-0.446128785610199,-0.9548581838607788,0.2541748583316803,-0.1537564545869827,0,0,0,-1,10215.90532825,3,2,1562003726.77932,1562003626.666006,7,1.998636,0.6281477,1.556376,7.126037,0,0,1562003726.779473,10213.83234,0,-0.7741699,75.30732,3232235528,182473588,1,1,0.31,-22.53057,-32.8012,2
1562003727.718251,2,0,0,1562003727.076675,4.634790100299021,-74.15102912286207,2563.782,-1,-1,10,65,-9999,1562003727.717237,-10.99301528930664,13.35186100006104,23.2198486328125,56.81653213500977,64.31050109863281,15,10216.83401975,-0.940765380859375,0.2637786865234375,-0.1546783447265625,10216.83401975,0.1582594130423948,0.03493747770853151,0.2189227605649827,10216.82620775,-12.08845520019531,23.83103942871094,-517.2342529296875,10216.82895475,-2.100357591833136,-1.409681829861884,-0.2604829176816019,0.1707427203655243,0.03026933223009109,0.2100763469934464,0.009217500686645508,0.008810251951217651,0.0002216100692749023,1,0.606519341468811,0.2337325364351273,0.6133442521095276,-0.4486783742904663,-0.953751802444458,0.2575471997261047,-0.1550067812204361,0,0,0,-1,10215.90532825,3,2,1562003726.77932,1562003626.666006,7,1.998636,0.6281477,1.556376,7.126037,0,0,1562003726.779473,10213.83234,0,-0.7741699,75.30732,3232235528,182473588,1,1,0.31,-22.53057,-33.19125,2
1562003727.74726,3,0,0,1562003727.076675,4.634790100299021,-74.15102912286207,2563.782,-1,-1,10,65,-9999,1562003727.741018,-10.93767833709717,13.7263822555542,23.2000732421875,56.55521011352539,64.04917907714844,15,10216.85428375,-0.94281005859375,0.2622222900390625,-0.152252197265625,10216.85428375,0.1345687309333769,-0.006037386191209633,0.223536154521327,10216.84628775,-12.00978088378906,24.22975158691406,-517.157958984375,10216.84921775,-2.096603339707402,-1.408317825798759,-0.2644315014708783,0.1304291188716888,0.001082949340343475,0.2245311886072159,0.01284646987915039,0.00049552321434021,0.000776827335357666,1,0.6062611937522888,0.2331875860691071,0.6121111512184143,-0.4509887993335724,-0.9525284767150879,0.2613605856895447,-0.1561418324708939,0,0,0,-1,10215.90532825,3,2,1562003726.77932,1562003626.666006,7,1.998636,0.6281477,1.556376,7.126037,0,0,1562003726.779473,10213.83234,0,-0.7741699,75.30732,3232235528,182473588,1,1,0.31,-22.53057,-33.30807,2
1562003727.758794,4,0,0,1562003727.076675,4.634790100299021,-74.15102912286207,2563.782,-1,-1,10,65,-9999,1562003727.741018,-10.93767833709717,13.7263822555542,23.2000732421875,56.55521011352539,64.04917907714844,15,10216.87454775,-0.9547576904296875,0.2539215087890625,-0.1511077880859375,10216.87454775,0.1717951955988315,-0.05744811313853528,0.1922685127949247,10216.86639975,-12.21734619140625,24.58903503417969,-517.0751953125,10216.86948175,-2.092933967653881,-1.407851349996391,-0.2682293960144709,0.159090057015419,-0.05021166056394577,0.1992418169975281,0.004676520824432373,-0.00702899694442749,0.005743443965911865,1,0.6062667965888977,0.2328703105449677,0.6106477379798889,-0.4531239569187164,-0.9514691233634949,0.2650245726108551,-0.1564239859580994,0,0,0,-1,10215.90532825,3,2,1562003726.77932,1562003626.666006,7,1.998636,0.6281477,1.556376,7.126037,0,0,1562003726.779473,10213.83234,0,-0.7741699,75.30732,3232235528,182473588,1,1,0.31,-22.53057,-33.30807,2
1562003727.779112,5,0,0,1562003727.076675,4.634790100299021,-74.15102912286207,2563.782,-1,-1,10,65,-9999,1562003727.768625,-11.10929012298584,14.02976703643799,23.32830810546875,56.27057266235352,63.76454162597656,15,10216.89481075,-0.96484375,0.247772216796875,-0.148712158203125,10216.89481075,0.1971921650182631,-0.05188556856968678,0.1536872980829467,10216.88647975,-12.04486083984375,24.61798095703125,-517.2122802734375,10216.88974575,-2.088616144652131,-1.408009302997262,-0.2711750489848859,0.1942491084337234,-0.06547850370407104,0.1551334708929062,-0.01287311315536499,-0.01575803756713867,0.003802776336669922,1,0.6062589883804321,0.2331883162260056,0.6090150475502014,-0.4551636576652527,-0.95071941614151,0.2678637206554413,-0.1561464965343475,0,0,0,-1,10215.90532825,3,2,1562003726.77932,1562003626.666006,7,1.998636,0.6281477,1.556376,7.126037,0,0,1562003726.779473,10213.83234,0,-0.7741699,75.30732,3232235528,182473588,1,1,0.31,-22.53057,-33.57748,2
1562003727.799348,6,0,0,1562003727.076675,4.634790100299021,-74.15102912286207,2563.782,-1,-1,10,65,-9999,1562003727.791444,-10.77002906799316,14.27391529083252,23.1453857421875,55.95522308349609,63.44919204711914,15,10216.91504475,-0.967559814453125,0.2425994873046875,-0.152587890625,10216.91504475,0.1340853671955275,-0.01968741835841077,0.16075452866769,10216.90656075,-11.78297424316406,24.814453125,-517.239990234375,10216.91000875,-2.08429728649406,-1.407865598772972,-0.2736378777129546,0.1546870470046997,-0.0343320332467556,0.1586531102657318,-0.01834070682525635,-0.02650707960128784,0.008745253086090088,1,0.6060859560966492,0.2336065024137497,0.6075659394264221,-0.4571121037006378,-0.9500430822372437,0.2702357470989227,-0.1561756283044815,0,0,0,-1,10215.90532825,3,2,1562003726.77932,1562003626.666006,7,1.998636,0.6281477,1.556376,7.126037,0,0,1562003726.779473,10213.83234,0,-0.7741699,75.30732,3232235528,182473588,1,1,0.31,-22.53057,-33.79423,2
1562003727.838661,7,0,0,1562003727.076675,4.634790100299021,-74.15102912286207,2563.782,-1,-1,10,65,-9999,1562003727.818075,-10.73779487609863,14.35775852203369,23.18609619140625,55.74866485595703,63.24263381958008,15,10216.93530775,-0.9572906494140625,0.2420196533203125,-0.148101806640625,10216.93530775,0.04947966884090919,0.03541711302085478,0.1331980019203131,10216.92667175,-11.78187561035156,24.88212585449219,-517.17236328125,10216.93024175,-2.081458723677428,-1.407273971831544,-0.2762569499054569,0.07237007468938828,0.01883558183908463,0.135476678609848,-0.01332128047943115,-0.030263751745224,0.005071580410003662,1,0.6059741377830505,0.2334189116954803,0.606553316116333,-0.458698183298111,-0.9492489099502563,0.272756427526474,-0.1566219180822372,0,0,0,-1,10215.90532825,3,2,1562003726.77932,1562003626.666006,7,1.998636,0.6281477,1.556376,7.126037,0,0,1562003726.779473,10213.83234,0,-0.7741699,75.30732,3232235528,182473588,1,1,0.31,-22.53057,-34.43268,2
1562003727.842578,8,0,0,1562003727.076675,4.634790100299021,-74.15102912286207,2563.782,-1,-1,10,65,-9999,1562003727.818075,-10.73779487609863,14.35775852203369,23.18609619140625,55.74866485595703,63.24263381958008,15,10216.95557175,-0.95184326171875,0.245697021484375,-0.1527099609375,10216.95557175,0.001751028416727099,0.02914483602150016,0.1318429855576808,10216.94675175,-11.74508666992188,24.64079284667969,-517.1141357421875,10216.95050575,-2.080365014025993,-1.406320861782177,-0.2787477045169633,0.001816814648918808,0.03284407407045364,0.1303506344556808,-0.004958510398864746,-0.03238454461097717,0.006719052791595459,1,0.6059374809265137,0.2326636016368866,0.6060740351676941,-0.4597624838352203,-0.9484259486198425,0.2751519083976746,-0.1574148386716843,0,0,0,-1,10215.90532825,3,2,1562003726.77932,1562003626.666006,7,1.998636,0.6281477,1.556376,7.126037,0,0,1562003726.779473,10213.83234,0,-0.7741699,75.30732,3232235528,182473588,1,1,0.31,-22.53057,-34.43268,2
1562003727.8601,9,0,0,1562003727.076675,4.634790100299021,-74.15102912286207,2563.782,-1,-1,10,65,-9999,1562003727.842294,-10.70567417144775,14.19153881072998,23.26605224609375,55.68778991699219,63.18175888061523,15,10216.97583575,-0.9594879150390625,0.24462890625,-0.150848388671875,10216.97583575,0.08592849046806067,-0.03780117482869372,0.08684541683137495,10216.96683275,-11.88771057128906,24.85169982910156,-517.3294677734375,10216.97076975,-2.079641609468829,-1.405972056991808,-0.2810287221003716,0.0519806481897831,-0.0243382528424263,0.09673994034528732,-0.005512833595275879,-0.03065535426139832,0.004810214042663574,1,0.6060951948165894,0.2320075035095215,0.6055390238761902,-0.4605904817581177,-0.9477494955062866,0.2773441672325134,-0.1576422601938248,0,0,0,-1,10215.90532825,3,2,1562003726.77932,1562003626.666006,7,1.998636,0.6281477,1.556376,7.126037,0,0,1562003726.779473,10213.83234,0,-0.7741699,75.30732,3232235528,182473588,1,1,0.31,-22.53057,-34.6383,2
1562003727.880607,10,0,0,1562003727.076675,4.634790100299021,-74.15102912286207,2563.782,-1,-1,10,65,-9999,1562003727.868569,-10.76800537109375,14.32027912139893,23.09600830078125,55.58264541625977,63.07661437988281,15,10216.99609875,-0.9702301025390625,0.243072509765625,-0.1507568359375,10216.99609875,0.1793239520004855,-0.06367485008324955,0.05535620010227803,10216.98691275,-11.87673950195312,25.09442138671875,-517.22412109375,10216.99103275,-2.077003263892993,-1.406358227517959,-0.2820353001478642,0.1673101633787155,-0.07239685952663422,0.05433948338031769,-0.01643955707550049,-0.03746640682220459,0.008609890937805176,1,0.6060589551925659,0.2325452566146851,0.6046040058135986,-0.46159428358078,-0.947534441947937,0.2783111035823822,-0.1572304964065552,0,0,0,-1,10215.90532825,3,2,1562003726.77932,1562003626.666006,7,1.998636,0.6281477,1.556376,7.126037,0,0,1562003726.779473,10213.83234,0,-0.7741699,75.30732,3232235528,182473588,1,1,0.31,-22.53057,-30.37398,2
1562003727.91977,11,0,0,1562003727.076675,4.634790100299021,-74.15102912286207,2563.782,-1,-1,10,65,-9999,1562003727.892703,-10.52753734588623,14.45297336578369,23.132080078125,55.31647872924805,62.81044769287109,15,10217.01636275,-0.9669647216796875,0.2456817626953125,-0.15533447265625,10217.01636275,0.1586431745554752,-0.01643037234524386,0.07776084172089666,10217.00702475,-11.45498657226562,25.02775573730469,-517.196533203125,10217.01129675,-2.073126795812622,-1.406515254544707,-0.2825398940403947,0.1691514700651169,-0.03783142566680908,0.06961671262979507,-0.02377080917358398,-0.0338158905506134,0.003753662109375,1,0.605731725692749,0.2335802018642426,0.6035551428794861,-0.4628722369670868,-0.947420597076416,0.2787957191467285,-0.1570587307214737,0,0,0,-1,10215.90532825,3,2,1562003726.77932,1562003626.666006,7,1.998636,0.6281477,1.556376,7.126037,0,0,1562003726.779473,10213.83234,0,-0.7741699,75.30732,3232235528,182473588,1,1,0.31,-22.53057,-30.57149,2
1562003727.921635,12,0,0,1562003727.076675,4.634790100299021,-74.15102912286207,2563.782,-1,-1,10,65,-9999,1562003727.919164,-10.64450836181641,14.56554698944092,23.0108642578125,55.09333038330078,62.58729934692383,15,10217.03662675,-0.961517333984375,0.24261474609375,-0.1566925048828125,10217.03662675,0.08369489726181122,0.07252187122449277,0.07113569587710653,10217.02710475,-11.70994567871094,25.10415649414062,-517.38916015625,10217.03156075,-2.070012436133253,-1.405618634125691,-0.2835174430043252,0.1004006415605545,0.04555161669850349,0.07148758322000504,-0.01870346069335938,-0.03544119000434875,-0.0002025365829467773,1,0.6052471399307251,0.2339749485254288,0.6029000282287598,-0.4641586542129517,-0.9470100402832031,0.2797344028949738,-0.1578632444143295,0,0,0,-1,10215.90532825,3,2,1562003726.77932,1562003626.666006,7,1.998636,0.6281477,1.556376,7.126037,0,0,1562003726.779473,10213.83234,0,-0.7741699,75.30732,3232235528,182473588,1,1,0.31,-22.53057,-30.57149,2
1562003727.94157,13,0,0,1562003727.076675,4.634790100299021,-74.15102912286207,2563.782,-1,-1,10,65,-9999,1562003727.919164,-10.64450836181641,14.56554698944092,23.0108642578125,55.09333038330078,62.58729934692383,15,10217.05685975,-0.955841064453125,0.2448577880859375,-0.156005859375,10217.05685975,0.05556632351228529,0.08253269376210064,0.04795314490407577,10217.04718575,-11.67282104492188,25.10247802734375,-517.3381958007812,10217.05182375,-2.068300899572268,-1.403661245421147,-0.2844907717314282,0.05494740977883339,0.0816318541765213,0.05312295258045197,-0.01035690307617188,-0.03915265202522278,0.002292037010192871,1,0.6046066284179688,0.2336989790201187,0.6028901934623718,-0.4651440680027008,-0.9464302062988281,0.2806687355041504,-0.1596712172031403,0,0,0,-1,10215.90532825,3,2,1562003726.77932,1562003626.666006,7,1.998636,0.6281477,1.556376,7.126037,0,0,1562003726.779473,10213.83234,0,-0.7741699,75.30732,3232235528,182473588,1,1,0.31,-22.53057,-31.16307,2
1562003727.961456,14,0,0,1562003727.076675,4.634790100299021,-74.15102912286207,2563.782,-1,-1,10,65,-9999,1562003727.943454,-10.55566692352295,14.55633068084717,23.00494384765625,54.98300170898438,62.47697067260742,15,10217.07712275,-0.95843505859375,0.2482147216796875,-0.1483306884765625,10217.07712275,0.1094236965530667,0.009290171146632414,0.02652614972162524,10217.06726575,-11.80622863769531,25.30075073242188,-517.386962890625,10217.07205775,-2.066764291295523,-1.402033365697831,-0.2849413703682098,0.09334566444158554,0.02414325997233391,0.02679121308028698,-0.0124824047088623,-0.03305429220199585,0.008953511714935303,1,0.6040058135986328,0.2336274087429047,0.6029297709465027,-0.4659086167812347,-0.9460442066192627,0.2811011970043182,-0.1611904203891754,0,0,0,-1,10215.90532825,3,2,1562003726.77932,1562003626.666006,7,1.998636,0.6281477,1.556376,7.126037,0,0,1562003726.779473,10213.83234,0,-0.7741699,75.30732,3232235528,182473588,1,1,0.31,-22.53057,-31.49305,2
1562003727.993558,15,0,0,1562003727.076675,4.634790100299021,-74.15102912286207,2563.782,-1,-1,10,65,-9999,1562003727.969715,-10.64936447143555,14.72560596466064,22.9720458984375,54.8378791809082,62.33184814453125,15,10217.09738675,-0.9613800048828125,0.263275146484375,-0.14532470703125,10217.09738675,0.1529650487953172,-0.03497822407320973,0.01044971148525291,10217.08737675,-11.53433227539062,25.32890319824219,-517.4822998046875,10217.09232075,-2.064107771803366,-1.401498837347189,-0.2847956801098748,0.1519639641046524,-0.033689945936203,0.00624359492212534,-0.01374894380569458,-0.02629217505455017,0.01407420635223389,1,0.6035113930702209,0.2343554943799973,0.6025024056434631,-0.4667358994483948,-0.9459983706474304,0.2809613645076752,-0.1617030054330826,0,0,0,-1,10215.90532825,3,2,1562003726.77932,1562003626.666006,7,1.998636,0.6281477,1.556376,7.126037,0,0,1562003726.779473,10213.83234,0,-0.7741699,75.30732,3232235528,182473588,1,1,0.31,-22.53057,-31.7892,2
1562003728.001967,16,0,0,1562003727.076675,4.634790100299021,-74.15102912286207,2563.782,-1,-1,10,65,-9999,1562003727.993931,-10.52112007141113,14.67610645294189,22.92633056640625,54.62098693847656,62.11495590209961,15,10217.11765075,-0.95379638671875,0.2646942138671875,-0.149688720703125,10217.09738675,0.1529650487953172,-0.03497822407320973,0.01044971148525291,10217.10745775,-11.62222290039062,25.13859558105469,-517.4252319335938,10217.11258475,-2.061104450145556,-1.401501785920212,-0.2844460808816284,0.1215450763702393,-0.04411036148667336,0.01691541448235512,-0.01230895519256592,-0.01602315902709961,0.01607155799865723,1,0.603105366230011,0.2353838235139847,0.6018735766410828,-0.4675538241863251,-0.9460955858230591,0.2806258201599121,-0.1617167443037033,0,0,0,-1,10215.90532825,3,2,1562003726.77932,1562003626.666006,7,1.998636,0.6281477,1.556376,7.126037,0,0,1562003726.779473,10213.83234,0,-0.7741699,75.30732,3232235528,182473588,1,1,0.31,-22.53057,-31.97046,2
1562003728.022255,17,0,0,1562003727.076675,4.634790100299021,-74.15102912286207,2563.782,-1,-1,10,65,-9999,1562003728.020402,-10.51272773742676,14.84366512298584,22.85565185546875,54.47995758056641,61.97392654418945,15,10217.13791375,-0.9517669677734375,0.2621917724609375,-0.1554718017578125,10217.13791375,0.04373336615684522,0.0285749195482232,0.0314753682914285,10217.12756875,-11.53968811035156,25.32463073730469,-517.5616455078125,10217.13284875,-2.059188742571997,-1.40148798492817,-0.2845251831507997,0.05429360643029213,0.005436684936285019,0.02663834765553474,-0.005924463272094727,-0.01474103331565857,0.007413923740386963,1,0.6028878092765808,0.2359306365251541,0.6014128923416138,-0.4681511223316193,-0.9460713863372803,0.280701756477356,-0.1617260426282883,0,0,0,-1,10215.90532825,3,2,1562003726.77932,1562003626.666006,7,1.998636,0.6281477,1.556376,7.126037,0,0,1562003726.779473,10213.83234,0,-0.7741699,75.30732,3232235528,182473588,1,1,0.31,-22.53057,-32.58435,2
1562003728.042802,18,0,0,1562003727.076675,4.634790100299021,-74.15102912286207,2563.782,-1,-1,10,65,-9999,1562003728.020402,-10.51272773742676,14.84366512298584,22.85565185546875,54.47995758056641,61.97392654418945,15,10217.15817775,-0.950653076171875,0.26318359375,-0.155731201171875,10217.15817775,0.03398646288326421,0.07079401230924937,0.003561445325762965,10217.14764975,-11.74166870117188,25.44950866699219,-517.6363525390625,10217.15311175,-2.058367219991525,-1.400517944080202,-0.2847873276561264,0.02852645702660084,0.06226454675197601,0.009047104045748711,-0.005635321140289307,-0.01906672120094299,0.007281482219696045,1,0.6025400161743164,0.2358599156141281,0.6014576554298401,-0.4685770571231842,-0.9458417296409607,0.2809533476829529,-0.1626312583684921,0,0,0,-1,10215.90532825,3,2,1562003726.77932,1562003626.666006,7,1.998636,0.6281477,1.556376,7.126037,0,0,1562003726.779473,10213.83234,0,-0.7741699,75.30732,3232235528,182473588,1,1,0.31,-22.53057,-32.88759,2
1562003728.068312,19,0,0,1562003727.076675,4.634790100299021,-74.15102912286207,2563.782,-1,-1,10,65,-9999,1562003728.047532,-10.5936861038208,14.9230432510376,22.76873779296875,54.42792510986328,61.92189407348633,15,10217.17844175,-0.9463043212890625,0.2633819580078125,-0.1483612060546875,10217.17844175,0.06736279556079128,0.04180976490148099,-0.01305428303135041,10217.16772975,-11.74151611328125,25.93104553222656,-517.3781127929688,10217.17337575,-2.057511512605119,-1.399033038134098,-0.2845156415902165,0.05893842503428459,0.05150031670928001,-0.01211037859320641,-0.00294947624206543,-0.01856184005737305,0.01107925176620483,1,0.6019500494003296,0.2358640432357788,0.6017614603042603,-0.4689428806304932,-0.9456741809844971,0.2806926071643829,-0.1640485823154449,0,0,0,-1,10215.90532825,3,2,1562003726.77932,1562003626.666006,7,1.998636,0.6281477,1.556376,7.126037,0,0,1562003726.779473,10213.83234,0,-0.7741699,75.30732,3232235528,182473588,1,1,0.31,-22.53057,-33.30824,2
1562003728.084515,20,0,0,1562003727.076675,4.634790100299021,-74.15102912286207,2563.782,-1,-1,10,65,-9999,1562003728.070932,-10.54891300201416,15.26675319671631,22.92291259765625,54.34560775756836,61.83957672119141,15,10217.19867475,-0.9480438232421875,0.265594482421875,-0.1500701904296875,10217.19867475,0.1115638128050544,-0.03185300453400174,-0.03063114622587338,10217.18784075,-11.76280212402344,25.40438842773438,-517.6148071289062,10217.19363975,-2.056030125740891,-1.39828498367344,-0.2838435528734599,0.09405941516160965,-0.02041119523346424,-0.02590828947722912,-0.001727104187011719,-0.01376634836196899,0.01693063974380493,1,0.6014449000358582,0.2363681048154831,0.6017807722091675,-0.4693123400211334,-0.9457368850708008,0.2800474762916565,-0.1647883057594299,0,0,0,-1,10215.90532825,3,2,1562003726.77932,1562003626.666006,7,1.998636,0.6281477,1.556376,7.126037,0,0,1562003726.779473,10214.775863,0,-0.7741699,75.30732,3232235528,182473588,1,1,0.31,-22.53057,-33.30824,2
1562003728.103737,21,0,0,1562003727.076675,4.634790100299021,-74.15102912286207,2563.782,-1,-1,10,65,-9999,1562003728.095292,-10.46574974060059,14.97581577301025,22.7813720703125,54.19460678100586,61.68857574462891,15,10217.21893875,-0.94512939453125,0.2701568603515625,-0.1486053466796875,10217.21893875,0.1606442737985607,-0.06665412839472119,-0.0601038173775623,10217.20792175,-11.42686462402344,25.493896484375,-517.5995483398438,10217.21390275,-2.053588754543795,-1.398593929535378,-0.2825161716828385,0.1538178324699402,-0.06776805222034454,-0.05985506996512413,0.000123441219329834,-0.01359045505523682,0.01467257738113403,1,0.6010401248931885,0.2376361489295959,0.6013947725296021,-0.4696851372718811,-0.9461531043052673,0.2787729501724243,-0.1645596623420715,0,0,0,-1,10215.90532825,3,2,1562003726.77932,1562003626.666006,7,1.998636,0.6281477,1.556376,7.126037,0,0,1562003726.779473,10214.775863,0,-0.7741699,75.30732,3232235528,182473588,1,1,0.31,-22.53057,-32.86758,2
1562003728.12348,22,0,0,1562003727.076675,4.634790100299021,-74.15102912286207,2563.782,-1,-1,10,65,-9999,1562003728.121575,-10.59534454345703,15.10806179046631,22.65802001953125,53.98527526855469,61.47924423217773,15,10217.23920175,-0.9463043212890625,0.2806549072265625,-0.1544952392578125,10217.23920175,0.1300991476758969,-0.01554540391501053,-0.0544709653559357,10217.22800175,-11.71617126464844,25.68844604492188,-517.6986083984375,10217.23413575,-2.050617538654966,-1.399067846384598,-0.2807180094226169,0.1415140330791473,-0.03929433971643448,-0.06086547300219536,-0.001488268375396729,-0.001151442527770996,0.0110594630241394,1,0.600544810295105,0.2392647266387939,0.6009339094161987,-0.4700816571712494,-0.9467234015464783,0.2770456373691559,-0.164196640253067,0,0,0,-1,10215.90532825,3,2,1562003726.77932,1562003626.666006,7,1.998636,0.6281477,1.556376,7.126037,0,0,1562003726.779473,10214.775863,0,-0.7741699,75.30732,3232235528,182473588,1,1,0.31,-22.53057,-32.97496,2
1562003728.154323,23,0,0,1562003727.076675,4.634790100299021,-74.15102912286207,2563.782,-1,-1,10,65,-9999,1562003728.146694,-10.65325546264648,15.21191501617432,22.595458984375,53.86472702026367,61.35869598388672,15,10217.25946575,-0.9316253662109375,0.2794189453125,-0.1505584716796875,10217.25946575,0.04787378270359141,0.006571349989770521,-0.03721314886000422,10217.24811275,-11.75444030761719,25.74131774902344,-517.8193359375,10217.25439975,-2.048564813194606,-1.398761596274302,-0.2792881880981516,0.0688808262348175,-9.899912402033806e-05,-0.04251629486680031,0.009592890739440918,0.006844997406005859,0.01411783695220947,1,0.5999802947044373,0.240305095911026,0.6008450984954834,-0.4703852534294128,-0.9470623731613159,0.2756714820861816,-0.1645542085170746,0,0,0,-1,10215.90532825,3,2,1562003726.77932,1562003626.666006,7,1.998636,0.6281477,1.556376,7.126037,0,0,1562003726.779473,10214.775863,0,-0.7741699,75.30732,3232235528,182473588,1,1,0.31,-22.53057,-33.28599,2
1562003728.163976,24,0,0,1562003727.076675,4.634790100299021,-74.15102912286207,2563.782,-1,-1,10,65,-9999,1562003728.146694,-10.65325546264648,15.21191501617432,22.595458984375,53.86472702026367,61.35869598388672,15,10217.27972975,-0.9389801025390625,0.274993896484375,-0.142974853515625,10217.27972975,0.00657907315693175,-0.01651799034510747,-0.0404124042775164,10217.26819375,-11.94302368164062,25.71966552734375,-517.7354125976562,10217.27466375,-2.048029750166534,-1.398789150570425,-0.2783438935376278,0.007689377292990685,-0.01906976103782654,-0.0426127016544342,0.0144159197807312,0.002427488565444946,0.01711165904998779,1,0.5997743010520935,0.240799680352211,0.6009103655815125,-0.4703116714954376,-0.9473229646682739,0.2747636735439301,-0.1645725965499878,0,0,0,-1,10215.90532825,3,2,1562003726.77932,1562003626.666006,7,1.998636,0.6281477,1.556376,7.126037,0,0,1562003726.779473,10214.775863,0,-0.7741699,75.30732,3232235528,182473588,1,1,0.31,-22.53057,-33.50212,2
1562003728.186105,25,0,0,1562003727.076675,4.634790100299021,-74.15102912286207,2563.782,-1,-1,10,65,-9999,1562003728.172229,-10.79164886474609,15.15117740631104,22.653564453125,53.85744857788086,61.35141754150391,15,10217.29999275,-0.944183349609375,0.280426025390625,-0.143798828125,10217.29999275,-0.004324973610288683,0.0001004011730959873,-0.07550514427759954,10217.28827475,-11.69802856445312,25.51625061035156,-517.6022338867188,10217.29492675,-2.04819052808221,-1.399272274685486,-0.2772064530570657,-0.00150492019020021,-0.01324649341404438,-0.07573416829109192,0.0004288554191589355,-7.972121238708496e-05,0.02213931083679199,1,0.5997580885887146,0.2412595301866531,0.6010432839393616,-0.4699266850948334,-0.9477097392082214,0.2736698091030121,-0.1641681492328644,0,0,0,-1,10215.90532825,3,2,1562003726.77932,1562003626.666006,7,1.998636,0.6281477,1.556376,7.126037,0,0,1562003726.779473,10214.775863,0,-0.7741699,75.30732,3232235528,182473588,1,1,0.31,-22.53057,-33.62667,2
1562003728.205141,26,0,0,1562003727.076675,4.634790100299021,-74.15102912286207,2563.782,-1,-1,10,65,-9999,1562003728.196694,-10.60482215881348,15.18542575836182,22.7242431640625,53.88999557495117,61.38396453857422,15,10217.32025675,-0.942962646484375,0.2806854248046875,-0.1533660888671875,10217.32025675,-0.03627012351800716,0.02101500416181527,-0.05126398677126228,10217.30838575,-11.62876892089844,25.76332092285156,-517.63330078125,10217.31519075,-2.048748956235322,-1.399389767223332,-0.2757686584947846,-0.02896877005696297,0.01498381420969963,-0.06255285441875458,0.004908919334411621,0.00658300518989563,0.01792925596237183,1,0.599632203578949,0.2416182011365891,0.6014422178268433,-0.4693922400474548,-0.9481156468391418,0.2722866237163544,-0.1641237288713455,0,0,0,-1,10215.90532825,3,2,1562003726.77932,1562003626.666006,7,1.998636,0.6281477,1.556376,7.126037,0,0,1562003726.779473,10214.775863,0,-0.7741699,75.30732,3232235528,182473588,1,1,0.31,-22.53057,-33.66874,2
1562003728.240402,27,0,0,1562003727.076675,4.634790100299021,-74.15102912286207,2563.782,-1,-1,10,65,-9999,1562003728.222997,-10.58475494384766,15.24088573455811,22.72113037109375,53.96173858642578,61.45570755004883,15,10217.34048975,-0.9306640625,0.28466796875,-0.1564178466796875,10217.34048975,-0.04303641689957148,0.003976632139706318,-0.008438225913916067,10217.32846575,-11.60185241699219,25.73260498046875,-517.7340698242188,10217.33545475,-2.049772186539803,-1.399378249997826,-0.2751201328670922,-0.04870732128620148,0.008494755253195763,-0.01794197596609592,0.01162683963775635,0.01042670011520386,0.00721287727355957,1,0.59964919090271,0.2415335923433304,0.6018222570419312,-0.4689267873764038,-0.9482876062393188,0.271662563085556,-0.164164736866951,0,0,0,-1,10215.90532825,3,2,1562003726.77932,1562003626.666006,7,1.998636,0.6281477,1.556376,7.126037,0,0,1562003726.779473,10214.775863,0,-0.7741699,75.30732,3232235528,182473588,1,1,0.31,-22.53057,-34.01614,2
1562003728.245038,28,0,0,1562003727.076675,4.634790100299021,-74.15102912286207,2563.782,-1,-1,10,65,-9999,1562003728.222997,-10.58475494384766,15.24088573455811,22.72113037109375,53.96173858642578,61.45570755004883,15,10217.36075375,-0.9389801025390625,0.285614013671875,-0.15496826171875,10217.36075375,0.00836339108728484,-0.01655048091040643,0.01214507983519736,10217.34857675,-11.77496337890625,25.74876403808594,-517.4953002929688,10217.35571775,-2.050450843866811,-1.39977685282422,-0.2751120819696575,-0.005234943702816963,-0.02378994785249233,0.002846393967047334,0.01598197221755981,0.01571395993232727,0.009383440017700195,1,0.5998498201370239,0.2414262741804123,0.6018634438514709,-0.4686723947525024,-0.9483550190925598,0.2716548144817352,-0.1637870967388153,0,0,0,-1,10215.90532825,3,2,1562003726.77932,1562003626.666006,7,1.998636,0.6281477,1.556376,7.126037,0,0,1562003726.779473,10214.775863,0,-0.7741699,75.30732,3232235528,182473588,1,1,0.31,-22.53057,-34.01614,2
1562003728.265258,29,0,0,1562003727.076675,4.634790100299021,-74.15102912286207,2563.782,-1,-1,10,65,-9999,1562003728.247366,-10.65942478179932,15.21546459197998,22.8282470703125,53.99330139160156,61.48727035522461,15,10217.38101675,-0.943359375,0.27728271484375,-0.1617279052734375,10217.38101675,0.02742097184789187,-0.003836816182477159,0.01390835879293882,10217.36865775,-11.84735107421875,25.94355773925781,-517.8949584960938,10217.37595175,-2.050162367146315,-1.400104661372768,-0.2753116259978424,0.02279935404658318,-0.01118280924856663,0.01631080359220505,0.005285799503326416,0.009906679391860962,0.004653573036193848,1,0.5999453067779541,0.2415204495191574,0.6016555428504944,-0.4687686264514923,-0.9483552575111389,0.2718468308448792,-0.1634670048952103,0,0,0,-1,10215.90532825,3,2,1562003726.77932,1562003626.666006,7,1.998636,0.6281477,1.556376,7.126037,0,0,1562003726.779473,10214.775863,0,-0.7741699,75.30732,3232235528,182473588,1,1,0.31,-22.53057,-32.60763,2
1562003728.285718,30,0,0,1562003727.076675,4.634790100299021,-74.15102912286207,2563.782,-1,-1,10,65,-9999,1562003728.273555,-10.60476016998291,15.36594867706299,22.49072265625,53.95820617675781,61.45217514038086,15,10217.40128075,-0.9493865966796875,0.2628326416015625,-0.1600494384765625,10217.40128075,0.04242894985492441,0.002750512773833837,-0.02456100315325577,10217.38873775,-11.7183837890625,25.896728515625,-517.8968505859375,10217.39621475,-2.049561440276751,-1.400160440306397,-0.2752349928604571,0.03779800981283188,-0.007235205732285976,-0.01739016734063625,0.003560781478881836,-0.0006244182586669922,0.0002096891403198242,1,0.5998772978782654,0.2417403608560562,0.6015141010284424,-0.4689238667488098,-0.9483849406242371,0.271773099899292,-0.1634176522493362,0,0,0,-1,10215.90532825,3,2,1562003726.77932,1562003626.666006,7,1.998636,0.6281477,1.556376,7.126037,0,0,1562003726.779473,10214.775863,0,-0.7741699,75.30732,3232235528,182473588,1,1,0.31,-22.53057,-32.97935,2
1562003728.313575,31,0,0,1562003727.076675,4.634790100299021,-74.15102912286207,2563.782,-1,-1,10,65,-9999,1562003728.29819,-10.6532735824585,15.23604869842529,22.52386474609375,53.90732955932617,61.40129852294922,15,10217.42154475,-0.9509124755859375,0.2620697021484375,-0.1510772705078125,10217.42154475,0.03768825679847435,0.02632268421434319,-0.04697922689343379,10217.40884975,-11.72779846191406,25.75880432128906,-517.870361328125,10217.41647875,-2.048838425031384,-1.399895560068209,-0.274402534111223,0.03959750756621361,0.01584374904632568,-0.05115718767046928,-0.005583047866821289,-0.0115266740322113,0.007716715335845947,1,0.5995777249336243,0.2421836256980896,0.6015992760658264,-0.4689691066741943,-0.948564350605011,0.2709718644618988,-0.1637072861194611,0,0,0,-1,10215.90532825,3,2,1562003726.77932,1562003626.666006,7,1.998636,0.6281477,1.556376,7.126037,0,0,1562003726.779473,10214.775863,0,-0.7741699,75.30732,3232235528,182473588,1,1,0.31,-22.53057,-33.51795,2
1562003728.326083,32,0,0,1562003727.076675,4.634790100299021,-74.15102912286207,2563.782,-1,-1,10,65,-9999,1562003728.324128,-10.63730239868164,15.44844341278076,22.491455078125,53.87904357910156,61.37301254272461,15,10217.44180875,-0.9377899169921875,0.2655029296875,-0.15081787109375,10217.44180875,-0.01567589880842441,0.01785196773512816,0.01287744913496915,10217.42892975,-11.72706604003906,25.99790954589844,-517.8734130859375,10217.43674275,-2.048445592668966,-1.399405901622099,-0.2736093280611278,0.00112255453132093,0.0179178174585104,-0.008419842459261417,0.00449681282043457,-0.006795763969421387,0.01662534475326538,1,0.5992564558982849,0.2424614131450653,0.6018207669258118,-0.4689518809318542,-0.9486954212188721,0.2702082693576813,-0.164208322763443,0,0,0,-1,10215.90532825,3,2,1562003726.77932,1562003626.666006,7,1.998636,0.6281477,1.556376,7.126037,0,0,1562003726.779473,10214.775863,0,-0.7741699,75.30732,3232235528,182473588,1,1,0.31,-22.53057,-33.90232,2
1562003728.346362,33,0,0,1562003727.076675,4.634790100299021,-74.15102912286207,2563.782,-1,-1,10,65,-9999,1562003728.324128,-10.63730239868164,15.44844341278076,22.491455078125,53.87904357910156,61.37301254272461,15,10217.462070125,-0.936065673828125,0.2648773193359375,-0.1607666015625,10217.462070125,-0.07094048616920372,0.004674646661416087,0.03492575979973516,10217.44901075,-11.79835510253906,25.73759460449219,-517.6353759765625,10217.457004125,-2.049073349241426,-1.399375318708809,-0.2741285164193046,-0.0629216730594635,0.005645439028739929,0.0333678163588047,0.01514154672622681,-0.003419876098632812,0.009290933609008789,1,0.5994060039520264,0.2420862168073654,0.6018679738044739,-0.4688941836357117,-0.9485521912574768,0.2707080841064453,-0.1642134189605713,0,0,0,-1,10215.90532825,3,2,1562003726.77932,1562003626.666006,7,1.998636,0.6281477,1.556376,7.126037,0,0,1562003726.779473,10214.775863,0,-0.7741699,75.30732,3232235528,182473588,1,1,0.31,-22.53057,-29.42955,2
1562003728.370254,34,0,0,1562003727.076675,4.634790100299021,-74.15102912286207,2563.782,-1,-1,10,65,-9999,1562003728.348697,-10.69155025482178,15.24181842803955,22.71197509765625,53.94234085083008,61.43630981445312,15,10217.482303125,-0.9541778564453125,0.253448486328125,-0.173370361328125,10217.482303125,-0.06779449397349312,-0.002210423704765768,0.001955825504554193,10217.469120125,-11.95436096191406,25.80435180664062,-517.573974609375,10217.477268125,-2.050501380784826,-1.39985602293708,-0.2748622933933267,-0.07457593828439713,-0.009071455337107182,0.008816668763756752,0.003595471382141113,-0.01134359836578369,-0.003711104393005371,1,0.5998400449752808,0.2415163218975067,0.6019041538238525,-0.4685863852500916,-0.9484349489212036,0.2714143991470337,-0.1637235730886459,0,0,0,-1,10215.90532825,3,2,1562003726.77932,1562003626.666006,7,1.998636,0.6281477,1.556376,7.126037,0,0,1562003726.779473,10214.775863,0,-0.7741699,75.30732,3232235528,182473588,1,1,0.31,-22.53057,-30.20138,2
1562003728.397235,35,0,0,1562003727.076675,4.634790100299021,-74.15102912286207,2563.782,-1,-1,10,65,-9999,1562003728.374888,-10.59623622894287,15.07716655731201,22.65301513671875,54.04822158813477,61.54219055175781,15,10217.502567125,-0.975250244140625,0.2517852783203125,-0.17645263671875,10217.502567125,-0.04360260494732233,0.05038727414040819,-0.04594352354550198,10217.489200125,-11.6644287109375,25.55021667480469,-517.70458984375,10217.497532125,-2.051923153411478,-1.400165590494813,-0.2748173948552463,-0.05629892647266388,0.02976835146546364,-0.0355025939643383,-0.0131111741065979,-0.02306494116783142,-0.01276117563247681,1,0.60009765625,0.2411779016256332,0.6021537184715271,-0.4681100845336914,-0.9484977126121521,0.2713711857795715,-0.1634320467710495,0,0,0,-1,10215.90532825,3,2,1562003726.77932,1562003626.666006,7,1.998636,0.6281477,1.556376,7.126037,0,0,1562003726.779473,10214.775863,0,-0.7741699,75.30732,3232235528,182473588,1,1,0.31,-22.53057,-30.4078,2
1562003728.407099,36,0,0,1562003727.076675,4.634790100299021,-74.15102912286207,2563.782,-1,-1,10,65,-9999,1562003728.399398,-10.65452671051025,15.06166172027588,22.799072265625,54.12923431396484,61.62320327758789,15,10217.522831125,-1.006088256835938,0.259857177734375,-0.1745452880859375,10217.522831125,-0.01102095953907491,0.0474868253972029,-0.07994063907312651,10217.509311125,-11.75839233398438,25.6094970703125,-517.555908203125,10217.517765125,-2.052903182589483,-1.399554825586589,-0.27370239668491,-0.01911906898021698,0.04408231005072594,-0.08368290215730667,-0.04614740610122681,-0.01308044791221619,-0.009765386581420898,1,0.5998550057411194,0.2411277443170547,0.6028003096580505,-0.4676143527030945,-0.948695182800293,0.2702978551387787,-0.1640627682209015,0,0,0,-1,10217.516453125,2,0,1562003728.390445,1562003626.666006,7,1.998636,0.6281477,1.556376,7.126037,0,0,1562003726.779473,10214.775863,0,-0.7741699,75.30732,3232235528,182473588,1,1,0.31,-22.53057,-30.4078,2
1562003728.427365,37,0,0,1562003727.076675,4.634790100299021,-74.15102912286207,2563.782,-1,-1,10,65,-9999,1562003728.425948,-10.81466197967529,14.88212490081787,22.70086669921875,54.17268753051758,61.66665649414062,15,10217.543094125,-1.0516357421875,0.2675933837890625,-0.1763458251953125,10217.543094125,-0.03967444233945545,0.1139729083271401,-0.002376072324568696,10217.529392125,-11.93495178222656,25.32063293457031,-517.7048950195312,10217.538028125,-2.053479910892239,-1.398552378170537,-0.2724847509009193,-0.02651067264378071,0.08944979310035706,-0.02640843018889427,-0.07697939872741699,-0.006216377019882202,-0.008254587650299072,1,0.5994289517402649,0.2411429882049561,0.603490948677063,-0.4672618508338928,-0.9488537311553955,0.2691253423690796,-0.1650699824094772,0,0,0,-1,10217.516453125,2,0,1562003728.390445,1562003626.666006,7,1.998636,0.6281477,1.556376,7.126037,0,0,1562003726.779473,10214.775863,0,-0.7741699,75.30732,3232235528,182473588,1,1,0.31,-22.53057,-27.80885,2
1562003728.447656,38,0,0,1562003727.076675,4.634790100299021,-74.15102912286207,2563.782,-1,-1,10,65,-9999,1562003728.425948,-10.81466197967529,14.88212490081787,22.70086669921875,54.17268753051758,61.66665649414062,15,10217.563358125,-1.093063354492188,0.2579498291015625,-0.17730712890625,10217.563358125,-0.08691918639357014,0.1125603676849621,-0.01742506301238846,10217.549473125,-12.17044067382812,25.56864929199219,-517.6255493164062,10217.558292125,-2.054641905201804,-1.396470579930663,-0.2726054111239431,-0.08266129344701767,0.1252874135971069,-0.004714586306363344,-0.1236674189567566,-0.0007479190826416016,-0.01215988397598267,1,0.5989593267440796,0.2402666509151459,0.6043608784675598,-0.467191219329834,-0.9484761357307434,0.2692415416240692,-0.1670393198728561,0,0,0,-1,10217.516453125,2,0,1562003728.390445,1562003626.666006,7,1.998636,0.6281477,1.556376,7.126037,0,0,1562003726.779473,10214.775863,0,-0.7741699,75.30732,3232235528,182473588,1,1,0.31,-22.53057,-28.13224,2
1562003728.476368,39,0,0,1562003727.076675,4.634790100299021,-74.15102912286207,2563.782,-1,-1,10,65,-9999,1562003728.450783,-11.01902770996094,15.01588726043701,22.7484130859375,54.27295684814453,61.76692581176758,15,10217.583622125,-1.186965942382812,0.2265777587890625,-0.1808013916015625,10217.583622125,-0.03818546897399215,0.03560433324548735,-0.1511293318559256,10217.569584125,-12.15452575683594,25.65103149414062,-517.5360107421875,10217.578556125,-2.056522193637699,-1.395248153201007,-0.2719507846632643,-0.06416431069374084,0.04283275455236435,-0.1042925789952278,-0.1813162565231323,-0.02799519896507263,-0.01081728935241699,1,0.5987113118171692,0.2396457344293594,0.605302631855011,-0.4666083753108978,-0.9484444856643677,0.2686110436916351,-0.1682293713092804,0,0,0,-1,10217.516453125,2,0,1562003728.390445,1562003626.666006,7,1.998636,0.6281477,1.556376,7.126037,0,0,1562003726.779473,10214.775863,0,-0.7741699,75.30732,3232235528,182473588,1,1,0.31,-22.53057,-28.59323,2
1562003728.488156,40,0,0,1562003727.076675,4.634790100299021,-74.15102912286207,2563.782,-1,-1,10,65,-9999,1562003728.47623,-11.0603551864624,15.06938076019287,22.90423583984375,54.38906097412109,61.88302993774414,15,10217.603885125,-1.278106689453125,0.19873046875,-0.189361572265625,10217.603885125,0.09893164080648156,0.08981990145288445,-0.4553297063185536,10217.589664125,-12.18780517578125,25.53860473632812,-517.4400634765625,10217.598819125,-2.057460039812364,-1.394716453271031,-0.2674413113381135,0.06720197200775146,0.05854620784521103,-0.3758087754249573,-0.2885908484458923,-0.05029058456420898,-0.01251339912414551,1,0.5979458093643188,0.2408085465431213,0.6066198348999023,-0.465278834104538,-0.9495378136634827,0.2642645835876465,-0.1689441055059433,0,0,0,-1,10217.516453125,2,0,1562003728.390445,1562003626.666006,7,1.998636,0.6281477,1.556376,7.126037,0,0,1562003726.779473,10214.775863,0,-0.7741699,75.30732,3232235528,182473588,1,1,0.31,-22.53057,-29.43727,2
1562003728.508418,41,0,0,1562003727.076675,4.634790100299021,-74.15102912286207,2563.782,-1,-1,10,65,-9999,1562003728.500658,-11.05493927001953,14.81891345977783,22.61962890625,54.39108276367188,61.88505172729492,15,10217.624149125,-1.343734741210938,0.170867919921875,-0.22698974609375,10217.624149125,0.02626835572810557,0.2147426629179943,-0.7413430873809215,10217.609775125,-12.120849609375,25.35430908203125,-517.8081665039062,10217.619083125,-2.057423602503162,-1.392212360732556,-0.2563995002744649,0.07806473970413208,0.1929535418748856,-0.6857094168663025,-0.365808367729187,-0.07636857032775879,-0.03372198343276978,1,0.5954105257987976,0.2440731823444366,0.6096442341804504,-0.4628697335720062,-0.9519253373146057,0.2535994052886963,-0.1718291789293289,0,0,0,-1,10217.516453125,2,0,1562003728.390445,1562003626.666006,7,1.998636,0.6281477,1.556376,7.126037,0,0,1562003726.779473,10214.775863,0,-0.7741699,75.30732,3232235528,182473588,1,1,0.31,-23.08785,-30.12168,2
1562003728.528652,42,0,0,1562003727.076675,4.634790100299021,-74.15102912286207,2563.782,-1,-1,10,65,-9999,1562003728.526726,-11.43661785125732,14.73960590362549,22.57305908203125,54.67470550537109,62.16867446899414,15,10217.644382125,-1.402587890625,0.212493896484375,-0.2919158935546875,10217.644382125,-0.2885337967180189,0.2478867679484665,-0.8897397496423168,10217.629856125,-12.65861511230469,25.19248962402344,-517.8148803710938,10217.639347125,-2.06147935308746,-1.388764425038755,-0.2408814861495644,-0.2112307101488113,0.2397167980670929,-0.8667031526565552,-0.4154614210128784,-0.05137917399406433,-0.08342993259429932,1,0.5923366546630859,0.2474600225687027,0.6147754788398743,-0.4582051932811737,-0.9550830125808716,0.238558754324913,-0.1758016496896744,0,0,0,-1,10217.516453125,2,0,1562003728.390445,1562003626.666006,7,1.998636,0.6281477,1.556376,7.126037,0,0,1562003726.779473,10214.775863,0,-0.7741699,75.30732,3232235528,182473588,1,1,0.31,-23.08785,-30.12168,2
1562003728.554413,43,0,0,1562003727.076675,4.634790100299021,-74.15102912286207,2563.782,-1,-1,10,65,-9999,1562003728.551315,-11.78615188598633,14.38085269927979,22.62066650390625,55.34069061279297,62.83465957641602,15,10217.664646125,-1.481658935546875,0.3103485107421875,-0.3547515869140625,10217.664646125,-0.1771425567516016,0.04334081621216754,-0.9302064824060708,10217.649936125,-12.99148559570312,24.8651123046875,-517.7456665039062,10217.659580125,-2.071149097688783,-1.386719750719831,-0.2240228980705617,-0.2877044379711151,0.1247760951519012,-0.9254447817802429,-0.479036808013916,0.04101455211639404,-0.138856828212738,1,0.5901482701301575,0.2499850988388062,0.6209658980369568,-0.4512579739093781,-0.9585394263267517,0.2221537828445435,-0.1784649342298508,0,0,0,-1,10217.516453125,2,0,1562003728.390445,1562003626.666006,7,1.998636,0.6281477,1.556376,7.126037,0,0,1562003726.779473,10214.775863,0,-0.7741699,75.30732,3232235528,182473588,1,1,0.31,-24.20241,-30.71932,2
1562003728.569417,44,0,0,1562003727.076675,4.634790100299021,-74.15102912286207,2563.782,-1,-1,10,65,-9999,1562003728.551315,-11.78615188598633,14.38085269927979,22.62066650390625,55.34069061279297,62.83465957641602,15,10217.684910125,-1.53466796875,0.2950592041015625,-0.415313720703125,10217.684910125,0.4882402521214258,-0.2333967747734544,-0.9643633875991001,10217.670047125,-13.25761413574219,24.63958740234375,-517.5991821289062,10217.679844125,-2.074814614987406,-1.3884321064365,-0.2051745525301944,0.3317886292934418,-0.2050838321447372,-0.9623394012451172,-0.550453782081604,0.1055118441581726,-0.2144623398780823,1,0.588032066822052,0.2558176517486572,0.6250019669532776,-0.4451382458209991,-0.962790846824646,0.2037380486726761,-0.1775512397289276,0,0,0,-1,10217.516453125,2,0,1562003728.390445,1562003626.666006,7,1.998636,0.6281477,1.556376,7.126037,0,0,1562003726.779473,10214.775863,0,-0.7741699,75.30732,3232235528,182473588,1,1,0.31,-24.20241,-30.71932,2
1562003728.589481,45,0,0,1562003727.076675,4.634790100299021,-74.15102912286207,2563.782,-1,-1,10,65,-9999,1562003728.577383,-12.14245223999023,13.98461627960205,22.6392822265625,55.16466522216797,62.65863418579102,15,10217.705173125,-1.57037353515625,0.3200531005859375,-0.4066009521484375,10217.705173125,0.7655477595803247,-0.08619454026095959,-1.067054612916447,10217.690128125,-13.2335205078125,24.52555847167969,-517.697509765625,10217.700107125,-2.06642886076313,-1.391141766438215,-0.1831647393682375,0.7689036130905151,-0.1522078365087509,-1.050649046897888,-0.5931456089019775,0.1195849776268005,-0.2376599311828613,1,0.5840794444084167,0.2664599120616913,0.6266319155693054,-0.4417950809001923,-0.9674469828605652,0.1821422874927521,-0.1757006347179413,0,0,0,-1,10217.516453125,2,0,1562003728.390445,1562003626.666006,7,1.998636,0.6281477,1.556376,7.126037,0,0,1562003726.779473,10214.775863,0,-0.7741699,75.30732,3232235528,182473588,1,1,0.31,-24.75969,-30.93378,2
1562003728.609776,46,0,0,1562003727.076675,4.634790100299021,-74.15102912286207,2563.782,-1,-1,10,65,-9999,1562003728.601843,-12.49432945251465,13.90361309051514,22.28363037109375,54.39370727539062,61.88767623901367,15,10217.725437125,-1.595794677734375,0.37799072265625,-0.4631500244140625,10217.725437125,0.5754611746665019,0.3329662426610099,-1.006476220232632,10217.710209125,-13.64578247070312,24.43069458007812,-518.12353515625,10217.720371125,-2.056032135415796,-1.389347176822763,-0.1593702028147416,0.6041533350944519,0.2045010179281235,-1.045998096466064,-0.6147730946540833,0.1799114048480988,-0.2646112442016602,1,0.5779799818992615,0.2772273421287537,0.629438042640686,-0.439194530248642,-0.9711186289787292,0.1586964279413223,-0.1781682819128036,0,0,0,-1,10217.516453125,2,0,1562003728.390445,1562003626.666006,7,1.998636,0.6281477,1.556376,7.126037,0,0,1562003726.779473,10214.775863,0,-0.7741699,75.30732,3232235528,182473588,1,1,0.31,-24.87796,-31.46749,2
1562003728.639708,47,0,0,1562003727.076675,4.634790100299021,-74.15102912286207,2563.782,-1,-1,10,65,-9999,1562003728.628172,-12.64564037322998,13.77318477630615,21.9964599609375,53.78358459472656,61.27755355834961,15,10217.745701125,-1.488067626953125,0.378997802734375,-0.4467926025390625,10217.745701125,0.723917491736315,0.5720933411519877,-0.8670267139694671,10217.730289125,-13.8038330078125,24.26173400878906,-518.5009155273438,10217.740635125,-2.047672237016414,-1.380150798975642,-0.1379312377639554,0.6523362994194031,0.5064504742622375,-0.8803609013557434,-0.5825273990631104,0.262285977602005,-0.272344172000885,1,0.5700693726539612,0.2849111557006836,0.6343060731887817,-0.4376099407672882,-0.9725568294525146,0.137494295835495,-0.1876930892467499,0,0,0,-1,10217.516453125,2,0,1562003728.390445,1562003626.666006,7,1.998636,0.6281477,1.556376,7.126037,0,0,1562003726.779473,10214.775863,0,-0.7741699,75.30732,3232235528,182473588,1,1,0.31,-24.87796,-31.87178,2
1562003728.65255,48,0,0,1562003727.076675,4.634790100299021,-74.15102912286207,2563.782,-1,-1,10,65,-9999,1562003728.628172,-12.64564037322998,13.77318477630615,21.9964599609375,53.78358459472656,61.27755355834961,15,10217.765964125,-1.301589965820312,0.3347015380859375,-0.3430023193359375,10217.765964125,1.076079799534616,0.9050878133205524,-0.8211332578524585,10217.750370125,-14.30012512207031,24.45518493652344,-518.6367797851562,10217.760898125,-2.034791101104817,-1.365419369386061,-0.1173391214741506,0.9999788999557495,0.8101323246955872,-0.8594409823417664,-0.429801344871521,0.2495223581790924,-0.1948202252388,1,0.5597183704376221,0.2923155725002289,0.6394832134246826,-0.4385525584220886,-0.9722524881362915,0.1170700415968895,-0.2025339007377625,0,0,0,-1,10217.516453125,2,0,1562003728.390445,1562003626.666006,7,1.998636,0.6281477,1.556376,7.126037,0,0,1562003726.779473,10214.775863,0,-0.7741699,75.30732,3232235528,182473588,1,1,0.31,-24.87796,-32.40893,2
1562003728.671078,49,0,0,1562003727.076675,4.634790100299021,-74.15102912286207,2563.782,-1,-1,10,65,-9999,1562003728.652533,-13.09597396850586,13.85893535614014,21.7657470703125,52.75377655029297,60.24774551391602,15,10217.786197125,-1.165176391601562,0.276214599609375,-0.326568603515625,10217.786197125,1.049516898189948,1.094706747146957,-0.4217890566017687,10217.770481125,-14.77912902832031,24.61851501464844,-519.3486328125,10217.781162125,-2.016258530999397,-1.343933696665232,-0.09798050050292777,1.100305795669556,1.072692394256592,-0.5485898852348328,-0.2529069185256958,0.2011111378669739,-0.1037023067474365,1,0.5463670492172241,0.2992684543132782,0.6448932290077209,-0.4427574872970581,-0.9697034955024719,0.09782380610704422,-0.2238428741693497,0,0,0,-1,10217.516453125,2,0,1562003728.390445,1562003626.666006,7,1.998636,0.6281477,1.556376,7.126037,0,0,1562003726.779473,10214.775863,0,-0.7741699,75.30732,3232235528,182473588,1,1,0.31,-24.87796,-32.67783,2
1562003728.690847,50,0,0,1562003727.076675,4.634790100299021,-74.15102912286207,2563.782,-1,-1,10,65,-9999,1562003728.678705,-14.28925037384033,14.13101100921631,20.50164794921875,51.40670013427734,58.90066909790039,15,10217.806461125,-1.074752807617188,0.2192840576171875,-0.2989654541015625,10217.806461125,0.6295782059135662,0.9761081943224585,-0.09851458977977515,10217.790561125,-15.493408203125,24.73033142089844,-519.9632568359375,10217.801426125,-1.998703490555237,-1.32087029764165,-0.08718166967399293,0.7720392346382141,0.9883835911750793,-0.1189676597714424,-0.1517078876495361,0.1630202829837799,-0.06169730424880981,1,0.534116804599762,0.3025273084640503,0.6491648554801941,-0.4492008686065674,-0.9652507901191711,0.08707126975059509,-0.2463929355144501,0,0,0,-1,10217.516453125,2,0,1562003728.390445,1562003626.666006,7,1.998636,0.6281477,1.556376,7.126037,0,0,1562003726.779473,10214.775863,0,-0.7741699,75.30732,3232235528,182473588,1,1,0.31,-24.87796,-32.67783,2
1562003728.71318,51,0,0,1562003727.076675,4.634790100299021,-74.15102912286207,2563.782,-1,-1,10,65,-9999,1562003728.703341,-14.74101448059082,14.29058742523193,19.99310302734375,50.60208892822266,58.0960578918457,15,10217.826725125,-0.980316162109375,0.1810302734375,-0.300323486328125,10217.826725125,-0.1258093277919973,1.128909991342954,-0.329173368636519,10217.810642125,-15.90231323242188,24.84542846679688,-520.5000610351562,10217.821659125,-1.99098121647835,-1.299744312297946,-0.0817997454862589,0.05559405311942101,1.085999608039856,-0.2727974355220795,-0.06857091188430786,0.1228355169296265,-0.03799015283584595,1,0.5249693989753723,0.3016324937343597,0.6539799571037292,-0.4535804986953735,-0.9602681398391724,0.08170855045318604,-0.2668499350547791,0,0,0,-1,10217.516453125,2,0,1562003728.390445,1562003626.666006,7,1.998636,0.6281477,1.556376,7.126037,0,0,1562003726.779473,10214.775863,0,-0.7741699,75.30732,3232235528,182473588,1,1,0.31,-21.13256,-30.9988,2
1562003728.731337,52,0,0,1562003727.076675,4.634790100299021,-74.15102912286207,2563.782,-1,-1,10,65,-9999,1562003728.729211,-15.38445949554443,14.53605175018311,19.54547119140625,51.03213500976562,58.52610397338867,15,10217.846988125,-0.843505859375,0.1774139404296875,-0.2910308837890625,10217.846988125,-0.4319799088290659,1.327535469659898,-0.2260632280797032,10217.830723125,-16.58309936523438,25.03353881835938,-520.9069213867188,10217.841922125,-1.997607144232868,-1.276431932063975,-0.07661503406486529,-0.4258668422698975,1.280981302261353,-0.311166912317276,0.03323525190353394,0.09779155254364014,-0.01728379726409912,1,0.5172151327133179,0.296392023563385,0.6624698042869568,-0.4536232650279999,-0.9541794657707214,0.07654010504484177,-0.2892805635929108,0,0,0,-1,10217.840671125,3,2,1562003728.714663,1562003626.666006,7,1.998636,0.6281477,1.556376,7.126037,0,0,1562003726.779473,10214.775863,0,-0.7741699,75.30732,3232235528,182473588,1,1,0.31,-21.13256,-23.90642,2
1562003728.752543,53,0,0,1562003727.076675,4.634790100299021,-74.15102912286207,2563.782,-1,-1,10,65,-9999,1562003728.729211,-15.38445949554443,14.53605175018311,19.54547119140625,51.03213500976562,58.52610397338867,15,10217.867252125,-0.6761932373046875,0.16796875,-0.26483154296875,10217.867252125,-0.1983714127489502,1.323687201884733,0.1129063123105633,10217.850834125,-17.09220886230469,24.7716064453125,-521.094970703125,10217.862186125,-2.005975619264497,-1.249972878093655,-0.07628067645349051,-0.285546213388443,1.352930665016174,0.03266634047031403,0.1821174025535583,0.0970262885093689,0.03501212596893311,1,0.5095467567443848,0.288351446390152,0.671219527721405,-0.4546206593513489,-0.9462165236473083,0.07620672136545181,-0.3144311010837555,0,0,0,-1,10217.840671125,3,2,1562003728.714663,1562003626.666006,7,1.998636,0.6281477,1.556376,7.126037,0,0,1562003726.779473,10214.775863,0,-0.7741699,75.30732,3232235528,182473588,1,1,0.31,-21.13256,-24.56744,2
1562003728.772463,54,0,0,1562003727.076675,4.634790100299021,-74.15102912286207,2563.782,-1,-1,10,65,-9999,1562003728.753877,-15.87279796600342,14.33169460296631,19.3026123046875,51.52920150756836,59.02317047119141,15,10217.887516125,-0.520294189453125,0.14166259765625,-0.2112884521484375,10217.887516125,0.1088889338061788,0.7480862112610022,0.3731072708234472,10217.870914125,-17.5621337890625,24.63885498046875,-521.50244140625,10217.882450125,-2.006826881519665,-1.22587036830714,-0.08040730108898266,0.05943193286657333,0.9114131927490234,0.3160088360309601,0.359110951423645,0.07176366448402405,0.1052992939949036,1,0.5024083852767944,0.2811912894248962,0.6768130660057068,-0.4587389230728149,-0.93805992603302,0.08032068610191345,-0.3370345532894135,0,0,0,-1,10217.840671125,3,2,1562003728.714663,1562003626.666006,7,1.998636,0.6281477,1.556376,7.126037,0,0,1562003726.779473,10214.775863,0,-0.7741699,75.30732,3232235528,182473588,1,1,0.31,-21.13256,-25.2455,2
1562003728.802883,55,0,0,1562003727.076675,4.634790100299021,-74.15102912286207,2563.782,-1,-1,10,65,-9999,1562003728.780144,-16.71990203857422,14.20116519927979,18.36273193359375,51.34276962280273,58.83673858642578,15,10217.907779125,-0.4656982421875,0.1297607421875,-0.215362548828125,10217.907779125,0.1365400027722535,0.5808625979894007,0.4809897960536851,10217.890995125,-17.86209106445312,24.75628662109375,-522.0609741210938,10217.902713125,-2.001669247785961,-1.212134561745724,-0.08730277582382402,0.141463428735733,0.5355135798454285,0.4679307341575623,0.4380807876586914,0.05566084384918213,0.131712794303894,1,0.4984880685806274,0.2768886983394623,0.6778984665870667,-0.4639998376369476,-0.9328011870384216,0.08719191700220108,-0.3496845960617065,0,0,0,-1,10217.840671125,3,2,1562003728.714663,1562003626.666006,7,1.998636,0.6281477,1.556376,7.126037,0,0,1562003726.779473,10214.775863,0,-0.7741699,75.30732,3232235528,182473588,1,1,0.31,-21.13256,-26.0517,2
1562003728.812307,56,0,0,1562003727.076675,4.634790100299021,-74.15102912286207,2563.782,-1,-1,10,65,-9999,1562003728.804326,-16.64569854736328,14.32549953460693,18.10626220703125,50.91532897949219,58.40929794311523,15,10217.928013125,-0.413482666015625,0.080902099609375,-0.18231201171875,10217.928013125,0.2108536487781516,0.842355722263191,0.4157234409030042,10217.911075125,-17.70915222167969,24.86088562011719,-522.2783203125,10217.922977125,-1.995610588717092,-1.198412055541286,-0.09526708584350999,0.1632193177938461,0.7902747392654419,0.450281947851181,0.4847187399864197,0.0119326114654541,0.1607257127761841,1,0.4946885406970978,0.2723774611949921,0.6785459518432617,-0.4697544574737549,-0.9272388815879822,0.0951230451464653,-0.362187534570694,0,0,0,-1,10217.840671125,3,2,1562003728.714663,1562003626.666006,7,1.998636,0.6281477,1.556376,7.126037,0,0,1562003726.779473,10214.775863,0,-0.7741699,75.30732,3232235528,182473588,1,1,0.31,-21.13256,-26.56659,2
1562003728.832625,57,0,0,1562003727.076675,4.634790100299021,-74.15102912286207,2563.782,-1,-1,10,65,-9999,1562003728.83071,-17.02766036987305,14.41706371307373,17.808837890625,50.34597396850586,57.83994293212891,15,10217.948276125,-0.3507843017578125,0.037567138671875,-0.0849609375,10217.948276125,0.4732783468012516,0.7376641966510861,0.2503850793670698,10217.931186125,-18.22630310058594,24.91824340820312,-522.676513671875,10217.943241125,-1.987620976478243,-1.180655310160798,-0.09999548832833446,0.4095260202884674,0.8146935701370239,0.2712301909923553,0.5450828671455383,-0.04956647753715515,0.240510106086731,1,0.4885857701301575,0.2684668302536011,0.68022221326828,-0.4759278297424316,-0.9202354550361633,0.09982892870903015,-0.3784190118312836,0,0,0,-1,10217.840671125,3,2,1562003728.714663,1562003626.666006,7,1.998636,0.6281477,1.556376,7.126037,0,0,1562003726.779473,10214.775863,0,-0.7741699,75.30732,3232235528,182473588,1,1,0.31,-21.13256,-27.08933,2
1562003728.853175,58,0,0,1562003727.076675,4.634790100299021,-74.15102912286207,2563.782,-1,-1,10,65,-9999,1562003728.83071,-17.02766036987305,14.41706371307373,17.808837890625,50.34597396850586,57.83994293212891,15,10217.968540125,-0.3612060546875,0.0700836181640625,-0.0600128173828125,10217.968540125,0.6398617361467981,0.2858679724668495,0.3679561846430159,10217.951267125,-18.35107421875,25.28634643554688,-523.1319580078125,10217.963474125,-1.975729046064739,-1.167196038643565,-0.1008069736706917,0.6162291169166565,0.3663375973701477,0.3122109174728394,0.5637726783752441,-0.04546055197715759,0.3329683542251587,1,0.4825881123542786,0.2678425908088684,0.680505096912384,-0.4819563627243042,-0.9149842262268066,0.100636325776577,-0.3907381296157837,0,0,0,-1,10217.840671125,3,2,1562003728.714663,1562003626.666006,7,1.998636,0.6281477,1.556376,7.126037,0,0,1562003726.779473,10214.775863,0,-0.7741699,75.30732,3232235528,182473588,1,1,0.31,-21.13256,-27.08933,2
1562003728.874602,59,0,0,1562003727.076675,4.634790100299021,-74.15102912286207,2563.782,-1,-1,10,65,-9999,1562003728.855807,-17.14779281616211,14.69057750701904,17.35546875,49.42854309082031,56.92251205444336,15,10217.988804125,-0.3965911865234375,0.06439208984375,-0.0769195556640625,10217.988804125,0.5952146394199467,0.1483625737994423,0.6004743825728531,10217.971348125,-18.28408813476562,25.84747314453125,-523.4520874023438,10217.983738125,-1.960379553948795,-1.160888426619471,-0.1036279396206056,0.6209823489189148,0.1532846987247467,0.5486851930618286,0.5323240756988525,-0.03290119767189026,0.3285921812057495,1,0.4790045917034149,0.269000232219696,0.6778180599212646,-0.4886268377304077,-0.9122374057769775,0.1034425646066666,-0.3963869512081146,0,0,0,-1,10217.840671125,3,2,1562003728.714663,1562003626.666006,7,1.998636,0.6281477,1.556376,7.126037,0,0,1562003726.779473,10214.775863,0,-0.7741699,75.30732,3232235528,182473588,1,1,0.31,-21.13256,-27.69356,2
1562003728.893281,60,0,0,1562003728.860692,4.634788573009422,-74.15103087310237,2563.844,-1,-1,10,65,-9999,1562003728.88126,-16.86842346191406,15.66204357147217,16.736083984375,48.297607421875,55.79157638549805,15,10218.009067125,-0.42388916015625,0.034393310546875,-0.08062744140625,10218.009067125,0.4744626545380099,0.1695999519122792,0.6729765464052794,10217.991459125,-17.818359375,26.29853820800781,-523.725830078125,10218.004001125,-1.944810817094553,-1.156213303706313,-0.110654577033924,0.4980913102626801,0.1592017114162445,0.6671884059906006,0.5038638114929199,-0.06053265929222107,0.3190916776657104,1,0.4768894612789154,0.2690800130367279,0.6738967895507812,-0.4960197806358337,-0.9096865653991699,0.1104288995265961,-0.4003447890281677,0,0,0,-1,10217.840671125,3,2,1562003728.714663,1562003626.666006,7,1.998636,0.6281477,1.556376,7.126037,0,0,1562003726.779473,10214.775863,0,-0.7741699,75.30732,3232235528,182473588,1,1,0.31,-21.13256,-28.01899,2
1562003728.913579,61,0,0,1562003728.860692,4.634788573009422,-74.15103087310237,2563.844,-1,-1,10,65,-9999,1562003728.905621,-16.92470932006836,15.98550128936768,16.36480712890625,47.26947784423828,54.76344680786133,15,10218.029331125,-0.5227203369140625,0.02001953125,-0.1011199951171875,10218.029331125,0.2963826650827004,0.2784260351167321,0.676895920581549,10218.011539125,-18.01141357421875,26.58171081542969,-524.1219482421875,10218.024265125,-1.930984626682261,-1.15089836062007,-0.1194833803488193,0.368382066488266,0.2361292392015457,0.6779769062995911,0.4488718509674072,-0.09109261631965637,0.3231567740440369,1,0.4752247631549835,0.2679198384284973,0.6701717972755432,-0.5032396912574768,-0.9066202640533447,0.1191992834210396,-0.4047607779502869,0,0,0,-1,10217.840671125,3,2,1562003728.714663,1562003626.666006,7,1.998636,0.6281477,1.556376,7.126037,0,0,1562003726.779473,10214.775863,0,-0.7741699,75.30732,3232235528,182473588,1,1,0.31,-21.13256,-28.43341,2
1562003728.935031,62,0,0,1562003728.860692,4.634788573009422,-74.15103087310237,2563.844,-1,-1,10,65,-9999,1562003728.932424,-16.80664825439453,16.23537445068359,16.0501708984375,46.61872482299805,54.11269378662109,15,10218.049595125,-0.6425323486328125,0.008209228515625,-0.1923370361328125,10218.049595125,-0.1826843286639475,0.5080837317197152,0.6673282480493303,10218.031620125,-17.89993286132812,26.83671569824219,-524.4015502929688,10218.044529125,-1.921964422358763,-1.143282137716379,-0.1303154457299503,-0.05151056498289108,0.4280797839164734,0.6609272956848145,0.3136450052261353,-0.1166412532329559,0.2643812298774719,1,0.4739184379577637,0.2642991840839386,0.6677876710891724,-0.5095163583755493,-0.9022833108901978,0.1299469172954559,-0.4110945165157318,0,0,0,-1,10217.840671125,3,2,1562003728.714663,1562003626.666006,7,1.998636,0.6281477,1.556376,7.126037,0,0,1562003726.779473,10214.775863,0,-0.7741699,75.30732,3232235528,182473588,1,1,0.31,-21.13256,-28.65593,2
1562003728.954142,63,0,0,1562003728.860692,4.634788573009422,-74.15103087310237,2563.844,-1,-1,10,65,-9999,1562003728.932424,-16.80664825439453,16.23537445068359,16.0501708984375,46.61872482299805,54.11269378662109,15,10218.069828125,-0.725738525390625,0.0236663818359375,-0.2713470458984375,10218.069828125,-0.5529042002335308,0.6807401936150783,0.7016579923971057,10218.051731125,-17.58847045898438,27.07180786132812,-524.3309326171875,10218.064792125,-1.921820514501275,-1.131804160077865,-0.1452769733726903,-0.5218548774719238,0.6798158884048462,0.6914868354797363,0.2094573974609375,-0.1323153078556061,0.1896083354949951,1,0.4734413027763367,0.2560825645923615,0.667811393737793,-0.5141040682792664,-0.8956451416015625,0.1447664946317673,-0.4205501079559326,0,0,0,-1,10217.840671125,3,2,1562003728.714663,1562003626.666006,7,1.998636,0.6281477,1.556376,7.126037,0,0,1562003726.779473,10214.775863,0,-0.7741699,75.30732,3232235528,182473588,1,1,0.31,-21.13256,-29.30777,2
1562003728.974932,64,0,0,1562003728.860692,4.634788573009422,-74.15103087310237,2563.844,-1,-1,10,65,-9999,1562003728.95638,-16.51421737670898,16.50673675537109,16.08917236328125,46.71252822875977,54.20649719238281,15,10218.090091125,-0.7556915283203125,0.005859375,-0.231048583984375,10218.090091125,-0.02939117842233249,0.1000957085189552,0.6760354532333444,10218.071811125,-17.59518432617188,27.15016174316406,-524.173095703125,10218.085056125,-1.924229250077805,-1.12093959681983,-0.1620149308200906,-0.2305559366941452,0.2814621329307556,0.6872159242630005,0.1435993909835815,-0.1365420520305634,0.1515846252441406,1,0.4738723933696747,0.2467264831066132,0.6680111289024353,-0.518007755279541,-0.8887165188789368,0.161307081580162,-0.4291419982910156,0,0,0,-1,10217.840671125,3,2,1562003728.714663,1562003626.666006,7,1.998636,0.6281477,1.556376,7.126037,0,0,1562003726.779473,10214.775863,0,-0.7741699,75.30732,3232235528,182473588,1,1,0.31,-21.13256,-30.01322,2
1562003728.994619,65,0,0,1562003728.860692,4.634788573009422,-74.15103087310237,2563.844,-1,-1,10,65,-9999,1562003728.98265,-16.3964729309082,16.6816291809082,16.0108642578125,46.56156158447266,54.0555305480957,15,10218.110355125,-0.8271942138671875,-0.0117950439453125,-0.1755828857421875,10218.110355125,0.5740579550881392,-0.5015275617481582,0.4637032174179808,10218.091892125,-17.45237731933594,27.26809692382812,-524.3614501953125,10218.105289125,-1.915681802728293,-1.121132076573246,-0.1722001178157512,0.4880024790763855,-0.4008357524871826,0.5431839227676392,0.1023918390274048,-0.176568865776062,0.2402005195617676,1,0.4751655161380768,0.2451539039611816,0.6638991236686707,-0.5228338837623596,-0.8872734904289246,0.1713503450155258,-0.4282345771789551,0,0,0,-1,10217.840671125,3,2,1562003728.714663,1562003626.666006,7,1.998636,0.6281477,1.556376,7.126037,0,0,1562003726.779473,10214.775863,0,-0.7741699,75.30732,3232235528,182473588,1,1,0.31,-21.13256,-30.18734,2
1562003729.014861,66,0,0,1562003728.860692,4.634788573009422,-74.15103087310237,2563.844,-1,-1,10,65,-9999,1562003729.006963,-15.96949481964111,17.08734130859375,15.95416259765625,45.60779190063477,53.10176086425781,15,10218.130619125,-0.9167022705078125,0.0097503662109375,-0.2331695556640625,10218.130619125,0.3812861048471896,-0.5025456882328955,0.07679011950356276,10218.112003125,-16.95944213867188,27.69429016113281,-524.4505615234375,10218.125553125,-1.902244720712149,-1.129746758212264,-0.1739011198271557,0.4856977760791779,-0.5665094256401062,0.157947301864624,0.01726686954498291,-0.1846378743648529,0.2237186431884766,1,0.4767313897609711,0.2500041723251343,0.6580118536949158,-0.5265411138534546,-0.8906647562980652,0.1730259358882904,-0.4204501807689667,0,0,0,-1,10217.840671125,3,2,1562003728.714663,1562003626.666006,7,1.998636,0.6281477,1.556376,7.126037,0,0,1562003726.779473,10215.719099,0,-0.6525879,75.30616,3232235528,182473588,1,1,0.31,-21.13256,-30.18734,2
1562003729.0364,67,0,0,1562003728.860692,4.634788573009422,-74.15103087310237,2563.844,-1,-1,10,65,-9999,1562003729.034583,-15.99769687652588,17.33784866333008,15.851806640625,45.24847412109375,52.7424430847168,15,10218.150882125,-0.9566650390625,0.0811767578125,-0.3135223388671875,10218.150882125,-0.1068356366057277,-0.2684572905243475,-0.120725885903254,10218.132084125,-17.07705688476562,27.87237548828125,-524.581298828125,10218.145817125,-1.897509377523398,-1.137878629926424,-0.1719816880838354,-0.001120892353355885,-0.3207355737686157,-0.09871884435415268,-0.05967116355895996,-0.128486841917038,0.1445180773735046,1,0.4783714711666107,0.253957986831665,0.6551788449287415,-0.5266941785812378,-0.8943541049957275,0.1711351424455643,-0.4133321642875671,0,0,0,-1,10217.840671125,3,2,1562003728.714663,1562003626.666006,7,1.998636,0.6281477,1.556376,7.126037,0,0,1562003726.779473,10215.719099,0,-0.6525879,75.30616,3232235528,182473588,1,1,0.31,-21.13256,-30.4899,2
1562003729.055501,68,0,0,1562003728.860692,4.634788573009422,-74.15103087310237,2563.844,-1,-1,10,65,-9999,1562003729.034583,-15.99769687652588,17.33784866333008,15.851806640625,45.24847412109375,52.7424430847168,15,10218.171146125,-0.908447265625,0.152191162109375,-0.3948822021484375,10218.171146125,-0.342885452457119,-0.04981016713218803,-0.08158966842010357,10218.152195125,-16.88433837890625,27.80781555175781,-524.21923828125,10218.166080125,-1.901914603477357,-1.143194711212061,-0.1711721830847017,-0.3073937296867371,-0.1190679967403412,-0.1173801496624947,-0.03398430347442627,-0.05350098013877869,0.05073428153991699,1,0.4804908335208893,0.2545858919620514,0.6552124619483948,-0.5244150161743164,-0.8966645002365112,0.17033751308918,-0.4086291790008545,0,0,0,-1,10217.840671125,3,2,1562003728.714663,1562003626.666006,7,1.998636,0.6281477,1.556376,7.126037,0,0,1562003726.779473,10215.719099,0,-0.6525879,75.30616,3232235528,182473588,1,1,0.31,-21.13256,-30.92242,2
1562003729.075698,69,0,0,1562003728.860692,4.634788573009422,-74.15103087310237,2563.844,-1,-1,10,65,-9999,1562003729.059871,-15.71432018280029,17.22396850585938,16.10400390625,45.63471984863281,53.12868881225586,15,10218.191410125,-0.905517578125,0.21258544921875,-0.4298858642578125,10218.191410125,-0.3142684549636726,0.1950565761401286,0.09019567348269464,10218.172275125,-16.82011413574219,27.70169067382812,-524.22998046875,10218.186344125,-1.908835094249218,-1.144015362979532,-0.1733078773805028,-0.346697986125946,0.1467495709657669,0.04185184836387634,-0.009949862957000732,0.01543983817100525,-0.01253116130828857,1,0.4821149706840515,0.2523773312568665,0.656429648399353,-0.5224661827087402,-0.8966663479804993,0.1724416166543961,-0.4077416658401489,0,0,0,-1,10217.840671125,3,2,1562003728.714663,1562003626.666006,7,1.998636,0.6281477,1.556376,7.126037,0,0,1562003726.779473,10215.719099,0,-0.6525879,75.30616,3232235528,182473588,1,1,0.31,-21.13256,-31.44471,2
1562003729.113411,70,0,0,1562003728.860692,4.634788573009422,-74.15103087310237,2563.844,-1,-1,10,65,-9999,1562003729.108385,-15.93998241424561,17.27934646606445,16.20025634765625,46.05563354492188,53.54960250854492,15,10218.211673125,-0.896148681640625,0.21295166015625,-0.414764404296875,10218.211673125,-0.0735679609006759,0.3246465274156023,0.2327227287015553,10218.192356125,-16.92176818847656,27.86004638671875,-524.2066040039062,10218.206608125,-1.912580833174909,-1.139964236575595,-0.1778267987281759,-0.1373776793479919,0.3140345513820648,0.2048007100820541,-0.003567695617675781,0.03572487831115723,-0.02293401956558228,1,0.4822593927383423,0.2488077282905579,0.6575466394424438,-0.5226403474807739,-0.894290030002594,0.1768910586833954,-0.4110411703586578,0,0,0,-1,10217.840671125,3,2,1562003728.714663,1562003626.666006,7,1.998636,0.6281477,1.556376,7.126037,0,0,1562003726.779473,10215.719099,0,-0.6525879,75.30616,3232235528,182473588,1,1,0.31,-21.13256,-32.52678,2
1562003729.116681,71,0,0,1562003728.860692,4.634788573009422,-74.15103087310237,2563.844,-1,-1,10,65,-9999,1562003729.108385,-15.93998241424561,17.27934646606445,16.20025634765625,46.05563354492188,53.54960250854492,15,10218.231907125,-0.9116058349609375,0.2151031494140625,-0.4004974365234375,10218.231907125,-0.02333914484512742,0.1974441000573846,0.1934445647323036,10218.212467125,-17.02049255371094,27.75265502929688,-524.21533203125,10218.226871125,-1.911450401570009,-1.133869485901197,-0.1825260107714981,-0.01124984305351973,0.2316858768463135,0.2257262319326401,-0.01666378974914551,0.0346723198890686,0.01378393173217773,1,0.4811598360538483,0.2458076030015945,0.6578465104103088,-0.5246921181678772,-0.891005277633667,0.1815142035484314,-0.4161276817321777,0,0,0,-1,10217.840671125,3,2,1562003728.714663,1562003626.666006,7,1.998636,0.6281477,1.556376,7.126037,0,0,1562003726.779473,10215.719099,0,-0.6525879,75.30616,3232235528,182473588,1,1,0.31,-21.13256,-32.52678,2
1562003729.136976,72,0,0,1562003728.860692,4.634788573009422,-74.15103087310237,2563.844,-1,-1,10,65,-9999,1562003729.134563,-16.00030899047852,17.2011833190918,16.2154541015625,46.05029296875,53.54426193237305,15,10218.252170125,-0.9209442138671875,0.1932220458984375,-0.410675048828125,10218.252170125,-0.173120917189473,0.02232607836646128,0.02741830868680179,10218.232547125,-17.18357849121094,27.66954040527344,-524.1752319335938,10218.247104125,-1.911407050932718,-1.130938914147944,-0.1856441826145367,-0.1399305909872055,0.05594760552048683,0.0555928498506546,-0.02465963363647461,0.02351969480514526,0.01691317558288574,1,0.4808837473392487,0.2439340502023697,0.6579606533050537,-0.5256755948066711,-0.8892655372619629,0.1845796853303909,-0.4184940159320831,0,0,0,-1,10217.840671125,3,2,1562003728.714663,1562003626.666006,7,1.998636,0.6281477,1.556376,7.126037,0,0,1562003726.779473,10215.719099,0,-0.6525879,75.30616,3232235528,182473588,1,1,0.31,-21.13256,-32.53772,2
1562003729.15677,73,0,0,1562003728.860692,4.634788573009422,-74.15103087310237,2563.844,-1,-1,10,65,-9999,1562003729.134563,-16.00030899047852,17.2011833190918,16.2154541015625,46.05029296875,53.54426193237305,15,10218.272434125,-0.90667724609375,0.1845245361328125,-0.429412841796875,10218.272434125,-0.1975626107258932,-0.05759884805623376,0.03539048140995399,10218.252659125,-17.11962890625,27.75581359863281,-524.322509765625,10218.267368125,-1.914756155391726,-1.131738689757615,-0.1875537961770287,-0.2039069086313248,-0.05283373594284058,0.01320811081677675,-0.02672100067138672,-0.0001463592052459717,-0.005417823791503906,1,0.4819779098033905,0.2426545917987823,0.6582927107810974,-0.5248494148254395,-0.889279305934906,0.1864561438560486,-0.4176320731639862,0,0,0,-1,10217.840671125,3,2,1562003728.714663,1562003626.666006,7,1.998636,0.6281477,1.556376,7.126037,0,0,1562003726.779473,10215.719099,0,-0.6525879,75.30616,3232235528,182473588,1,1,0.31,-21.13256,-32.73318,2
1562003729.193608,74,0,0,1562003728.860692,4.634788573009422,-74.15103087310237,2563.844,-1,-1,10,65,-9999,1562003729.185258,-15.663649559021,17.06811141967773,16.45751953125,46.43400192260742,53.92797088623047,15,10218.292698125,-0.8836212158203125,0.178680419921875,-0.434600830078125,10218.292698125,-0.11548425224576,-0.01969700573833505,0.1098266328259957,10218.272739125,-16.67091369628906,27.74502563476562,-524.1353149414062,10218.287632125,-1.917657144589025,-1.133415508077836,-0.1900778428553625,-0.1406957060098648,-0.03962525352835655,0.09073592722415924,-0.004997372627258301,-0.008759528398513794,-0.01951569318771362,1,0.4834384620189667,0.2414900362491608,0.658178985118866,-0.5241852998733521,-0.8895491361618042,0.1889353394508362,-0.4159396290779114,0,0,0,-1,10217.840671125,3,2,1562003728.714663,1562003626.666006,7,1.998636,0.6281477,1.556376,7.126037,0,0,1562003726.779473,10215.719099,0,-0.6525879,75.30616,3232235528,182473588,1,1,0.31,-21.13256,-30.76706,2
1562003729.197283,75,0,0,1562003728.860692,4.634788573009422,-74.15103087310237,2563.844,-1,-1,10,65,-9999,1562003729.185258,-15.663649559021,17.06811141967773,16.45751953125,46.43400192260742,53.92797088623047,15,10218.312961125,-0.8904571533203125,0.17431640625,-0.4357757568359375,10218.312961125,-0.0003430151484022059,0.01316027684273556,0.1415856277735177,10218.292820125,-16.72775268554688,27.53042602539062,-523.89697265625,10218.307895125,-1.918315856176009,-1.133950210220549,-0.1930913338920498,-0.03772618994116783,-0.003210788359865546,0.1406233310699463,0.004592537879943848,-0.01591408252716064,-0.01893723011016846,1,0.484357088804245,0.2403906136751175,0.657660186290741,-0.5244935750961304,-0.8892514109611511,0.1918936967849731,-0.4152211248874664,0,0,0,-1,10217.840671125,3,2,1562003728.714663,1562003626.666006,7,1.998636,0.6281477,1.556376,7.126037,0,0,1562003726.779473,10215.719099,0,-0.6525879,75.30616,3232235528,182473588,1,1,0.31,-21.13256,-30.76706,2
1562003729.217418,76,0,0,1562003728.860692,4.634788573009422,-74.15103087310237,2563.844,-1,-1,10,65,-9999,1562003729.20953,-15.86337375640869,17.18025588989258,16.43890380859375,46.35050582885742,53.84447479248047,15,10218.333225125,-0.8858642578125,0.1601715087890625,-0.4081878662109375,10218.333225125,0.1590453118800771,0.0448891780699396,0.07751929301002647,10218.333011125,-16.88845825195312,28.08622741699219,-523.9301147460938,10218.328159125,-1.916415542977162,-1.133289050615029,-0.1951236365050951,0.1260688751935959,0.03566949814558029,0.1018295884132385,0.002070724964141846,-0.025491863489151,-0.008047878742218018,1,0.4843585789203644,0.2399485856294632,0.6569414138793945,-0.5255942344665527,-0.8886216282844543,0.1938878297805786,-0.4156428873538971,0,0,0,-1,10217.840671125,3,2,1562003728.714663,1562003626.666006,7,1.998636,0.6281477,1.556376,7.126037,0,0,1562003726.779473,10215.719099,0,-0.6525879,75.30616,3232235528,182473588,1,1,0.31,-21.13256,-31.09519,2
1562003729.237977,77,0,0,1562003728.860692,4.634788573009422,-74.15103087310237,2563.844,-1,-1,10,65,-9999,1562003729.235835,-15.78788280487061,17.46444702148438,16.41015625,46.11460494995117,53.60857391357422,15,10218.353489125,-0.8963775634765625,0.1624603271484375,-0.391021728515625,10218.353489125,0.1443164331552849,0.06320453583474155,-0.06213314612820268,10218.353092125,-16.80851745605469,27.86422729492188,-524.1000366210938,10218.348423125,-1.913018022526608,-1.131807623243612,-0.1943697676424198,0.168086901307106,0.04876293241977692,-0.03594692051410675,-0.004349470138549805,-0.03651675581932068,0.01678287982940674,1,0.4832976758480072,0.2406509816646576,0.6565471887588501,-0.5267412662506104,-0.8881370425224304,0.193148210644722,-0.4170209169387817,0,0,0,-1,10217.840671125,3,2,1562003728.714663,1562003626.666006,7,1.998636,0.6281477,1.556376,7.126037,0,0,1562003726.779473,10215.719099,0,-0.6525879,75.30616,3232235528,182473588,1,1,0.31,-21.13256,-31.55809,2
1562003729.272019,78,0,0,1562003728.860692,4.634788573009422,-74.15103087310237,2563.844,-1,-1,10,65,-9999,1562003729.260517,-15.69886875152588,17.21795654296875,16.16009521484375,46.07575607299805,53.56972503662109,15,10218.373722125,-0.8895263671875,0.1831207275390625,-0.398193359375,10218.373722125,0.006414756117673861,0.06270519313035169,-0.1103291713236937,10218.373203125,-16.7005615234375,27.69412231445312,-524.1656494140625,10218.368686125,-1.911809748084322,-1.130277188189218,-0.1918530229920423,0.03255436569452286,0.06627640873193741,-0.119738481938839,-0.009694099426269531,-0.01797929406166077,0.02901345491409302,1,0.4820927977561951,0.2414409518241882,0.6570689678192139,-0.526833176612854,-0.8879346251487732,0.1906782388687134,-0.4185855984687805,0,0,0,-1,10217.840671125,3,2,1562003728.714663,1562003626.666006,7,1.998636,0.6281477,1.556376,7.126037,0,0,1562003726.779473,10215.719099,0,-0.6525879,75.30616,3232235528,182473588,1,1,0.31,-21.13256,-31.68317,2
1562003729.278162,79,0,0,1562003728.860692,4.634788573009422,-74.15103087310237,2563.844,-1,-1,10,65,-9999,1562003729.260517,-15.69886875152588,17.21795654296875,16.16009521484375,46.07575607299805,53.56972503662109,15,10218.393985125,-0.8570709228515625,0.18359375,-0.4055023193359375,10218.393985125,-0.02818210328743652,0.02619405353369236,-0.008407599561380154,10218.393284125,-17.12644958496094,27.60556030273438,-524.140869140625,10218.388920125,-1.912754411865534,-1.129451067341708,-0.190194949431176,-0.02776170894503593,0.03095410764217377,-0.04685869067907333,0.01784753799438477,-0.005715996026992798,0.01697236299514771,1,0.4815679490566254,0.2415897101163864,0.6578260064125061,-0.5262998938560486,-0.887873113155365,0.1890503317117691,-0.4194534420967102,0,0,0,-1,10217.840671125,3,2,1562003728.714663,1562003626.666006,7,1.998636,0.6281477,1.556376,7.126037,0,0,1562003726.779473,10215.719099,0,-0.6525879,75.30616,3232235528,182473588,1,1,0.31,-21.13256,-31.81458,2
1562003729.298425,80,0,0,1562003728.860692,4.634788573009422,-74.15103087310237,2563.844,-1,-1,10,65,-9999,1562003729.28642,-15.99797534942627,17.14787673950195,16.23846435546875,46.13636779785156,53.63033676147461,15,10218.414249125,-0.8580322265625,0.1921844482421875,-0.4086151123046875,10218.414249125,-0.001739044191821742,0.0658578432287875,0.08351619915266689,10218.413364125,-17.02755737304688,27.54269409179688,-524.1451416015625,10218.409183125,-1.913127227144777,-1.128941753199668,-0.1907137149692454,-0.01586004160344601,0.04704918712377548,0.0675342008471489,0.02999615669250488,0.0002901256084442139,0.004977166652679443,1,0.4815603494644165,0.2411800622940063,0.6579501032829285,-0.5263396501541138,-0.8875706195831299,0.1895597130060196,-0.4198636114597321,0,0,0,-1,10217.840671125,3,2,1562003728.714663,1562003626.666006,7,1.998636,0.6281477,1.556376,7.126037,0,0,1562003726.779473,10215.719099,0,-0.6525879,75.30616,3232235528,182473588,1,1,0.31,-21.13256,-32.18548,2
1562003729.318683,81,0,0,1562003728.860692,4.634788573009422,-74.15103087310237,2563.844,-1,-1,10,65,-9999,1562003729.311238,-15.91941547393799,17.05110168457031,16.24993896484375,46.10396194458008,53.59793090820312,15,10218.434513125,-0.8791351318359375,0.1912689208984375,-0.40716552734375,10218.434513125,-0.01974334474130243,0.08119685215931688,0.08820123214233429,10218.433475125,-17.143798828125,27.54112243652344,-524.2670288085938,10218.429447125,-1.912435730444978,-1.127472184908733,-0.1921757423028645,-0.007715029641985893,0.07649069279432297,0.08564183115959167,0.02251976728439331,-0.0007331669330596924,0.01756000518798828,1,0.4813176691532135,0.2404354959726334,0.6578491926193237,-0.5270278453826904,-0.8867012858390808,0.1909950375556946,-0.4210481345653534,0,0,0,-1,10217.840671125,3,2,1562003728.714663,1562003626.666006,7,1.998636,0.6281477,1.556376,7.126037,0,0,1562003726.779473,10215.719099,0,-0.6525879,75.30616,3232235528,182473588,1,1,0.31,-21.13256,-32.18548,2
1562003729.344215,82,0,0,1562003728.860692,4.634788573009422,-74.15103087310237,2563.844,-1,-1,10,65,-9999,1562003729.337062,-15.96370601654053,17.044921875,16.1444091796875,46.0963249206543,53.59029388427734,15,10218.454776125,-0.904510498046875,0.196502685546875,-0.4099273681640625,10218.454776125,-0.05633704233175422,0.05606832937776523,0.0651656876614759,10218.453556125,-17.09526062011719,27.88995361328125,-523.8692626953125,10218.449711125,-1.912366522252364,-1.12604426593675,-0.1939012273313886,-0.0566151924431324,0.05740382149815559,0.07093346118927002,-0.009600579738616943,0.003890514373779297,0.01366317272186279,1,0.4812220335006714,0.2394569367170334,0.6578527092933655,-0.5275561213493347,-0.8858003616333008,0.1926884651184082,-0.4221714735031128,0,0,0,-1,10217.840671125,3,2,1562003728.714663,1562003626.666006,7,1.998636,0.6281477,1.556376,7.126037,0,0,1562003726.779473,10215.719099,0,-0.6525879,75.30616,3232235528,182473588,1,1,0.31,-21.13256,-32.97257,2
1562003729.359215,83,0,0,1562003728.860692,4.634788573009422,-74.15103087310237,2563.844,-1,-1,10,65,-9999,1562003729.337062,-15.96370601654053,17.044921875,16.1444091796875,46.0963249206543,53.59029388427734,15,10218.47505975,-0.900299072265625,0.1902923583984375,-0.4112701416015625,10218.47505975,-0.01102974797067217,0.03811303099234199,-0.010923221527069,10218.47365575,-16.84852600097656,27.85971069335938,-524.3594360351562,10218.46999375,-1.912928720302017,-1.12523709035488,-0.1951240353591879,-0.03054604306817055,0.03752652183175087,0.004741122014820576,-0.02065300941467285,-0.002298861742019653,0.01154482364654541,1,0.4812945425510406,0.2386699318885803,0.6579670310020447,-0.5277040004730225,-0.8852460384368896,0.1938882172107697,-0.4227844476699829,0,0,0,-1,10217.840671125,3,2,1562003728.714663,1562003626.666006,7,1.998636,0.6281477,1.556376,7.126037,0,0,1562003726.779473,10215.719099,0,-0.6525879,75.30616,3232235528,182473588,1,1,0.31,-21.13256,-32.97257,2
1562003729.379385,84,0,0,1562003728.860692,4.634788573009422,-74.15103087310237,2563.844,-1,-1,10,65,-9999,1562003729.361567,-15.83273220062256,17.27468872070312,16.05511474609375,46.13357925415039,53.62754821777344,15,10218.49532375,-0.887939453125,0.1868896484375,-0.4079437255859375,10218.49532375,0.0483171990250896,0.001110005542345027,-0.03164660954952059,10218.49376675,-16.97048950195312,27.96330261230469,-524.4950561523438,10218.49025775,-1.91298729266677,-1.124728978976047,-0.1946108728087648,0.04193375259637833,0.008474895730614662,-0.03917014226317406,-0.008006632328033447,-0.005808502435684204,0.01476877927780151,1,0.4810206890106201,0.2387059926986694,0.6582005023956299,-0.5276463031768799,-0.8851208090782166,0.1933847665786743,-0.4232770800590515,0,0,0,-1,10217.840671125,3,2,1562003728.714663,1562003626.666006,7,1.998636,0.6281477,1.556376,7.126037,0,0,1562003726.779473,10215.719099,0,-0.6525879,75.30616,3232235528,182473588,1,1,0.31,-21.13256,-32.98349,2
1562003729.399715,85,0,0,1562003728.860692,4.634788573009422,-74.15103087310237,2563.844,-1,-1,10,65,-9999,1562003729.387683,-15.95742130279541,17.42061233520508,16.00860595703125,46.10955047607422,53.60351943969727,15,10218.51555675,-0.8774261474609375,0.1849517822265625,-0.403961181640625,10218.51555675,0.04805194818051771,0.02477778446598822,-0.006344981297113785,10218.51384775,-17.19749450683594,27.83903503417969,-524.3170166015625,10218.51052175,-1.912334179149539,-1.124575572627601,-0.1935521216049368,0.05635077506303787,0.01018411293625832,-0.02333046123385429,0.001954555511474609,-0.004357606172561646,0.01215457916259766,1,0.4806575179100037,0.2392025291919708,0.6582624912261963,-0.5276750922203064,-0.8852400779724121,0.1923458874225616,-0.4235010147094727,0,0,0,-1,10217.840671125,3,2,1562003728.714663,1562003626.666006,7,1.998636,0.6281477,1.556376,7.126037,0,0,1562003729.372337,10215.719099,0,-0.6525879,75.30616,3232235528,182473588,1,1,0.31,-21.13256,-30.87667,2
1562003729.425464,86,0,0,1562003728.860692,4.634788573009422,-74.15103087310237,2563.844,-1,-1,10,65,-9999,1562003729.412717,-16.03619384765625,17.29376983642578,16.05084228515625,46.0557746887207,53.54974365234375,15,10218.53582075,-0.8878631591796875,0.185760498046875,-0.4141082763671875,10218.53582075,0.005185440958493285,0.07775764592758856,0.05007222218345182,10218.53392875,-17.26603698730469,27.95721435546875,-524.08251953125,10218.53078475,-1.911631221901833,-1.123837048126859,-0.1933676280060445,0.01396842859685421,0.05657850950956345,0.03655098378658295,0.0009716153144836426,-0.009578168392181396,0.01190805435180664,1,0.4802894294261932,0.2392427027225494,0.6582887768745422,-0.5279591679573059,-0.8849590420722961,0.1921648383140564,-0.4241699874401093,0,0,0,-1,10217.840671125,3,2,1562003728.714663,1562003626.666006,7,1.998636,0.6281477,1.556376,7.126037,0,0,1562003729.372337,10215.719099,0,-0.6525879,75.30616,3232235528,182473588,1,1,0.31,-21.13256,-31.27654,2
1562003729.44087,87,0,0,1562003728.860692,4.634788573009422,-74.15103087310237,2563.844,-1,-1,10,65,-9999,1562003729.438392,-16.06884002685547,17.32024765014648,16.24725341796875,46.02607727050781,53.52004623413086,15,10218.55608375,-0.884307861328125,0.1775665283203125,-0.4150390625,10218.55608375,-0.02088663979727345,0.1022861585155454,0.07877044609014569,10218.55400875,-17.05868530273438,27.93547058105469,-524.2377319335938,10218.55101775,-1.911242958848206,-1.122141175173022,-0.1943964291768334,-0.01989126950502396,0.09689823538064957,0.06898695975542068,-0.001087307929992676,-0.01243400573730469,0.01309335231781006,1,0.4799132347106934,0.2385187596082687,0.6584016084671021,-0.5284878611564636,-0.8840598464012146,0.1931743621826172,-0.4255841672420502,0,0,0,-1,10217.840671125,3,2,1562003728.714663,1562003626.666006,7,1.998636,0.6281477,1.556376,7.126037,0,0,1562003729.372337,10215.719099,0,-0.6525879,75.30616,3232235528,182473588,1,1,0.31,-21.13256,-31.85585,2
1562003729.460548,88,0,0,1562003728.860692,4.634788573009422,-74.15103087310237,2563.844,-1,-1,10,65,-9999,1562003729.438392,-16.06884002685547,17.32024765014648,16.24725341796875,46.02607727050781,53.52004623413086,15,10218.57634775,-0.889923095703125,0.1786041259765625,-0.417510986328125,10218.57634775,-0.008418784837958488,0.09714119760562129,0.07964795766932679,10218.57411975,-16.76622009277344,27.84219360351562,-524.4666748046875,10218.57128175,-1.910884001449657,-1.120154455418014,-0.1959913497550713,-0.01186876185238361,0.09235887229442596,0.08235655725002289,-0.003723621368408203,-0.01578390598297119,0.01042640209197998,1,0.4795706868171692,0.237506777048111,0.6584859490394592,-0.529149055480957,-0.8829340934753418,0.1947389990091324,-0.427204966545105,0,0,0,-1,10217.840671125,3,2,1562003728.714663,1562003626.666006,7,1.998636,0.6281477,1.556376,7.126037,0,0,1562003729.372337,10215.719099,0,-0.6525879,75.30616,3232235528,182473588,1,1,0.31,-21.13256,-31.98855,2
1562003729.481018,89,0,0,1562003728.860692,4.634788573009422,-74.15103087310237,2563.844,-1,-1,10,65,-9999,1562003729.462917,-15.80895709991455,17.3351936340332,15.90093994140625,45.99667739868164,53.49064636230469,15,10218.59661175,-0.8878021240234375,0.1740570068359375,-0.4212493896484375,10218.59661175,0.02630723788002073,0.1069176619673022,0.03977644140920548,10218.59420075,-16.93075561523438,27.87026977539062,-524.134765625,10218.59154575,-1.910307249608179,-1.118173310776032,-0.1972611144994332,0.0126152765005827,0.09887056797742844,0.04962417483329773,-0.01053202152252197,-0.01896709203720093,0.008358418941497803,1,0.4791321158409119,0.2366642504930496,0.6585713624954224,-0.5298172235488892,-0.881862998008728,0.1959843039512634,-0.4288448989391327,0,0,0,-1,10217.840671125,3,2,1562003728.714663,1562003626.666006,7,1.998636,0.6281477,1.556376,7.126037,0,0,1562003729.372337,10215.719099,0,-0.6525879,75.30616,3232235528,182473588,1,1,0.31,-21.13256,-31.98855,2
1562003729.504989,90,0,0,1562003728.860692,4.634788573009422,-74.15103087310237,2563.844,-1,-1,10,65,-9999,1562003729.489149,-15.89321804046631,17.34767150878906,16.2481689453125,45.94816207885742,53.44213104248047,15,10218.61687475,-0.88116455078125,0.1783599853515625,-0.4222412109375,10218.61687475,0.04038630529883363,0.09554143673881069,-0.01302339036270549,10218.61428075,-17.12179565429688,28.05343627929688,-524.3453369140625,10218.61180875,-1.909532592782381,-1.116092104514085,-0.1973732197744079,0.04269594699144363,0.09214156121015549,-0.006148010492324829,-0.004488348960876465,-0.02077075839042664,0.009877979755401611,1,0.4783800542354584,0.2362577468156815,0.6588432788848877,-0.5303397178649902,-0.8809487223625183,0.1960942298173904,-0.4306696057319641,0,0,0,-1,10217.840671125,3,2,1562003728.714663,1562003626.666006,7,1.998636,0.6281477,1.556376,7.126037,0,0,1562003729.372337,10215.719099,0,-0.6525879,75.30616,3232235528,182473588,1,1,0.31,-21.13256,-31.68548,2
1562003729.521363,91,0,0,1562003728.860692,4.634788573009422,-74.15103087310237,2563.844,-1,-1,10,65,-9999,1562003729.5139,-15.99003887176514,17.46805572509766,16.08447265625,45.91366195678711,53.40763092041016,15,10218.63713875,-0.8720855712890625,0.1857757568359375,-0.425262451171875,10218.63713875,0.03020237729037063,0.06072752970485885,-0.03952210952510292,10218.63436175,-17.128173828125,27.98770141601562,-524.2440185546875,10218.63207275,-1.909228048095852,-1.114364787477319,-0.1966125386918983,0.0274962205439806,0.06820426881313324,-0.0412447452545166,0.004482686519622803,-0.01250219345092773,0.00830608606338501,1,0.477605402469635,0.2361460030078888,0.6593170166015625,-0.5304990410804749,-0.8803371787071228,0.1953482627868652,-0.432256281375885,0,0,0,-1,10217.840671125,3,2,1562003728.714663,1562003626.666006,7,1.998636,0.6281477,1.556376,7.126037,0,0,1562003729.372337,10215.719099,0,-0.6525879,75.30616,3232235528,182473588,1,1,0.31,-21.13256,-31.68548,2
1562003729.542076,92,0,0,1562003728.860692,4.634788573009422,-74.15103087310237,2563.844,-1,-1,10,65,-9999,1562003729.53966,-15.72226428985596,17.27509689331055,15.85528564453125,45.90309906005859,53.39706802368164,15,10218.65737175,-0.856353759765625,0.2025909423828125,-0.4304351806640625,10218.65737175,0.02000460084423921,0.03375583313286335,-0.004638693986700017,10218.65447275,-16.75978088378906,27.7996826171875,-524.6115112304688,10218.65233675,-1.909066202881943,-1.113431404325942,-0.1956467275673438,0.0237456914037466,0.03255253657698631,-0.02418027445673943,0.01584446430206299,-0.001239985227584839,0.006174206733703613,1,0.4770631194114685,0.2362844198942184,0.6596764326095581,-0.5304785370826721,-0.8801022171974182,0.19440096616745,-0.4331609010696411,0,0,0,-1,10217.840671125,3,2,1562003728.714663,1562003626.666006,7,1.998636,0.6281477,1.556376,7.126037,0,0,1562003729.372337,10215.719099,0,-0.6525879,75.30616,3232235528,182473588,1,1,0.31,-21.13256,-31.89768,2
1562003729.561908,93,0,0,1562003728.860692,4.634788573009422,-74.15103087310237,2563.844,-1,-1,10,65,-9999,1562003729.53966,-15.72226428985596,17.27509689331055,15.85528564453125,45.90309906005859,53.39706802368164,15,10218.67763575,-0.8553314208984375,0.20086669921875,-0.4380950927734375,10218.67763575,0.003671966511001253,0.04133865170464596,0.05228717326207073,10218.67455375,-16.87103271484375,27.97889709472656,-524.4152221679688,10218.67259975,-1.908702487831435,-1.112775779206952,-0.1956086857148066,0.007147007621824741,0.03128034248948097,0.03613686189055443,0.02589696645736694,0.009280145168304443,0.0003304481506347656,1,0.4767954349517822,0.2362108826637268,0.6597433090209961,-0.5306686162948608,-0.8798245787620544,0.1943636536598206,-0.4337410628795624,0,0,0,-1,10217.840671125,3,2,1562003728.714663,1562003626.666006,7,1.998636,0.6281477,1.556376,7.126037,0,0,1562003729.372337,10215.719099,0,-0.6525879,75.30616,3232235528,182473588,1,1,0.31,-21.13256,-32.32138,2
1562003729.587869,94,0,0,1562003728.860692,4.634788573009422,-74.15103087310237,2563.844,-1,-1,10,65,-9999,1562003729.564224,-15.87325572967529,17.37674331665039,15.91650390625,45.87338638305664,53.36735534667969,15,10218.69789975,-0.865020751953125,0.18798828125,-0.433380126953125,10218.69789975,-0.009452623973127247,0.04750440226039742,0.08258435908724816,10218.69463375,-17.32603454589844,27.91062927246094,-524.2362060546875,10218.69283375,-1.908215415803913,-1.111937143634163,-0.1966965372247484,-0.009486829861998558,0.04090607166290283,0.07751040160655975,0.02056694030761719,0.0003701150417327881,-0.00287097692489624,1,0.4767042100429535,0.2357130646705627,0.6596118211746216,-0.5311353206634521,-0.8792705535888672,0.1954306364059448,-0.4343848824501038,0,0,0,-1,10217.840671125,3,2,1562003728.714663,1562003626.666006,7,1.998636,0.6281477,1.556376,7.126037,0,0,1562003729.372337,10215.719099,0,-0.6525879,75.30616,3232235528,182473588,1,1,0.31,-21.13256,-32.7632,2
1562003729.60251,95,0,0,1562003728.860692,4.634788573009422,-74.15103087310237,2563.844,-1,-1,10,65,-9999,1562003729.590412,-16.20952606201172,17.37258529663086,16.12164306640625,45.83630752563477,53.33027648925781,15,10218.71816275,-0.8759918212890625,0.176788330078125,-0.4221649169921875,10218.71816275,0.007354585666362825,0.03196299308702201,0.06093578890210305,10218.71474475,-17.25308227539062,28.0194091796875,-524.5618286132812,10218.71309675,-1.907669079693457,-1.11103569721434,-0.1981115841727825,0.0007852481212466955,0.03391900286078453,0.06712327897548676,0.007063150405883789,-0.01432305574417114,0.008662581443786621,1,0.4766586124897003,0.2350945919752121,0.6594183444976807,-0.5316903591156006,-0.8786299228668213,0.1968182027339935,-0.435054212808609,0,0,0,-1,10217.840671125,3,2,1562003728.714663,1562003626.666006,7,1.998636,0.6281477,1.556376,7.126037,0,0,1562003729.372337,10215.719099,0,-0.6525879,75.30616,3232235528,182473588,1,1,0.31,-21.13256,-32.49264,2
1562003729.622737,96,0,0,1562003728.860692,4.634788573009422,-74.15103087310237,2563.844,-1,-1,10,65,-9999,1562003729.615237,-16.17711639404297,17.44628143310547,15.84783935546875,45.79535675048828,53.28932571411133,15,10218.73842675,-0.878997802734375,0.185394287109375,-0.4183349609375,10218.73842675,0.02181581670160209,-0.008039550698731204,0.0007648598650707572,10218.73482575,-17.10202026367188,27.73027038574219,-524.5347900390625,10218.73336075,-1.907106867357784,-1.110604445906025,-0.1988216941109822,0.01643691211938858,-0.004531183745712042,0.01428269501775503,-0.001459240913391113,-0.02098542451858521,0.01579993963241577,1,0.4766089916229248,0.2348583191633224,0.6592394113540649,-0.532060980796814,-0.8783167600631714,0.1975143700838089,-0.4353708922863007,0,0,0,-1,10217.840671125,3,2,1562003728.714663,1562003626.666006,7,1.998636,0.6281477,1.556376,7.126037,0,0,1562003729.372337,10215.719099,0,-0.6525879,75.30616,3232235528,182473588,1,1,0.31,-21.68984,-32.69431,2
1562003729.643128,97,0,0,1562003728.860692,4.634788573009422,-74.15103087310237,2563.844,-1,-1,10,65,-9999,1562003729.641113,-16.02058410644531,17.20727920532227,15.84088134765625,45.76919555664062,53.26316452026367,15,10218.75869075,-0.8744659423828125,0.20556640625,-0.429290771484375,10218.75869075,0.03032941007436741,-0.03847761774557384,-0.00704219687049653,10218.75493675,-17.13179016113281,27.70881652832031,-524.4989013671875,10218.75362475,-1.906738286907965,-1.111020910218075,-0.1984785359247573,0.02807971835136414,-0.04455023631453514,-0.01410020980983973,0.005084514617919922,-0.002033323049545288,0.014457106590271,1,0.4766262769699097,0.2351804375648499,0.6591060161590576,-0.5320684909820557,-0.8785586953163147,0.1971779614686966,-0.4350351095199585,0,0,0,-1,10217.840671125,3,2,1562003728.714663,1562003626.666006,7,1.998636,0.6281477,1.556376,7.126037,0,0,1562003729.372337,10215.719099,0,-0.6525879,75.30616,3232235528,182473588,1,1,0.31,-21.68984,-32.69431,2
1562003729.679757,98,0,0,1562003728.860692,4.634788573009422,-74.15103087310237,2563.844,-1,-1,10,65,-9999,1562003729.665831,-16.08076858520508,17.26423645019531,15.61309814453125,45.7307014465332,53.22467041015625,15,10218.77895375,-0.8768310546875,0.2135162353515625,-0.436492919921875,10218.77895375,0.02375406534296176,-0.003750529763158591,0.02429761652144694,10218.77501675,-17.18357849121094,27.78543090820312,-524.7572631835938,10218.77388775,-1.906238160754477,-1.111607323519251,-0.1982051769595071,0.0255313403904438,-0.01974662207067013,0.0153266554698348,0.004395961761474609,0.01692670583724976,-4.184246063232422e-05,1,0.476699560880661,0.2355539798736572,0.6588841080665588,-0.5321124196052551,-0.8788619041442871,0.1969099640846252,-0.4345436990261078,0,0,0,-1,10217.840671125,3,2,1562003728.714663,1562003626.666006,7,1.998636,0.6281477,1.556376,7.126037,0,0,1562003729.372337,10215.719099,0,-0.6525879,75.30616,3232235528,182473588,1,1,0.31,-22.8044,-29.55666,2
1562003729.683584,99,0,0,1562003728.860692,4.634788573009422,-74.15103087310237,2563.844,-1,-1,10,65,-9999,1562003729.665831,-16.08076858520508,17.26423645019531,15.61309814453125,45.7307014465332,53.22467041015625,15,10218.79918675,-0.8816986083984375,0.20263671875,-0.43646240234375,10218.79918675,0.003549727416966617,0.03252678428979178,0.05237452494582532,10218.79512875,-17.16645812988281,27.96009826660156,-524.5665283203125,10218.79415175,-1.905666873099973,-1.111477584409183,-0.1985740312098785,0.007027165032923222,0.01884338073432446,0.0426538810133934,-0.0006693601608276367,0.01017162203788757,-0.003790020942687988,1,0.4766719937324524,0.2355229556560516,0.6586942672729492,-0.5323858261108398,-0.8787403702735901,0.1972715854644775,-0.434625506401062,0,0,0,-1,10217.840671125,3,2,1562003728.714663,1562003626.666006,7,1.998636,0.6281477,1.556376,7.126037,0,0,1562003729.372337,10215.719099,0,-0.6525879,75.30616,3232235528,182473588,1,1,0.31,-22.8044,-29.55666,2
1562003729.703834,100,0,0,1562003728.860692,4.634788573009422,-74.15103087310237,2563.844,-1,-1,10,65,-9999,1562003729.691929,-16.06504821777344,17.41684722900391,15.78570556640625,45.69358444213867,53.18755340576172,15,10218.81945075,-0.8784027099609375,0.194793701171875,-0.4264373779296875,10218.81945075,0.01318131581534719,0.05622732009484296,0.0470029290271355,10218.81520875,-17.26573181152344,28.01470947265625,-524.50537109375,10218.81441575,-1.905176423469375,-1.110709088183343,-0.1993882230286637,0.006553122773766518,0.04426778107881546,0.0438309982419014,-0.003360450267791748,0.001606792211532593,0.003878474235534668,1,0.4765432775020599,0.235142320394516,0.6585949659347534,-0.5327919125556946,-0.8782618641853333,0.1980697065591812,-0.4352291822433472,0,0,0,-1,10217.840671125,3,2,1562003728.714663,1562003626.666006,7,1.998636,0.6281477,1.556376,7.126037,0,0,1562003729.372337,10215.719099,0,-0.6525879,75.30616,3232235528,182473588,1,1,0.31,-23.36168,-30.27042,2
1562003729.724166,101,0,0,1562003728.860692,4.634788573009422,-74.15103087310237,2563.844,-1,-1,10,65,-9999,1562003729.716235,-16.14254379272461,17.49544525146484,15.86181640625,45.647216796875,53.14118576049805,15,10218.83971475,-0.8742218017578125,0.18731689453125,-0.4169921875,10218.83971475,0.05844173854124384,0.06399416309795004,0.03663364500680297,10218.83528975,-17.1231689453125,28.45137023925781,-524.5153198242188,10218.83464875,-1.904405248914032,-1.109477288459512,-0.1999064943394487,0.04309355840086937,0.06049761548638344,0.03493737429380417,-0.0006322860717773438,-0.009475499391555786,0.01475620269775391,1,0.4761629700660706,0.2348112761974335,0.6585862040519714,-0.5332886576652527,-0.8776330947875977,0.1985776871442795,-0.4362649917602539,0,0,0,-1,10217.840671125,3,2,1562003728.714663,1562003626.666006,7,1.998636,0.6281477,1.556376,7.126037,0,0,1562003729.372337,10215.719099,0,-0.6525879,75.30616,3232235528,182473588,1,1,0.31,-23.91896,-30.72541,2
1562003729.761593,102,0,0,1562003728.860692,4.634788573009422,-74.15103087310237,2563.844,-1,-1,10,65,-9999,1562003729.742613,-15.95468807220459,17.43593978881836,15.76885986328125,45.53546905517578,53.02943801879883,15,10218.85997775,-0.873291015625,0.18621826171875,-0.417572021484375,10218.85997775,0.08642596895968747,0.06832286513376484,0.05757967329638519,10218.85536975,-16.97076416015625,27.89303588867188,-524.5919799804688,10218.85491175,-1.902807263541394,-1.108042683454751,-0.2000193928645261,0.08533927798271179,0.05484985187649727,0.04997624456882477,0.006579041481018066,-0.0119054913520813,0.02117747068405151,1,0.4755283296108246,0.2347680479288101,0.6584800481796265,-0.5340044498443604,-0.8769862055778503,0.198688343167305,-0.437513530254364,0,0,0,-1,10217.840671125,3,2,1562003728.714663,1562003626.666006,7,1.998636,0.6281477,1.556376,7.126037,0,0,1562003729.372337,10215.719099,0,-0.6525879,75.30616,3232235528,182473588,1,1,0.31,-25.03352,-31.50102,2
1562003729.764753,103,0,0,1562003728.860692,4.634788573009422,-74.15103087310237,2563.844,-1,-1,10,65,-9999,1562003729.742613,-15.95468807220459,17.43593978881836,15.76885986328125,45.53546905517578,53.02943801879883,15,10218.88024175,-0.8837738037109375,0.18511962890625,-0.4264373779296875,10218.88024175,0.07177085979709043,0.1537847697788436,0.06894844167382445,10218.87548075,-16.98617553710938,28.31904602050781,-524.5784912109375,10218.87517575,-1.900795072982389,-1.105926519831426,-0.2003776517675236,0.0709342360496521,0.1279738545417786,0.06571818888187408,-0.002087593078613281,-0.01356887817382812,0.01741570234298706,1,0.4746759831905365,0.2345516383647919,0.6583781838417053,-0.5349826216697693,-0.8759947419166565,0.1990394443273544,-0.4393364787101746,0,0,0,-1,10217.840671125,3,2,1562003728.714663,1562003626.666006,7,1.998636,0.6281477,1.556376,7.126037,0,0,1562003729.372337,10215.719099,0,-0.6525879,75.30616,3232235528,182473588,1,1,0.31,-25.03352,-31.50102,2
1562003729.784994,104,0,0,1562003728.860692,4.634788573009422,-74.15103087310237,2563.844,-1,-1,10,65,-9999,1562003729.767663,-15.93222141265869,17.75764083862305,15.763671875,45.39333343505859,52.88730239868164,15,10218.90050575,-0.8804931640625,0.1832122802734375,-0.4405059814453125,10218.90050575,0.04716218606032224,0.2166417630913298,0.05429519672399047,10218.89556175,-17.28643798828125,28.03182983398438,-524.6755981445312,10218.89543975,-1.899035227531368,-1.102265163556035,-0.2009504965911619,0.04711998999118805,0.1986094117164612,0.05614545568823814,-0.01031935214996338,-0.01461851596832275,0.008636116981506348,1,0.4733933210372925,0.2337822169065475,0.6586679220199585,-0.5360980629920959,-0.8742783665657043,0.1996007859706879,-0.4424892663955688,0,0,0,-1,10217.840671125,3,2,1562003728.714663,1562003626.666006,7,1.998636,0.6281477,1.556376,7.126037,0,0,1562003729.372337,10215.719099,0,-0.6525879,75.30616,3232235528,182473588,1,1,0.31,-25.5908,-31.70148,2
1562003729.805501,105,0,0,1562003728.860692,4.634788573009422,-74.15103087310237,2563.844,-1,-1,10,65,-9999,1562003729.793071,-16.14375686645508,17.56682205200195,15.73101806640625,45.2841911315918,52.77816009521484,15,10218.92076875,-0.875946044921875,0.1860809326171875,-0.449249267578125,10218.92076875,0.06129584828148176,0.1828417214843712,0.04704873539788486,10218.91567275,-17.26731872558594,28.22572326660156,-525.056884765625,10218.91570275,-1.897656952673395,-1.097882111973386,-0.201358917375815,0.05630337074398994,0.187544509768486,0.04463394358754158,-0.00661778450012207,-0.01958107948303223,0.00331723690032959,1,0.4718805551528931,0.2327848821878433,0.6592578887939453,-0.5371396541595459,-0.8722579479217529,0.2000009715557098,-0.4462798833847046,0,0,0,-1,10217.840671125,3,2,1562003728.714663,1562003626.666006,7,1.998636,0.6281477,1.556376,7.126037,0,0,1562003729.372337,10215.719099,0,-0.6525879,75.30616,3232235528,182473588,1,1,0.31,-25.5908,-31.70148,2
1562003729.846637,106,0,0,1562003728.860692,4.634788573009422,-74.15103087310237,2563.844,-1,-1,10,65,-9999,1562003729.844013,-16.11448287963867,17.53420257568359,15.50714111328125,45.06625747680664,52.56022644042969,15,10218.94103275,-0.8758087158203125,0.2008819580078125,-0.4493560791015625,10218.94103275,0.06909438290156079,0.2094299228593953,0.03276806668455296,10218.93575375,-17.29617309570312,28.06448364257812,-524.7825927734375,10218.93596675,-1.896156460205922,-1.093967128458588,-0.20152373016054,0.06264515221118927,0.1911333948373795,0.03551288321614265,-0.005165994167327881,-0.00520092248916626,-0.002014458179473877,1,0.4704524874687195,0.232026606798172,0.6597462296485901,-0.5381200313568115,-0.8704748153686523,0.2001624554395676,-0.4496762156486511,0,0,0,-1,10217.840671125,3,2,1562003728.714663,1562003626.666006,7,1.998636,0.6281477,1.556376,7.126037,0,0,1562003729.372337,10215.719099,0,-0.6525879,75.30616,3232235528,182473588,1,1,0.31,-26.04466,-31.31216,2
1562003729.849962,107,0,0,1562003728.860692,4.634788573009422,-74.15103087310237,2563.844,-1,-1,10,65,-9999,1562003729.844013,-16.11448287963867,17.53420257568359,15.50714111328125,45.06625747680664,52.56022644042969,15,10218.96126575,-0.86676025390625,0.19415283203125,-0.4455108642578125,10218.96126575,0.08916875856636007,0.1853344402646853,0.02766971109370527,10218.95583375,-17.09907531738281,27.98699951171875,-524.832763671875,10218.95623075,-1.894554325469914,-1.089704857567039,-0.2013657660848049,0.08042121678590775,0.187376469373703,0.02822593972086906,-0.005872428417205811,-0.001017838716506958,0.006146550178527832,1,0.4688244462013245,0.2313118726015091,0.6603448987007141,-0.5391132235527039,-0.8685782551765442,0.2000076919794083,-0.4533969163894653,0,0,0,-1,10217.840671125,3,2,1562003728.714663,1562003626.666006,7,1.998636,0.6281477,1.556376,7.126037,0,0,1562003729.372337,10215.719099,0,-0.6525879,75.30616,3232235528,182473588,1,1,0.31,-26.04466,-31.31216,2
1562003729.865978,108,0,0,1562003728.860692,4.634788573009422,-74.15103087310237,2563.844,-1,-1,10,65,-9999,1562003729.844013,-16.11448287963867,17.53420257568359,15.50714111328125,45.06625747680664,52.56022644042969,15,10218.98152975,-0.854248046875,0.192138671875,-0.4340362548828125,10218.98152975,0.09220369694461437,0.1636195573683973,0.03417687890120488,10218.97594475,-17.44204711914062,28.22769165039062,-525.1119384765625,10218.97646375,-1.892648115038364,-1.085875507174373,-0.2009439297392573,0.09310931712388992,0.1590340435504913,0.02721766754984856,0.01696527004241943,-0.005700945854187012,0.02354669570922852,1,0.4672433435916901,0.2308769375085831,0.6608049273490906,-0.5401078462600708,-0.8669102787971497,0.1995943635702133,-0.4567590057849884,0,0,0,-1,10217.840671125,3,2,1562003728.714663,1562003626.666006,7,1.998636,0.6281477,1.556376,7.126037,0,0,1562003729.372337,10215.719099,0,-0.6525879,75.30616,3232235528,182473588,1,1,0.31,-26.04466,-31.69366,2
1562003729.886227,109,0,0,1562003728.860692,4.634788573009422,-74.15103087310237,2563.844,-1,-1,10,65,-9999,1562003729.869743,-16.35877227783203,17.67626190185547,15.26861572265625,44.92842864990234,52.42239761352539,15,10219.00179375,-0.860809326171875,0.1906585693359375,-0.43646240234375,10219.00179375,0.02993526223303568,0.1438554399705922,0.004426173731711694,10218.99602575,-17.49969482421875,28.22195434570312,-525.260986328125,10218.99672775,-1.890939154461144,-1.082378633182681,-0.2006187431528352,0.05492012202739716,0.1514261811971664,0.01253299880772829,0.003350198268890381,-0.009380072355270386,0.02157038450241089,1,0.4658162891864777,0.2304477244615555,0.6612188220024109,-0.5410163402557373,-0.8653649687767029,0.1992757022380829,-0.4598180651664734,0,0,0,-1,10217.840671125,3,2,1562003728.714663,1562003626.666006,7,1.998636,0.6281477,1.556376,7.126037,0,0,1562003729.372337,10215.719099,0,-0.6525879,75.30616,3232235528,182473588,1,1,0.31,-26.04466,-32.22275,2
1562003729.930087,110,0,0,1562003728.860692,4.634788573009422,-74.15103087310237,2563.844,-1,-1,10,65,-9999,1562003729.918849,-16.29298400878906,17.71229934692383,15.236328125,44.91979217529297,52.41376113891602,15,10219.02205675,-0.855682373046875,0.200469970703125,-0.4488067626953125,10219.02205675,-0.04403616757278723,0.0732220162750746,-0.01824078925427973,10219.01610575,-17.39328002929688,28.22773742675781,-525.1180419921875,10219.01699075,-1.890925757950926,-1.079982276208163,-0.2004611982700819,-0.03899944946169853,0.08494969457387924,-0.01968193054199219,0.005554139614105225,-0.004785388708114624,0.01999545097351074,1,0.4649860858917236,0.229859322309494,0.6618019342422485,-0.5412678122520447,-0.8642882704734802,0.1991213113069534,-0.4619052708148956,0,0,0,-1,10217.840671125,3,2,1562003728.714663,1562003626.666006,7,1.998636,0.6281477,1.556376,7.126037,0,0,1562003729.372337,10215.719099,0,-0.6525879,75.30616,3232235528,182473588,1,1,0.31,-26.04466,-32.71496,2
1562003729.933291,111,0,0,1562003728.860692,4.634788573009422,-74.15103087310237,2563.844,-1,-1,10,65,-9999,1562003729.918849,-16.29298400878906,17.71229934692383,15.236328125,44.91979217529297,52.41376113891602,15,10219.04232075,-0.8451690673828125,0.196929931640625,-0.461669921875,10219.04232075,-0.03708558344378942,0.04271790283319801,-0.008538893403121061,10219.03618675,-17.58444213867188,28.25283813476562,-525.1277465820312,10219.03725475,-1.891961000588591,-1.07912269320865,-0.200547328716216,-0.04428955167531967,0.03706686198711395,-0.01744247600436211,0.0128321647644043,-6.324052810668945e-05,0.009530246257781982,1,0.4648400843143463,0.2293550074100494,0.6622660160064697,-0.5410395860671997,-0.8638758659362793,0.1992057263851166,-0.4626399576663971,0,0,0,-1,10217.840671125,3,2,1562003728.714663,1562003626.666006,7,1.998636,0.6281477,1.556376,7.126037,0,0,1562003729.372337,10215.719099,0,-0.6525879,75.30616,3232235528,182473588,1,1,0.31,-26.04466,-32.71496,2
1562003729.947089,112,0,0,1562003728.860692,4.634788573009422,-74.15103087310237,2563.844,-1,-1,10,65,-9999,1562003729.945032,-16.23702621459961,17.79305648803711,15.21234130859375,44.95605850219727,52.45002746582031,15,10219.06258475,-0.8455657958984375,0.1938323974609375,-0.465423583984375,10219.06258475,0.01318291371200124,0.03258430856933749,0.03783899171617284,10219.05629775,-17.23628234863281,28.29949951171875,-525.1314697265625,10219.05751875,-1.892467479485431,-1.078545291484049,-0.2007803375772669,-0.003436128608882427,0.0305197462439537,0.0205049067735672,0.01948189735412598,-0.004243612289428711,-4.857778549194336e-05,1,0.4647602140903473,0.2289969176054001,0.6624942421913147,-0.5409803986549377,-0.863567590713501,0.1994340568780899,-0.4631167054176331,0,0,0,-1,10217.840671125,3,2,1562003728.714663,1562003626.666006,7,1.998636,0.6281477,1.556376,7.126037,0,0,1562003729.372337,10215.719099,0,-0.6525879,75.30616,3232235528,182473588,1,1,0.31,-23.80781,-30.84619,2
1562003729.96735,113,0,0,1562003728.860692,4.634788573009422,-74.15103087310237,2563.844,-1,-1,10,65,-9999,1562003729.945032,-16.23702621459961,17.79305648803711,15.21234130859375,44.95605850219727,52.45002746582031,15,10219.08284775,-0.8599090576171875,0.1906280517578125,-0.459930419921875,10219.08284775,0.01349849830117563,0.03517183588445848,0.04329181404811008,10219.07637875,-17.42485046386719,28.17416381835938,-525.2183837890625,10219.07778175,-1.891814054407711,-1.07787451351954,-0.2012762440225377,0.02177841402590275,0.03008245304226875,0.04201845079660416,0.01084411144256592,-0.007384598255157471,0.00158238410949707,1,0.4645767211914062,0.2287880331277847,0.6623818874359131,-0.5413638353347778,-0.8631695508956909,0.1999199688434601,-0.4636490046977997,0,0,0,-1,10217.840671125,3,2,1562003728.714663,1562003626.666006,7,1.998636,0.6281477,1.556376,7.126037,0,0,1562003729.372337,10216.662355,0,-0.607666,75.30574,3232235528,182473588,1,1,0.31,-23.80781,-30.84619,2
1562003730.012243,114,0,0,1562003728.860692,4.634788573009422,-74.15103087310237,2563.844,-1,-1,10,65,-9999,1562003729.970263,-16.36064529418945,17.66826629638672,15.17376708984375,44.90789413452148,52.40186309814453,15,10219.10308075,-0.864593505859375,0.185577392578125,-0.4532012939453125,10219.10308075,-0.003042128913197514,0.02795919670419688,0.02347363448017642,10219.09645875,-17.44528198242188,28.26324462890625,-525.4799194335938,10219.09804575,-1.891427165796294,-1.0771895580339,-0.2018268469364525,-0.005914732813835144,0.03401008248329163,0.02288816869258881,-0.003486812114715576,-0.01273056864738464,0.005340814590454102,1,0.4644317030906677,0.2284934371709824,0.662334680557251,-0.5416702628135681,-0.8627546429634094,0.2004594355821609,-0.464187890291214,0,0,0,-1,10217.840671125,3,2,1562003728.714663,1562003626.666006,7,1.998636,0.6281477,1.556376,7.126037,0,0,1562003729.372337,10216.662355,0,-0.607666,75.30574,3232235528,182473588,1,1,0.31,-23.16493,-29.11847,2
1562003730.014714,115,0,0,1562003728.860692,4.634788573009422,-74.15103087310237,2563.844,-1,-1,10,65,-9999,1562003729.970263,-16.36064529418945,17.66826629638672,15.17376708984375,44.90789413452148,52.40186309814453,15,10219.12334475,-0.85699462890625,0.1917877197265625,-0.4539947509765625,10219.12334475,0.02265178296777797,-0.008835835864664897,0.01922216411597392,10219.11656975,-17.54679870605469,28.42831420898438,-525.207763671875,10219.11827875,-1.891218436397743,-1.076942113822741,-0.202169515065064,0.01469280850142241,-0.01169215701520443,0.01737622171640396,0.002181947231292725,-0.01276108622550964,0.01292228698730469,1,0.4644043445587158,0.2283510565757751,0.6622724533081055,-0.5418299436569214,-0.8625792860984802,0.2007951289415359,-0.4643687903881073,0,0,0,-1,10217.840671125,3,2,1562003728.714663,1562003626.666006,7,1.998636,0.6281477,1.556376,7.126037,0,0,1562003729.372337,10216.662355,0,-0.607666,75.30574,3232235528,182473588,1,1,0.31,-23.16493,-29.11847,2
1562003730.028045,116,0,0,1562003728.860692,4.634788573009422,-74.15103087310237,2563.844,-1,-1,10,65,-9999,1562003730.022541,-16.32817840576172,17.71374130249023,14.93035888671875,44.89429473876953,52.38826370239258,15,10219.14360875,-0.8525390625,0.194549560546875,-0.457275390625,10219.14360875,0.03725895523075358,0.006017146166925031,0.00387383412162926,10219.13665075,-17.48655700683594,28.33250427246094,-525.2106323242188,10219.13854275,-1.890651797254329,-1.077013251897105,-0.2021530184046395,0.03215648606419563,-0.002850728807970881,0.005343529395759106,0.007497429847717285,-0.006504088640213013,0.008284807205200195,1,0.4643594026565552,0.228507861495018,0.6621054410934448,-0.5420064330101013,-0.8626152276992798,0.2007789760828018,-0.4643090069293976,0,0,0,-1,10217.840671125,3,2,1562003728.714663,1562003626.666006,7,1.998636,0.6281477,1.556376,7.126037,0,0,1562003729.372337,10216.662355,0,-0.607666,75.30574,3232235528,182473588,1,1,0.31,-23.16493,-29.48219,2
1562003730.048323,117,0,0,1562003728.860692,4.634788573009422,-74.15103087310237,2563.844,-1,-1,10,65,-9999,1562003730.046344,-16.45287704467773,17.9345817565918,15.19927978515625,44.81748962402344,52.31145858764648,15,10219.16387175,-0.8514404296875,0.19635009765625,-0.4581756591796875,10219.16387175,0.03841663135661103,0.02133298559597073,-0.002935868785703352,10219.15673075,-17.49107360839844,28.52305603027344,-525.0928955078125,10219.15880575,-1.890053923148701,-1.076754063331772,-0.201778255238344,0.03457250818610191,0.01448937878012657,-0.006562398746609688,0.01086121797561646,-0.006121695041656494,0.004653036594390869,1,0.4641194045543671,0.2287117838859558,0.6620726585388184,-0.5421659350395203,-0.8625609874725342,0.2004118263721466,-0.4645681977272034,0,0,0,-1,10217.840671125,3,2,1562003728.714663,1562003626.666006,7,1.998636,0.6281477,1.556376,7.126037,0,0,1562003729.372337,10216.662355,0,-0.607666,75.30574,3232235528,182473588,1,1,0.31,-23.16493,-29.87577,2
1562003730.081033,118,0,0,1562003728.860692,4.634788573009422,-74.15103087310237,2563.844,-1,-1,10,65,-9999,1562003730.070852,-16.38771057128906,17.762451171875,15.12176513671875,44.77473068237305,52.26869964599609,15,10219.18413575,-0.850067138671875,0.194915771484375,-0.4576416015625,10219.18413575,0.02293274646278133,0.006815295545621779,0.01278716797401546,10219.17684175,-17.52861022949219,28.24964904785156,-525.2608032226562,10219.17906975,-1.889414381659701,-1.076400760181699,-0.2013764527482516,0.03152105584740639,0.001829510554671288,0.005948066711425781,0.01298034191131592,-0.004385203123092651,0.009131073951721191,1,0.4638371467590332,0.228909507393837,0.6620553135871887,-0.5423451662063599,-0.8624676465988159,0.2000181525945663,-0.4649110734462738,0,0,0,-1,10217.840671125,3,2,1562003728.714663,1562003626.666006,7,1.998636,0.6281477,1.556376,7.126037,0,0,1562003729.372337,10216.662355,0,-0.607666,75.30574,3232235528,182473588,1,1,0.31,-23.16493,-30.35152,2
1562003730.088777,119,0,0,1562003728.860692,4.634788573009422,-74.15103087310237,2563.844,-1,-1,10,65,-9999,1562003730.070852,-16.38771057128906,17.762451171875,15.12176513671875,44.77473068237305,52.26869964599609,15,10219.20439975,-0.8590087890625,0.1961517333984375,-0.4682464599609375,10219.20439975,-0.001690042027764284,0.009535714599137721,0.03218643230247966,10219.19692275,-17.61671447753906,28.14634704589844,-525.3617553710938,10219.19933375,-1.889067925021101,-1.076255028393206,-0.2015218817879408,-0.005190197378396988,0.007933622226119041,0.0228126235306263,0.007012307643890381,-0.00274243950843811,0.0007132887840270996,1,0.4637826085090637,0.2288978099822998,0.6619683504104614,-0.5425029397010803,-0.8623743057250977,0.2001606523990631,-0.4650229811668396,0,0,0,-1,10217.840671125,3,2,1562003728.714663,1562003626.666006,7,1.998636,0.6281477,1.556376,7.126037,0,0,1562003729.372337,10216.662355,0,-0.607666,75.30574,3232235528,182473588,1,1,0.31,-23.16493,-30.89987,2
1562003730.109243,120,0,0,1562003728.860692,4.634788573009422,-74.15103087310237,2563.844,-1,-1,10,65,-9999,1562003730.097463,-16.54013442993164,17.65563201904297,15.04742431640625,44.75713729858398,52.25110626220703,15,10219.22466275,-0.86138916015625,0.1909027099609375,-0.4700775146484375,10219.22466275,0.04316558021244032,-0.009204683675640871,0.0407884426234356,10219.21700375,-17.66133117675781,28.58268737792969,-525.3955078125,10219.21959775,-1.888673786681259,-1.076226903560018,-0.2020358762404866,0.02547077648341656,-0.01237750798463821,0.03758411481976509,0.005352139472961426,-0.00898328423500061,-0.004453599452972412,1,0.4638461768627167,0.2287959158420563,0.6617730855941772,-0.5427296757698059,-0.8622704744338989,0.2006642073392868,-0.4649983048439026,0,0,0,-1,10217.840671125,3,2,1562003728.714663,1562003626.666006,7,1.998636,0.6281477,1.556376,7.126037,0,0,1562003729.372337,10216.662355,0,-0.607666,75.30574,3232235528,182473588,1,1,0.31,-23.16493,-31.3903,2
