loggingTime,loggingSample,identifierForVendor,deviceID,locationTimestamp_since1970,locationLatitude,locationLongitude,locationAltitude,locationSpeed,locationCourse,locationVerticalAccuracy,locationHorizontalAccuracy,locationFloor,locationHeadingTimestamp_since1970,locationHeadingX,locationHeadingY,locationHeadingZ,locationTrueHeading,locationMagneticHeading,locationHeadingAccuracy,accelerometerTimestamp_sinceReboot,accelerometerAccelerationX,accelerometerAccelerationY,accelerometerAccelerationZ,gyroTimestamp_sinceReboot,gyroRotationX,gyroRotationY,gyroRotationZ,magnetometerTimestamp_sinceReboot,magnetometerX,magnetometerY,magnetometerZ,motionTimestamp_sinceReboot,motionYaw,motionRoll,motionPitch,motionRotationRateX,motionRotationRateY,motionRotationRateZ,motionUserAccelerationX,motionUserAccelerationY,motionUserAccelerationZ,motionAttitudeReferenceFrame,motionQuaternionX,motionQuaternionY,motionQuaternionZ,motionQuaternionW,motionGravityX,motionGravityY,motionGravityZ,motionMagneticFieldX,motionMagneticFieldY,motionMagneticFieldZ,motionMagneticFieldCalibrationAccuracy,activityTimestamp_sinceReboot,activity,activityActivityConfidence,activityActivityStartDate,pedometerStartDate,pedometerNumberofSteps,pedometerAverageActivePace,pedometerCurrentPace,pedometerCurrentCadence,pedometerDistance,pedometerFloorAscended,pedometerFloorDescended,pedometerEndDate,altimeterTimestamp_sinceReboot,altimeterReset,altimeterRelativeAltitude,altimeterPressure,IP_en0,IP_pdp_ip0,deviceOrientation,batteryState,batteryLevel,avAudioRecorderPeakPower,avAudioRecorderAveragePower,label
1562003733.613863,1,0,0,1562003728.860692,4.634788573009422,-74.15103087310237,2563.844,-1,-1,10,65,-9999,1562003733.599927,-20.32479858398438,15.60216617584229,12.3433837890625,46.52812957763672,54.02209854125977,15,10222.72957091667,-0.8451080322265625,0.029083251953125,-0.54998779296875,10222.72957091667,-0.05351622210514229,0.01298184504970025,0.005265868423413677,10222.71324391667,-21.64945983886719,25.98841857910156,-527.75537109375,10222.72450491667,-1.919731129849272,-0.9945862447170151,-0.03257493911311147,-0.07217659801244736,0.01455569919198751,0.0079520083963871,-0.0112764835357666,-0.006537675857543945,0.006795346736907959,1,0.3989162743091583,0.2618881165981293,0.7153486013412476,-0.5104476809501648,-0.8380887508392334,0.03256917744874954,-0.5445608496665955,0,0,0,-1,10221.0910285,3,2,1562003731.965021,1562003626.666006,7,1.998636,0,0,7.126037,0,0,1562003731.965387,10219.492686,0,-0.5205078,75.30491,3232235528,182473588,1,1,0.31,-25.98103,-31.36556,3
1562003733.634286,2,0,0,1562003728.860692,4.634788573009422,-74.15103087310237,2563.844,-1,-1,10,65,-9999,1562003733.599927,-20.32479858398438,15.60216617584229,12.3433837890625,46.52812957763672,54.02209854125977,15,10222.74980391667,-0.832611083984375,0.0386199951171875,-0.558013916015625,10222.74980391667,0.02511254381501118,-0.04391099900155351,0.007217965502441759,10222.73335491667,-21.56307983398438,25.95613098144531,-527.830078125,10222.74476891667,-1.920307016777852,-0.9947086267352606,-0.03294269827837765,0.006142440252006054,-0.03424699231982231,-0.001840967801399529,-0.0003252029418945312,0.001029312610626221,-0.01218897104263306,1,0.3991269469261169,0.261671245098114,0.7154186367988586,-0.5102959275245667,-0.8381452560424805,0.03293674066662788,-0.5444516539573669,0,0,0,-1,10221.0910285,3,2,1562003731.965021,1562003626.666006,7,1.998636,0,0,7.126037,0,0,1562003731.965387,10219.492686,0,-0.5205078,75.30491,3232235528,182473588,1,1,0.31,-26.46709,-31.44243,3
1562003733.654314,3,0,0,1562003728.860692,4.634788573009422,-74.15103087310237,2563.844,-1,-1,10,65,-9999,1562003733.642341,-20.31060791015625,15.39427471160889,12.57440185546875,46.61582183837891,54.10979080200195,15,10222.77006791667,-0.8335113525390625,0.036346435546875,-0.5449676513671875,10222.77006791667,0.03069612735647131,-0.04822345575471881,0.04175676799578841,10222.75343591667,-21.3409423828125,25.96060180664062,-527.7509155273438,10222.76503291667,-1.919668041518337,-0.9957687324163575,-0.03281984202059172,0.03713338077068329,-0.05876458808779716,0.03047329559922218,0.005946516990661621,0.005714505910873413,-0.008330106735229492,1,0.3993918001651764,0.2621138095855713,0.7150615453720093,-0.5103622078895569,-0.8387253880500793,0.03281395137310028,-0.5435650944709778,0,0,0,-1,10221.0910285,3,2,1562003731.965021,1562003626.666006,7,1.998636,0,0,7.126037,0,0,1562003731.965387,10219.492686,0,-0.5205078,75.30491,3232235528,182473588,1,1,0.31,-26.46709,-31.77713,3
1562003733.674645,4,0,0,1562003728.860692,4.634788573009422,-74.15103087310237,2563.844,-1,-1,10,65,-9999,1562003733.670077,-20.22507476806641,15.30089664459229,12.44793701171875,46.5551643371582,54.04913330078125,15,10222.79033191667,-0.8329010009765625,0.0243377685546875,-0.5283966064453125,10222.79033191667,-0.02237747737549981,-0.01154720017047457,0.06370547643578546,10222.77354691667,-21.29049682617188,25.76795959472656,-527.9255981445312,10222.78526591667,-1.918863315950089,-0.996680257447057,-0.03335073135503039,-0.00609851349145174,-0.02812864631414413,0.05506279692053795,0.006075918674468994,-0.001346856355667114,0.006169676780700684,1,0.3997441530227661,0.2623150944709778,0.7145981192588806,-0.5106319785118103,-0.839205801486969,0.03334454819560051,-0.5427908301353455,0,0,0,-1,10221.0910285,3,2,1562003731.965021,1562003626.666006,7,1.998636,0,0,7.126037,0,0,1562003731.965387,10219.492686,0,-0.5205078,75.30491,3232235528,182473588,1,1,0.31,-26.32584,-32.37416,3
1562003733.694884,5,0,0,1562003728.860692,4.634788573009422,-74.15103087310237,2563.844,-1,-1,10,65,-9999,1562003733.692951,-20.40647506713867,15.41365909576416,12.64306640625,46.54277038574219,54.03673934936523,15,10222.81059491667,-0.8289947509765625,0.018218994140625,-0.51983642578125,10222.81059491667,-0.05695116727912649,0.0174466346172181,0.08233988089917889,10222.79362791667,-21.57783508300781,25.94497680664062,-527.7473754882812,10222.80552891667,-1.918725455249149,-0.9967955708550663,-0.03483795426308311,-0.05395951122045517,0.01088133547455072,0.07456032931804657,0.00820159912109375,-0.01542174816131592,0.02078539133071899,1,0.400137186050415,0.2618338763713837,0.7143267393112183,-0.5109507441520691,-0.8392258286476135,0.03483090922236443,-0.542666494846344,0,0,0,-1,10221.0910285,3,2,1562003731.965021,1562003626.666006,7,1.998636,0,0,7.126037,0,0,1562003731.965387,10219.492686,0,-0.5205078,75.30491,3232235528,182473588,1,1,0.31,-26.32584,-32.43436,3
1562003733.715109,6,0,0,1562003728.860692,4.634788573009422,-74.15103087310237,2563.844,-1,-1,10,65,-9999,1562003733.692951,-20.40647506713867,15.41365909576416,12.64306640625,46.54277038574219,54.03673934936523,15,10222.83085891667,-0.8256988525390625,0.0238189697265625,-0.5250396728515625,10222.83085891667,-0.04331817934290186,0.02381079067418045,0.1018326221819049,10222.81370791667,-21.30354309082031,25.86221313476562,-527.8145141601562,10222.82579291667,-1.918750874885224,-0.9965492979317434,-0.03691940657207147,-0.05032456293702126,0.01225579250603914,0.09827657788991928,0.01488691568374634,-0.01393130421638489,0.02026480436325073,1,0.4005699753761292,0.2610122859477997,0.7140835523605347,-0.5113715529441833,-0.8390293717384338,0.0369110181927681,-0.5428325533866882,0,0,0,-1,10221.0910285,3,2,1562003731.965021,1562003626.666006,7,1.998636,0,0,7.126037,0,0,1562003731.965387,10219.492686,0,-0.5205078,75.30491,3232235528,182473588,1,1,0.31,-26.32584,-31.99707,3
1562003733.735549,7,0,0,1562003728.860692,4.634788573009422,-74.15103087310237,2563.844,-1,-1,10,65,-9999,1562003733.717459,-20.22757720947266,15.3143949508667,12.549560546875,46.53739166259766,54.0313606262207,15,10222.85112291667,-0.83367919921875,0.0177154541015625,-0.5337982177734375,10222.85112291667,-0.02437511450916824,0.03515186217628289,0.05624835906745458,10222.83381891667,-21.29646301269531,25.96913146972656,-527.6635131835938,10222.84605691667,-1.918413628627185,-0.9960319880488034,-0.03886372776400049,-0.02935350313782692,0.03125372156500816,0.06700467318296432,0.006701231002807617,-0.01979571580886841,0.01394492387771606,1,0.4008243083953857,0.2602433562278748,0.7138211131095886,-0.5119304656982422,-0.8386867046356201,0.03885394707322121,-0.5432265400886536,0,0,0,-1,10221.0910285,3,2,1562003731.965021,1562003626.666006,7,1.998636,0,0,7.126037,0,0,1562003731.965387,10220.436245,0,-0.8295898,75.30783,3232235528,182473588,1,1,0.31,-25.59936,-31.32347,3
1562003733.757137,8,0,0,1562003728.860692,4.634788573009422,-74.15103087310237,2563.844,-1,-1,10,65,-9999,1562003733.743656,-20.23473739624023,15.2860860824585,12.48394775390625,46.51849746704102,54.01246643066406,15,10222.87138591667,-0.831878662109375,0.0326995849609375,-0.541900634765625,10222.87138591667,0.01798352789297807,0.008469651214779002,0.03528235706969677,10222.85389991667,-21.28875732421875,25.76025390625,-527.899658203125,10222.86632091667,-1.91820544264557,-0.9954814025289231,-0.0398035687738078,0.001763404463417828,0.01343344245105982,0.03135107457637787,0.005730092525482178,-0.01475337147712708,0.004864931106567383,1,0.4008342027664185,0.2598035931587219,0.7137426137924194,-0.5122552514076233,-0.8383564352989197,0.03979305922985077,-0.5436680912971497,0,0,0,-1,10221.0910285,3,2,1562003731.965021,1562003626.666006,7,1.998636,0,0,7.126037,0,0,1562003731.965387,10220.436245,0,-0.8295898,75.30783,3232235528,182473588,1,1,0.31,-24.13799,-31.3441,3
1562003733.775912,9,0,0,1562003728.860692,4.634788573009422,-74.15103087310237,2563.844,-1,-1,10,65,-9999,1562003733.768043,-20.25578308105469,15.43377590179443,12.18670654296875,46.47320938110352,53.96717834472656,15,10222.89161991667,-0.8278350830078125,0.0313262939453125,-0.5402984619140625,10222.89161991667,0.04761891818727083,-0.02515142596692634,0.0622684347115787,10222.87401091667,-21.39515686035156,25.97267150878906,-528.2608642578125,10222.88658391667,-1.917293415539914,-0.9955971948476097,-0.04013798879728782,0.04728561639785767,-0.02357783913612366,0.05369499698281288,0.007704496383666992,-0.004284322261810303,0.001846194267272949,1,0.4008400738239288,0.2598949074745178,0.7134374976158142,-0.5126293301582336,-0.8384081721305847,0.0401272140443325,-0.5435637235641479,0,0,0,-1,10221.0910285,3,2,1562003731.965021,1562003626.666006,7,1.998636,0,0,7.126037,0,0,1562003731.965387,10220.436245,0,-0.8295898,75.30783,3232235528,182473588,1,1,0.31,-24.13799,-31.3441,3
1562003733.796181,10,0,0,1562003728.860692,4.634788573009422,-74.15103087310237,2563.844,-1,-1,10,65,-9999,1562003733.794271,-20.37408828735352,15.35220623016357,12.4407958984375,46.37396621704102,53.86793518066406,15,10222.91188291667,-0.8285980224609375,0.0258636474609375,-0.5341796875,10222.91188291667,0.02132153400328339,-0.01798565842185014,0.07638531901787073,10222.89409191667,-21.55885314941406,25.90403747558594,-527.9882202148438,10222.90684791667,-1.915886929541176,-0.9961795739826969,-0.04072868157034508,0.02941074408590794,-0.03048155084252357,0.07083962857723236,0.01117455959320068,-0.01277858018875122,0.005205333232879639,1,0.401011735200882,0.2601122856140137,0.7128746509552002,-0.5131674408912659,-0.838704526424408,0.04071742296218872,-0.5430623888969421,0,0,0,-1,10221.0910285,3,2,1562003731.965021,1562003626.666006,7,1.998636,0,0,7.126037,0,0,1562003731.965387,10220.436245,0,-0.8295898,75.30783,3232235528,182473588,1,1,0.31,-22.63107,-31.47629,3
1562003733.8164,11,0,0,1562003728.860692,4.634788573009422,-74.15103087310237,2563.844,-1,-1,10,65,-9999,1562003733.794271,-20.37408828735352,15.35220623016357,12.4407958984375,46.37396621704102,53.86793518066406,15,10222.93214691667,-0.8300018310546875,0.0334625244140625,-0.5267791748046875,10222.93214691667,-0.03035231325974208,0.0116657108389831,0.05964974841170378,10222.91417191667,-21.2103271484375,26.19230651855469,-528.0264892578125,10222.92708091667,-1.914971681311324,-0.9964697184251109,-0.04183554983839236,-0.01633410714566708,0.0005187098868191242,0.0643409788608551,0.01170587539672852,-0.01469323039054871,0.01065921783447266,1,0.4012712836265564,0.2599696815013885,0.7124212384223938,-0.5136664509773254,-0.8388237953186035,0.04182334616780281,-0.5427942276000977,0,0,0,-1,10221.0910285,3,2,1562003731.965021,1562003626.666006,7,1.998636,0,0,7.126037,0,0,1562003731.965387,10220.436245,0,-0.8295898,75.30783,3232235528,182473588,1,1,0.31,-22.63107,-31.5989,3
1562003733.83668,12,0,0,1562003728.860692,4.634788573009422,-74.15103087310237,2563.844,-1,-1,10,65,-9999,1562003733.818779,-20.20322799682617,15.64118099212646,12.4022216796875,46.32569885253906,53.81966781616211,15,10222.95241091667,-0.82525634765625,0.044921875,-0.5301666259765625,10222.95241091667,-0.06359868367607328,0.01685887496463761,0.05114547610275375,10222.93428291667,-21.16343688964844,26.17852783203125,-527.77490234375,10222.94734491667,-1.915143772200924,-0.9963089530298979,-0.04317789750778601,-0.06498739123344421,0.01129678916186094,0.04717797413468361,0.00989222526550293,-0.003476381301879883,0.01794999837875366,1,0.401570051908493,0.2594078779220581,0.7123029232025146,-0.5138810276985168,-0.8386886119842529,0.04316448420286179,-0.5428981184959412,0,0,0,-1,10221.0910285,3,2,1562003731.965021,1562003626.666006,7,1.998636,0,0,7.126037,0,0,1562003731.965387,10220.436245,0,-0.8295898,75.30783,3232235528,182473588,1,1,0.31,-22.63107,-32.23016,3
1562003733.857451,13,0,0,1562003728.860692,4.634788573009422,-74.15103087310237,2563.844,-1,-1,10,65,-9999,1562003733.844984,-20.40333557128906,15.8538122177124,12.7149658203125,46.3598518371582,53.85382080078125,15,10222.97267391667,-0.8245697021484375,0.0456695556640625,-0.5477294921875,10222.97267391667,-0.05502010917271004,-0.01708284681231327,0.0559128007701046,10222.95436391667,-21.53146362304688,26.45625305175781,-527.5958251953125,10222.96760791667,-1.915731248850067,-0.9962267855245059,-0.04468571781512606,-0.06350721418857574,-0.008333637379109859,0.04890343546867371,0.01382029056549072,0.003287523984909058,0.004783987998962402,1,0.4019914269447327,0.2587226331233978,0.7122512459754944,-0.5139685273170471,-0.8385883569717407,0.04467084631323814,-0.5429309606552124,0,0,0,-1,10221.0910285,3,2,1562003731.965021,1562003626.666006,7,1.998636,0,0,7.126037,0,0,1562003731.965387,10220.436245,0,-0.8295898,75.30783,3232235528,182473588,1,1,0.31,-22.63107,-29.30106,3
1562003733.877139,14,0,0,1562003728.860692,4.634788573009422,-74.15103087310237,2563.844,-1,-1,10,65,-9999,1562003733.869375,-20.43200302124023,15.77443408966064,12.79693603515625,46.3871955871582,53.88116455078125,15,10222.99293791667,-0.83819580078125,0.04248046875,-0.557342529296875,10222.99293791667,-0.004895689031892664,-0.06223381361740767,0.04391739058816969,10222.97447491667,-21.56594848632812,26.29827880859375,-527.560546875,10222.98787191667,-1.915953656583037,-0.996878407571828,-0.0460670052776531,-0.02252116240561008,-0.05237060412764549,0.04791140928864479,0.01068812608718872,-0.003753334283828735,-0.0130389928817749,1,0.4025949239730835,0.2583449482917786,0.7119762897491455,-0.5140671730041504,-0.8388894200325012,0.04605071246623993,-0.5423504114151001,0,0,0,-1,10221.0910285,3,2,1562003731.965021,1562003626.666006,7,1.998636,0,0,7.126037,0,0,1562003731.965387,10220.436245,0,-0.8295898,75.30783,3232235528,182473588,1,1,0.31,-22.63107,-29.74147,3
1562003733.9088,15,0,0,1562003728.860692,4.634788573009422,-74.15103087310237,2563.844,-1,-1,10,65,-9999,1562003733.895683,-20.37714385986328,15.66811084747314,12.69390869140625,46.3414306640625,53.83539962768555,15,10223.01320191667,-0.844085693359375,0.0435638427734375,-0.5522308349609375,10223.01320191667,0.07614270504256451,-0.08232310298431139,0.02885295356602748,10222.99455491667,-21.49624633789062,26.17071533203125,-527.7338256835938,10223.00813591667,-1.915291577437513,-0.9983460203518181,-0.04643233170492198,0.06028636917471886,-0.0864311009645462,0.02536215633153915,-0.003728866577148438,-0.003309577703475952,-0.01560741662979126,1,0.4031222462654114,0.2587232291698456,0.7114571332931519,-0.5141822695732117,-0.8396701812744141,0.04641564935445786,-0.5411095023155212,0,0,0,-1,10221.0910285,3,2,1562003731.965021,1562003626.666006,7,1.998636,0,0,7.126037,0,0,1562003731.965387,10220.436245,0,-0.8295898,75.30783,3232235528,182473588,1,1,0.31,-22.63107,-29.61538,3
1562003733.917807,16,0,0,1562003728.860692,4.634788573009422,-74.15103087310237,2563.844,-1,-1,10,65,-9999,1562003733.895683,-20.37714385986328,15.66811084747314,12.69390869140625,46.3414306640625,53.83539962768555,15,10223.03343491667,-0.837432861328125,0.0452880859375,-0.5295562744140625,10223.03343491667,0.09999104628811507,-0.06233741058381175,0.05037422465106681,10223.01466591667,-21.05368041992188,26.09803771972656,-527.7417602539062,10223.02839891667,-1.913522330203054,-0.999976542545244,-0.04600764222410703,0.1000233963131905,-0.077713243663311,0.04032832384109497,0.001685500144958496,-0.0005507469177246094,-0.004057645797729492,1,0.403367280960083,0.2596530020236969,0.7107354998588562,-0.5145194530487061,-0.840567946434021,0.04599141329526901,-0.539750337600708,0,0,0,-1,10223.02696491667,3,2,1562003733.900957,1562003626.666006,7,1.998636,0,0,7.126037,0,0,1562003731.965387,10220.436245,0,-0.8295898,75.30783,3232235528,182473588,1,1,0.31,-22.63107,-29.81969,3
1562003733.938029,17,0,0,1562003728.860692,4.634788573009422,-74.15103087310237,2563.844,-1,-1,10,65,-9999,1562003733.920051,-20.2474250793457,15.65717601776123,12.9432373046875,46.2054328918457,53.69940185546875,15,10223.05369791667,-0.839447021484375,0.0428924560546875,-0.5088958740234375,10223.05369791667,0.02178652192961122,0.0009076052994990044,0.04808284084916263,10223.03474691667,-21.31881713867188,26.161865234375,-527.384521484375,10223.04866291667,-1.911534837098703,-1.000940812474917,-0.04591466450051571,0.0476486049592495,-0.02043051458895206,0.04807226359844208,0.002987325191497803,-0.001937955617904663,0.02259963750839233,1,0.4034283459186554,0.2603356838226318,0.7100430130958557,-0.5150822997093201,-0.8410915732383728,0.04589853435754776,-0.5389418005943298,0,0,0,-1,10223.02696491667,3,2,1562003733.900957,1562003626.666006,7,1.998636,0,0,7.126037,0,0,1562003731.965387,10220.436245,0,-0.8295898,75.30783,3232235528,182473588,1,1,0.31,-22.63107,-29.81969,3
1562003733.958755,18,0,0,1562003728.860692,4.634788573009422,-74.15103087310237,2563.844,-1,-1,10,65,-9999,1562003733.946273,-19.98204803466797,15.79540348052979,12.529052734375,46.11260223388672,53.60657119750977,15,10223.07396191667,-0.8358612060546875,0.05462646484375,-0.510162353515625,10223.07396191667,-0.08120164584927902,0.04829562742025996,0.01635846699581172,10223.05485791667,-21.02322387695312,26.30746459960938,-527.9075927734375,10223.06889591667,-1.911314898043112,-1.000720086758994,-0.04662547505025943,-0.06364969164133072,0.03471449762582779,0.0197487473487854,0.001818299293518066,-0.0004965364933013916,0.03164815902709961,1,0.4034980535507202,0.2600663006305695,0.7099266052246094,-0.5153241157531738,-0.8409448862075806,0.0466085821390152,-0.5391097068786621,0,0,0,-1,10223.02696491667,3,2,1562003733.900957,1562003626.666006,7,1.998636,0,0,7.126037,0,0,1562003731.965387,10220.436245,0,-0.8295898,75.30783,3232235528,182473588,1,1,0.31,-22.63107,-30.17053,3
1562003733.988805,19,0,0,1562003728.860692,4.634788573009422,-74.15103087310237,2563.844,-1,-1,10,65,-9999,1562003733.970645,-20.11274719238281,15.90169239044189,12.67645263671875,46.19279098510742,53.68675994873047,15,10223.09422591667,-0.823516845703125,0.0646820068359375,-0.525482177734375,10223.09422591667,-0.1152411056382358,0.05344831149734527,0.01299915559678577,10223.07493891667,-21.17765808105469,26.41851806640625,-527.66455078125,10223.08915991667,-1.912799039852538,-0.9998798225703552,-0.04784235364747038,-0.1144417598843575,0.04848197475075722,0.008071850053966045,0.01161634922027588,0.01368406414985657,0.02335131168365479,1,0.4036945700645447,0.2591103315353394,0.7102999687194824,-0.515137255191803,-0.8404432535171509,0.04782410338521004,-0.5397850871086121,0,0,0,-1,10223.02696491667,3,2,1562003733.900957,1562003626.666006,7,1.998636,0,0,7.126037,0,0,1562003731.965387,10220.436245,0,-0.8295898,75.30783,3232235528,182473588,1,1,0.31,-22.63107,-31.30226,3
1562003733.998708,20,0,0,1562003728.860692,4.634788573009422,-74.15103087310237,2563.844,-1,-1,10,65,-9999,1562003733.996821,-20.03298950195312,15.74618244171143,12.76544189453125,46.31960678100586,53.81357574462891,15,10223.11448891667,-0.8239898681640625,0.0572052001953125,-0.5380096435546875,10223.11448891667,-0.1022645869107157,0.008986837098472389,0.03808267095591509,10223.09504991667,-21.13285827636719,26.26565551757812,-527.5947875976562,10223.10942391667,-1.914590669768302,-0.9992334537445747,-0.04937451703616807,-0.1108041480183601,0.0137924375012517,0.02843571081757545,0.01649951934814453,0.01369485259056091,0.009846627712249756,1,0.4040765166282654,0.2580275237560272,0.7106670737266541,-0.5148749947547913,-0.8400315642356873,0.04935446009039879,-0.5402879118919373,0,0,0,-1,10223.02696491667,3,2,1562003733.900957,1562003626.666006,7,1.998636,0,0,7.126037,0,0,1562003731.965387,10220.436245,0,-0.8295898,75.30783,3232235528,182473588,1,1,0.31,-22.63107,-31.30226,3
1562003734.019331,21,0,0,1562003728.860692,4.634788573009422,-74.15103087310237,2563.844,-1,-1,10,65,-9999,1562003733.996821,-20.03298950195312,15.74618244171143,12.76544189453125,46.31960678100586,53.81357574462891,15,10223.13475291667,-0.836456298828125,0.0539398193359375,-0.5517425537109375,10223.13475291667,-0.08314681870947291,-0.00667920801391873,0.01973349104526914,10223.11512991667,-21.26724243164062,26.16140747070312,-527.490966796875,10223.12968691667,-1.915937399827817,-0.9993996482493237,-0.05106574992499558,-0.09455060958862305,-0.01244822144508362,0.02943785861134529,0.01207756996154785,0.001477181911468506,-0.00547558069229126,1,0.4047276973724365,0.257185310125351,0.7107318043708801,-0.5146955847740173,-0.8400499820709229,0.0510435588657856,-0.5401024222373962,0,0,0,-1,10223.02696491667,3,2,1562003733.900957,1562003626.666006,7,1.998636,0,0,7.126037,0,0,1562003731.965387,10220.436245,0,-0.8295898,75.30783,3232235528,182473588,1,1,0.31,-22.63107,-32.07987,3
1562003734.039317,22,0,0,1562003728.860692,4.634788573009422,-74.15103087310237,2563.844,-1,-1,10,65,-9999,1562003734.021345,-19.95726013183594,15.60849475860596,12.65631103515625,46.41334915161133,53.90731811523438,15,10223.15501691667,-0.838714599609375,0.0456085205078125,-0.547943115234375,10223.15501691667,-0.0221721476554547,-0.008413991147996345,-0.0326817802652344,10223.13524091667,-20.9490966796875,26.17532348632812,-527.718017578125,10223.14995091667,-1.917086680851273,-0.9996936297468113,-0.05186788734140043,-0.03752833977341652,-0.008693430572748184,-0.02536600083112717,0.0003607273101806641,-0.001505881547927856,-0.01271814107894897,1,0.4051781296730042,0.2567374706268311,0.7108500599861145,-0.5144013166427612,-0.8401739597320557,0.05184463411569595,-0.539833128452301,0,0,0,-1,10223.02696491667,3,2,1562003733.900957,1562003626.666006,7,1.998636,0,0,7.126037,0,0,1562003731.965387,10220.436245,0,-0.8295898,75.30783,3232235528,182473588,1,1,0.31,-22.63107,-32.7109,3
1562003734.072767,23,0,0,1562003728.860692,4.634788573009422,-74.15103087310237,2563.844,-1,-1,10,65,-9999,1562003734.047448,-20.15034484863281,15.5369291305542,12.77032470703125,46.48089981079102,53.97486877441406,15,10223.17527991667,-0.8371734619140625,0.045166015625,-0.5350341796875,10223.17527991667,0.01062681169774318,-0.02996482332113556,-0.02638633376439608,10223.15532191667,-21.31370544433594,26.02122497558594,-527.6118774414062,10223.17021491667,-1.917733307186164,-1.000196008912021,-0.05138494139730555,0.003862774465233088,-0.03358146920800209,-0.03611558303236961,0.002315998077392578,-0.005463898181915283,-0.002995014190673828,1,0.4053204655647278,0.2569107115268707,0.7109854817390442,-0.5140153765678406,-0.8404660224914551,0.05136233195662498,-0.5394244194030762,0,0,0,-1,10223.02696491667,3,2,1562003733.900957,1562003626.666006,7,1.998636,0,0,7.126037,0,0,1562003731.965387,10220.436245,0,-0.8295898,75.30783,3232235528,182473588,1,1,0.31,-22.63107,-33.08699,3
1562003734.079858,24,0,0,1562003728.860692,4.634788573009422,-74.15103087310237,2563.844,-1,-1,10,65,-9999,1562003734.077743,-20.3260612487793,15.63756465911865,12.718994140625,46.49875640869141,53.99272537231445,15,10223.19551391667,-0.8316192626953125,0.040252685546875,-0.527984619140625,10223.19551391667,-0.009812683352505961,-0.0270286882193232,0.0002460760847233216,10223.17543291667,-21.50314331054688,26.18339538574219,-527.6910400390625,10223.19047791667,-1.917891652247055,-1.000961546278275,-0.05096864273875195,-0.004156802780926228,-0.03919567912817001,-0.01028372161090374,0.006195187568664551,-0.007291167974472046,0.00938868522644043,1,0.4055101275444031,0.2572262585163116,0.710932195186615,-0.5137817859649658,-0.8408967256546021,0.05094657838344574,-0.5387923717498779,0,0,0,-1,10223.02696491667,3,2,1562003733.900957,1562003626.666006,7,1.998636,0,0,7.126037,0,0,1562003731.965387,10220.436245,0,-0.8295898,75.30783,3232235528,182473588,1,1,0.31,-22.63107,-33.12749,3
1562003734.100604,25,0,0,1562003728.860692,4.634788573009422,-74.15103087310237,2563.844,-1,-1,10,65,-9999,1562003734.09802,-20.24759674072266,15.69314670562744,13.09283447265625,46.51868438720703,54.01265335083008,15,10223.21577691667,-0.8336944580078125,0.0328216552734375,-0.5250244140625,10223.21577691667,-0.03336887582647484,0.006092247309665265,0.023929833974907,10223.21562491667,-21.0318603515625,26.234375,-527.4774169921875,10223.21071091667,-1.918160320402623,-1.001459560026834,-0.05122280650233142,-0.03083845600485802,-0.008113376796245575,0.01605991832911968,0.009916186332702637,-0.01386216282844543,0.01227402687072754,1,0.4057844579219818,0.2572075426578522,0.7108628153800964,-0.5136704444885254,-0.8411539793014526,0.05120040848851204,-0.5383664965629578,0,0,0,-1,10223.02696491667,3,2,1562003733.900957,1562003626.666006,7,1.998636,0,0,7.126037,0,0,1562003731.965387,10220.436245,0,-0.8295898,75.30783,3232235528,182473588,1,1,0.31,-22.63107,-33.12749,3
1562003734.120057,26,0,0,1562003728.860692,4.634788573009422,-74.15103087310237,2563.844,-1,-1,10,65,-9999,1562003734.09802,-20.24759674072266,15.69314670562744,13.09283447265625,46.51868438720703,54.01265335083008,15,10223.23604091667,-0.8405609130859375,0.03759765625,-0.5271759033203125,10223.23604091667,-0.03427301901655674,-0.0006122607346092169,0.02374634217580053,10223.23570491667,-21.48518371582031,26.14698791503906,-527.25439453125,10223.23097491667,-1.918520962851544,-1.001489732875261,-0.052017305536014,-0.04000159353017807,-0.00450319517403841,0.02588432095944881,0.003321409225463867,-0.01851606369018555,0.01491206884384155,1,0.4060375392436981,0.2568540573120117,0.7108324766159058,-0.5136892795562744,-0.8411356806755066,0.05199385061860085,-0.5383189916610718,0,0,0,-1,10223.02696491667,3,2,1562003733.900957,1562003626.666006,7,1.998636,0,0,7.126037,0,0,1562003731.965387,10220.436245,0,-0.8295898,75.30783,3232235528,182473588,1,1,0.31,-22.63107,-33.53391,3
1562003734.145208,27,0,0,1562003728.860692,4.634788573009422,-74.15103087310237,2563.844,-1,-1,10,65,-9999,1562003734.122564,-20.3471794128418,15.63280010223389,13.05230712890625,46.54617309570312,54.04014205932617,15,10223.25630491667,-0.840423583984375,0.0431976318359375,-0.5318756103515625,10223.25630491667,0.02459109687357367,-0.01816462284710346,-0.01756914002736174,10223.25581591667,-21.36051940917969,26.33670043945312,-527.153076171875,10223.25123891667,-1.918878891154132,-1.001655580677441,-0.05239315001344356,0.0009234682656824589,-0.01462800055742264,-0.01520026568323374,0.000296473503112793,-0.01361188292503357,0.008002281188964844,1,0.4062351286411285,0.2566876709461212,0.7108353972434998,-0.5136120915412903,-0.8412083983421326,0.05236918479204178,-0.5381689071655273,0,0,0,-1,10223.02696491667,3,2,1562003733.900957,1562003626.666006,7,1.998636,0,0,7.126037,0,0,1562003731.965387,10220.436245,0,-0.8295898,75.30783,3232235528,182473588,1,1,0.31,-22.63107,-34.20483,3
1562003734.160713,28,0,0,1562003728.860692,4.634788573009422,-74.15103087310237,2563.844,-1,-1,10,65,-9999,1562003734.148707,-20.30195999145508,15.76279926300049,13.10455322265625,46.55148315429688,54.04545211791992,15,10223.27656791667,-0.8294219970703125,0.0515289306640625,-0.5319061279296875,10223.27656791667,0.0797656693895083,-0.05263711262930713,0.004311125172620271,10223.27589691667,-21.41130065917969,26.34184265136719,-527.4525146484375,10223.27150191667,-1.918373181836824,-1.002302244818146,-0.05167194076496162,0.07360087335109711,-0.05308511108160019,-0.006021413952112198,0.00623023509979248,-0.002622455358505249,0.006791770458221436,1,0.4062221050262451,0.2572179436683655,0.710680365562439,-0.5135717988014221,-0.8415879011154175,0.05164894834160805,-0.5376450419425964,0,0,0,-1,10223.02696491667,3,2,1562003733.900957,1562003626.666006,7,1.998636,0,0,7.126037,0,0,1562003731.965387,10220.436245,0,-0.8295898,75.30783,3232235528,182473588,1,1,0.31,-22.63107,-31.63977,3
1562003734.18099,29,0,0,1562003728.860692,4.634788573009422,-74.15103087310237,2563.844,-1,-1,10,65,-9999,1562003734.17358,-20.26909637451172,15.82530689239502,12.9564208984375,46.46435546875,53.95832443237305,15,10223.29683191667,-0.829254150390625,0.043304443359375,-0.5305938720703125,10223.29683191667,0.04693821421264657,-0.0479909617915549,0.02540495890270188,10223.29597691667,-21.08424377441406,26.28092956542969,-527.7897338867188,10223.29176591667,-1.917019985565505,-1.003432256975885,-0.05097020816746043,0.06030423566699028,-0.05925405770540237,0.01749136857688427,0.01426810026168823,-0.001555413007736206,0.003754019737243652,1,0.4062760770320892,0.258037269115448,0.7102065682411194,-0.5137733817100525,-0.8422252535820007,0.05094814300537109,-0.5367130637168884,0,0,0,-1,10223.02696491667,3,2,1562003733.900957,1562003626.666006,7,1.998636,0,0,7.126037,0,0,1562003731.965387,10220.436245,0,-0.8295898,75.30783,3232235528,182473588,1,1,0.31,-22.63107,-32.24147,3
1562003734.201285,30,0,0,1562003728.860692,4.634788573009422,-74.15103087310237,2563.844,-1,-1,10,65,-9999,1562003734.199347,-19.96570587158203,15.697434425354,12.6590576171875,46.40692901611328,53.90089797973633,15,10223.31709591667,-0.8413238525390625,0.0370330810546875,-0.5209197998046875,10223.31709591667,0.002918025606399821,-0.01652464824783266,0.02201741799612109,10223.31608891667,-21.12870788574219,26.19659423828125,-527.2734375,10223.31202991667,-1.916240311128256,-1.004316461989636,-0.05100501217429023,0.007117714732885361,-0.02846019342541695,0.02428748831152916,0.006745219230651855,-0.01253074407577515,0.01248389482498169,1,0.4064978957176208,0.2584102749824524,0.7098214626312256,-0.5139426589012146,-0.8426979780197144,0.05098289996385574,-0.5359671711921692,0,0,0,-1,10223.02696491667,3,2,1562003733.900957,1562003626.666006,7,1.998636,0,0,7.126037,0,0,1562003731.965387,10220.436245,0,-0.8295898,75.30783,3232235528,182473588,1,1,0.31,-22.63107,-32.45681,3
1562003734.227241,31,0,0,1562003728.860692,4.634788573009422,-74.15103087310237,2563.844,-1,-1,10,65,-9999,1562003734.223944,-20.06150054931641,15.62571430206299,12.8985595703125,46.40348815917969,53.89745712280273,15,10223.33732891667,-0.8379058837890625,0.0430145263671875,-0.5258636474609375,10223.33732891667,-0.01495444846912195,-0.01550838597585843,0.02286243901000324,10223.33616891667,-21.11419677734375,26.12222290039062,-527.4600219726562,10223.33229291667,-1.916100474950616,-1.004692541535329,-0.05133693827568293,-0.01119125168770552,-0.0149627598002553,0.01821122132241726,0.001408696174621582,-0.01089385151863098,0.01275289058685303,1,0.4066952764987946,0.2584151923656464,0.7096600532531738,-0.5140067934989929,-0.8428851366043091,0.05131439119577408,-0.535641074180603,0,0,0,-1,10223.02696491667,3,2,1562003733.900957,1562003626.666006,7,1.998636,0,0,7.126037,0,0,1562003731.965387,10220.436245,0,-0.8295898,75.30783,3232235528,182473588,1,1,0.31,-22.63107,-30.86372,3
1562003734.241839,32,0,0,1562003728.860692,4.634788573009422,-74.15103087310237,2563.844,-1,-1,10,65,-9999,1562003734.223944,-20.06150054931641,15.62571430206299,12.8985595703125,46.40348815917969,53.89745712280273,15,10223.35759191667,-0.8312530517578125,0.04766845703125,-0.5299224853515625,10223.35759191667,-0.006284527540368986,-0.03123168905168625,0.02663640459075452,10223.35627991667,-21.17044067382812,25.92318725585938,-527.410400390625,10223.35255691667,-1.916156626561564,-1.005203320523669,-0.05186106092377955,-0.01368902996182442,-0.03309089690446854,0.02238466031849384,0.009746551513671875,-0.004459291696548462,0.006646871566772461,1,0.4070130884647369,0.258345365524292,0.7094932198524475,-0.5140208005905151,-0.8431358337402344,0.05183781683444977,-0.5351960062980652,0,0,0,-1,10223.02696491667,3,2,1562003733.900957,1562003626.666006,7,1.998636,0,0,7.126037,0,0,1562003731.965387,10220.436245,0,-0.8295898,75.30783,3232235528,182473588,1,1,0.31,-22.63107,-31.17198,3
1562003734.262623,33,0,0,1562003728.860692,4.634788573009422,-74.15103087310237,2563.844,-1,-1,10,65,-9999,1562003734.250487,-20.09967422485352,15.46897792816162,12.8980712890625,46.40181350708008,53.89578247070312,15,10223.37785591667,-0.8341064453125,0.0465850830078125,-0.537139892578125,10223.37785591667,0.03469086899159017,-0.06211610189722617,0.01736354399120763,10223.37636091667,-21.21926879882812,26.36119079589844,-527.3712158203125,10223.37278991667,-1.915916100225255,-1.006037363811273,-0.05218883912998162,0.02075310051441193,-0.05893101543188095,0.01434005051851273,0.01098698377609253,-0.00275719165802002,0.003111422061920166,1,0.407358705997467,0.2584900856018066,0.7092131376266479,-0.5140607953071594,-0.8435675501823425,0.05216515064239502,-0.5344834923744202,0,0,0,-1,10223.02696491667,3,2,1562003733.900957,1562003626.666006,7,1.998636,0,0,7.126037,0,0,1562003731.965387,10220.436245,0,-0.8295898,75.30783,3232235528,182473588,1,1,0.31,-22.63107,-31.17198,3
1562003734.282392,34,0,0,1562003728.860692,4.634788573009422,-74.15103087310237,2563.844,-1,-1,10,65,-9999,1562003734.274429,-20.07079696655273,15.74071598052979,12.96990966796875,46.3543815612793,53.84835052490234,15,10223.39811991667,-0.8388519287109375,0.0409393310546875,-0.546478271484375,10223.39811991667,0.06474384294480735,-0.08641931105696227,0.01993642392033318,10223.39647191667,-21.09515380859375,26.20005798339844,-527.40576171875,10223.39305391667,-1.915044229066379,-1.007479614883162,-0.05194885052511596,0.05867038667201996,-0.08623986691236496,0.01547961682081223,0.00866997241973877,-0.009597599506378174,-0.009970426559448242,1,0.4076979458332062,0.2591252624988556,0.7087306380271912,-0.5141373872756958,-0.8443480134010315,0.05192548781633377,-0.5332729816436768,0,0,0,-1,10223.02696491667,3,2,1562003733.900957,1562003626.666006,7,1.998636,0,0,7.126037,0,0,1562003731.965387,10220.436245,0,-0.8295898,75.30783,3232235528,182473588,1,1,0.31,-22.63107,-31.41612,3
1562003734.316665,35,0,0,1562003728.860692,4.634788573009422,-74.15103087310237,2563.844,-1,-1,10,65,-9999,1562003734.300922,-20.01706314086914,15.64803791046143,12.9830322265625,46.27261734008789,53.76658630371094,15,10223.41838291667,-0.84600830078125,0.048095703125,-0.54498291015625,10223.41838291667,0.03342347062882146,-0.08226078501480354,0.0193960685351561,10223.41655191667,-21.0919189453125,26.19232177734375,-527.32080078125,10223.41331791667,-1.913877463429951,-1.009329270012968,-0.05161821690038629,0.04449358209967613,-0.09325356781482697,0.01661199331283569,0.004725456237792969,-0.008123010396957397,-0.01520133018493652,1,0.4081200659275055,0.2599582672119141,0.7081024646759033,-0.5142475366592407,-0.8453474640846252,0.0515952967107296,-0.531719446182251,0,0,0,-1,10223.02696491667,3,2,1562003733.900957,1562003626.666006,7,1.998636,0,0,7.126037,0,0,1562003731.965387,10220.436245,0,-0.8295898,75.30783,3232235528,182473588,1,1,0.31,-22.63107,-32.13401,3
1562003734.323005,36,0,0,1562003728.860692,4.634788573009422,-74.15103087310237,2563.844,-1,-1,10,65,-9999,1562003734.300922,-20.01706314086914,15.64803791046143,12.9830322265625,46.27261734008789,53.76658630371094,15,10223.43864691667,-0.8666229248046875,0.0461883544921875,-0.5420379638671875,10223.43864691667,-0.02775439961636979,-0.09153178140158738,0.03467009633508755,10223.43663291667,-20.99008178710938,26.44200134277344,-527.74072265625,10223.43358091667,-1.913387696763488,-1.01106873926831,-0.05172199888911177,-0.014578259550035,-0.09184102714061737,0.0253442320972681,-0.009431004524230957,-0.003237038850784302,-0.01104491949081421,1,0.4086975753307343,0.260468065738678,0.7076059579849243,-0.5142145156860352,-0.8462666273117065,0.05169894173741341,-0.5302453637123108,0,0,0,-1,10223.02696491667,3,2,1562003733.900957,1562003626.666006,7,1.998636,0,0,7.126037,0,0,1562003731.965387,10220.436245,0,-0.8295898,75.30783,3232235528,182473588,1,1,0.31,-22.63107,-32.13401,3
1562003734.343274,37,0,0,1562003728.860692,4.634788573009422,-74.15103087310237,2563.844,-1,-1,10,65,-9999,1562003734.325377,-19.92812728881836,15.86188220977783,12.725830078125,46.25189971923828,53.74586868286133,15,10223.45891091667,-0.8911590576171875,0.0339202880859375,-0.5454254150390625,10223.45891091667,-0.06673082743411547,-0.1410181081452218,0.07246514589327409,10223.45674391667,-21.23664855957031,26.36965942382812,-527.5054931640625,10223.45384491667,-1.91360411452324,-1.013269280279699,-0.05288707811584162,-0.06295164674520493,-0.1330931335687637,0.06429748982191086,-0.03135877847671509,-0.01100757718086243,-0.01597720384597778,1,0.4097914695739746,0.2605689167976379,0.7070377469062805,-0.5140743255615234,-0.8473796844482422,0.05286242812871933,-0.5283495783805847,0,0,0,-1,10223.02696491667,3,2,1562003733.900957,1562003626.666006,7,1.998636,0,0,7.126037,0,0,1562003731.965387,10220.436245,0,-0.8295898,75.30783,3232235528,182473588,1,1,0.31,-22.63107,-32.37626,3
1562003734.363986,38,0,0,1562003728.860692,4.634788573009422,-74.15103087310237,2563.844,-1,-1,10,65,-9999,1562003734.351442,-20.0792350769043,15.84499263763428,12.82928466796875,46.2778434753418,53.77181243896484,15,10223.479163625,-0.90350341796875,0.0058135986328125,-0.546875,10223.479163625,-0.04129630744331371,-0.2016175398016478,0.04336478466197825,10223.476844625,-20.8582763671875,26.47958374023438,-527.365234375,10223.474128625,-1.914060334107745,-1.016445018688579,-0.05469607798680592,-0.05873799696564674,-0.18672014772892,0.05068394541740417,-0.05711150169372559,-0.03330650925636292,-0.02304035425186157,1,0.4114184975624084,0.2606385946273804,0.7062325477600098,-0.5138462781906128,-0.8489705920219421,0.05466881021857262,-0.5256046652793884,0,0,0,-1,10223.02696491667,3,2,1562003733.900957,1562003626.666006,7,1.998636,0,0,7.126037,0,0,1562003731.965387,10220.436245,0,-0.8295898,75.30783,3232235528,182473588,1,1,0.31,-22.63107,-30.19804,3
1562003734.406966,39,0,0,1562003728.860692,4.634788573009422,-74.15103087310237,2563.844,-1,-1,10,65,-9999,1562003734.402126,-19.57532119750977,15.8643045425415,13.2344970703125,46.12753677368164,53.62150573730469,15,10223.499427625,-0.9001312255859375,-0.0328216552734375,-0.5187835693359375,10223.499427625,0.08393511439213636,-0.3472770050946597,0.0206967564115508,10223.496955625,-20.72808837890625,26.50715637207031,-527.3370361328125,10223.494391625,-1.913872413641433,-1.02135906349218,-0.05535748654706376,0.05067131668329239,-0.3172541856765747,0.01753158122301102,-0.05351716279983521,-0.06723108887672424,-0.01167356967926025,1,0.4132903814315796,0.261700838804245,0.705071747303009,-0.5133980512619019,-0.8515121340751648,0.05532921850681305,-0.5214074850082397,0,0,0,-1,10223.02696491667,3,2,1562003733.900957,1562003626.666006,7,1.998636,0,0,7.126037,0,0,1562003731.965387,10220.436245,0,-0.8295898,75.30783,3232235528,182473588,1,1,0.31,-22.63107,-31.34098,3
1562003734.409445,40,0,0,1562003728.860692,4.634788573009422,-74.15103087310237,2563.844,-1,-1,10,65,-9999,1562003734.402126,-19.57532119750977,15.8643045425415,13.2344970703125,46.12753677368164,53.62150573730469,15,10223.519690625,-0.894317626953125,-0.083251953125,-0.4989776611328125,10223.519690625,0.20182633163111,-0.470232223146419,0.05124907306915784,10223.517035625,-20.64810180664062,26.37858581542969,-527.064697265625,10223.514624625,-1.911597632792501,-1.028984794924235,-0.05457400812770671,0.1766593307256699,-0.4437969326972961,0.04381884634494781,-0.03509420156478882,-0.1127897202968597,0.01093858480453491,1,0.4154832363128662,0.2644108831882477,0.7030263543128967,-0.5130442380905151,-0.8555002808570862,0.05454692244529724,-0.5149211287498474,0,0,0,-1,10223.02696491667,3,2,1562003733.900957,1562003626.666006,7,1.998636,0,0,7.126037,0,0,1562003731.965387,10220.436245,0,-0.8295898,75.30783,3232235528,182473588,1,1,0.31,-22.63107,-31.34098,3
1562003734.424299,41,0,0,1562003728.860692,4.634788573009422,-74.15103087310237,2563.844,-1,-1,10,65,-9999,1562003734.402126,-19.57532119750977,15.8643045425415,13.2344970703125,46.12753677368164,53.62150573730469,15,10223.539954625,-0.9778594970703125,-0.133819580078125,-0.5141143798828125,10223.539954625,0.2915058844945473,-0.500815432472671,-0.01690627923204102,10223.537146625,-20.51274108886719,26.40643310546875,-526.899169921875,10223.534888625,-1.907315570885893,-1.038933560697375,-0.05289746552993491,0.2657559216022491,-0.5118915438652039,0.01115464325994253,-0.05721884965896606,-0.157319188117981,-0.003579437732696533,1,0.4179908037185669,0.26845583319664,0.7001103758811951,-0.512894332408905,-0.8606583476066589,0.05287279933691025,-0.5064303278923035,0,0,0,-1,10223.02696491667,3,2,1562003733.900957,1562003626.666006,7,1.998636,0,0,7.126037,0,0,1562003731.965387,10220.436245,0,-0.8295898,75.30783,3232235528,182473588,1,1,0.31,-22.63107,-31.34098,3
1562003734.444556,42,0,0,1562003728.860692,4.634788573009422,-74.15103087310237,2563.844,-1,-1,10,65,-9999,1562003734.426669,-19.5125617980957,15.90293979644775,13.42254638671875,45.80617523193359,53.30014419555664,15,10223.560218625,-1.0625,-0.2449798583984375,-0.5313873291015625,10223.560218625,0.2696967256956704,-0.4419763502967873,-0.01865704133265911,10223.557227625,-20.65289306640625,26.4267578125,-526.8167114257812,10223.555152625,-1.902432709934023,-1.048689774520658,-0.04938211214330476,0.2837730050086975,-0.4815714955329895,-0.03013047948479652,-0.1431667804718018,-0.2410582005977631,-0.01163595914840698,1,0.4198733568191528,0.273233950138092,0.6973544359207153,-0.5125877261161804,-0.8657138347625732,0.04936204478144646,-0.498099148273468,0,0,0,-1,10223.02696491667,3,2,1562003733.900957,1562003626.666006,7,1.998636,0,0,7.126037,0,0,1562003731.965387,10220.436245,0,-0.8295898,75.30783,3232235528,182473588,1,1,0.31,-22.63107,-31.80875,3
1562003734.48722,43,0,0,1562003728.860692,4.634788573009422,-74.15103087310237,2563.844,-1,-1,10,65,-9999,1562003734.477314,-19.52933883666992,15.78403186798096,13.5494384765625,45.25576782226562,52.74973678588867,15,10223.580481625,-1.08502197265625,-0.3713226318359375,-0.520477294921875,10223.580481625,0.2946611977540732,-0.312871893288035,-0.2246142021305911,10223.577338625,-20.6763916015625,26.31632995605469,-526.7711181640625,10223.575415625,-1.898272117996778,-1.056619084178308,-0.04574892621032457,0.2736415565013885,-0.3273323774337769,-0.143065020442009,-0.2263741493225098,-0.3448967933654785,-0.03758084774017334,1,0.4211654663085938,0.277430385351181,0.6951822638511658,-0.5122242569923401,-0.8697866797447205,0.04573296755552292,-0.4913040697574615,0,0,0,-1,10223.02696491667,3,2,1562003733.900957,1562003626.666006,7,1.998636,0,0,7.126037,0,0,1562003731.965387,10220.436245,0,-0.8295898,75.30783,3232235528,182473588,1,1,0.31,-22.63107,-32.40632,3
1562003734.489611,44,0,0,1562003728.860692,4.634788573009422,-74.15103087310237,2563.844,-1,-1,10,65,-9999,1562003734.477314,-19.52933883666992,15.78403186798096,13.5494384765625,45.25576782226562,52.74973678588867,15,10223.600745625,-1.120651245117188,-0.5279083251953125,-0.5191802978515625,10223.600745625,0.4277476132247119,-0.2925186846571045,-0.5840259007321967,10223.597419625,-20.40603637695312,26.3837890625,-526.813232421875,10223.595679625,-1.895675293091154,-1.062756763989661,-0.03680864809676983,0.3952896893024445,-0.2951377034187317,-0.5060051679611206,-0.2167052030563354,-0.495967835187912,-0.03194582462310791,1,0.4207243025302887,0.2827068269252777,0.6946077942848206,-0.5104780793190002,-0.8731080293655396,0.03680033609271049,-0.4861358106136322,0,0,0,-1,10223.02696491667,3,2,1562003733.900957,1562003626.666006,7,1.998636,0,0,7.126037,0,0,1562003731.965387,10220.436245,0,-0.8295898,75.30783,3232235528,182473588,1,1,0.31,-22.63107,-32.40632,3
1562003734.505428,45,0,0,1562003728.860692,4.634788573009422,-74.15103087310237,2563.844,-1,-1,10,65,-9999,1562003734.503636,-19.63235473632812,15.82201290130615,13.42291259765625,45.20097351074219,52.69494247436523,15,10223.621009625,-1.230117797851562,-0.624542236328125,-0.5975341796875,10223.621009625,0.279764539880606,-0.1099408824367601,-0.9255291725835647,10223.617530625,-20.812744140625,26.29716491699219,-526.9913330078125,10223.615943625,-1.894830570092844,-1.068785202236261,-0.02073664275424033,0.389605700969696,-0.2673827707767487,-0.8504850268363953,-0.2862762808799744,-0.5989974737167358,-0.05793070793151855,1,0.4187069833278656,0.290071427822113,0.6955910921096802,-0.5066518783569336,-0.8764281868934631,0.02073515579104424,-0.4810860455036163,0,0,0,-1,10223.02696491667,3,2,1562003733.900957,1562003626.666006,7,1.998636,0,0,7.126037,0,0,1562003731.965387,10220.436245,0,-0.8295898,75.30783,3232235528,182473588,1,1,0.31,-22.63107,-32.53454,3
1562003734.526264,46,0,0,1562003728.860692,4.634788573009422,-74.15103087310237,2563.844,-1,-1,10,65,-9999,1562003734.503636,-19.63235473632812,15.82201290130615,13.42291259765625,45.20097351074219,52.69494247436523,15,10223.641242625,-1.285873413085938,-0.690338134765625,-0.7049713134765625,10223.641242625,0.3062446169153729,0.1036965686288513,-1.526794247684062,10223.637610625,-20.91995239257812,25.74198913574219,-527.1043701171875,10223.636206625,-1.901168866287353,-1.069956531993804,0.001002956676525601,0.2321790605783463,0.09897392988204956,-1.393344044685364,-0.4405241012573242,-0.6717570424079895,-0.2204756736755371,1,0.4146198630332947,0.2966636419296265,0.7002056837081909,-0.4997929632663727,-0.8771791458129883,-0.001002956531010568,-0.480162113904953,0,0,0,-1,10223.02696491667,3,2,1562003733.900957,1562003626.666006,7,1.998636,0,0,7.126037,0,0,1562003731.965387,10220.436245,0,-0.8295898,75.30783,3232235528,182473588,1,1,0.31,-22.63107,-28.29892,3
1562003734.557832,47,0,0,1562003728.860692,4.634788573009422,-74.15103087310237,2563.844,-1,-1,10,65,-9999,1562003734.535667,-19.79952239990234,15.35830783843994,13.31341552734375,45.74312591552734,53.23709487915039,15,10223.661506625,-1.376068115234375,-0.716400146484375,-0.8109130859375,10223.661506625,0.6153875520450789,-0.005224855742626457,-2.081165317046009,10223.657721625,-21.75381469726562,25.16798400878906,-527.1063842773438,10223.656440625,-1.910601576852866,-1.068740076205043,0.03414157286914438,0.5240799188613892,-0.007945330813527107,-1.933109283447266,-0.4381859302520752,-0.677611231803894,-0.2455833554267883,1,0.4072940349578857,0.3060020506381989,0.7075777053833008,-0.4897021353244781,-0.8760840892791748,-0.03413493931293488,-0.4809486269950867,0,0,0,-1,10223.02696491667,3,2,1562003733.900957,1562003626.666006,7,1.998636,0,0,7.126037,0,0,1562003731.965387,10220.436245,0,-0.8295898,75.30783,3232235528,182473588,1,1,0.31,-22.63107,-28.71462,3
1562003734.566351,48,0,0,1562003728.860692,4.634788573009422,-74.15103087310237,2563.844,-1,-1,10,65,-9999,1562003734.535667,-19.79952239990234,15.35830783843994,13.31341552734375,45.74312591552734,53.23709487915039,15,10223.681769625,-1.409393310546875,-0.698333740234375,-0.8815460205078125,10223.681769625,1.363298793622463,0.07661701403270763,-2.602020770405417,10223.677802625,-22.53311157226562,24.38754272460938,-527.7303466796875,10223.676703625,-1.918561796702637,-1.068005210718978,0.08093120185673289,1.117961645126343,0.04943007975816727,-2.472572088241577,-0.5357762575149536,-0.6299420595169067,-0.3838398456573486,1,0.3964113891124725,0.3204841315746307,0.7160301804542542,-0.4769158363342285,-0.8733729720115662,-0.08084288239479065,-0.480295866727829,0,0,0,-1,10223.02696491667,3,2,1562003733.900957,1562003626.666006,7,1.998636,0,0,7.126037,0,0,1562003731.965387,10220.436245,0,-0.8295898,75.30783,3232235528,182473588,1,1,0.31,-22.63107,-29.33881,3
1562003734.586391,49,0,0,1562003728.860692,4.634788573009422,-74.15103087310237,2563.844,-1,-1,10,65,-9999,1562003734.578448,-21.22003936767578,13.97757816314697,12.82049560546875,46.51210021972656,54.00606918334961,15,10223.702033625,-1.324676513671875,-0.6530914306640625,-0.8839569091796875,10223.702033625,2.28583404050856,0.2395247084417267,-3.157730344531237,10223.697913625,-22.92359924316406,23.61642456054688,-527.8761596679688,10223.696967625,-1.916869790827242,-1.066176283031053,0.1454900749251578,2.085861921310425,0.1773094683885574,-3.033145427703857,-0.4975984692573547,-0.5256006717681885,-0.4026755094528198,1,0.3787727057933807,0.3425605893135071,0.7241151332855225,-0.463509202003479,-0.86611008644104,-0.1449773460626602,-0.4783669710159302,0,0,0,-1,10223.02696491667,3,2,1562003733.900957,1562003626.666006,7,1.998636,0,0,7.126037,0,0,1562003734.559089,10220.436245,0,-0.8295898,75.30783,3232235528,182473588,1,1,0.31,-22.63107,-29.33881,3
1562003734.606703,50,0,0,1562003728.860692,4.634788573009422,-74.15103087310237,2563.844,-1,-1,10,65,-9999,1562003734.604705,-22.94355392456055,12.22300624847412,11.72650146484375,45.72453689575195,53.218505859375,15,10223.722297625,-1.2928466796875,-0.6669769287109375,-0.886077880859375,10223.722297625,2.834749358061371,0.2060498388038667,-3.5176581637521,10223.717994625,-24.26618957519531,22.51094055175781,-528.7564697265625,10223.717231625,-1.905576756082016,-1.063097922699672,0.2271259603343011,2.718546867370605,0.2598778605461121,-3.442144393920898,-0.450624942779541,-0.4346880912780762,-0.4138766527175903,1,0.3538556098937988,0.3714102208614349,0.7313330173492432,-0.4494359791278839,-0.8514227867126465,-0.2251782268285751,-0.4736813008785248,0,0,0,-1,10223.02696491667,3,2,1562003733.900957,1562003626.666006,7,1.998636,0,0,7.126037,0,0,1562003734.559089,10220.436245,0,-0.8295898,75.30783,3232235528,182473588,1,1,0.31,-22.63107,-29.68156,3
1562003734.647269,51,0,0,1562003728.860692,4.634788573009422,-74.15103087310237,2563.844,-1,-1,10,65,-9999,1562003734.629313,-23.76940536499023,11.06858921051025,10.94464111328125,44.42936325073242,51.92333221435547,15,10223.742560625,-1.2215576171875,-0.6896514892578125,-0.8225555419921875,10223.742560625,3.202402741288445,-0.121667579664706,-3.844912192190999,10223.738105625,-25.03425598144531,21.39511108398438,-529.6063232421875,10223.737494625,-1.888481474201807,-1.065210677280271,0.3197965580040882,3.119503974914551,-0.03227437287569046,-3.768071889877319,-0.4328790307044983,-0.3582645058631897,-0.3968943357467651,1,0.325653463602066,0.40505251288414,0.7363527417182922,-0.4332053065299988,-0.8305334448814392,-0.3143734335899353,-0.4597645699977875,0,0,0,-1,10223.02696491667,3,2,1562003733.900957,1562003626.666006,7,1.998636,0,0,7.126037,0,0,1562003734.559089,10220.436245,0,-0.8295898,75.30783,3232235528,182473588,1,1,0.31,-22.63107,-30.04115,3
1562003734.649713,52,0,0,1562003728.860692,4.634788573009422,-74.15103087310237,2563.844,-1,-1,10,65,-9999,1562003734.629313,-23.76940536499023,11.06858921051025,10.94464111328125,44.42936325073242,51.92333221435547,15,10223.762824625,-1.18328857421875,-0.7058868408203125,-0.7902679443359375,10223.762824625,3.492531771499421,-0.3991998579196075,-4.157612311588724,10223.758185625,-25.57591247558594,20.01646423339844,-530.1397705078125,10223.757758625,-1.866903237068616,-1.077445402208393,0.4213605265289715,3.421949148178101,-0.3757111132144928,-4.074806690216064,-0.390941858291626,-0.2975100874900818,-0.3743764162063599,1,0.2963851988315582,0.4428059458732605,0.7384401559829712,-0.4132612347602844,-0.8037145137786865,-0.4090023636817932,-0.432157427072525,0,0,0,-1,10223.02696491667,3,2,1562003733.900957,1562003626.666006,7,1.998636,0,0,7.126037,0,0,1562003734.559089,10220.436245,0,-0.8295898,75.30783,3232235528,182473588,1,1,0.31,-22.63107,-30.04115,3
1562003734.667482,53,0,0,1562003728.860692,4.634788573009422,-74.15103087310237,2563.844,-1,-1,10,65,-9999,1562003734.655861,-24.38487243652344,9.792994499206543,10.3138427734375,42.72048950195312,50.21445846557617,15,10223.783057625,-1.138671875,-0.68603515625,-0.745269775390625,10223.762824625,3.492531771499421,-0.3991998579196075,-4.157612311588724,10223.778296625,-26.81411743164062,18.59834289550781,-530.5202026367188,10223.778022625,-1.840874351114095,-1.097511292619186,0.5311418334398753,3.578354835510254,-0.3833778202533722,-4.474561214447021,-0.4027929306030273,-0.1852084398269653,-0.3724726438522339,1,0.265010803937912,0.4829717874526978,0.7381013035774231,-0.3895049095153809,-0.7674493789672852,-0.5065181851387024,-0.393015056848526,0,0,0,-1,10223.02696491667,3,2,1562003733.900957,1562003626.666006,7,1.998636,0,0,7.126037,0,0,1562003734.559089,10220.436245,0,-0.8295898,75.30783,3232235528,182473588,1,1,0.31,-22.63107,-30.27249,3
1562003734.68773,54,0,0,1562003728.860692,4.634788573009422,-74.15103087310237,2563.844,-1,-1,10,65,-9999,1562003734.679821,-25.49473571777344,8.414633750915527,9.985107421875,40.86249542236328,48.35646438598633,15,10223.803321625,-1.060714721679688,-0.68597412109375,-0.7373199462890625,10223.803321625,3.244296928396481,-0.2886184852406834,-4.746155732478022,10223.798377625,-27.4271240234375,16.61163330078125,-530.9894409179688,10223.798285625,-1.815650311520036,-1.118087327940183,0.6465194107553687,3.318427562713623,-0.2906936705112457,-4.731071472167969,-0.382881760597229,-0.08203631639480591,-0.3901289701461792,1,0.2306296229362488,0.5217715501785278,0.7372624278068542,-0.3619509339332581,-0.7177805304527283,-0.6024119257926941,-0.3491288423538208,0,0,0,-1,10223.02696491667,3,2,1562003733.900957,1562003626.666006,7,1.998636,0,0,7.126037,0,0,1562003734.559089,10221.37996,0,-0.8562012,75.30809,3232235528,182473588,1,1,0.31,-22.63107,-29.44222,3
1562003734.72672,55,0,0,1562003728.860692,4.634788573009422,-74.15103087310237,2563.844,-1,-1,10,65,-9999,1562003734.70612,-26.63400650024414,4.43912410736084,9.46466064453125,39.25500106811523,46.74897003173828,15,10223.823584625,-0.911773681640625,-0.677886962890625,-0.686614990234375,10223.823584625,3.011254886680225,-0.3550156185902119,-4.722209653220466,10223.818488625,-27.74081420898438,14.6292724609375,-530.897705078125,10223.818518625,-1.793353988547507,-1.138788389293804,0.7609050120049918,3.061095714569092,-0.3445300161838531,-4.743271827697754,-0.3379136323928833,0.01141548156738281,-0.4093766212463379,1,0.1958524584770203,0.5568031668663025,0.7359127998352051,-0.3317293226718903,-0.6576765179634094,-0.6895771622657776,-0.3032240867614746,0,0,0,-1,10223.02696491667,3,2,1562003733.900957,1562003626.666006,7,1.998636,0,0,7.126037,0,0,1562003734.559089,10221.37996,0,-0.8562012,75.30809,3232235528,182473588,1,1,0.31,-23.18835,-29.4885,3
1562003734.729434,56,0,0,1562003728.860692,4.634788573009422,-74.15103087310237,2563.844,-1,-1,10,65,-9999,1562003734.70612,-26.63400650024414,4.43912410736084,9.46466064453125,39.25500106811523,46.74897003173828,15,10223.843848625,-0.733428955078125,-0.678131103515625,-0.6308441162109375,10223.843848625,2.855780341189726,-0.2738350117135445,-4.614410218616238,10223.838569625,-28.134521484375,12.29122924804688,-531.2734375,10223.838782625,-1.769927755433575,-1.163024271485665,0.8723261676158695,2.878922939300537,-0.3245256841182709,-4.642943382263184,-0.2319750189781189,0.08130234479904175,-0.4108074307441711,1,0.1617153435945511,0.5885093212127686,0.7331106662750244,-0.3000892698764801,-0.5903211236000061,-0.7658268213272095,-0.2550098598003387,0,0,0,-1,10223.02696491667,3,2,1562003733.900957,1562003626.666006,7,1.998636,0,0,7.126037,0,0,1562003734.559089,10221.37996,0,-0.8562012,75.30809,3232235528,182473588,1,1,0.31,-23.74563,-29.8867,3
1562003734.748543,57,0,0,1562003728.860692,4.634788573009422,-74.15103087310237,2563.844,-1,-1,10,65,-9999,1562003734.730629,-26.98184967041016,2.168853759765625,9.1817626953125,37.5168342590332,45.01080322265625,15,10223.864112625,-0.5322113037109375,-0.6559295654296875,-0.484466552734375,10223.864112625,2.811885054838604,-0.09720431452345617,-4.558325111323605,10223.858680625,-28.33915710449219,10.18266296386719,-531.2149047851562,10223.859046625,-1.741016452371913,-1.190646984506175,0.9806286674881841,2.817101716995239,-0.1186396181583405,-4.584641456604004,-0.1244638562202454,0.1669527888298035,-0.3634059429168701,1,0.1270206868648529,0.616942822933197,0.7286982536315918,-0.2687866389751434,-0.5167714953422546,-0.8308473825454712,-0.2064945995807648,0,0,0,-1,10223.02696491667,3,2,1562003733.900957,1562003626.666006,7,1.998636,0,0,7.126037,0,0,1562003734.559089,10221.37996,0,-0.8562012,75.30809,3232235528,182473588,1,1,0.31,-23.74563,-29.8867,3
1562003734.769417,58,0,0,1562003728.860692,4.634788573009422,-74.15103087310237,2563.844,-1,-1,10,65,-9999,1562003734.757163,-27.17520141601562,0.1119098663330078,9.20233154296875,35.11146545410156,42.60543441772461,15,10223.884375625,-0.358551025390625,-0.6629180908203125,-0.309326171875,10223.884375625,2.746986748550572,-0.1615473517242066,-4.286099181540687,10223.878760625,-27.82124328613281,8.066940307617188,-531.2025756835938,10223.879309625,-1.700390258272388,-1.227938908178526,1.086081011851795,2.776837348937988,-0.1413231045007706,-4.373334884643555,0.004205822944641113,0.2260552048683167,-0.2390305399894714,1,0.09192917495965958,0.6428269147872925,0.7222583889961243,-0.2380453646183014,-0.4388371706008911,-0.8848076462745667,-0.1566451638936996,0,0,0,-1,10223.02696491667,3,2,1562003733.900957,1562003626.666006,7,1.998636,0,0,7.126037,0,0,1562003734.559089,10221.37996,0,-0.8562012,75.30809,3232235528,182473588,1,1,0.31,-24.30291,-30.02181,3
1562003734.807534,59,0,0,1562003728.860692,4.634788573009422,-74.15103087310237,2563.844,-1,-1,10,65,-9999,1562003734.781096,-26.77663040161133,-2.04529857635498,9.16461181640625,105.6022186279297,113.09619140625,15,10223.904639625,-0.215972900390625,-0.63946533203125,-0.1647491455078125,10223.904639625,2.397056702377976,-0.2377486463107528,-3.909998517651991,10223.898841625,-27.37892150878906,6.24322509765625,-530.797607421875,10223.899573625,-1.640436358704135,-1.286373281318471,1.183808429441994,2.515641689300537,-0.2448396384716034,-4.015318393707275,0.08179682493209839,0.2747591137886047,-0.1216695308685303,1,0.05946667864918709,0.6659682393074036,0.7138586640357971,-0.2082205265760422,-0.3622381091117859,-0.9260500073432922,-0.1059000343084335,0,0,0,-1,10223.02696491667,3,2,1562003733.900957,1562003626.666006,7,1.998636,0,0,7.126037,0,0,1562003734.559089,10221.37996,0,-0.8562012,75.30809,3232235528,182473588,1,1,0.31,-24.63795,-30.69777,3
1562003734.810157,60,0,0,1562003728.860692,4.634788573009422,-74.15103087310237,2563.844,-1,-1,10,65,-9999,1562003734.807869,-25.81550979614258,-5.711081504821777,9.77581787109375,104.7931137084961,112.2870864868164,15,10223.924872625,-0.1462554931640625,-0.58349609375,-0.0538482666015625,10223.924872625,1.716250462367863,-0.03329084520653552,-3.718520164752493,10223.918952625,-26.74183654785156,4.559478759765625,-530.5471801757812,10223.919837625,-1.566471000449232,-1.360159470150433,1.270595958380812,1.917580008506775,-0.1133865341544151,-3.742867231369019,0.104254275560379,0.3299263119697571,-0.0535740852355957,1,0.03017530031502247,0.6842334270477295,0.7060098648071289,-0.1801778525114059,-0.2891755402088165,-0.9552772641181946,-0.0618281364440918,0,0,0,-1,10223.02696491667,3,2,1562003733.900957,1562003626.666006,7,1.998636,0,0,7.126037,0,0,1562003734.559089,10221.37996,0,-0.8562012,75.30809,3232235528,182473588,1,1,0.31,-24.63795,-30.69777,3
1562003734.829576,61,0,0,1562003728.860692,4.634788573009422,-74.15103087310237,2563.844,-1,-1,10,65,-9999,1562003734.807869,-25.81550979614258,-5.711081504821777,9.77581787109375,104.7931137084961,112.2870864868164,15,10223.945136625,-0.032989501953125,-0.5781097412109375,0.03631591796875,10223.945136625,0.5708483133423757,0.3720888780226009,-3.551713602507597,10223.939032625,-26.33740234375,2.774261474609375,-530.5454711914062,10223.940100625,-1.506724647680722,-1.41639536178233,1.34962391540289,0.9002194404602051,0.2840228676795959,-3.626853942871094,0.1366861760616302,0.4033600091934204,0.04116815328598022,1,0.001339925220236182,0.6950752735137939,0.702121913433075,-0.1545751392841339,-0.2167643010616302,-0.9756409525871277,-0.03373713791370392,0,0,0,-1,10223.02696491667,3,2,1562003733.900957,1562003626.666006,7,1.998636,0,0,7.126037,0,0,1562003734.559089,10221.37996,0,-0.8562012,75.30809,3232235528,182473588,1,1,0.31,-24.63739,-31.14894,3
1562003734.849819,62,0,0,1562003728.860692,4.634788573009422,-74.15103087310237,2563.844,-1,-1,10,65,-9999,1562003734.831899,-25.351806640625,-7.383777141571045,9.8623046875,104.1408233642578,111.6347961425781,15,10223.965400625,0.080535888671875,-0.4984283447265625,0.026092529296875,10223.965400625,-0.5276220130570816,0.3511066307421936,-3.032795066209004,10223.959143625,-26.04328918457031,0.8272857666015625,-531.0845947265625,10223.960334625,-1.544926152467458,-1.370936054754687,1.418975000592506,-0.3230564594268799,0.3921394944190979,-3.189119100570679,0.1637322008609772,0.431948184967041,0.06057411432266235,1,-0.02598684467375278,0.6959250569343567,0.7052436470985413,-0.1328328251838684,-0.1482292711734772,-0.988497257232666,-0.03002599813044071,0,0,0,-1,10223.02696491667,3,2,1562003733.900957,1562003626.666006,7,1.998636,0,0,7.126037,0,0,1562003734.559089,10221.37996,0,-0.8562012,75.30809,3232235528,182473588,1,1,0.31,-24.18839,-26.90754,3
1562003734.887142,63,0,0,1562003728.860692,4.634788573009422,-74.15103087310237,2563.844,-1,-1,10,65,-9999,1562003734.858073,-25.01895523071289,-9.237334251403809,9.45391845703125,103.6532287597656,111.1472015380859,15,10223.985663625,0.1862030029296875,-0.3968048095703125,0.0358428955078125,10223.985663625,-0.9773159378768095,0.0839801218145587,-2.387544157280322,10223.979224625,-25.44088745117188,-0.7646484375,-530.8350219726562,10223.980597625,-1.795116890591635,-1.116897814738036,1.470281004671302,-0.9034745693206787,0.1531242430210114,-2.558175325393677,0.2308563888072968,0.5525239706039429,0.0784839391708374,1,-0.04738807678222656,0.6897498369216919,0.7133828401565552,-0.1143873333930969,-0.09018560498952866,-0.9949525594711304,-0.04399906471371651,0,0,0,-1,10223.02696491667,3,2,1562003733.900957,1562003626.666006,7,1.998636,0,0,7.126037,0,0,1562003734.559089,10221.37996,0,-0.8562012,75.30809,3232235528,182473588,1,1,0.31,-24.18839,-27.33673,3
1562003734.890355,64,0,0,1562003728.860692,4.634788573009422,-74.15103087310237,2563.844,-1,-1,10,65,-9999,1562003734.882767,-24.39941787719727,-10.89641284942627,9.51031494140625,103.6826400756836,111.1766128540039,15,10224.005927625,0.206512451171875,-0.31610107421875,-0.0077972412109375,10224.005927625,-1.198289598797262,-0.4971482596516319,-1.863381057847035,10223.999305625,-24.70877075195312,-1.7646484375,-531.1639404296875,10224.000861625,-2.308424756406434,-0.6066431195429304,1.491645106343859,-1.15729033946991,-0.341366708278656,-1.957736849784851,0.2538484930992126,0.6424685120582581,0.08035582304000854,1,-0.06140924245119095,0.6809912323951721,0.7230607867240906,-0.09830006211996078,-0.04507772997021675,-0.9968692064285278,-0.06495968997478485,0,0,0,-1,10223.02696491667,3,2,1562003733.900957,1562003626.666006,7,1.998636,0,0,7.126037,0,0,1562003734.559089,10221.37996,0,-0.8562012,75.30809,3232235528,182473588,1,1,0.31,-24.18839,-27.33673,3
1562003734.910656,65,0,0,1562003728.860692,4.634788573009422,-74.15103087310237,2563.844,-1,-1,10,65,-9999,1562003734.908625,-23.1685791015625,-13.29178047180176,9.1343994140625,104.5575408935547,112.051513671875,15,10224.026191625,0.1531829833984375,-0.2798309326171875,-0.0479736328125,10224.026191625,-1.348568317001017,-0.6527077599809042,-1.702652361841919,10224.019416625,-24.21083068847656,-2.992050170898438,-531.2327270507812,10224.021125625,-2.826176602818313,-0.102687886755654,1.480757813019333,-1.293228983879089,-0.7134385108947754,-1.741286039352417,0.1901406347751617,0.714165210723877,0.06614309549331665,1,-0.06838873028755188,0.6712684631347656,0.7335281372070312,-0.0815972164273262,-0.009217159822583199,-0.9959492683410645,-0.08944326639175415,0,0,0,-1,10223.02696491667,3,2,1562003733.900957,1562003626.666006,7,1.998636,0,0,7.126037,0,0,1562003734.559089,10221.37996,0,-0.8562012,75.30809,3232235528,182473588,1,1,0.31,-23.1055,-27.52761,3
1562003734.93083,66,0,0,1562003728.860692,4.634788573009422,-74.15103087310237,2563.844,-1,-1,10,65,-9999,1562003734.908625,-23.1685791015625,-13.29178047180176,9.1343994140625,104.5575408935547,112.051513671875,15,10224.046454625,0.1122589111328125,-0.334625244140625,-0.150482177734375,10224.046454625,-1.85554923371333,0.004608600266382122,-1.232481125084463,10224.039496625,-23.59681701660156,-3.975250244140625,-531.3305053710938,10224.041388625,-3.126369850831142,0.185598020174469,1.449409098308612,-1.708325028419495,-0.1897473633289337,-1.408476948738098,0.1126186326146126,0.6770135760307312,0.02469635009765625,1,-0.0744004026055336,0.659514307975769,0.7449852228164673,-0.06710168719291687,0.02234535478055477,-0.9926416277885437,-0.1190109178423882,0,0,0,-1,10223.02696491667,3,2,1562003733.900957,1562003626.666006,7,1.998636,0,0,7.126037,0,0,1562003734.559089,10221.37996,0,-0.8562012,75.30809,3232235528,182473588,1,1,0.31,-22.16078,-26.5234,3
1562003734.968067,67,0,0,1562003728.860692,4.634788573009422,-74.15103087310237,2563.844,-1,-1,10,65,-9999,1562003734.962918,-22.28877258300781,-15.18738269805908,8.49224853515625,104.8936538696289,112.3876266479492,15,10224.066687625,0.064605712890625,-0.3311309814453125,-0.230438232421875,10224.066687625,-1.991925452078544,-0.01718058482431918,-0.6941838307977983,10224.059607625,-23.35322570800781,-4.913650512695312,-532.0661010742188,10224.061652625,3.070681032330509,0.2722995015412698,1.405930929647551,-2.077757835388184,0.1185702681541443,-0.7883755564689636,0.04283563792705536,0.6521661281585693,-0.04065787792205811,1,-0.08078211545944214,0.6437685489654541,0.7585036754608154,-0.0608973540365696,0.04413945972919464,-0.9864404797554016,-0.1580726057291031,0,0,0,-1,10223.02696491667,3,2,1562003733.900957,1562003626.666006,7,1.998636,0,0,7.126037,0,0,1562003734.559089,10221.37996,0,-0.8562012,75.30809,3232235528,182473588,1,1,0.31,-21.42192,-26.94063,3
1562003734.97181,68,0,0,1562003728.860692,4.634788573009422,-74.15103087310237,2563.844,-1,-1,10,65,-9999,1562003734.962918,-22.28877258300781,-15.18738269805908,8.49224853515625,104.8936538696289,112.3876266479492,15,10224.086951625,0.0326690673828125,-0.366943359375,-0.2101898193359375,10224.086951625,-0.7042649607881843,-1.125609535804019,-0.3135187751168153,10224.079688625,-22.81414794921875,-5.407516479492188,-532.2894897460938,10224.081916625,3.0580978640261,0.278746670141549,1.368827546651282,-1.137219667434692,-0.8462160229682922,-0.4268999397754669,-0.005435846745967865,0.6441022753715515,-0.03614866733551025,1,-0.08141205459833145,0.6300352811813354,0.770273745059967,-0.05573051422834396,0.05519475415349007,-0.9796735644340515,-0.1928552389144897,0,0,0,-1,10223.02696491667,3,2,1562003733.900957,1562003626.666006,7,1.998636,0,0,7.126037,0,0,1562003734.559089,10221.37996,0,-0.8562012,75.30809,3232235528,182473588,1,1,0.31,-21.42192,-26.94063,3
1562003734.991668,69,0,0,1562003728.860692,4.634788573009422,-74.15103087310237,2563.844,-1,-1,10,65,-9999,1562003734.984095,-21.83305740356445,-15.8068962097168,8.09906005859375,106.337760925293,113.8317337036133,15,10224.107215625,-0.0423126220703125,-0.54248046875,-0.174713134765625,10224.107215625,0.4150475306183421,-1.308420098303636,0.2353419476336482,10224.099799625,-22.4842529296875,-5.524948120117188,-531.7681274414062,10224.102149625,3.04990654840378,0.2616294595790531,1.361503347634426,0.3291671276092529,-1.388718366622925,0.0989777073264122,-0.04241839796304703,0.532255232334137,0.0221400260925293,1,-0.07266385108232498,0.6279894709587097,0.7734133005142212,-0.04670298099517822,0.05374041572213173,-0.978178083896637,-0.2006983757019043,0,0,0,-1,10223.02696491667,3,2,1562003733.900957,1562003626.666006,7,1.998636,0,0,7.126037,0,0,1562003734.559089,10221.37996,0,-0.8562012,75.30809,3232235528,182473588,1,1,0.31,-21.22878,-27.21469,3
1562003735.01191,70,0,0,1562003728.860692,4.634788573009422,-74.15103087310237,2563.844,-1,-1,10,65,-9999,1562003735.009917,-21.56294250488281,-15.97519683837891,8.8590087890625,108.0799713134766,115.5739440917969,15,10224.127478625,-0.220672607421875,-0.613616943359375,-0.2768707275390625,10224.127478625,-0.1903118883420434,-0.6962821354206717,0.4809655612877654,10224.119880625,-22.68109130859375,-5.442901611328125,-531.4395751953125,10224.122413625,3.073962911109404,0.2145081084778556,1.36842553654452,-0.01234440039843321,-0.8551756739616394,0.4561411440372467,-0.1530294120311737,0.3755736351013184,-0.04511469602584839,1,-0.06166000664234161,0.630876362323761,0.772311270236969,-0.04157452657818794,0.0427846647799015,-0.9795928001403809,-0.1963861137628555,0,0,0,-1,10223.02696491667,3,2,1562003733.900957,1562003626.666006,7,1.998636,0,0,7.126037,0,0,1562003734.559089,10221.37996,0,-0.8562012,75.30809,3232235528,182473588,1,1,0.31,-19.65698,-22.96892,3
1562003735.053956,71,0,0,1562003728.860692,4.634788573009422,-74.15103087310237,2563.844,-1,-1,10,65,-9999,1562003735.009917,-21.56294250488281,-15.97519683837891,8.8590087890625,108.0799713134766,115.5739440917969,15,10224.147742625,-0.3880157470703125,-0.624969482421875,-0.197540283203125,10224.147742625,-0.1073541540699662,-0.6324893073011317,0.5757586497602638,10224.139991625,-22.43310546875,-5.544265747070312,-531.166015625,10224.142676625,3.126796369451176,0.149964794678712,1.365299686452436,-0.2725983560085297,-0.5519667863845825,0.5276448726654053,-0.3506919741630554,0.3585373759269714,-0.04457443952560425,1,-0.05346905067563057,0.6294913291931152,0.7740522027015686,-0.04153303802013397,0.03048629872500896,-0.9789597392082214,-0.2017634510993958,0,0,0,-1,10223.02696491667,3,2,1562003733.900957,1562003626.666006,7,1.998636,0,0,7.126037,0,0,1562003734.559089,10221.37996,0,-0.8562012,75.30809,3232235528,182473588,1,1,0.31,-19.65698,-24.33537,3
1562003735.056327,72,0,0,1562003728.860692,4.634788573009422,-74.15103087310237,2563.844,-1,-1,10,65,-9999,1562003735.009917,-21.56294250488281,-15.97519683837891,8.8590087890625,108.0799713134766,115.5739440917969,15,10224.168006625,-0.401641845703125,-0.6541595458984375,-0.095428466796875,10224.168006625,0.9837381508455356,-1.053776091721311,0.924227153126625,10224.160071625,-22.85282897949219,-5.17474365234375,-530.9555053710938,10224.162940625,-3.092736774737316,0.07207108816808418,1.370137062105575,0.7166736125946045,-0.9984664916992188,0.827354907989502,-0.4235016405582428,0.3540351390838623,0.05489271879196167,1,-0.04333530738949776,0.631445050239563,0.7730854749679565,-0.0416911318898201,0.01435247529298067,-0.9799354076385498,-0.1987984031438828,0,0,0,-1,10223.02696491667,3,2,1562003733.900957,1562003626.666006,7,1.998636,0,0,7.126037,0,0,1562003734.559089,10221.37996,0,-0.8562012,75.30809,3232235528,182473588,1,1,0.31,-19.65698,-24.33537,3
1562003735.072721,73,0,0,1562003728.860692,4.634788573009422,-74.15103087310237,2563.844,-1,-1,10,65,-9999,1562003735.065055,-21.36567687988281,-16.0941104888916,9.1632080078125,108.9732513427734,116.4672241210938,15,10224.188269625,-0.421356201171875,-0.7060699462890625,-0.0920562744140625,10224.168006625,0.9837381508455356,-1.053776091721311,0.924227153126625,10224.180182625,-22.60700988769531,-4.620468139648438,-530.066162109375,10224.183204625,-2.985244268663202,-0.05475960370967551,1.39326261189049,1.362510681152344,-1.010510087013245,1.163060188293457,-0.3949514627456665,0.2947375774383545,0.0958017110824585,1,-0.02915585227310658,0.6410781145095825,0.7657505869865417,-0.04236461967229843,-0.009665839374065399,-0.9842822551727295,-0.1763375699520111,0,0,0,-1,10223.02696491667,3,2,1562003733.900957,1562003626.666006,7,1.998636,0,0,7.126037,0,0,1562003734.559089,10221.37996,0,-0.8562012,75.30809,3232235528,182473588,1,1,0.31,-19.65698,-24.33537,3
1562003735.092926,74,0,0,1562003728.860692,4.634788573009422,-74.15103087310237,2563.844,-1,-1,10,65,-9999,1562003735.065055,-21.36567687988281,-16.0941104888916,9.1632080078125,108.9732513427734,116.4672241210938,15,10224.208533625,-0.5092315673828125,-0.6920013427734375,-0.097259521484375,10224.208533625,0.8884478501975194,-0.8399578120176836,1.407513659304394,10224.200263625,-23.11158752441406,-4.16094970703125,-529.5380859375,10224.203467625,-2.811098940709526,-0.2452226693470452,1.414218963103869,1.012860774993896,-0.8644394874572754,1.349506735801697,-0.4183953404426575,0.2911725640296936,0.05004709959030151,1,-0.01434633042663336,0.6512735486030579,0.7573270797729492,-0.04574684798717499,-0.03785769641399384,-0.9877668023109436,-0.1512738913297653,0,0,0,-1,10223.02696491667,3,2,1562003733.900957,1562003626.666006,7,1.998636,0,0,7.126037,0,0,1562003734.559089,10221.37996,0,-0.8562012,75.30809,3232235528,182473588,1,1,0.31,-19.65698,-25.09699,3
1562003735.119657,75,0,0,1562003728.860692,4.634788573009422,-74.15103087310237,2563.844,-1,-1,10,65,-9999,1562003735.111399,-21.96009063720703,-14.18728256225586,11.234619140625,112.9078903198242,120.4018630981445,15,10224.228766625,-0.593841552734375,-0.7948455810546875,-0.03875732421875,10224.228766625,0.7004196224902189,-0.6737507273341654,1.556129766039612,10224.220374625,-23.10687255859375,-3.52581787109375,-528.9979248046875,10224.223731625,-2.593386116340243,-0.4767796598160673,1.41921720067496,0.6913082599639893,-0.7243358492851257,1.5382399559021,-0.4862755537033081,0.2571495771408081,0.06073474884033203,1,0.001077941386029124,0.6579656600952148,0.7512890100479126,-0.05142917856574059,-0.06929695606231689,-0.9885338544845581,-0.1341600567102432,0,0,0,-1,10223.02696491667,3,2,1562003733.900957,1562003626.666006,7,1.998636,0,0,7.126037,0,0,1562003734.559089,10221.37996,0,-0.8562012,75.30809,3232235528,182473588,1,1,0.31,-19.65698,-25.78974,3
1562003735.133644,76,0,0,1562003728.860692,4.634788573009422,-74.15103087310237,2563.844,-1,-1,10,65,-9999,1562003735.111399,-21.96009063720703,-14.18728256225586,11.234619140625,112.9078903198242,120.4018630981445,15,10224.249030625,-0.6480255126953125,-0.8791656494140625,-0.001312255859375,10224.249030625,0.8708193216778489,-0.5079473778719031,1.394982421111135,10224.240454625,-23.32249450683594,-2.5205078125,-528.4451904296875,10224.243964625,-2.371626040834026,-0.708784433448878,1.414325907037136,0.8206566572189331,-0.5494862794876099,1.455859780311584,-0.5223005414009094,0.1391353607177734,0.1059104204177856,1,0.01567700877785683,0.6637800335884094,0.7454480528831482,-0.05879973620176315,-0.1014329716563225,-0.9877834320068359,-0.1183005943894386,0,0,0,-1,10223.02696491667,3,2,1562003733.900957,1562003626.666006,7,1.998636,0,0,7.126037,0,0,1562003734.559089,10221.37996,0,-0.8562012,75.30809,3232235528,182473588,1,1,0.31,-19.65698,-26.34093,3
1562003735.153752,77,0,0,1562003728.860692,4.634788573009422,-74.15103087310237,2563.844,-1,-1,10,65,-9999,1562003735.135883,-22.21232223510742,-13.18637561798096,11.8370361328125,113.6744842529297,121.16845703125,15,10224.269294625,-0.640533447265625,-0.8953094482421875,-0.0225372314453125,10224.269294625,1.038421902772569,-0.5259021436251083,1.059173253986466,10224.260566625,-23.811767578125,-1.692398071289062,-528.2144165039062,10224.264228625,-2.172265111120416,-0.9159961009713511,1.407678028307842,0.9910448789596558,-0.5168896913528442,1.145472407341003,-0.5319588780403137,0.09333884716033936,0.09546619653701782,1,0.02782066352665424,0.6706536412239075,0.7383578419685364,-0.06540224701166153,-0.1288077235221863,-0.9867256879806519,-0.09889940917491913,0,0,0,-1,10223.02696491667,3,2,1562003733.900957,1562003626.666006,7,1.998636,0,0,7.126037,0,0,1562003734.559089,10221.37996,0,-0.8562012,75.30809,3232235528,182473588,1,1,0.31,-19.65698,-26.88953,3
1562003735.174026,78,0,0,1562003728.860692,4.634788573009422,-74.15103087310237,2563.844,-1,-1,10,65,-9999,1562003735.162334,-22.62864685058594,-12.39350509643555,12.094482421875,114.2385787963867,121.732551574707,15,10224.289557625,-0.554412841796875,-0.928924560546875,-0.0807037353515625,10224.289557625,1.291797179411579,-0.566957168673661,0.8179598350975201,10224.280677625,-23.86776733398438,-1.076614379882812,-527.6033935546875,10224.284491625,-1.993400457240265,-1.103430153507069,1.402721422444369,1.225715279579163,-0.569362998008728,0.8439047932624817,-0.4589918553829193,0.06946581602096558,0.02568560838699341,1,0.03780459612607956,0.678886353969574,0.7299834489822388,-0.06934304535388947,-0.1493455469608307,-0.9859086275100708,-0.07536826282739639,0,0,0,-1,10223.02696491667,3,2,1562003733.900957,1562003626.666006,7,1.998636,0,0,7.126037,0,0,1562003734.559089,10221.37996,0,-0.8562012,75.30809,3232235528,182473588,1,1,0.31,-19.65698,-27.46071,3
1562003735.202416,79,0,0,1562003728.860692,4.634788573009422,-74.15103087310237,2563.844,-1,-1,10,65,-9999,1562003735.186347,-23.04387664794922,-11.17975997924805,13.157470703125,114.7626876831055,122.2566604614258,15,10224.309821625,-0.426361083984375,-0.980133056640625,-0.1122283935546875,10224.309821625,1.451043826270066,-0.4479045468833037,0.9522974036482781,10224.300757625,-24.19281005859375,-0.559661865234375,-527.1669921875,10224.304755625,-1.807535480618505,-1.297930102600698,1.396664920343698,1.441632628440857,-0.5174081921577454,0.9094105362892151,-0.3171510398387909,0.03828310966491699,-0.06358504295349121,1,0.0467781126499176,0.6888154149055481,0.7198114991188049,-0.07222519069910049,-0.1668424904346466,-0.9848774075508118,-0.04669026657938957,0,0,0,-1,10223.02696491667,3,2,1562003733.900957,1562003626.666006,7,1.998636,0,0,7.126037,0,0,1562003734.559089,10221.37996,0,-0.8562012,75.30809,3232235528,182473588,1,1,0.31,-19.65698,-27.99562,3
1562003735.21452,80,0,0,1562003728.860692,4.634788573009422,-74.15103087310237,2563.844,-1,-1,10,65,-9999,1562003735.212524,-23.09546661376953,-10.12063312530518,13.63153076171875,114.9110260009766,122.4049987792969,15,10224.330085625,-0.4366607666015625,-1.064239501953125,-0.1203765869140625,10224.330085625,1.045406841679628,0.07766789739885288,0.8847178267747544,10224.320868625,-24.26803588867188,0.5843353271484375,-526.652587890625,10224.325019625,-1.634993942613784,-1.474726952275361,1.38283096024224,1.210764765739441,-0.1096412539482117,0.9306908249855042,-0.2154901623725891,-0.03677856922149658,-0.09067279100418091,1,0.05492680892348289,0.698585033416748,0.7092086672782898,-0.07736349850893021,-0.1859990954399109,-0.9823864698410034,-0.01792399398982525,0,0,0,-1,10223.02696491667,3,2,1562003733.900957,1562003626.666006,7,1.998636,0,0,7.126037,0,0,1562003734.559089,10221.37996,0,-0.8562012,75.30809,3232235528,182473588,1,1,0.31,-19.65698,-27.99562,3
1562003735.235203,81,0,0,1562003728.860692,4.634788573009422,-74.15103087310237,2563.844,-1,-1,10,65,-9999,1562003735.212524,-23.09546661376953,-10.12063312530518,13.63153076171875,114.9110260009766,122.4049987792969,15,10224.350348625,-0.4673004150390625,-1.1456298828125,-0.0928497314453125,10224.350348625,0.322718132470276,0.5823166839445839,0.5240698887951338,10224.340949625,-24.42715454101562,0.8184051513671875,-526.376220703125,10224.345282625,-1.543126668510583,-1.559955934005864,1.36756936448521,0.4589942991733551,0.5329033732414246,0.6225728988647461,-0.2729279696941376,-0.1317856311798096,-0.1126803159713745,1,0.0581812858581543,0.703932523727417,0.7027254104614258,-0.08526939153671265,-0.2018187344074249,-0.9794203639030457,-0.002187879988923669,0,0,0,-1,10223.02696491667,3,2,1562003733.900957,1562003626.666006,7,1.998636,0,0,7.126037,0,0,1562003734.559089,10221.37996,0,-0.8562012,75.30809,3232235528,182473588,1,1,0.31,-19.65698,-28.58954,3
1562003735.254999,82,0,0,1562003728.860692,4.634788573009422,-74.15103087310237,2563.844,-1,-1,10,65,-9999,1562003735.237669,-23.30516052246094,-9.71653938293457,13.9034423828125,114.2120513916016,121.7060241699219,15,10224.370581625,-0.4347381591796875,-1.174468994140625,-0.0211639404296875,10224.370581625,0.2813557786319283,0.258758057834279,0.1522696974346975,10224.361060625,-24.81248474121094,1.118881225585938,-526.8284912109375,10224.365546625,-1.515771533302205,-1.576325957928439,1.359013877202555,0.2249900847673416,0.3711815476417542,0.2326829433441162,-0.2438862323760986,-0.1897768974304199,-0.05693316459655762,1,0.05730276182293892,0.7051932811737061,0.7006683349609375,-0.09210212528705597,-0.2102000564336777,-0.9776577949523926,0.001162340631708503,0,0,0,-1,10223.02696491667,3,2,1562003733.900957,1562003626.666006,7,1.998636,0,0,7.126037,0,0,1562003734.559089,10221.37996,0,-0.8562012,75.30809,3232235528,182473588,1,1,0.31,-19.65698,-28.82297,3
1562003735.288483,83,0,0,1562003728.860692,4.634788573009422,-74.15103087310237,2563.844,-1,-1,10,65,-9999,1562003735.263769,-23.65091705322266,-9.382044792175293,13.61358642578125,113.6119384765625,121.1059112548828,15,10224.390845625,-0.374969482421875,-1.118392944335938,0.0130767822265625,10224.390845625,0.6288650113736429,-0.04334347937325762,-0.03948269474096974,10224.381171625,-24.66813659667969,1.505081176757812,-526.970703125,10224.385810625,-1.480115883767231,-1.607877005067692,1.357055470323818,0.5534846186637878,0.002768109552562237,-0.01772183179855347,-0.1958958804607391,-0.1831561326980591,-0.004567861557006836,1,0.05643110349774361,0.7076350450515747,0.698005199432373,-0.09411145746707916,-0.2119715362787247,-0.9772442579269409,0.007863652892410755,0,0,0,-1,10223.02696491667,3,2,1562003733.900957,1562003626.666006,7,1.998636,0,0,7.126037,0,0,1562003734.559089,10221.37996,0,-0.8562012,75.30809,3232235528,182473588,1,1,0.31,-19.65698,-29.68495,3
1562003735.29549,84,0,0,1562003728.860692,4.634788573009422,-74.15103087310237,2563.844,-1,-1,10,65,-9999,1562003735.288728,-23.72111511230469,-9.049798011779785,13.56787109375,113.4654006958008,120.9593734741211,15,10224.411109625,-0.2881317138671875,-1.00836181640625,0.0054779052734375,10224.411109625,0.6599875108206359,-0.08057154193536628,-0.07491978147000013,10224.401252625,-24.76960754394531,1.524429321289062,-526.7721557617188,10224.406043625,-1.418034859071289,-1.66987760847174,1.357312340543096,0.6741340756416321,-0.08832558244466782,-0.0796738862991333,-0.1177560091018677,-0.08463668823242188,-0.0147930383682251,1,0.05586981773376465,0.7122902274131775,0.6933678388595581,-0.09360655397176743,-0.2108267396688461,-0.9772987365722656,0.02095760963857174,0,0,0,-1,10223.02696491667,3,2,1562003733.900957,1562003626.666006,7,1.998636,0,0,7.126037,0,0,1562003734.559089,10221.37996,0,-0.8562012,75.30809,3232235528,182473588,1,1,0.31,-19.65698,-29.68495,3
1562003735.315788,85,0,0,1562003728.860692,4.634788573009422,-74.15103087310237,2563.844,-1,-1,10,65,-9999,1562003735.313823,-23.5739860534668,-8.793281555175781,13.60394287109375,113.391975402832,120.8859481811523,15,10224.431372625,-0.21551513671875,-0.968231201171875,0.0622100830078125,10224.431372625,0.7373496773263477,-0.1070316452619576,-0.01412567273788929,10224.421363625,-24.54098510742188,1.761856079101562,-526.742919921875,10224.426307625,-1.354080908729085,-1.734235388395659,1.356771901107313,0.6981565356254578,-0.1056065633893013,-0.02707192488014698,-0.03154009580612183,-0.003376245498657227,-0.005781173706054688,1,0.0554383248090744,0.7170817255973816,0.6885432004928589,-0.09289085865020752,-0.2095640301704407,-0.9771840572357178,0.034559216350317,0,0,0,-1,10223.02696491667,3,2,1562003733.900957,1562003626.666006,7,1.998636,0,0,7.126037,0,0,1562003734.559089,10221.37996,0,-0.8562012,75.30809,3232235528,182473588,1,1,0.31,-19.65698,-30.35305,3
1562003735.336044,86,0,0,1562003728.860692,4.634788573009422,-74.15103087310237,2563.844,-1,-1,10,65,-9999,1562003735.313823,-23.5739860534668,-8.793281555175781,13.60394287109375,113.391975402832,120.8859481811523,15,10224.451636625,-0.2333221435546875,-0.9632568359375,0.1263885498046875,10224.451636625,0.913507929739056,-0.2188098425347633,-0.08841641555841269,10224.441443625,-24.66349792480469,1.48712158203125,-526.2838745117188,10224.446570625,-1.280864338787733,-1.8084209787804,1.35429660621087,0.8719821572303772,-0.1798653602600098,-0.06764997541904449,-0.01816794276237488,0.01582467555999756,0.04472541809082031,1,0.05536938458681107,0.7226458787918091,0.682809054851532,-0.09213543683290482,-0.2087760269641876,-0.9766553044319153,0.05056567117571831,0,0,0,-1,10223.02696491667,3,2,1562003733.900957,1562003626.666006,7,1.998636,0,0,7.126037,0,0,1562003734.559089,10221.37996,0,-0.8562012,75.30809,3232235528,182473588,1,1,0.31,-19.65698,-30.36646,3
1562003735.375749,87,0,0,1562003728.860692,4.634788573009422,-74.15103087310237,2563.844,-1,-1,10,65,-9999,1562003735.313823,-23.5739860534668,-8.793281555175781,13.60394287109375,113.391975402832,120.8859481811523,15,10224.471887125,-0.20916748046875,-0.9668426513671875,0.1693572998046875,10224.471887125,0.9619556236575595,-0.3815939662692027,-0.08783558012466641,10224.461554625,-24.66389465332031,1.84039306640625,-526.1497802734375,10224.466821125,-1.1939625635688,-1.898866206273121,1.350969508709814,0.970548152923584,-0.3697077333927155,-0.1092253848910332,-0.01813335716724396,0.009336769580841064,0.08433949947357178,1,0.0556613951921463,0.7294059991836548,0.675855815410614,-0.08993077278137207,-0.2064302414655685,-0.9759352207183838,0.0702626034617424,0,0,0,-1,10223.02696491667,3,2,1562003733.900957,1562003626.666006,7,1.998636,0,0,7.126037,0,0,1562003734.559089,10221.37996,0,-0.8562012,75.30809,3232235528,182473588,1,1,0.31,-19.65698,-30.95043,3
1562003735.378871,88,0,0,1562003735.347561,4.634787703515108,-74.15103397847399,2563.931,-1,-1,10,65,-9999,1562003735.313823,-23.5739860534668,-8.793281555175781,13.60394287109375,113.391975402832,120.8859481811523,15,10224.492150125,-0.1802215576171875,-0.9775543212890625,0.1871185302734375,10224.492150125,0.8528871927939093,-0.3554494475317859,0.02471759702535243,10224.481622125,-24.58155822753906,2.641372680664062,-525.7935791015625,10224.487085125,-1.111843588300331,-1.986722766390356,1.345262443063754,0.8837663531303406,-0.3710600733757019,-0.007227912545204163,0.01042363047599792,0.0006452798843383789,0.08817410469055176,1,0.05696265771985054,0.7361603975296021,0.6687456965446472,-0.08719168603420258,-0.2045612037181854,-0.9746748805046082,0.09035374969244003,0,0,0,-1,10223.02696491667,3,2,1562003733.900957,1562003626.666006,7,1.998636,0,0,7.126037,0,0,1562003734.559089,10221.37996,0,-0.8562012,75.30809,3232235528,182473588,1,1,0.31,-19.65698,-30.95043,3
1562003735.3967,89,0,0,1562003735.347561,4.634787703515108,-74.15103397847399,2563.931,-1,-1,10,65,-9999,1562003735.372469,-23.54506683349609,-8.949882507324219,13.97900390625,113.3652038574219,120.8591766357422,15,10224.512384125,-0.168182373046875,-0.965179443359375,0.207000732421875,10224.512384125,0.6619159057659623,-0.4170720656790203,0.1727781683571797,10224.501733125,-24.51809692382812,2.754745483398438,-525.5499877929688,10224.507348125,-1.049265191117282,-2.055056791633454,1.337140078604175,0.7146769762039185,-0.3836594820022583,0.1280814409255981,0.0335269570350647,-0.003751397132873535,0.09327268600463867,1,0.05913098156452179,0.7418892979621887,0.6624401807785034,-0.08530396968126297,-0.2049136757850647,-0.972826361656189,0.1077924072742462,0,0,0,-1,10223.02696491667,3,2,1562003733.900957,1562003626.666006,7,1.998636,0,0,7.126037,0,0,1562003734.559089,10221.37996,0,-0.8562012,75.30809,3232235528,182473588,1,1,0.31,-19.65698,-31.46323,3
1562003735.445174,90,0,0,1562003735.347561,4.634787703515108,-74.15103397847399,2563.931,-1,-1,10,65,-9999,1562003735.439599,-23.28824234008789,-7.551334381103516,15.28277587890625,115.1223602294922,122.6163330078125,15,10224.532647125,-0.162506103515625,-0.9526519775390625,0.207000732421875,10224.532647125,0.4409347879944573,-0.5905035074515965,0.3345042181905307,10224.521814125,-24.52745056152344,2.789779663085938,-525.1895751953125,10224.527612125,-1.012922547789452,-2.09995856305962,1.327458387608803,0.4909314811229706,-0.5627362728118896,0.2967929542064667,0.05236540734767914,0.0162544846534729,0.08779609203338623,1,0.06337792426347733,0.7461894154548645,0.6574248671531677,-0.08352929353713989,-0.2079897969961166,-0.9705391526222229,0.1216308102011681,0,0,0,-1,10223.02696491667,3,2,1562003733.900957,1562003626.666006,7,1.998636,0,0,7.126037,0,0,1562003734.559089,10221.37996,0,-0.8562012,75.30809,3232235528,182473588,1,1,0.31,-19.65698,-32.50092,3
1562003735.449368,91,0,0,1562003735.347561,4.634787703515108,-74.15103397847399,2563.931,-1,-1,10,65,-9999,1562003735.439599,-23.28824234008789,-7.551334381103516,15.28277587890625,115.1223602294922,122.6163330078125,15,10224.552911125,-0.194915771484375,-0.9633636474609375,0.2056884765625,10224.552911125,0.2715910321790438,-0.6469111235522378,0.3662933068583705,10224.541925125,-24.38735961914062,3.00103759765625,-525.0637817382812,10224.547845125,-0.9995792619751233,-2.125417021001194,1.317360178206987,0.3110461235046387,-0.6522563099861145,0.36509770154953,0.02856123447418213,0.01200187206268311,0.07166433334350586,1,0.06975441426038742,0.7491024732589722,0.6537235975265503,-0.08139514178037643,-0.2131468206644058,-0.9680565595626831,0.1320403814315796,0,0,0,-1,10223.02696491667,3,2,1562003733.900957,1562003626.666006,7,1.998636,0,0,7.126037,0,0,1562003734.559089,10221.37996,0,-0.8562012,75.30809,3232235528,182473588,1,1,0.31,-19.65698,-28.12867,3
1562003735.462411,92,0,0,1562003735.347561,4.634787703515108,-74.15103397847399,2563.931,-1,-1,10,65,-9999,1562003735.439599,-23.28824234008789,-7.551334381103516,15.28277587890625,115.1223602294922,122.6163330078125,15,10224.573175125,-0.2064666748046875,-0.9649505615234375,0.20654296875,10224.573175125,0.09996441467721429,-0.6769118995480895,0.3383090764399269,10224.562005125,-24.17169189453125,3.045257568359375,-524.7160034179688,10224.568109125,-0.9993534120850532,-2.138843620500312,1.308834099111353,0.1369904577732086,-0.6623382568359375,0.3379174768924713,0.01827794313430786,0.00142139196395874,0.06933760643005371,1,0.07657440751791,0.7508658170700073,0.6512319445610046,-0.0789555236697197,-0.2183054089546204,-0.9658836722373962,0.1393262296915054,0,0,0,-1,10223.02696491667,3,2,1562003733.900957,1562003626.666006,7,1.998636,0,0,7.126037,0,0,1562003734.559089,10221.37996,0,-0.8562012,75.30809,3232235528,182473588,1,1,0.31,-19.65698,-28.12867,3
1562003735.477706,93,0,0,1562003735.347561,4.634787703515108,-74.15103397847399,2563.931,-1,-1,10,65,-9999,1562003735.466218,-23.07062149047852,-7.430773735046387,15.61212158203125,116.0347290039062,123.5287017822266,15,10224.593438125,-0.2052764892578125,-0.9594573974609375,0.1953277587890625,10224.593438125,-0.06661790940389611,-0.8194442810891303,0.3920745704231006,10224.582116125,-23.82847595214844,3.510162353515625,-524.3819580078125,10224.588372125,-1.009382685042586,-2.143812864270211,1.302259262256061,-0.01217799447476864,-0.8059806227684021,0.3685310482978821,0.006693661212921143,-0.00243842601776123,0.05689573287963867,1,0.08389922976493835,0.7515885829925537,0.6498727798461914,-0.07576856017112732,-0.2229412198066711,-0.9641600847244263,0.1438489556312561,0,0,0,-1,10223.02696491667,3,2,1562003733.900957,1562003626.666006,7,1.998636,0,0,7.126037,0,0,1562003734.559089,10221.37996,0,-0.8562012,75.30809,3232235528,182473588,1,1,0.31,-19.65698,-28.54085,3
1562003735.514914,94,0,0,1562003735.347561,4.634787703515108,-74.15103397847399,2563.931,-1,-1,10,65,-9999,1562003735.490057,-22.64762878417969,-6.703620910644531,16.2431640625,117.1808166503906,124.6747894287109,15,10224.613702125,-0.23638916015625,-0.9440460205078125,0.1610565185546875,10224.613702125,-0.3718135071658867,-0.462735158361737,0.4185176295187154,10224.602197125,-23.69378662109375,3.995529174804688,-524.0662841796875,10224.608636125,-1.034799310625186,-2.134991649835959,1.296990698001112,-0.2959737777709961,-0.6183856725692749,0.4222712516784668,0.03421638906002045,0.01754313707351685,0.03816306591033936,1,0.0921420156955719,0.7508698701858521,0.6499723196029663,-0.07239055633544922,-0.2284912914037704,-0.9627488255500793,0.1445914208889008,0,0,0,-1,10223.02696491667,3,2,1562003733.900957,1562003626.666006,7,1.998636,0,0,7.126037,0,0,1562003734.559089,10221.37996,0,-0.8562012,75.30809,3232235528,182473588,1,1,0.31,-19.65698,-29.03222,3
1562003735.518383,95,0,0,1562003735.347561,4.634787703515108,-74.15103397847399,2563.931,-1,-1,10,65,-9999,1562003735.516345,-22.5654182434082,-6.837141036987305,16.7325439453125,117.7860412597656,125.2800140380859,15,10224.633966125,-0.280548095703125,-0.94921875,0.12384033203125,10224.633966125,-0.4997632175259807,0.1035237294741052,0.3550145533257759,10224.622308125,-23.66090393066406,3.64776611328125,-523.5374145507812,10224.628900125,-1.07698376848565,-2.100653937856656,1.294624622892875,-0.50795978307724,-0.003870884422212839,0.3623932600021362,-0.04375267028808594,0.00805056095123291,0.0001881122589111328,1,0.09748008102178574,0.747933030128479,0.6525915265083313,-0.07223604619503021,-0.2352848052978516,-0.9621063470840454,0.1378123611211777,0,0,0,-1,10223.02696491667,3,2,1562003733.900957,1562003626.666006,7,1.998636,0,0,7.126037,0,0,1562003734.559089,10221.37996,0,-0.8562012,75.30809,3232235528,182473588,1,1,0.31,-19.65698,-29.12688,3
1562003735.538975,96,0,0,1562003735.347561,4.634787703515108,-74.15103397847399,2563.931,-1,-1,10,65,-9999,1562003735.516345,-22.5654182434082,-6.837141036987305,16.7325439453125,117.7860412597656,125.2800140380859,15,10224.654199125,-0.2524566650390625,-0.9571075439453125,0.11700439453125,10224.654199125,-0.2132965664460813,0.005909288142776822,0.332329480844372,10224.642389125,-23.62005615234375,3.423538208007812,-523.99365234375,10224.649163125,-1.118380961442405,-2.058685490645237,1.292910141642106,-0.3218123018741608,0.08812615275382996,0.3372040390968323,-0.02788582444190979,0.006803452968597412,-0.01268696784973145,1,0.09972643852233887,0.7445474863052368,0.655816912651062,-0.07488591969013214,-0.2423168122768402,-0.9616374373435974,0.1285926401615143,0,0,0,-1,10223.02696491667,3,2,1562003733.900957,1562003626.666006,7,1.998636,0,0,7.126037,0,0,1562003734.559089,10221.37996,0,-0.8562012,75.30809,3232235528,182473588,1,1,0.31,-19.65698,-29.12688,3
1562003735.558854,97,0,0,1562003735.347561,4.634787703515108,-74.15103397847399,2563.931,-1,-1,10,65,-9999,1562003735.540815,-22.51003265380859,-6.974264144897461,16.4190673828125,117.7938003540039,125.2877731323242,15,10224.674462125,-0.2635650634765625,-0.945465087890625,0.1453704833984375,10224.674462125,0.2064405245357813,-0.4053578853081978,0.1987799416601684,10224.662500125,-23.89404296875,3.56488037109375,-523.9183349609375,10224.669427125,-1.13473986716599,-2.045311387316063,1.288447786082999,0.1144380047917366,-0.3323291838169098,0.2364254891872406,-0.003924757242202759,0.008758902549743652,0.007862210273742676,1,0.1028199717402458,0.7436922192573547,0.6561931967735291,-0.07589864730834961,-0.2478300034999847,-0.9604037404060364,0.1273001283407211,0,0,0,-1,10223.02696491667,3,2,1562003733.900957,1562003626.666006,7,1.998636,0,0,7.126037,0,0,1562003734.559089,10221.37996,0,-0.8562012,75.30809,3232235528,182473588,1,1,0.31,-19.65698,-29.39474,3
1562003735.601017,98,0,0,1562003735.347561,4.634787703515108,-74.15103397847399,2563.931,-1,-1,10,65,-9999,1562003735.591508,-22.18159103393555,-6.417201042175293,16.8555908203125,118.7568588256836,126.2508316040039,15,10224.694726125,-0.2835540771484375,-0.930999755859375,0.165618896484375,10224.694726125,0.4035559905146502,-0.5190418406570643,0.09591640982029384,10224.682580125,-23.37693786621094,4.036880493164062,-523.6688842773438,10224.689660125,-1.123073758351646,-2.065718224263215,1.283071171907967,0.3716644644737244,-0.5245167016983032,0.1027470603585243,-0.02867555618286133,0.02262789011001587,0.02604639530181885,1,0.1068359985947609,0.7456384301185608,0.6535760760307312,-0.07380932569503784,-0.2497210502624512,-0.9588918685913086,0.1347811967134476,0,0,0,-1,10223.02696491667,3,2,1562003733.900957,1562003626.666006,7,1.998636,0,0,7.126037,0,0,1562003734.559089,10221.37996,0,-0.8562012,75.30809,3232235528,182473588,1,1,0.31,-19.65698,-30.73366,3
1562003735.603429,99,0,0,1562003735.347561,4.634787703515108,-74.15103397847399,2563.931,-1,-1,10,65,-9999,1562003735.591508,-22.18159103393555,-6.417201042175293,16.8555908203125,118.7568588256836,126.2508316040039,15,10224.714990125,-0.2718353271484375,-0.92724609375,0.1722869873046875,10224.714990125,0.4448805274655187,-0.3760737659616865,0.1434809995213271,10224.702691125,-23.17587280273438,4.220901489257812,-523.4738159179688,10224.709924125,-1.100732452526409,-2.097112351825371,1.277130721018171,0.4436137676239014,-0.4260527491569519,0.1210187375545502,-0.02740654349327087,0.03023308515548706,0.02222084999084473,1,0.1105503514409065,0.7486552596092224,0.6497872471809387,-0.07120750099420547,-0.2502881586551666,-0.9571892619132996,0.1454121619462967,0,0,0,-1,10223.02696491667,3,2,1562003733.900957,1562003626.666006,7,1.998636,0,0,7.126037,0,0,1562003734.559089,10221.37996,0,-0.8562012,75.30809,3232235528,182473588,1,1,0.31,-19.65698,-30.73366,3
1562003735.619738,100,0,0,1562003735.347561,4.634787703515108,-74.15103397847399,2563.931,-1,-1,10,65,-9999,1562003735.617877,-22.04916381835938,-6.365257740020752,17.111083984375,119.0801849365234,126.5741577148438,15,10224.735254125,-0.2406005859375,-0.9363555908203125,0.17242431640625,10224.735254125,0.3858406429434431,-0.1755744875017629,0.2233641143149079,10224.722772125,-23.13916015625,4.191696166992188,-523.2310791015625,10224.730188125,-1.080957350306309,-2.122859219833068,1.26978468129186,0.4083867967128754,-0.2432672381401062,0.2042915225028992,-0.003081381320953369,0.02283185720443726,0.01475119590759277,1,0.1137052178382874,0.751542866230011,0.6460069417953491,-0.07021128386259079,-0.2524423003196716,-0.9550370573997498,0.1554911136627197,0,0,0,-1,10223.02696491667,3,2,1562003733.900957,1562003626.666006,7,1.998636,0,0,7.126037,0,0,1562003734.559089,10222.323489,0,-0.8562012,75.30809,3232235528,182473588,1,1,0.31,-19.65698,-31.18737,3
1562003735.639945,101,0,0,1562003735.347561,4.634787703515108,-74.15103397847399,2563.931,-1,-1,10,65,-9999,1562003735.617877,-22.04916381835938,-6.365257740020752,17.111083984375,119.0801849365234,126.5741577148438,15,10224.755517125,-0.261627197265625,-0.9597320556640625,0.1917266845703125,10224.755517125,0.2569242051076504,0.01317199475153191,0.1352014980083797,10224.742883125,-23.35543823242188,4.409210205078125,-522.948974609375,10224.750451125,-1.068477854309722,-2.137201192755721,1.262421815789853,0.2853775024414062,-0.01669080927968025,0.1766252666711807,0.01378822326660156,0.003533124923706055,0.01834893226623535,1,0.1158417463302612,0.7536662817001343,0.6430526971817017,-0.07107148319482803,-0.2561130523681641,-0.9528281688690186,0.1628643423318863,0,0,0,-1,10223.02696491667,3,2,1562003733.900957,1562003626.666006,7,1.998636,0,0,7.126037,0,0,1562003734.559089,10222.323489,0,-0.8562012,75.30809,3232235528,182473588,1,1,0.31,-19.65698,-31.66571,3
1562003735.693624,102,0,0,1562003735.347561,4.634787703515108,-74.15103397847399,2563.931,-1,-1,10,65,-9999,1562003735.671644,-22.00723648071289,-5.936669826507568,17.4139404296875,118.9982070922852,126.4921798706055,15,10224.775781125,-0.2821502685546875,-0.9701385498046875,0.22149658203125,10224.775781125,0.206600047885077,-0.01557682921587346,-0.02491893200376242,10224.762963125,-23.03414916992188,4.676895141601562,-523.1576538085938,10224.770715125,-1.058222256801229,-2.146841398572939,1.258268370442913,0.2139097452163696,-0.0042069754563272,0.004307037219405174,-0.02584400773048401,-0.01368111371994019,0.0401465892791748,1,0.1163061261177063,0.7551243305206299,0.6411544680595398,-0.07197954505681992,-0.257847398519516,-0.9515593647956848,0.1674797385931015,0,0,0,-1,10223.02696491667,3,2,1562003733.900957,1562003626.666006,7,1.998636,0,0,7.126037,0,0,1562003734.559089,10222.323489,0,-0.8562012,75.30809,3232235528,182473588,1,1,0.31,-19.65698,-32.66774,3
1562003735.696192,103,0,0,1562003735.347561,4.634787703515108,-74.15103397847399,2563.931,-1,-1,10,65,-9999,1562003735.692723,-22.15594482421875,-5.753213882446289,17.3433837890625,119.1054458618164,126.5994186401367,15,10224.796045125,-0.252166748046875,-0.9776611328125,0.231689453125,10224.796045125,0.1763460052695589,-0.1278439828648178,-0.04819309571829191,10224.783075125,-23.0556640625,4.651702880859375,-522.9296264648438,10224.790979125,-1.045925845076051,-2.159547727940533,1.256718513089462,0.1844551712274551,-0.1073357537388802,-0.05984771251678467,-0.01117217540740967,-0.02744919061660767,0.05884647369384766,1,0.1161862537264824,0.7564927935600281,0.6396059989929199,-0.07157892733812332,-0.2569247484207153,-0.9510816931724548,0.1715611815452576,0,0,0,-1,10223.02696491667,3,2,1562003733.900957,1562003626.666006,7,1.998636,0,0,7.126037,0,0,1562003734.559089,10222.323489,0,-0.8562012,75.30809,3232235528,182473588,1,1,0.31,-19.65698,-32.66774,3
1562003735.700673,104,0,0,1562003735.347561,4.634787703515108,-74.15103397847399,2563.931,-1,-1,10,65,-9999,1562003735.692723,-22.15594482421875,-5.753213882446289,17.3433837890625,119.1054458618164,126.5994186401367,15,10224.816278125,-0.2419891357421875,-0.965087890625,0.221466064453125,10224.816278125,0.1100468762481453,-0.1301444214144283,0.02511254381501118,10224.803155125,-23.30116271972656,4.782867431640625,-523.0205078125,10224.811242125,-1.03589682841993,-2.171978872682121,1.255433210488968,0.1335978507995605,-0.1511607468128204,0.002138158539310098,0.01018989086151123,-0.0194852352142334,0.05233502388000488,1,0.1167383790016174,0.7576863765716553,0.6382154822349548,-0.07045898586511612,-0.2557801008224487,-0.9506838321685791,0.1754329949617386,0,0,0,-1,10223.02696491667,3,2,1562003733.900957,1562003626.666006,7,1.998636,0,0,7.126037,0,0,1562003734.559089,10222.323489,0,-0.8562012,75.30809,3232235528,182473588,1,1,0.31,-19.65698,-32.66774,3
1562003735.72101,105,0,0,1562003735.347561,4.634787703515108,-74.15103397847399,2563.931,-1,-1,10,65,-9999,1562003735.718979,-22.0711555480957,-5.730215072631836,17.39849853515625,119.2319641113281,126.7259368896484,15,10224.836541125,-0.2466583251953125,-0.9637451171875,0.2047576904296875,10224.836541125,-0.06010301842923527,-0.0191473292893427,0.03781901800799724,10224.823266125,-23.17373657226562,4.8284912109375,-522.950927734375,10224.831475125,-1.033236041109595,-2.176660689908728,1.254159405708406,-0.01408747956156731,-0.05107621103525162,0.04092629998922348,0.0110781192779541,-0.01185500621795654,0.03456556797027588,1,0.117595337331295,0.7581756711006165,0.6375370621681213,-0.06991016864776611,-0.2559511363506317,-0.950287938117981,0.1773180216550827,0,0,0,-1,10223.02696491667,3,2,1562003733.900957,1562003626.666006,7,1.998636,0,0,7.126037,0,0,1562003734.559089,10222.323489,0,-0.8562012,75.30809,3232235528,182473588,1,1,0.31,-19.65698,-33.28179,3
1562003735.773163,106,0,0,1562003735.347561,4.634787703515108,-74.15103397847399,2563.931,-1,-1,10,65,-9999,1562003735.744161,-22.03578567504883,-5.78035831451416,17.55859375,119.2678527832031,126.7618255615234,15,10224.856805125,-0.2451324462890625,-0.9629974365234375,0.2034454345703125,10224.856805125,-0.2145088373742854,0.05821244037138802,-0.02439029452738169,10224.843347125,-23.16546630859375,4.655441284179688,-522.7866821289062,10224.851739125,-1.039552942194464,-2.170759341236455,1.255020455040053,-0.1873737722635269,0.03514868766069412,-0.0123241376131773,0.005966871976852417,-0.01218235492706299,0.02589035034179688,1,0.1178548708558083,0.7574836611747742,0.638314962387085,-0.06987659633159637,-0.2563178241252899,-0.9505557417869568,0.1753425300121307,0,0,0,-1,10223.02696491667,3,2,1562003733.900957,1562003626.666006,7,1.998636,0,0,7.126037,0,0,1562003734.559089,10222.323489,0,-0.8562012,75.30809,3232235528,182473588,1,1,0.31,-19.65698,-31.23714,3
1562003735.775719,107,0,0,1562003735.347561,4.634787703515108,-74.15103397847399,2563.931,-1,-1,10,65,-9999,1562003735.770412,-21.88529205322266,-6.125438213348389,17.45672607421875,119.3114929199219,126.8054656982422,15,10224.877069125,-0.237579345703125,-0.971649169921875,0.20416259765625,10224.877069125,-0.2015445691877796,0.01393179461053152,-0.06322717270400723,10224.863458125,-22.98907470703125,4.799484252929688,-522.969482421875,10224.872003125,-1.050089604140001,-2.159763521735263,1.258115895730799,-0.2224768996238708,0.03205222636461258,-0.05734381079673767,0.02020213007926941,-0.01798522472381592,0.03725159168243408,1,0.1174177303910255,0.7560768723487854,0.6400750279426575,-0.06974836438894272,-0.2557825744152069,-0.9515124559402466,0.1708783209323883,0,0,0,-1,10223.02696491667,3,2,1562003733.900957,1562003626.666006,7,1.998636,0,0,7.126037,0,0,1562003734.559089,10222.323489,0,-0.8562012,75.30809,3232235528,182473588,1,1,0.31,-19.65698,-30.27501,3
1562003735.781856,108,0,0,1562003735.347561,4.634787703515108,-74.15103397847399,2563.931,-1,-1,10,65,-9999,1562003735.770412,-21.88529205322266,-6.125438213348389,17.45672607421875,119.3114929199219,126.8054656982422,15,10224.897332125,-0.237274169921875,-0.96649169921875,0.1999664306640625,10224.897332125,-0.1031964269761344,-0.09902565039296135,-0.0970104363960984,10224.883569125,-22.97926330566406,4.353836059570312,-522.9005126953125,10224.892266125,-1.056783815315231,-2.153813766529125,1.261329542436643,-0.1231987848877907,-0.07683110982179642,-0.09467866271734238,0.01425006985664368,-0.01742881536483765,0.03447949886322021,1,0.1170907616615295,0.7550656795501709,0.6414201259613037,-0.0688890814781189,-0.2542403042316437,-0.9524961113929749,0.1676688492298126,0,0,0,-1,10223.02696491667,3,2,1562003733.900957,1562003626.666006,7,1.998636,0,0,7.126037,0,0,1562003734.559089,10222.323489,0,-0.8562012,75.30809,3232235528,182473588,1,1,0.31,-19.65698,-30.27501,3
1562003735.802506,109,0,0,1562003735.347561,4.634787703515108,-74.15103397847399,2563.931,-1,-1,10,65,-9999,1562003735.794085,-22.03841400146484,-6.051494598388672,17.48297119140625,119.495735168457,126.9897079467773,15,10224.917596125,-0.2418975830078125,-0.954254150390625,0.1803741455078125,10224.917596125,-0.08803158878089624,-0.1746295979470028,-0.06733536500156345,10224.903650125,-23.11221313476562,4.521194458007812,-522.8460693359375,10224.912530125,-1.058310861423206,-2.154944491588552,1.263901597213896,-0.07813277840614319,-0.1660190522670746,-0.07857399433851242,0.01293182373046875,-0.006867766380310059,0.02583897113800049,1,0.1172678917646408,0.7546858191490173,0.6420137286186218,-0.06720103323459625,-0.2520065307617188,-0.9532762765884399,0.1666048914194107,0,0,0,-1,10223.02696491667,3,2,1562003733.900957,1562003626.666006,7,1.998636,0,0,7.126037,0,0,1562003734.559089,10222.323489,0,-0.8562012,75.30809,3232235528,182473588,1,1,0.31,-19.65698,-26.91576,3
1562003735.8519,110,0,0,1562003735.347561,4.634787703515108,-74.15103397847399,2563.931,-1,-1,10,65,-9999,1562003735.820279,-21.8695182800293,-6.266490936279297,17.40704345703125,119.787971496582,127.2819442749023,15,10224.937860125,-0.234619140625,-0.94976806640625,0.165618896484375,10224.937860125,-0.160889550934957,-0.1637021153621897,-0.03339843691457472,10224.923761125,-22.959228515625,4.194503784179688,-522.9327392578125,10224.932794125,-1.061925677895615,-2.155148102887711,1.266097188971249,-0.1437658369541168,-0.1762897968292236,-0.04239095747470856,0.01165518164634705,0.005359351634979248,0.005626082420349121,1,0.1180461198091507,0.7541987299919128,0.6426389813423157,-0.06530392915010452,-0.2502263486385345,-0.9539372324943542,0.1655012220144272,0,0,0,-1,10223.02696491667,3,2,1562003733.900957,1562003626.666006,7,1.998636,0,0,7.126037,0,0,1562003734.559089,10222.323489,0,-0.8562012,75.30809,3232235528,182473588,1,1,0.31,-19.65698,-28.37338,3
1562003735.854443,111,0,0,1562003735.347561,4.634787703515108,-74.15103397847399,2563.931,-1,-1,10,65,-9999,1562003735.845218,-21.89459228515625,-6.478822231292725,17.38909912109375,120.0641174316406,127.5580902099609,15,10224.958093125,-0.243927001953125,-0.962799072265625,0.1597900390625,10224.958093125,-0.1540465585139984,-0.1263819074263643,-0.04027951253912145,10224.943841125,-23.03237915039062,3.980575561523438,-523.0146484375,10224.953057125,-1.06979585887908,-2.150867186858985,1.268511435675392,-0.1674037873744965,-0.1398377865552902,-0.03713760897517204,0.0118536651134491,-6.842613220214844e-05,-0.001453280448913574,1,0.118918240070343,0.7532870769500732,0.6437116265296936,-0.0636594295501709,-0.2490057647228241,-0.9546587467193604,0.1631659418344498,0,0,0,-1,10223.02696491667,3,2,1562003733.900957,1562003626.666006,7,1.998636,0,0,7.126037,0,0,1562003734.559089,10222.323489,0,-0.8562012,75.30809,3232235528,182473588,1,1,0.31,-19.65698,-28.37338,3
1562003735.862785,112,0,0,1562003735.347561,4.634787703515108,-74.15103397847399,2563.931,-1,-1,10,65,-9999,1562003735.845218,-21.89459228515625,-6.478822231292725,17.38909912109375,120.0641174316406,127.5580902099609,15,10224.978357125,-0.2383575439453125,-0.971923828125,0.1609039306640625,10224.978357125,-0.08297371323861776,-0.1118240036435551,-0.04321697922147885,10224.963952125,-22.992919921875,4.086685180664062,-522.7313842773438,10224.973291125,-1.075944724069446,-2.14758268895889,1.27084784281358,-0.1094779148697853,-0.120956227183342,-0.04871117323637009,0.003681212663650513,-0.01367294788360596,-0.0003633499145507812,1,0.1194790601730347,0.7525222301483154,0.6446433663368225,-0.06220845505595207,-0.2476692646741867,-0.955351710319519,0.1611299067735672,0,0,0,-1,10223.02696491667,3,2,1562003733.900957,1562003626.666006,7,1.998636,0,0,7.126037,0,0,1562003734.559089,10222.323489,0,-0.8562012,75.30809,3232235528,182473588,1,1,0.31,-19.65698,-28.37338,3
1562003735.883067,113,0,0,1562003735.347561,4.634787703515108,-74.15103397847399,2563.931,-1,-1,10,65,-9999,1562003735.871054,-21.97806167602539,-6.497821807861328,17.599853515625,120.2750015258789,127.7689743041992,15,10224.998620125,-0.2355499267578125,-0.9737091064453125,0.1622467041015625,10224.998620125,-0.0146740176063366,-0.08728510472734703,-0.02426139753062186,10224.984033125,-23.11721801757812,3.991485595703125,-522.7371826171875,10224.993554125,-1.077887819156333,-2.148061912672618,1.272217976389478,-0.02361866645514965,-0.1063791513442993,-0.03053057193756104,0.01147942245006561,-0.01828914880752563,0.0005831718444824219,1,0.1199554726481438,0.7522485256195068,0.6449910402297974,-0.06098708137869835,-0.2464952915906906,-0.9557556509971619,0.1605343222618103,0,0,0,-1,10223.02696491667,3,2,1562003733.900957,1562003626.666006,7,1.998636,0,0,7.126037,0,0,1562003734.559089,10222.323489,0,-0.8562012,75.30809,3232235528,182473588,1,1,0.31,-19.65698,-28.97075,3
1562003735.927523,114,0,0,1562003735.347561,4.634787703515108,-74.15103397847399,2563.931,-1,-1,10,65,-9999,1562003735.921604,-21.8051643371582,-6.646163463592529,17.68817138671875,120.5467681884766,128.0407409667969,15,10225.018884125,-0.2438201904296875,-0.967926025390625,0.1573028564453125,10225.018884125,-0.03775616740627138,-0.06580857474862103,-0.03925446183554995,10225.004113125,-22.71363830566406,4.18896484375,-522.5965576171875,10225.013818125,-1.077930468714388,-2.149703170776495,1.272955729961682,-0.03488463908433914,-0.06712069362401962,-0.03780632838606834,0.005589678883552551,-0.01285386085510254,-0.0003812313079833984,1,0.1202807351946831,0.7522026896476746,0.645064115524292,-0.06013230979442596,-0.2456409484148026,-0.95597243309021,0.1605526804924011,0,0,0,-1,10223.02696491667,3,2,1562003733.900957,1562003626.666006,7,1.998636,0,0,7.126037,0,0,1562003734.559089,10222.323489,0,-0.8562012,75.30809,3232235528,182473588,1,1,0.31,-19.65698,-30.12144,3
1562003735.930826,115,0,0,1562003735.347561,4.634787703515108,-74.15103397847399,2563.931,-1,-1,10,65,-9999,1562003735.921604,-21.8051643371582,-6.646163463592529,17.68817138671875,120.5467681884766,128.0407409667969,15,10225.039148125,-0.24432373046875,-0.975128173828125,0.15997314453125,10225.039148125,-0.07036950443149073,-0.09094801649064202,-0.02936854155306682,10225.024224125,-22.91978454589844,3.827865600585938,-522.6497192382812,10225.034082125,-1.079115782397249,-2.150152848416439,1.274205649865254,-0.06659569591283798,-0.09141324460506439,-0.03829688206315041,-0.002196729183197021,-0.01647037267684937,-0.001179933547973633,1,0.1204986274242401,0.7519869804382324,0.6453608870506287,-0.05920196324586868,-0.244568407535553,-0.9563384652137756,0.1600086688995361,0,0,0,-1,10223.02696491667,3,2,1562003733.900957,1562003626.666006,7,1.998636,0,0,7.126037,0,0,1562003734.559089,10222.323489,0,-0.8562012,75.30809,3232235528,182473588,1,1,0.31,-19.65698,-30.12144,3
1562003735.943876,116,0,0,1562003735.347561,4.634787703515108,-74.15103397847399,2563.931,-1,-1,10,65,-9999,1562003735.921604,-21.8051643371582,-6.646163463592529,17.68817138671875,120.5467681884766,128.0407409667969,15,10225.059411125,-0.2334136962890625,-0.9778289794921875,0.149383544921875,10225.059411125,-0.08924652287019039,-0.06259706879009448,0.01059671797742529,10225.044336125,-22.96739196777344,3.887344360351562,-522.66943359375,10225.054345125,-1.082681078737189,-2.148606025110428,1.275463704873677,-0.08668285608291626,-0.08324959129095078,-0.005550653673708439,0.006030112504959106,-0.02083367109298706,-0.003882765769958496,1,0.1209636852145195,0.7515679001808167,0.6458484530448914,-0.05825115367770195,-0.2438078075647354,-0.9567053914070129,0.1589730381965637,0,0,0,-1,10223.02696491667,3,2,1562003733.900957,1562003626.666006,7,1.998636,0,0,7.126037,0,0,1562003734.559089,10222.323489,0,-0.8562012,75.30809,3232235528,182473588,1,1,0.31,-20.21426,-30.61387,3
1562003735.964069,117,0,0,1562003735.347561,4.634787703515108,-74.15103397847399,2563.931,-1,-1,10,65,-9999,1562003735.946056,-21.85776901245117,-6.647906303405762,17.68408203125,120.7005310058594,128.1945037841797,15,10225.079675125,-0.2291259765625,-0.9683074951171875,0.1470947265625,10225.079675125,-0.09868236892845014,-0.02224644984986791,0.04383243574939617,10225.064416125,-22.88935852050781,4.081253051757812,-522.5750732421875,10225.074609125,-1.088869839289571,-2.143811274176061,1.27626040953015,-0.102965421974659,-0.03321625664830208,0.03541275858879089,0.01344296336174011,-0.01697051525115967,-0.01101148128509521,1,0.1215006709098816,0.7509541511535645,0.6465008854866028,-0.0578107126057148,-0.2439269721508026,-0.9569369554519653,0.1573891043663025,0,0,0,-1,10223.02696491667,3,2,1562003733.900957,1562003626.666006,7,1.998636,0,0,7.126037,0,0,1562003734.559089,10222.323489,0,-0.8562012,75.30809,3232235528,182473588,1,1,0.31,-20.77154,-31.34627,3
1562003736.007279,118,0,0,1562003735.347561,4.634787703515108,-74.15103397847399,2563.931,-1,-1,10,65,-9999,1562003735.996662,-21.70668029785156,-6.631429672241211,17.68841552734375,120.8707580566406,128.3647308349609,15,10225.099908125,-0.2336578369140625,-0.9660797119140625,0.15234375,10225.099908125,-0.0695681592594859,-0.03428260639648103,0.05182298428406991,10225.084497125,-22.72357177734375,4.04022216796875,-522.47705078125,10225.094873125,-1.096081553235581,-2.13747102133974,1.276586799865487,-0.08151552081108093,-0.0304897129535675,0.04655355960130692,0.0131804347038269,-0.008925974369049072,-0.006288051605224609,1,0.1220587566494942,0.7502915859222412,0.6471693515777588,-0.0577581375837326,-0.2446562647819519,-0.9570316672325134,0.1556716114282608,0,0,0,-1,10223.02696491667,3,2,1562003733.900957,1562003626.666006,7,1.998636,0,0,7.126037,0,0,1562003734.559089,10222.323489,0,-0.8562012,75.30809,3232235528,182473588,1,1,0.31,-21.8861,-32.11948,3
1562003736.009931,119,0,0,1562003735.347561,4.634787703515108,-74.15103397847399,2563.931,-1,-1,10,65,-9999,1562003735.996662,-21.70668029785156,-6.631429672241211,17.68841552734375,120.8707580566406,128.3647308349609,15,10225.120172125,-0.23736572265625,-0.9694366455078125,0.15643310546875,10225.120172125,-0.05937677439997066,-0.05500439652227857,0.04239086665133628,10225.104608125,-22.83554077148438,3.90020751953125,-522.6730346679688,10225.115136125,-1.101511925702397,-2.133179919088986,1.276480613920042,-0.05380293726921082,-0.05963721126317978,0.04284564033150673,0.01196405291557312,-0.01281726360321045,0.001056432723999023,1,0.1227382943034172,0.7498484253883362,0.647564709186554,-0.05764251202344894,-0.2454082667827606,-0.9570008516311646,0.15467469394207,0,0,0,-1,10223.02696491667,3,2,1562003733.900957,1562003626.666006,7,1.998636,0,0,7.126037,0,0,1562003734.559089,10222.323489,0,-0.8562012,75.30809,3232235528,182473588,1,1,0.31,-21.8861,-32.11948,3
1562003736.024829,120,0,0,1562003735.347561,4.634787703515108,-74.15103397847399,2563.931,-1,-1,10,65,-9999,1562003736.022923,-21.81713485717773,-6.571025848388672,17.90338134765625,120.9588470458984,128.4528198242188,15,10225.140435125,-0.242340087890625,-0.970245361328125,0.152191162109375,10225.140435125,-0.08484351863996238,0.003461576784884994,0.05732693930893668,10225.124688125,-22.95594787597656,3.967437744140625,-522.4462890625,10225.135369125,-1.107001054464871,-2.128850905480887,1.27652913411632,-0.08233790844678879,-0.01697017624974251,0.04592691734433174,0.003772437572479248,-0.01287949085235596,0.001671791076660156,1,0.1233788505196571,0.7493802905082703,0.6479998826980591,-0.05747232586145401,-0.2460362166166306,-0.9570149183273315,0.1535863280296326,0,0,0,-1,10223.02696491667,3,2,1562003733.900957,1562003626.666006,7,1.998636,0,0,7.126037,0,0,1562003734.559089,10222.323489,0,-0.8562012,75.30809,3232235528,182473588,1,1,0.31,-21.8861,-32.11948,3
1562003736.045058,121,0,0,1562003735.347561,4.634787703515108,-74.15103397847399,2563.931,-1,-1,10,65,-9999,1562003736.022923,-21.81713485717773,-6.571025848388672,17.90338134765625,120.9588470458984,128.4528198242188,15,10225.160699125,-0.2342529296875,-0.96392822265625,0.1392822265625,10225.160699125,-0.100323408792157,0.06864590657399146,0.09899821983373354,10225.144799125,-22.88296508789062,3.827972412109375,-522.7142333984375,10225.155633125,-1.114825992905917,-2.121069001569352,1.276410444325615,-0.1023646146059036,0.04903919994831085,0.08589004725217819,0.008260965347290039,-0.01033514738082886,-0.008415699005126953,1,0.1238228678703308,0.7486861944198608,0.6486802101135254,-0.05788642168045044,-0.2473204135894775,-0.9569805264472961,0.151726245880127,0,0,0,-1,10223.02696491667,3,2,1562003733.900957,1562003626.666006,7,1.998636,0,0,7.126037,0,0,1562003734.559089,10222.323489,0,-0.8562012,75.30809,3232235528,182473588,1,1,0.31,-22.44338,-32.41763,3
