loggingTime,loggingSample,identifierForVendor,deviceID,locationTimestamp_since1970,locationLatitude,locationLongitude,locationAltitude,locationSpeed,locationCourse,locationVerticalAccuracy,locationHorizontalAccuracy,locationFloor,locationHeadingTimestamp_since1970,locationHeadingX,locationHeadingY,locationHeadingZ,locationTrueHeading,locationMagneticHeading,locationHeadingAccuracy,accelerometerTimestamp_sinceReboot,accelerometerAccelerationX,accelerometerAccelerationY,accelerometerAccelerationZ,gyroTimestamp_sinceReboot,gyroRotationX,gyroRotationY,gyroRotationZ,magnetometerTimestamp_sinceReboot,magnetometerX,magnetometerY,magnetometerZ,motionTimestamp_sinceReboot,motionYaw,motionRoll,motionPitch,motionRotationRateX,motionRotationRateY,motionRotationRateZ,motionUserAccelerationX,motionUserAccelerationY,motionUserAccelerationZ,motionAttitudeReferenceFrame,motionQuaternionX,motionQuaternionY,motionQuaternionZ,motionQuaternionW,motionGravityX,motionGravityY,motionGravityZ,motionMagneticFieldX,motionMagneticFieldY,motionMagneticFieldZ,motionMagneticFieldCalibrationAccuracy,activityTimestamp_sinceReboot,activity,activityActivityConfidence,activityActivityStartDate,pedometerStartDate,pedometerNumberofSteps,pedometerAverageActivePace,pedometerCurrentPace,pedometerCurrentCadence,pedometerDistance,pedometerFloorAscended,pedometerFloorDescended,pedometerEndDate,altimeterTimestamp_sinceReboot,altimeterReset,altimeterRelativeAltitude,altimeterPressure,IP_en0,IP_pdp_ip0,deviceOrientation,batteryState,batteryLevel,avAudioRecorderPeakPower,avAudioRecorderAveragePower,label
1561914391.264633,1,0,0,1561914391.016333,4.634817992341365,-74.15130754939666,2553.012,0.31,7.03125,4,30,-9999,1561914391.237845,10.40471649169922,22.68877029418945,15.25628662109375,32.60959243774414,40.10306167602539,15,197106.420144,-0.702545166015625,0.703887939453125,0.1385345458984375,197106.402932,0.04194212400765792,0.001111869755108082,-0.4261443902484843,197106.403085,-65.5595703125,-6.345840454101562,-548.2182006835938,197106.402932,0.5300401596652481,-1.753750262417977,-0.805931623801513,0.03929789364337921,-0.005454371217638254,-0.4293898940086365,-0.03293836116790771,-0.01333087682723999,0.008313536643981934,1,0.05681698024272919,0.7481719851493835,-0.4450371265411377,-0.4888277053833008,-0.6808830499649048,0.7214760780334473,0.1259789764881134,0,0,0,-1,197105.806768875,3,2,1561914390.644305,1561913957.287787,16,1.221493,0,0,13.06835,0,0,1561914226.950748,197103.569091,0,0.8903809,75.29678,3232235528,177845136,1,1,0.54,-22.6268,-34.7625,1
1561914391.266821,2,0,0,1561914391.016333,4.634817992341365,-74.15130754939666,2553.012,0.31,7.03125,4,30,-9999,1561914391.237845,10.40471649169922,22.68877029418945,15.25628662109375,32.60959243774414,40.10306167602539,15,197106.440408,-0.6978607177734375,0.7150726318359375,0.14404296875,197106.423196,0.07899788004723846,0.01854332435411273,-0.5330647153768765,197106.423196,-65.40855407714844,-6.47216796875,-548.1987915039062,197106.423196,0.5343318910143189,-1.750691680309456,-0.7963832423275133,0.07635364681482315,0.01197708211839199,-0.5363101959228516,-0.01453351974487305,-0.01094365119934082,0.0134117603302002,1,0.05279925838112831,0.7481802105903625,-0.443059504032135,-0.491056889295578,-0.688011646270752,0.7148315906524658,0.1251227855682373,0,0,0,-1,197105.806768875,3,2,1561914390.644305,1561913957.287787,16,1.221493,0,0,13.06835,0,0,1561914226.950748,197103.569091,0,0.8903809,75.29678,3232235528,177845136,1,1,0.54,-22.6268,-34.7625,1
1561914391.298185,3,0,0,1561914391.016333,4.634817992341365,-74.15130754939666,2553.012,0.31,7.03125,4,30,-9999,1561914391.267731,10.24494171142578,22.96431159973145,15.3193359375,32.27665710449219,39.77012634277344,15,197106.460671,-0.6811981201171875,0.7185516357421875,0.1465606689453125,197106.443429,0.0694139622323703,0.07152345213182207,-0.5277754111358701,197106.443307,-66.01835632324219,-6.478424072265625,-548.3185424804688,197106.443429,0.5391873839133925,-1.746444211037864,-0.785856245908014,0.06676972657442093,0.06495720893144608,-0.5310208797454834,-0.001952707767486572,0.007642030715942383,0.02053546905517578,1,0.04850480705499649,0.747931182384491,-0.440900057554245,-0.493815153837204,-0.6959079504013062,0.7074306011199951,0.1235075369477272,0,0,0,-1,197105.806768875,3,2,1561914390.644305,1561913957.287787,16,1.221493,0,0,13.06835,0,0,1561914226.950748,197103.569091,0,0.8903809,75.29678,3232235528,177845136,1,1,0.54,-23.18408,-35.47696,1
1561914391.305726,4,0,0,1561914391.016333,4.634817992341365,-74.15130754939666,2553.012,0.31,7.03125,4,30,-9999,1561914391.267731,10.24494171142578,22.96431159973145,15.3193359375,32.27665710449219,39.77012634277344,15,197106.480935,-0.6514129638671875,0.710906982421875,0.1446380615234375,197106.463693,0.04580051179496472,0.1146687923199778,-0.4677538854359913,197106.463418,-66.22801208496094,-6.422042846679688,-548.472412109375,197106.463693,0.5431986042959653,-1.741779524654345,-0.7760931077242188,0.04315628111362457,0.1081025525927544,-0.4709993898868561,0.02205121517181396,0.0180550217628479,0.0251312255859375,1,0.04485273733735085,0.7474643588066101,-0.4387735426425934,-0.4967525899410248,-0.7032493352890015,0.7004966139793396,0.1214294731616974,0,0,0,-1,197105.806768875,3,2,1561914390.644305,1561913957.287787,16,1.221493,0,0,13.06835,0,0,1561914226.950748,197103.569091,0,0.8903809,75.29678,3232235528,177845136,1,1,0.54,-23.74136,-35.82426,1
1561914391.3258,5,0,0,1561914391.016333,4.634817992341365,-74.15130754939666,2553.012,0.31,7.03125,4,30,-9999,1561914391.312227,9.430168151855469,22.94245719909668,14.9754638671875,31.72535133361816,39.21881866455078,15,197106.501199,-0.671295166015625,0.7247314453125,0.1546783447265625,197106.483956,-0.01261938882534047,0.09876199744504351,-0.4150611127399015,197106.483529,-66.61497497558594,-6.126815795898438,-548.5108642578125,197106.483956,0.5459125994692334,-1.737796640638072,-0.7670977524415634,-0.01526361983269453,0.09219575673341751,-0.4183066189289093,0.05849939584732056,0.01685822010040283,0.02496790885925293,1,0.04177408292889595,0.7470542192459106,-0.436589390039444,-0.4995545148849487,-0.7099123597145081,0.6940487623214722,0.1196701601147652,0,0,0,-1,197105.806768875,3,2,1561914390.644305,1561913957.287787,16,1.221493,0,0,13.06835,0,0,1561914226.950748,197103.569091,0,0.8903809,75.29678,3232235528,177845136,1,1,0.54,-24.29864,-36.23439,1
1561914391.345704,6,0,0,1561914391.016333,4.634817992341365,-74.15130754939666,2553.012,0.31,7.03125,4,30,-9999,1561914391.332342,9.323867797851562,23.04981422424316,15.04522705078125,31.65281867980957,39.14628601074219,15,197106.521462,-0.666351318359375,0.7286529541015625,0.15240478515625,197106.50422,-0.03654096700086822,0.102409729190125,-0.3071199979656819,197106.50364,-66.87162780761719,-6.223846435546875,-548.44189453125,197106.50422,0.5469142191039927,-1.735122913763579,-0.7596896888883256,-0.03918519616127014,0.09584348648786545,-0.3103654980659485,0.0439874529838562,0.03603500127792358,0.03606891632080078,1,0.03955933079123497,0.746819794178009,-0.4345002174377441,-0.5019013285636902,-0.7152826189994812,0.6886965036392212,0.1186094880104065,0,0,0,-1,197105.806768875,3,2,1561914390.644305,1561913957.287787,16,1.221493,0,0,13.06835,0,0,1561914226.950748,197103.569091,0,0.8903809,75.29678,3232235528,177845136,1,1,0.54,-24.29864,-36.23439,1
1561914391.37459,7,0,0,1561914391.016333,4.634817992341365,-74.15130754939666,2553.012,0.31,7.03125,4,30,-9999,1561914391.35743,9.066513061523438,23.02170372009277,15.2161865234375,31.76815986633301,39.26162719726562,15,197106.541726,-0.66229248046875,0.7248687744140625,0.1592559814453125,197106.524484,-0.1045791402141036,0.01156104860814298,-0.1649130547098487,197106.523751,-66.77534484863281,-6.474746704101562,-548.2850952148438,197106.524484,0.5458606413448723,-1.734759591806045,-0.7546702799948704,-0.1072233691811562,0.004994807299226522,-0.1681585609912872,0.05237585306167603,0.04360443353652954,0.03349244594573975,1,0.03838838264346123,0.7469822764396667,-0.4326775968074799,-0.5033230185508728,-0.718727171421051,0.685048520565033,0.1189123764634132,0,0,0,-1,197105.806768875,3,2,1561914390.644305,1561913957.287787,16,1.221493,0,0,13.06835,0,0,1561914226.950748,197103.569091,0,0.8903809,75.29678,3232235528,177845136,1,1,0.54,-25.4132,-36.55555,1
1561914391.386158,8,0,0,1561914391.016333,4.634817992341365,-74.15130754939666,2553.012,0.31,7.03125,4,30,-9999,1561914391.382548,8.853507995605469,23.34432029724121,15.30426025390625,31.99088478088379,39.48435211181641,15,197106.561959,-0.6780853271484375,0.734619140625,0.1749420166015625,197106.544747,-0.1168821455019426,-0.2514492785386655,0.009219064745527299,197106.543862,-66.69554138183594,-6.166046142578125,-548.2369384765625,197106.544747,0.5430048303723476,-1.738927009387171,-0.7524989128705406,-0.1195263788104057,-0.258015513420105,0.005973562598228455,0.05739724636077881,0.04140371084213257,0.03710079193115234,1,0.03784535452723503,0.7480944395065308,-0.4313659369945526,-0.5028376579284668,-0.7196897268295288,0.6834650635719299,0.1221551224589348,0,0,0,-1,197105.806768875,3,2,1561914390.644305,1561913957.287787,16,1.221493,0,0,13.06835,0,0,1561914226.950748,197103.569091,0,0.8903809,75.29678,3232235528,177845136,1,1,0.54,-25.4132,-36.55555,1
1561914391.408958,9,0,0,1561914391.016333,4.634817992341365,-74.15130754939666,2553.012,0.31,7.03125,4,30,-9999,1561914391.40761,9.435501098632812,22.93166542053223,15.13629150390625,32.39363861083984,39.88710784912109,15,197106.582223,-0.6324005126953125,0.73590087890625,0.160919189453125,197106.565011,-0.1010786812773034,-0.53321678187512,0.389535778955928,197106.563973,-66.599609375,-6.46380615234375,-548.256103515625,197106.565011,0.5394040035679657,-1.749705986121324,-0.7565082348792431,-0.1037229150533676,-0.5397830009460449,0.3862902820110321,0.03754377365112305,0.04823285341262817,0.04552531242370605,1,0.03817432373762131,0.7505005598068237,-0.4319173097610474,-0.4987374246120453,-0.7156291007995605,0.6863862872123718,0.1294167339801788,0,0,0,-1,197105.806768875,3,2,1561914390.644305,1561913957.287787,16,1.221493,0,0,13.06835,0,0,1561914226.950748,197103.569091,0,0.8903809,75.29678,3232235528,177845136,1,1,0.54,-25.97048,-36.94407,1
1561914391.426697,10,0,0,1561914391.016333,4.634817992341365,-74.15130754939666,2553.012,0.31,7.03125,4,30,-9999,1561914391.40761,9.435501098632812,22.93166542053223,15.13629150390625,32.39363861083984,39.88710784912109,15,197106.602487,-0.6403656005859375,0.742279052734375,0.1531524658203125,197106.585275,-0.156821572369861,-0.6816946705497627,0.594890532715284,197106.584085,-66.30416870117188,-6.085693359375,-548.603759765625,197106.585275,0.5330388066494044,-1.767108720631678,-0.7661759210252677,-0.1594657897949219,-0.6882609128952026,0.5916450619697571,0.07432669401168823,0.04251605272293091,0.0203697681427002,1,0.03992897272109985,0.7541090250015259,-0.4337109923362732,-0.4915485978126526,-0.7067272067070007,0.6933848261833191,0.1405494958162308,0,0,0,-1,197105.806768875,3,2,1561914390.644305,1561913957.287787,16,1.221493,0,0,13.06835,0,0,1561914226.950748,197103.569091,0,0.8903809,75.29678,3232235528,177845136,1,1,0.54,-26.52776,-37.64507,1
1561914391.453132,11,0,0,1561914391.016333,4.634817992341365,-74.15130754939666,2553.012,0.31,7.03125,4,30,-9999,1561914391.433141,9.788078308105469,22.84809684753418,15.238037109375,32.99118041992188,40.48464965820312,15,197106.62275,-0.6404876708984375,0.7164306640625,0.1494903564453125,197106.605538,-0.1675969884564306,-0.5764864916861825,0.6205245234717327,197106.604196,-65.57498168945312,-6.667282104492188,-548.4913940429688,197106.605538,0.5246656193262876,-1.785939428158667,-0.7778467005585691,-0.1702412068843842,-0.5830526947975159,0.617279052734375,0.05563616752624512,0.04053205251693726,0.001058578491210938,1,0.04273770377039909,0.7577733397483826,-0.4357454180717468,-0.4838170409202576,-0.6960017681121826,0.7017470002174377,0.1520938873291016,0,0,0,-1,197105.806768875,3,2,1561914390.644305,1561913957.287787,16,1.221493,0,0,13.06835,0,0,1561914226.950748,197103.569091,0,0.8903809,75.29678,3232235528,177845136,1,1,0.54,-27.08503,-38.05258,1
1561914391.467206,12,0,0,1561914391.016333,4.634817992341365,-74.15130754939666,2553.012,0.31,7.03125,4,30,-9999,1561914391.458188,10.17288208007812,22.67308044433594,15.062255859375,33.51505661010742,41.00852584838867,15,197106.643014,-0.6613616943359375,0.7083740234375,0.1473388671875,197106.625772,-0.1379280423324028,-0.4092231973143388,0.4580293527155669,197106.624307,-65.08975219726562,-6.785675048828125,-548.5176391601562,197106.625772,0.5169412969203225,-1.801707092998067,-0.7880151647493356,-0.140572264790535,-0.4157894253730774,0.4547838568687439,0.04604768753051758,0.007475793361663818,-0.0119171142578125,1,0.04545198380947113,0.7606824636459351,-0.4374736547470093,-0.4774025082588196,-0.6865353584289551,0.7089548707008362,0.1614073812961578,0,0,0,-1,197105.806768875,3,2,1561914390.644305,1561913957.287787,16,1.221493,0,0,13.06835,0,0,1561914226.950748,197103.569091,0,0.8903809,75.29678,3232235528,177845136,1,1,0.54,-27.64231,-38.76296,1
1561914391.487598,13,0,0,1561914391.016333,4.634817992341365,-74.15130754939666,2553.012,0.31,7.03125,4,30,-9999,1561914391.483787,10.97332763671875,22.39950942993164,14.990966796875,33.8715705871582,41.36503982543945,15,197106.663278,-0.66021728515625,0.70758056640625,0.1482696533203125,197106.646035,-0.1086508472047257,-0.2142547718062918,0.2894544515068593,197106.644448,-64.880126953125,-6.9227294921875,-548.6624755859375,197106.646035,0.5109066046878431,-1.812480449736455,-0.7947791818656332,-0.1112950816750526,-0.2208210080862045,0.2862089574337006,0.01872307062149048,-0.005334913730621338,-0.02030372619628906,1,0.04751893132925034,0.7626029253005981,-0.4384557902812958,-0.4732178747653961,-0.680084764957428,0.7137089371681213,0.1676425337791443,0,0,0,-1,197105.806768875,3,2,1561914390.644305,1561913957.287787,16,1.221493,0,0,13.06835,0,0,1561914226.950748,197103.569091,0,0.8903809,75.29678,3232235528,177845136,1,1,0.54,-28.19959,-38.94408,1
1561914391.509391,14,0,0,1561914391.016333,4.634817992341365,-74.15130754939666,2553.012,0.31,7.03125,4,30,-9999,1561914391.483787,10.97332763671875,22.39950942993164,14.990966796875,33.8715705871582,41.36503982543945,15,197106.683541,-0.66534423828125,0.7102203369140625,0.15936279296875,197106.666299,-0.07897630844240881,-0.052330050155621,0.1064968825150697,197106.664559,-64.738037109375,-6.967498779296875,-548.4987182617188,197106.666299,0.5068724221514037,-1.818018821310933,-0.7983624277141054,-0.08162054419517517,-0.05889629200100899,0.1032513752579689,0.01644450426101685,-0.008633673191070557,-0.02250993251800537,1,0.0489652045071125,0.7635392546653748,-0.4387886524200439,-0.4712479114532471,-0.6766617894172668,0.7162142395973206,0.1707795709371567,0,0,0,-1,197105.806768875,3,2,1561914390.644305,1561913957.287787,16,1.221493,0,0,13.06835,0,0,1561914226.950748,197103.569091,0,0.8903809,75.29678,3232235528,177845136,1,1,0.54,-28.75687,-36.45558,1
1561914391.535531,15,0,0,1561914391.016333,4.634817992341365,-74.15130754939666,2553.012,0.31,7.03125,4,30,-9999,1561914391.508481,11.00823974609375,22.40715217590332,15.058349609375,34.05487060546875,41.54833984375,15,197106.703805,-0.664031982421875,0.7235107421875,0.16522216796875,197106.686563,-0.06560377766079394,0.03841396819552095,-0.02735279492398584,197106.68467,-64.87815856933594,-6.808273315429688,-548.5126953125,197106.686563,0.5046301115423535,-1.819766882475132,-0.7986284830382717,-0.06824801117181778,0.03184772655367851,-0.03059829771518707,0.010833740234375,-0.006179511547088623,-0.01255249977111816,1,0.04952127113938332,0.7638751864433289,-0.4383890926837921,-0.4710175096988678,-0.676177978515625,0.7163998484611511,0.1719153076410294,0,0,0,-1,197105.806768875,3,2,1561914390.644305,1561913957.287787,16,1.221493,0,0,13.06835,0,0,1561914226.950748,197103.569091,0,0.8903809,75.29678,3232235528,177845136,1,1,0.54,-29.31415,-36.67783,1
1561914391.548295,16,0,0,1561914391.016333,4.634817992341365,-74.15130754939666,2553.012,0.31,7.03125,4,30,-9999,1561914391.535156,11.02249908447266,22.37789154052734,15.15234375,34.18400573730469,41.67747497558594,15,197106.724069,-0.65509033203125,0.7267913818359375,0.171356201171875,197106.706826,-0.08160271790944496,0.04224971911356207,-0.03419498839661742,197106.704782,-64.8995361328125,-7.02703857421875,-548.501953125,197106.706826,0.5028232713449889,-1.820230508331522,-0.7975174602483726,-0.08424694836139679,0.03568347916007042,-0.03744048997759819,0.01283669471740723,0.007886409759521484,-0.007202982902526855,1,0.04976312816143036,0.7640262842178345,-0.4376165866851807,-0.4714648425579071,-0.676868736743927,0.7156242728233337,0.1724250614643097,0,0,0,-1,197105.806768875,3,2,1561914390.644305,1561913957.287787,16,1.221493,0,0,13.06835,0,0,1561914226.950748,197103.569091,0,0.8903809,75.29678,3232235528,177845136,1,1,0.54,-29.31415,-36.67783,1
1561914391.568506,17,0,0,1561914391.016333,4.634817992341365,-74.15130754939666,2553.012,0.31,7.03125,4,30,-9999,1561914391.559175,10.87952423095703,22.39385986328125,15.322265625,34.33416748046875,41.82763671875,15,197106.744302,-0.654632568359375,0.7193756103515625,0.165863037109375,197106.72709,-0.08458918675585982,0.03773379685311471,-0.04342097736097893,197106.724893,-64.71495056152344,-7.317794799804688,-548.35498046875,197106.72709,0.5006433960561413,-1.821177114954887,-0.7962518930263716,-0.08723341673612595,0.03116755560040474,-0.04666648060083389,0.0224916934967041,0.01205164194107056,-0.001933813095092773,1,0.04999437928199768,0.7642941474914551,-0.4367173612117767,-0.4718398451805115,-0.6775820255279541,0.7147397398948669,0.1732899695634842,0,0,0,-1,197105.806768875,3,2,1561914390.644305,1561913957.287787,16,1.221493,0,0,13.06835,0,0,1561914226.950748,197103.569091,0,0.8903809,75.29678,3232235528,177845136,1,1,0.54,-29.87143,-37.25798,1
1561914391.588764,18,0,0,1561914391.016333,4.634817992341365,-74.15130754939666,2553.012,0.31,7.03125,4,30,-9999,1561914391.585206,10.66645050048828,22.33769035339355,15.269287109375,34.49844360351562,41.99191284179688,15,197106.764566,-0.6891326904296875,0.750579833984375,0.1278076171875,197106.747354,-0.07501352474037092,0.09964749850749485,-0.07563457390657739,197106.745004,-65.05760192871094,-7.137039184570312,-548.45458984375,197106.747354,0.498846799012328,-1.821493441133828,-0.7945057432409813,-0.07765775918960571,0.09308125823736191,-0.07888007909059525,0.02410262823104858,0.005858182907104492,-0.007950663566589355,1,0.05006770044565201,0.7644606232643127,-0.4357363283634186,-0.4724689424037933,-0.6787351965904236,0.7135173678398132,0.1738136410713196,0,0,0,-1,197105.806768875,3,2,1561914390.644305,1561913957.287787,16,1.221493,0,0,13.06835,0,0,1561914226.950748,197103.569091,0,0.8903809,75.29678,3232235528,177845136,1,1,0.54,-30.42871,-37.69215,1
1561914391.616065,19,0,0,1561914391.016333,4.634817992341365,-74.15130754939666,2553.012,0.31,7.03125,4,30,-9999,1561914391.609468,10.60601806640625,22.26447677612305,15.270263671875,34.5358772277832,42.02934646606445,15,197106.784829,-0.655426025390625,0.7144317626953125,0.2042236328125,197106.767617,-0.09923284432576952,0.26823651446998,-0.07357568406783713,197106.765115,-65.36164855957031,-7.15185546875,-548.2752075195312,197106.767617,0.4958304058587118,-1.818262975409522,-0.7931895065187835,-0.1018770784139633,0.2616702914237976,-0.07682118564844131,-0.008929550647735596,0.03798520565032959,-0.04404246807098389,1,0.05151242390275002,0.7637221217155457,-0.4345140755176544,-0.4746287167072296,-0.6802031397819519,0.7125945687294006,0.1718500107526779,0,0,0,-1,197105.806768875,3,2,1561914390.644305,1561913957.287787,16,1.221493,0,0,13.06835,0,0,1561914226.950748,197103.569091,0,0.8903809,75.29678,3232235528,177845136,1,1,0.54,-30.98599,-34.40896,1
1561914391.629323,20,0,0,1561914391.016333,4.634817992341365,-74.15130754939666,2553.012,0.31,7.03125,4,30,-9999,1561914391.609468,10.60601806640625,22.26447677612305,15.270263671875,34.5358772277832,42.02934646606445,15,197106.805093,-0.6873016357421875,0.708892822265625,0.159515380859375,197106.787881,0.01247770865534826,0.1449529286558139,-0.1805719092872966,197106.785226,-65.42146301269531,-6.894744873046875,-548.4317016601562,197106.787881,0.4964318460757365,-1.814226939284427,-0.7903678394591637,0.009833477437496185,0.1383866816759109,-0.1838174164295197,0.02741396427154541,0.003819644451141357,0.03463637828826904,1,0.05127720162272453,0.7629969120025635,-0.4336407780647278,-0.4766151010990143,-0.6828399300575256,0.7106121182441711,0.1695872843265533,0,0,0,-1,197105.806768875,3,2,1561914390.644305,1561913957.287787,16,1.221493,0,0,13.06835,0,0,1561914226.950748,197103.569091,0,0.8903809,75.29678,3232235528,177845136,1,1,0.54,-31.54326,-35.01523,1
1561914391.650282,21,0,0,1561914391.016333,4.634817992341365,-74.15130754939666,2553.012,0.31,7.03125,4,30,-9999,1561914391.6358,10.58873748779297,22.5527172088623,15.4151611328125,34.48978424072266,41.98325347900391,15,197106.825357,-0.6836395263671875,0.71044921875,0.177978515625,197106.808114,-0.05286854132803502,0.24084723423906,-0.1985714161468152,197106.805306,-65.25291442871094,-6.938705444335938,-548.2183837890625,197106.808114,0.4970507176327119,-1.809996448469156,-0.7863895189040301,-0.05551277101039886,0.234280988574028,-0.2018169164657593,-0.001009225845336914,0.001085400581359863,-0.007850170135498047,1,0.05071118101477623,0.7623064517974854,-0.4323953986167908,-0.4789064526557922,-0.6862924098968506,0.7078074216842651,0.1673655062913895,0,0,0,-1,197105.806768875,3,2,1561914390.644305,1561913957.287787,16,1.221493,0,0,13.06835,0,0,1561914226.950748,197103.569091,0,0.8903809,75.29678,3232235528,177845136,1,1,0.54,-28.6943,-35.03991,1
1561914391.669916,22,0,0,1561914391.016333,4.634817992341365,-74.15130754939666,2553.012,0.31,7.03125,4,30,-9999,1561914391.660192,10.28089904785156,22.62058258056641,15.508056640625,34.51515579223633,42.00862503051758,15,197106.84562,-0.6806182861328125,0.7069244384765625,0.170562744140625,197106.828378,-0.05516791461320943,0.2516950883072798,-0.1743382481237482,197106.825418,-65.38357543945312,-7.065826416015625,-548.0283203125,197106.828378,0.4967003648757097,-1.805480481238668,-0.7824771736840644,-0.05782737582921982,0.2451133728027344,-0.1775818318128586,0.006089627742767334,0.005410909652709961,0.01307129859924316,1,0.05059104785323143,0.7615078091621399,-0.430933952331543,-0.481499969959259,-0.6897291541099548,0.70503830909729,0.1649072021245956,0,0,0,-1,197105.806768875,3,2,1561914390.644305,1561913957.287787,16,1.221493,0,0,13.06835,0,0,1561914226.950748,197103.569091,0,0.8903809,75.29678,3232235528,177845136,1,1,0.54,-28.6943,-35.03991,1
1561914391.695386,23,0,0,1561914391.016333,4.634817992341365,-74.15130754939666,2553.012,0.31,7.03125,4,30,-9999,1561914391.68657,10.34059906005859,22.31224250793457,15.79095458984375,34.50581359863281,41.99928283691406,15,197106.865884,-0.6702423095703125,0.700103759765625,0.1735076904296875,197106.848641,-0.0272539916475439,0.2343001190152092,-0.152654524212214,197106.845529,-65.64930725097656,-6.989105224609375,-547.9187622070312,197106.848641,0.4964011370994943,-1.800747109568615,-0.779156631033288,-0.02991345338523388,0.227718397974968,-0.1558981090784073,0.01215946674346924,0.004244804382324219,0.00838935375213623,1,0.05067823827266693,0.7606039643287659,-0.4296709597110748,-0.4840414524078369,-0.6927777528762817,0.7026796340942383,0.1621733456850052,0,0,0,-1,197105.806768875,3,2,1561914390.644305,1561913957.287787,16,1.221493,0,0,13.06835,0,0,1561914226.950748,197103.569091,0,0.8903809,75.29678,3232235528,177845136,1,1,0.54,-28.6943,-33.57183,1
1561914391.710582,24,0,0,1561914391.016333,4.634817992341365,-74.15130754939666,2553.012,0.31,7.03125,4,30,-9999,1561914391.68657,10.34059906005859,22.31224250793457,15.79095458984375,34.50581359863281,41.99928283691406,15,197106.886148,-0.6753997802734375,0.6988067626953125,0.171295166015625,197106.868905,-0.003719637094513672,0.2406419045190149,-0.1586682082697219,197106.86564,-65.87837219238281,-6.710906982421875,-547.844482421875,197106.868905,0.4968123866583695,-1.795875570468125,-0.7760322639973523,-0.006379098631441593,0.2340601831674576,-0.1619117856025696,0.02545404434204102,-0.0003494620323181152,0.0142219066619873,1,0.05058139190077782,0.7596607208251953,-0.4286410510540009,-0.4864400923252106,-0.6956963539123535,0.7004531621932983,0.159285768866539,0,0,0,-1,197105.806768875,3,2,1561914390.644305,1561913957.287787,16,1.221493,0,0,13.06835,0,0,1561914226.950748,197103.569091,0,0.8903809,75.29678,3232235528,177845136,1,1,0.54,-28.6943,-33.57183,1
1561914391.730627,25,0,0,1561914391.016333,4.634817992341365,-74.15130754939666,2553.012,0.31,7.03125,4,30,-9999,1561914391.710762,10.01947021484375,22.51493072509766,15.73858642578125,34.43593978881836,41.92940902709961,15,197106.906381,-0.7047271728515625,0.7122344970703125,0.1638946533203125,197106.889169,0.01229874423009493,0.2629898208064149,-0.1426231953342125,197106.885751,-65.91807556152344,-6.753082275390625,-548.0552368164062,197106.889169,0.4979175656031051,-1.790068802260012,-0.7729052560684594,0.009639282710850239,0.2564080953598022,-0.1458667814731598,0.02334415912628174,0.0005887150764465332,0.01557612419128418,1,0.0504155345261097,0.7584970593452454,-0.4277586042881012,-0.4890429675579071,-0.6987439393997192,0.6982179880142212,0.1557190269231796,0,0,0,-1,197105.806768875,3,2,1561914390.644305,1561913957.287787,16,1.221493,0,0,13.06835,0,0,1561914226.950748,197103.569091,0,0.8903809,75.29678,3232235528,177845136,1,1,0.54,-28.6943,-34.2319,1
1561914391.750862,26,0,0,1561914391.016333,4.634817992341365,-74.15130754939666,2553.012,0.31,7.03125,4,30,-9999,1561914391.737618,9.939353942871094,22.49159622192383,15.53814697265625,34.4216423034668,41.91511154174805,15,197106.926644,-0.68878173828125,0.711029052734375,0.16827392578125,197106.909432,-0.03381282478019105,0.4044649273946942,-0.02360519463802634,197106.905862,-65.69096374511719,-6.761138916015625,-547.671630859375,197106.909432,0.4980607540732754,-1.783243750656068,-0.771153197110949,-0.03647228702902794,0.3978832066059113,-0.02684876881539822,-0.003741979598999023,0.01527184247970581,0.01269042491912842,1,0.0512634739279747,0.7569505572319031,-0.4270583391189575,-0.4919542968273163,-0.7009851932525635,0.6969626545906067,0.1512041836977005,0,0,0,-1,197105.806768875,3,2,1561914390.644305,1561913957.287787,16,1.221493,0,0,13.06835,0,0,1561914226.950748,197103.569091,0,0.8903809,75.29678,3232235528,177845136,1,1,0.54,-28.6943,-34.76929,1
1561914391.776908,27,0,0,1561914391.016333,4.634817992341365,-74.15130754939666,2553.012,0.31,7.03125,4,30,-9999,1561914391.76137,9.815559387207031,22.46713638305664,15.7708740234375,34.35346603393555,41.8469352722168,15,197106.946908,-0.6956939697265625,0.72479248046875,0.154510498046875,197106.929696,0.0728960453576489,0.3619347774183468,0.09914575895812393,197106.925973,-66.00639343261719,-6.988250732421875,-547.778564453125,197106.929696,0.4983308500969338,-1.775776522985725,-0.7717914877904243,0.07023658603429794,0.355353057384491,0.09590218216180801,0.01287740468978882,0.01360881328582764,0.02239894866943359,1,0.05295943841338158,0.7550714015960693,-0.4271343648433685,-0.4945894777774811,-0.7016591429710388,0.6974202394485474,0.1458750516176224,0,0,0,-1,197105.806768875,3,2,1561914390.644305,1561913957.287787,16,1.221493,0,0,13.06835,0,0,1561914226.950748,197104.514438,0,0.9750977,75.29597,3232235528,177845136,1,1,0.54,-28.6943,-35.46355,1
1561914391.791945,28,0,0,1561914391.016333,4.634817992341365,-74.15130754939666,2553.012,0.31,7.03125,4,30,-9999,1561914391.787748,9.706497192382812,22.44442749023438,15.76300048828125,34.07414627075195,41.5676155090332,15,197106.967172,-0.689544677734375,0.7222137451171875,0.1441192626953125,197106.94996,0.1843088569288958,0.3145100036745427,0.2077579903270435,197106.946084,-65.99310302734375,-7.024978637695312,-547.890625,197106.94996,0.5008327760440892,-1.767552239363128,-0.7753192675258516,0.1816494017839432,0.3079282641410828,0.2045144140720367,0.004723966121673584,0.0248483419418335,0.0148928165435791,1,0.05490461364388466,0.7528574466705322,-0.4286542534828186,-0.4964340329170227,-0.7004179358482361,0.6999441385269165,0.1396176964044571,0,0,0,-1,197105.806768875,3,2,1561914390.644305,1561913957.287787,16,1.221493,0,0,13.06835,0,0,1561914226.950748,197104.514438,0,0.9750977,75.29597,3232235528,177845136,1,1,0.54,-28.6943,-35.73639,1
1561914391.811864,29,0,0,1561914391.016333,4.634817992341365,-74.15130754939666,2553.012,0.31,7.03125,4,30,-9999,1561914391.787748,9.706497192382812,22.44442749023438,15.76300048828125,34.07414627075195,41.5676155090332,15,197106.987435,-0.681488037109375,0.7150726318359375,0.134552001953125,197106.970223,0.2898637793664045,0.2755895022396888,0.2609612910041015,197106.966195,-66.13816833496094,-6.8814697265625,-547.8662719726562,197106.970223,0.5059492262338926,-1.758165953581729,-0.7809744047304062,0.2872042953968048,0.2690077722072601,0.2577177286148071,0.008252620697021484,0.01824194192886353,0.01182138919830322,1,0.05681796744465828,0.7502803802490234,-0.4314490258693695,-0.4976975321769714,-0.6977972984313965,0.703971803188324,0.1322978585958481,0,0,0,-1,197105.806768875,3,2,1561914390.644305,1561913957.287787,16,1.221493,0,0,13.06835,0,0,1561914226.950748,197104.514438,0,0.9750977,75.29597,3232235528,177845136,1,1,0.54,-28.6943,-35.93957,1
1561914391.832412,30,0,0,1561914391.016333,4.634817992341365,-74.15130754939666,2553.012,0.31,7.03125,4,30,-9999,1561914391.812038,9.682464599609375,22.5456428527832,15.62200927734375,33.56378555297852,41.05725479125977,15,197107.007699,-0.681854248046875,0.7073211669921875,0.131805419921875,197106.990457,0.3468876509432901,0.2521534183308825,0.2190138406742634,197106.986306,-66.03523254394531,-6.63555908203125,-548.0298461914062,197106.990457,0.5135132125615878,-1.747578168973782,-0.7869465556026485,0.3442281782627106,0.2455717027187347,0.2157702594995499,0.01351988315582275,0.006871819496154785,0.01039111614227295,1,0.05820876732468605,0.7474571466445923,-0.4348970055580139,-0.4987827837467194,-0.695007860660553,0.7082008123397827,0.1241608932614326,0,0,0,-1,197105.806768875,3,2,1561914390.644305,1561913957.287787,16,1.221493,0,0,13.06835,0,0,1561914226.950748,197104.514438,0,0.9750977,75.29597,3232235528,177845136,1,1,0.54,-28.6943,-35.93957,1
1561914391.854304,31,0,0,1561914391.016333,4.634817992341365,-74.15130754939666,2553.012,0.31,7.03125,4,30,-9999,1561914391.838493,9.932975769042969,22.53915596008301,15.5517578125,32.93663024902344,40.43009948730469,15,197107.027963,-0.6951141357421875,0.7140045166015625,0.134613037109375,197107.01072,0.3384425008105398,0.2084389606177768,0.1426847143553934,197107.006417,-66.02127075195312,-6.723434448242188,-548.129638671875,197107.01072,0.52227886961669,-1.736896045767764,-0.7914918412192993,0.3357830345630646,0.2018572390079498,0.1394411325454712,0.01125830411911011,-0.004081368446350098,0.0156090259552002,1,0.05874745920300484,0.744746208190918,-0.4381807148456573,-0.4998995363712311,-0.6931125521659851,0.7114025354385376,0.1161963567137718,0,0,0,-1,197105.806768875,3,2,1561914390.644305,1561913957.287787,16,1.221493,0,0,13.06835,0,0,1561914226.950748,197104.514438,0,0.9750977,75.29597,3232235528,177845136,1,1,0.54,-28.01248,-28.81517,1
1561914391.872459,32,0,0,1561914391.016333,4.634817992341365,-74.15130754939666,2553.012,0.31,7.03125,4,30,-9999,1561914391.863512,9.58843994140625,22.83948707580566,15.20166015625,32.39287948608398,39.88634872436523,15,197107.048226,-0.6722259521484375,0.6997222900390625,0.1380157470703125,197107.030984,0.2744155808311818,0.1653769773717405,0.1247712275990844,197107.026528,-66.1607666015625,-6.759613037109375,-548.1583251953125,197107.030984,0.5301906134788867,-1.727662777605474,-0.7951170532251132,0.271756112575531,0.1587952524423599,0.1215276569128036,-0.003509998321533203,5.894899368286133e-05,0.02522480487823486,1,0.05901983752846718,0.7424356937408447,-0.4410001039505005,-0.5008242726325989,-0.6916041374206543,0.7139455676078796,0.1093882024288177,0,0,0,-1,197105.806768875,3,2,1561914390.644305,1561913957.287787,16,1.221493,0,0,13.06835,0,0,1561914226.950748,197104.514438,0,0.9750977,75.29597,3232235528,177845136,1,1,0.54,-28.01248,-29.36397,1
1561914391.89295,33,0,0,1561914391.016333,4.634817992341365,-74.15130754939666,2553.012,0.31,7.03125,4,30,-9999,1561914391.889104,9.680458068847656,23.03674697875977,15.1798095703125,31.9732494354248,39.46671676635742,15,197107.06849,-0.6717529296875,0.697845458984375,0.1417236328125,197107.051248,0.2182748134717664,0.101736482066553,0.04001106590124147,197107.046609,-65.96017456054688,-6.539260864257812,-548.20654296875,197107.051248,0.5367419994257193,-1.7204655742352,-0.797534322061403,0.2156153619289398,0.09515475481748581,0.03676749393343925,0.01843887567520142,-0.01591378450393677,0.03386557102203369,1,0.05897486954927444,0.7406733632087708,-0.4431650042533875,-0.5015274286270142,-0.6906648278236389,0.7156360745429993,0.1041501313447952,0,0,0,-1,197105.806768875,3,2,1561914390.644305,1561913957.287787,16,1.221493,0,0,13.06835,0,0,1561914226.950748,197104.514438,0,0.9750977,75.29597,3232235528,177845136,1,1,0.54,-28.01248,-29.78864,1
1561914391.913122,34,0,0,1561914391.016333,4.634817992341365,-74.15130754939666,2553.012,0.31,7.03125,4,30,-9999,1561914391.889104,9.680458068847656,23.03674697875977,15.1798095703125,31.9732494354248,39.46671676635742,15,197107.088723,-0.675872802734375,0.7001190185546875,0.140106201171875,197107.071511,0.1383219238576255,0.02884336618610319,-0.04889270813665573,197107.06672,-66.21418762207031,-6.493026733398438,-548.59619140625,197107.071511,0.5417581429781244,-1.715763221106292,-0.7979254595628358,0.1356624662876129,0.02226164564490318,-0.05213627964258194,0.01911687850952148,-0.01806372404098511,0.0408627986907959,1,0.05829070881009102,0.7396165132522583,-0.4444040358066559,-0.5020703673362732,-0.6908698081970215,0.7159091830253601,0.1008607894182205,0,0,0,-1,197105.806768875,3,2,1561914390.644305,1561913957.287787,16,1.221493,0,0,13.06835,0,0,1561914226.950748,197104.514438,0,0.9750977,75.29597,3232235528,177845136,1,1,0.54,-28.01248,-30.59,1
1561914391.934081,35,0,0,1561914391.016333,4.634817992341365,-74.15130754939666,2553.012,0.31,7.03125,4,30,-9999,1561914391.913288,9.713577270507812,23.16051483154297,15.198486328125,31.72898292541504,39.22245025634766,15,197107.108987,-0.673309326171875,0.714935302734375,0.1307220458984375,197107.091775,0.04594219196495694,0.004183293440296467,-0.07432696181134849,197107.086831,-66.23971557617188,-6.294174194335938,-548.2023315429688,197107.091775,0.544553500382849,-1.713762206460499,-0.7966662057053401,0.04328272864222527,-0.002398427110165358,-0.07757053524255753,0.01608914136886597,-0.01491039991378784,0.04049968719482422,1,0.05728656798601151,0.7392709255218506,-0.4446684718132019,-0.5024605989456177,-0.691961944103241,0.7150294184684753,0.09960650652647018,0,0,0,-1,197105.806768875,3,2,1561914390.644305,1561913957.287787,16,1.221493,0,0,13.06835,0,0,1561914226.950748,197104.514438,0,0.9750977,75.29597,3232235528,177845136,1,1,0.54,-28.01248,-30.72947,1
1561914391.953478,36,0,0,1561914391.016333,4.634817992341365,-74.15130754939666,2553.012,0.31,7.03125,4,30,-9999,1561914391.939852,9.660377502441406,23.23375511169434,15.18438720703125,31.73277854919434,39.22624588012695,15,197107.129251,-0.66461181640625,0.71868896484375,0.119720458984375,197107.112039,-0.04419249512877488,0.05150500284991445,-0.002457298737816113,197107.106942,-66.26394653320312,-6.147872924804688,-548.0591430664062,197107.112039,0.5445228215679518,-1.713513304074379,-0.7957920684274524,-0.04685195535421371,0.04492328315973282,-0.005700873211026192,0.01929599046707153,0.0005172491073608398,0.03119885921478271,1,0.0570647157728672,0.7392598986625671,-0.4443901777267456,-0.5027483105659485,-0.6926053166389465,0.7144180536270142,0.0995231568813324,0,0,0,-1,197105.806768875,3,2,1561914390.644305,1561913957.287787,16,1.221493,0,0,13.06835,0,0,1561914226.950748,197104.514438,0,0.9750977,75.29597,3232235528,177845136,1,1,0.54,-28.01248,-31.24636,1
1561914391.976177,37,0,0,1561914391.016333,4.634817992341365,-74.15130754939666,2553.012,0.31,7.03125,4,30,-9999,1561914391.963976,9.417205810546875,23.30720901489258,15.33831787109375,31.88346672058105,39.37693405151367,15,197107.149514,-0.6652984619140625,0.7201995849609375,0.1116180419921875,197107.132302,-0.07145314467904397,0.06823791029499131,0.01066596016576735,197107.127053,-66.39747619628906,-6.127212524414062,-548.2318115234375,197107.132302,0.5423944899203712,-1.714046315685972,-0.7956869852635811,-0.07411260902881622,0.06165618821978569,0.007422385737299919,0.02801477909088135,0.004344463348388672,0.01981747150421143,1,0.05769842863082886,0.7393391728401184,-0.4438385963439941,-0.5030466318130493,-0.6926265954971313,0.7143445014953613,0.09990303963422775,0,0,0,-1,197105.806768875,3,2,1561914390.644305,1561913957.287787,16,1.221493,0,0,13.06835,0,0,1561914226.950748,197104.514438,0,0.9750977,75.29597,3232235528,177845136,1,1,0.54,-28.01248,-31.69935,1
1561914391.994091,38,0,0,1561914391.016333,4.634817992341365,-74.15130754939666,2553.012,0.31,7.03125,4,30,-9999,1561914391.990598,9.763336181640625,23.11928749084473,15.38812255859375,31.99901390075684,39.49248123168945,15,197107.169778,-0.670562744140625,0.722747802734375,0.10894775390625,197107.152566,-0.04359887652179622,0.06804349953541552,0.02686676802504638,197107.147164,-66.00959777832031,-6.202911376953125,-548.2825317382812,197107.152566,0.5404602567221306,-1.71420926517987,-0.7958159955266803,-0.04625833779573441,0.06146178022027016,0.02362319268286228,0.02722054719924927,0.005764782428741455,0.01161527633666992,1,0.0584198497235775,0.7393162250518799,-0.4433956146240234,-0.5033875703811646,-0.6925190091133118,0.714434802532196,0.100002720952034,0,0,0,-1,197105.806768875,3,2,1561914390.644305,1561913957.287787,16,1.221493,0,0,13.06835,0,0,1561914226.950748,197104.514438,0,0.9750977,75.29597,3232235528,177845136,1,1,0.54,-28.01248,-31.69935,1
1561914392.016404,39,0,0,1561914391.016333,4.634817992341365,-74.15130754939666,2553.012,0.31,7.03125,4,30,-9999,1561914391.990598,9.763336181640625,23.11928749084473,15.38812255859375,31.99901390075684,39.49248123168945,15,197107.190042,-0.67437744140625,0.722808837890625,0.1063232421875,197107.172799,-0.02831472870972246,0.04607641528389693,0.03794072446981387,197107.167275,-66.34327697753906,-6.287139892578125,-548.225830078125,197107.172799,0.539090187109488,-1.714268259279612,-0.79628983921676,-0.03097419068217278,0.03949469327926636,0.03469715267419815,0.02161520719528198,0.007981538772583008,0.008952617645263672,1,0.05906951054930687,0.7392620444297791,-0.4431955516338348,-0.5035674571990967,-0.692177951335907,0.714766263961792,0.09999515116214752,0,0,0,-1,197105.806768875,3,2,1561914390.644305,1561913957.287787,16,1.221493,0,0,13.06835,0,0,1561914226.950748,197104.514438,0,0.9750977,75.29597,3232235528,177845136,1,1,0.54,-28.01248,-32.41978,1
1561914392.034614,40,0,0,1561914392.012446,4.634827002887274,-74.15131324909082,2552.999,0.26,5.2734375,4,30,-9999,1561914392.030175,9.530845642089844,23.01789474487305,15.25616455078125,32.06325912475586,39.55672836303711,15,197107.210305,-0.67486572265625,0.719970703125,0.1079254150390625,197107.193063,-0.006262689619430336,0.02445314512910756,0.04193892821434983,197107.187387,-66.2664794921875,-6.089691162109375,-548.2654418945312,197107.193063,0.5382498210279456,-1.71435726515973,-0.7970274087068453,-0.008922151289880276,0.0178714245557785,0.03869535401463509,0.01726937294006348,0.007526934146881104,0.006341934204101562,1,0.05960361659526825,0.7392144799232483,-0.4432094395160675,-0.5035619735717773,-0.6916468143463135,0.7152819037437439,0.09998127818107605,0,0,0,-1,197105.806768875,3,2,1561914390.644305,1561913957.287787,16,1.221493,0,0,13.06835,0,0,1561914226.950748,197104.514438,0,0.9750977,75.29597,3232235528,177845136,1,1,0.54,-28.01248,-33.3249,1
1561914392.054856,41,0,0,1561914392.012446,4.634827002887274,-74.15131324909082,2552.999,0.26,5.2734375,4,30,-9999,1561914392.030175,9.530845642089844,23.01789474487305,15.25616455078125,32.06325912475586,39.55672836303711,15,197107.230569,-0.677093505859375,0.7198944091796875,0.1099853515625,197107.213327,-0.005447229693648073,0.0163408901326172,0.02346484604857916,197107.207498,-66.16276550292969,-6.45086669921875,-548.1441650390625,197107.213327,0.5379000197073222,-1.714348092662923,-0.7976497200080335,-0.008106691762804985,0.009759170934557915,0.02022127062082291,0.01634132862091064,0.00425410270690918,0.008014082908630371,1,0.059940155595541,0.7391635775566101,-0.4433090686798096,-0.5035090446472168,-0.6912070512771606,0.7157166600227356,0.09991123527288437,0,0,0,-1,197105.806768875,3,2,1561914390.644305,1561913957.287787,16,1.221493,0,0,13.06835,0,0,1561914226.950748,197104.514438,0,0.9750977,75.29597,3232235528,177845136,1,1,0.54,-28.01248,-34.32156,1
1561914392.07531,42,0,0,1561914392.012446,4.634827002887274,-74.15131324909082,2552.999,0.26,5.2734375,4,30,-9999,1561914392.065346,9.582267761230469,23.05560111999512,15.26763916015625,32.11432266235352,39.60779190063477,15,197107.250833,-0.6852264404296875,0.7292327880859375,0.1071014404296875,197107.23359,-0.008820389530342436,0.0128790470316232,0.01811588699915501,197107.227609,-66.22819519042969,-6.3900146484375,-548.2012939453125,197107.23359,0.5374894652581781,-1.71456200725318,-0.7979898573822295,-0.01147985085844994,0.006297326181083918,0.01487231347709894,0.01385116577148438,0.003940284252166748,0.009961128234863281,1,0.06015663221478462,0.7391842007637024,-0.4433148801326752,-0.5034478306770325,-0.6909447312355042,0.7159541845321655,0.1000242084264755,0,0,0,-1,197105.806768875,3,2,1561914390.644305,1561913957.287787,16,1.221493,0,0,13.06835,0,0,1561914226.950748,197104.514438,0,0.9750977,75.29597,3232235528,177845136,1,1,0.54,-28.01248,-35.07173,1
1561914392.098102,43,0,0,1561914392.012446,4.634827002887274,-74.15131324909082,2552.999,0.26,5.2734375,4,30,-9999,1561914392.091714,9.710746765136719,22.87640571594238,15.39007568359375,32.13002777099609,39.62349700927734,15,197107.271066,-0.6788177490234375,0.726806640625,0.09759521484375,197107.253854,0.001171790879634865,0.0580638359825616,0.0641805843742556,197107.24772,-66.04974365234375,-6.705642700195312,-548.1652221679688,197107.253854,0.537033670711993,-1.714337875967607,-0.7986735567700748,-0.001487670815549791,0.05148211494088173,0.06093700975179672,0.005256414413452148,0.01280146837234497,0.007302165031433105,1,0.06060025095939636,0.7390719056129456,-0.4433998167514801,-0.5034849047660828,-0.6904827952384949,0.7164313197135925,0.09979934245347977,0,0,0,-1,197105.806768875,3,2,1561914390.644305,1561913957.287787,16,1.221493,0,0,13.06835,0,0,1561914226.950748,197104.514438,0,0.9750977,75.29597,3232235528,177845136,1,1,0.54,-28.01248,-35.7711,1
1561914392.115726,44,0,0,1561914392.012446,4.634827002887274,-74.15131324909082,2552.999,0.26,5.2734375,4,30,-9999,1561914392.091714,9.710746765136719,22.87640571594238,15.39007568359375,32.13002777099609,39.62349700927734,15,197107.291329,-0.677764892578125,0.72222900390625,0.1042022705078125,197107.274118,0.03770956208719499,0.08049377763153596,0.0735477208763913,197107.267831,-66.13084411621094,-6.469863891601562,-548.33935546875,197107.274118,0.537144688925189,-1.712967259265878,-0.8002051272443587,0.03505009785294533,0.07391205430030823,0.07030414789915085,0.01071405410766602,0.009307682514190674,-0.001101970672607422,1,0.06136836856603622,0.7386355996131897,-0.4438482522964478,-0.50363689661026,-0.6895318031311035,0.7174990177154541,0.09869725257158279,0,0,0,-1,197105.806768875,3,2,1561914390.644305,1561913957.287787,16,1.221493,0,0,13.06835,0,0,1561914226.950748,197104.514438,0,0.9750977,75.29597,3232235528,177845136,1,1,0.54,-28.01248,-36.02157,1
1561914392.135968,45,0,0,1561914392.012446,4.634827002887274,-74.15131324909082,2552.999,0.26,5.2734375,4,30,-9999,1561914392.115921,9.679740905761719,22.85211753845215,15.45892333984375,32.06404495239258,39.55751419067383,15,197107.311587,-0.6795196533203125,0.7180633544921875,0.1115875244140625,197107.294381,0.06174805303457722,0.0631757736949687,0.06486182098109786,197107.287942,-66.19960021972656,-6.288177490234375,-548.2097778320312,197107.294381,0.5382557125220786,-1.710819142720361,-0.8017138610191633,0.05908859148621559,0.05659405514597893,0.06161824613809586,0.01090443134307861,0.003679871559143066,0.007137656211853027,1,0.0619332529604435,0.7380356192588806,-0.4445164799690247,-0.5038577914237976,-0.6886692643165588,0.7185490727424622,0.09706460684537888,0,0,0,-1,197105.806768875,3,2,1561914390.644305,1561913957.287787,16,1.221493,0,0,13.06835,0,0,1561914226.950748,197104.514438,0,0.9750977,75.29597,3232235528,177845136,1,1,0.54,-28.01248,-36.02157,1
1561914392.15752,46,0,0,1561914392.012446,4.634827002887274,-74.15131324909082,2552.999,0.26,5.2734375,4,30,-9999,1561914392.142734,9.641517639160156,22.94890213012695,15.35430908203125,31.95161247253418,39.4450798034668,15,197107.331851,-0.6835784912109375,0.71612548828125,0.113739013671875,197107.314639,0.06714574793194981,0.04507000670795599,0.04654886006127699,197107.308047,-66.05079650878906,-6.493972778320312,-548.2900390625,197107.314639,0.5397624478061408,-1.708843453969099,-0.8029493668810515,0.06448628753423691,0.03848828747868538,0.04330528527498245,0.008460521697998047,-0.001344442367553711,0.01600587368011475,1,0.06222516298294067,0.7375085353851318,-0.4452061951160431,-0.503984808921814,-0.6879801154136658,0.7194077968597412,0.09558162093162537,0,0,0,-1,197105.806768875,3,2,1561914390.644305,1561913957.287787,16,1.221493,0,0,13.06835,0,0,1561914226.950748,197104.514438,0,0.9750977,75.29597,3232235528,177845136,1,1,0.54,-28.01248,-35.31683,1
1561914392.179515,47,0,0,1561914392.012446,4.634827002887274,-74.15131324909082,2552.999,0.26,5.2734375,4,30,-9999,1561914392.166609,9.588409423828125,23.03558921813965,15.54888916015625,31.86459159851074,39.35805892944336,15,197107.352114,-0.6896820068359375,0.7165374755859375,0.1118011474609375,197107.334903,0.04355733120879098,0.03604402114145944,0.03410097881013762,197107.328158,-65.98548889160156,-6.5318603515625,-548.2610473632812,197107.334903,0.5410802633155999,-1.707244409935715,-0.8039015796250696,0.04089786857366562,0.0294623002409935,0.03085740469396114,0.003874659538269043,-0.003943383693695068,0.01935088634490967,1,0.06241042539477348,0.7370882034301758,-0.4457742273807526,-0.5040746927261353,-0.6874530911445618,0.7200688719749451,0.09438816457986832,0,0,0,-1,197105.806768875,3,2,1561914390.644305,1561913957.287787,16,1.221493,0,0,13.06835,0,0,1561914226.950748,197104.514438,0,0.9750977,75.29597,3232235528,177845136,1,1,0.54,-28.01248,-34.34396,1
1561914392.196623,48,0,0,1561914392.012446,4.634827002887274,-74.15131324909082,2552.999,0.26,5.2734375,4,30,-9999,1561914392.166609,9.588409423828125,23.03558921813965,15.54888916015625,31.86459159851074,39.35805892944336,15,197107.372378,-0.683837890625,0.7109222412109375,0.105560302734375,197107.355136,0.0299259411692204,0.036130041244669,0.01680374753007297,197107.348269,-66.09355163574219,-6.640289306640625,-548.122314453125,197107.355136,0.5419434960821585,-1.706073323378513,-0.8044454292202251,0.02726647816598415,0.02954832091927528,0.01356017310172319,-0.002506852149963379,-0.003908693790435791,0.01827096939086914,1,0.06253347545862198,0.7367867231369019,-0.446118175983429,-0.5041959881782532,-0.6871751546859741,0.7204461693763733,0.09353022277355194,0,0,0,-1,197105.806768875,3,2,1561914390.644305,1561913957.287787,16,1.221493,0,0,13.06835,0,0,1561914226.950748,197104.514438,0,0.9750977,75.29597,3232235528,177845136,1,1,0.54,-28.01248,-35.11565,1
1561914392.217047,49,0,0,1561914392.012446,4.634827002887274,-74.15131324909082,2552.999,0.26,5.2734375,4,30,-9999,1561914392.20005,9.772865295410156,22.91987800598145,15.34722900390625,31.80319023132324,39.29665756225586,15,197107.392642,-0.6922454833984375,0.723480224609375,0.10394287109375,197107.375399,0.05374046026892696,0.04450861235016729,-0.008119179215324573,197107.36838,-66.14028930664062,-6.687850952148438,-548.0687255859375,197107.375399,0.5429572586292728,-1.704738127728487,-0.8045629056953557,0.05108099803328514,0.03792689368128777,-0.01136275287717581,0.003377676010131836,-0.00960540771484375,0.01295900344848633,1,0.06249690055847168,0.7364745736122131,-0.4463672339916229,-0.5044360756874084,-0.6872155666351318,0.7205276489257812,0.09260132163763046,0,0,0,-1,197105.806768875,3,2,1561914390.644305,1561913957.287787,16,1.221493,0,0,13.06835,0,0,1561914226.950748,197104.514438,0,0.9750977,75.29597,3232235528,177845136,1,1,0.54,-28.01248,-35.79767,1
1561914392.257867,50,0,0,1561914392.012446,4.634827002887274,-74.15131324909082,2552.999,0.26,5.2734375,4,30,-9999,1561914392.243723,9.605430603027344,23.03857612609863,15.370849609375,31.56503105163574,39.05849838256836,15,197107.412905,-0.683441162109375,0.7231903076171875,0.1084136962890625,197107.395663,0.06078132555887845,0.07934169414396769,0.008564459749585822,197107.388491,-66.37782287597656,-6.286102294921875,-548.21728515625,197107.395663,0.5445331203084524,-1.702417700467981,-0.8046725018691848,0.05812186375260353,0.0727599710226059,0.00532088615000248,-0.004895448684692383,0.002876639366149902,0.0129467248916626,1,0.06247119605541229,0.7359316349029541,-0.4467251896858215,-0.504914402961731,-0.6873500347137451,0.7206035852432251,0.09099604189395905,0,0,0,-1,197105.806768875,3,2,1561914390.644305,1561913957.287787,16,1.221493,0,0,13.06835,0,0,1561914226.950748,197104.514438,0,0.9750977,75.29597,3232235528,177845136,1,1,0.54,-28.01248,-36.88811,1
1561914392.262723,51,0,0,1561914392.012446,4.634827002887274,-74.15131324909082,2552.999,0.26,5.2734375,4,30,-9999,1561914392.243723,9.605430603027344,23.03857612609863,15.370849609375,31.56503105163574,39.05849838256836,15,197107.433169,-0.6793212890625,0.72564697265625,0.1090850830078125,197107.415927,0.06668289053449404,0.09550228827078652,0.01704263307985308,197107.408602,-66.13299560546875,-6.342056274414062,-548.447998046875,197107.415927,0.5463105642974376,-1.699577475977406,-0.8049807460171429,0.06402342766523361,0.08892056345939636,0.01379905920475721,0.003944277763366699,0.002372980117797852,0.01939880847930908,1,0.0625544860959053,0.735251247882843,-0.4471773207187653,-0.5054947733879089,-0.6873854398727417,0.7208173274993896,0.0890149250626564,0,0,0,-1,197105.806768875,3,2,1561914390.644305,1561913957.287787,16,1.221493,0,0,13.06835,0,0,1561914226.950748,197104.514438,0,0.9750977,75.29597,3232235528,177845136,1,1,0.54,-28.01248,-36.88811,1
1561914392.277643,52,0,0,1561914392.012446,4.634827002887274,-74.15131324909082,2552.999,0.26,5.2734375,4,30,-9999,1561914392.267878,9.486083984375,23.00887298583984,15.1826171875,31.48586463928223,38.97933197021484,15,197107.453402,-0.680633544921875,0.7186431884765625,0.1091766357421875,197107.43619,0.04059270028331477,0.09893909765753378,0.04214878530824807,197107.428714,-66.25634765625,-6.305023193359375,-548.3985595703125,197107.43619,0.5476168429177304,-1.696806582903341,-0.805652577691151,0.03793323785066605,0.09235737472772598,0.03890521079301834,0.007827639579772949,0.004364132881164551,0.02203607559204102,1,0.06291762739419937,0.7345514893531799,-0.4476206302642822,-0.5060743689537048,-0.6871489286422729,0.7212827801704407,0.08704903721809387,0,0,0,-1,197105.806768875,3,2,1561914390.644305,1561913957.287787,16,1.221493,0,0,13.06835,0,0,1561914226.950748,197104.514438,0,0.9750977,75.29597,3232235528,177845136,1,1,0.54,-28.01248,-37.02512,1
1561914392.297943,53,0,0,1561914392.012446,4.634827002887274,-74.15131324909082,2552.999,0.26,5.2734375,4,30,-9999,1561914392.294421,9.579078674316406,23.0618782043457,15.32635498046875,31.46880149841309,38.9622688293457,15,197107.473666,-0.6860198974609375,0.7178802490234375,0.1070098876953125,197107.456454,0.0166165273054404,0.08441102127893352,0.04491873915803949,197107.448825,-66.1961669921875,-6.286026000976562,-548.2576904296875,197107.456454,0.5481653184061016,-1.694755410847823,-0.8064916025740926,0.01395706553012133,0.07782929390668869,0.04167516529560089,0.006091773509979248,-0.003220498561859131,0.02361214160919189,1,0.06345466524362564,0.7339998483657837,-0.4479438066482544,-0.5065215826034546,-0.6867252588272095,0.7218636870384216,0.08556454628705978,0,0,0,-1,197105.806768875,3,2,1561914390.644305,1561913957.287787,16,1.221493,0,0,13.06835,0,0,1561914226.950748,197104.514438,0,0.9750977,75.29597,3232235528,177845136,1,1,0.54,-28.01248,-37.02512,1
1561914392.333617,54,0,0,1561914392.012446,4.634827002887274,-74.15131324909082,2552.999,0.26,5.2734375,4,30,-9999,1561914392.319112,9.484107971191406,22.98215103149414,15.28997802734375,31.4603099822998,38.95377731323242,15,197107.49393,-0.6867523193359375,0.716705322265625,0.105499267578125,197107.476718,0.01103800377005142,0.06727544387703667,0.05285602447091165,197107.468905,-66.2607421875,-6.20330810546875,-547.987060546875,197107.476718,0.5481894804853525,-1.693337853947866,-0.8074310688523572,0.008378542028367519,0.06069372221827507,0.04961245134472847,0.0001524686813354492,-0.004633307456970215,0.02250182628631592,1,0.06407617032527924,0.7335858941078186,-0.4481833279132843,-0.5068309903144836,-0.6861723661422729,0.7225134968757629,0.08450803905725479,0,0,0,-1,197105.806768875,3,2,1561914390.644305,1561913957.287787,16,1.221493,0,0,13.06835,0,0,1561914226.950748,197104.514438,0,0.9750977,75.29597,3232235528,177845136,1,1,0.54,-28.01248,-38.04805,1
1561914392.338481,55,0,0,1561914392.012446,4.634827002887274,-74.15131324909082,2552.999,0.26,5.2734375,4,30,-9999,1561914392.319112,9.484107971191406,22.98215103149414,15.28997802734375,31.4603099822998,38.95377731323242,15,197107.514193,-0.689239501953125,0.719512939453125,0.100860595703125,197107.496981,0.02018835895945467,0.05321368700530929,0.05026024135641142,197107.489016,-66.23426818847656,-6.686569213867188,-548.341552734375,197107.496981,0.5483286847577117,-1.692264524883434,-0.8083885532752941,0.01752889715135098,0.04663196578621864,0.04701666906476021,-0.001176536083221436,-0.006469786167144775,0.02181160449981689,1,0.06458471715450287,0.7332616448402405,-0.4484676718711853,-0.5069841742515564,-0.6855757832527161,0.7231751680374146,0.08368764817714691,0,0,0,-1,197105.806768875,3,2,1561914390.644305,1561913957.287787,16,1.221493,0,0,13.06835,0,0,1561914226.950748,197104.514438,0,0.9750977,75.29597,3232235528,177845136,1,1,0.54,-28.01248,-38.04805,1
1561914392.359414,56,0,0,1561914392.012446,4.634827002887274,-74.15131324909082,2552.999,0.26,5.2734375,4,30,-9999,1561914392.345249,9.754631042480469,22.92225646972656,15.29888916015625,31.42507362365723,38.91854095458984,15,197107.534457,-0.69439697265625,0.7324981689453125,0.09637451171875,197107.517215,0.03546558255269423,0.04409129500735186,0.06013790583951531,197107.509127,-66.08976745605469,-6.442886352539062,-548.3778076171875,197107.517215,0.5487616841700939,-1.691296854943848,-0.8094681695615586,0.03280612081289291,0.03750957548618317,0.05689433217048645,-0.004358470439910889,-0.004407405853271484,0.01793026924133301,1,0.0650029182434082,0.732966423034668,-0.4488655030727386,-0.5070056319236755,-0.6848810911178589,0.7239204049110413,0.0829303115606308,0,0,0,-1,197105.806768875,3,2,1561914390.644305,1561913957.287787,16,1.221493,0,0,13.06835,0,0,1561914226.950748,197104.514438,0,0.9750977,75.29597,3232235528,177845136,1,1,0.54,-28.01248,-38.66081,1
1561914392.37894,57,0,0,1561914392.012446,4.634827002887274,-74.15131324909082,2552.999,0.26,5.2734375,4,30,-9999,1561914392.369192,9.610748291015625,22.91090202331543,15.17669677734375,31.35312461853027,38.84659194946289,15,197107.554721,-0.686187744140625,0.732940673828125,0.0890350341796875,197107.537478,0.05475645622479219,0.08714395718957284,0.1236931799898203,197107.529238,-66.03829956054688,-6.579833984375,-548.2308349609375,197107.537478,0.5495756296453962,-1.68957293359927,-0.8113763070821302,0.05209699273109436,0.08056223392486572,0.1204496026039124,-0.01074707508087158,0.007262706756591797,0.01478886604309082,1,0.06572820991277695,0.7324429154396057,-0.449579268693924,-0.5070360898971558,-0.6836498975753784,0.7252354621887207,0.08158564567565918,0,0,0,-1,197105.806768875,3,2,1561914390.644305,1561913957.287787,16,1.221493,0,0,13.06835,0,0,1561914226.950748,197104.514438,0,0.9750977,75.29597,3232235528,177845136,1,1,0.54,-28.01248,-39.15325,1
1561914392.414915,58,0,0,1561914392.012446,4.634827002887274,-74.15131324909082,2552.999,0.26,5.2734375,4,30,-9999,1561914392.395644,9.540077209472656,23.02320671081543,15.25079345703125,31.20917320251465,38.70264053344727,15,197107.574984,-0.6874542236328125,0.7255096435546875,0.094024658203125,197107.557742,0.09379173990262862,0.09149023608858214,0.1403379368028155,197107.54935,-66.28065490722656,-6.317428588867188,-548.2821044921875,197107.557742,0.5511295761669098,-1.686712938051272,-0.8142548942499325,0.0911322757601738,0.08490851521492004,0.1370943486690521,-0.004383742809295654,0.005726337432861328,0.009646773338317871,1,0.06676407903432846,0.7315987348556519,-0.4507266581058502,-0.5071008801460266,-0.6818040013313293,0.7272143363952637,0.07938830554485321,0,0,0,-1,197105.806768875,3,2,1561914390.644305,1561913957.287787,16,1.221493,0,0,13.06835,0,0,1561914226.950748,197104.514438,0,0.9750977,75.29597,3232235528,177845136,1,1,0.54,-28.01248,-40.12571,1
1561914392.419635,59,0,0,1561914392.012446,4.634827002887274,-74.15131324909082,2552.999,0.26,5.2734375,4,30,-9999,1561914392.395644,9.540077209472656,23.02320671081543,15.25079345703125,31.20917320251465,38.70264053344727,15,197107.595248,-0.6886444091796875,0.717498779296875,0.10101318359375,197107.578006,0.09339679311296988,0.05665608903034571,0.09997453468935659,197107.569461,-66.14158630371094,-5.975662231445312,-548.4588623046875,197107.578006,0.5533511985671433,-1.683721796092311,-0.8169694619608756,0.09073732793331146,0.05007436871528625,0.09673096239566803,-0.007379829883575439,-0.003565311431884766,0.0168987512588501,1,0.06753425300121307,0.7307544350624084,-0.4519866108894348,-0.5070948004722595,-0.6800743937492371,0.7290749549865723,0.07712583988904953,0,0,0,-1,197105.806768875,3,2,1561914390.644305,1561913957.287787,16,1.221493,0,0,13.06835,0,0,1561914226.950748,197104.514438,0,0.9750977,75.29597,3232235528,177845136,1,1,0.54,-28.01248,-40.12571,1
1561914392.444291,60,0,0,1561914392.012446,4.634827002887274,-74.15131324909082,2552.999,0.26,5.2734375,4,30,-9999,1561914392.419848,9.700294494628906,23.01344871520996,15.304443359375,31.04641914367676,38.53988647460938,15,197107.615512,-0.68359375,0.71795654296875,0.1031036376953125,197107.598269,0.06835455675073679,0.02918451712174234,0.05669630276280591,197107.589572,-66.25460815429688,-6.354888916015625,-548.43701171875,197107.598269,0.5554923636079035,-1.681544296664023,-0.8185489551911845,0.06569509208202362,0.02260279655456543,0.05345273017883301,-0.009548962116241455,-0.01265633106231689,0.02549576759338379,1,0.06777343899011612,0.7301818132400513,-0.452918142080307,-0.5070566534996033,-0.679095447063446,0.7301551103591919,0.075517438352108,0,0,0,-1,197105.806768875,3,2,1561914390.644305,1561913957.287787,16,1.221493,0,0,13.06835,0,0,1561914226.950748,197104.514438,0,0.9750977,75.29597,3232235528,177845136,1,1,0.54,-28.01248,-30.76517,1
1561914392.46052,61,0,0,1561914392.012446,4.634827002887274,-74.15131324909082,2552.999,0.26,5.2734375,4,30,-9999,1561914392.446233,9.624671936035156,23.13847351074219,15.11846923828125,30.97208213806152,38.46554946899414,15,197107.635745,-0.680694580078125,0.724517822265625,0.09881591796875,197107.618533,0.02180942511498591,0.02991102746711596,0.03194861201713558,197107.609652,-65.99551391601562,-6.213638305664062,-548.5155029296875,197107.618533,0.5565057988299985,-1.680382223819065,-0.8194567302433898,0.01914996281266212,0.02332930639386177,0.02870503626763821,-0.005070269107818604,-0.01281857490539551,0.02844798564910889,1,0.06797083467245102,0.7298683524131775,-0.4534008502960205,-0.5070500373840332,-0.6785234808921814,0.7307751178741455,0.0746556892991066,0,0,0,-1,197105.806768875,3,2,1561914390.644305,1561913957.287787,16,1.221493,0,0,13.06835,0,0,1561914226.950748,197104.514438,0,0.9750977,75.29597,3232235528,177845136,1,1,0.54,-28.01248,-30.76517,1
1561914392.496127,62,0,0,1561914392.012446,4.634827002887274,-74.15131324909082,2552.999,0.26,5.2734375,4,30,-9999,1561914392.470432,9.63983154296875,23.25943374633789,15.20062255859375,30.96739387512207,38.46086120605469,15,197107.656008,-0.67633056640625,0.7248077392578125,0.0929412841796875,197107.638797,0.006747651253933766,0.01448679738170403,0.03075524953267108,197107.629763,-65.98776245117188,-6.32098388671875,-548.351806640625,197107.638797,0.5566107574891642,-1.680038442573638,-0.8200565771762039,0.004088189452886581,0.007905077189207077,0.02751167491078377,-0.002581298351287842,-0.006666600704193115,0.02444136142730713,1,0.06821146607398987,0.7297496199607849,-0.4535908102989197,-0.5070187449455261,-0.6781132817268372,0.7311844229698181,0.07437462359666824,0,0,0,-1,197105.806768875,3,2,1561914390.644305,1561913957.287787,16,1.221493,0,0,13.06835,0,0,1561914226.950748,197104.514438,0,0.9750977,75.29597,3232235528,177845136,1,1,0.54,-26.62037,-31.70056,1
1561914392.500399,63,0,0,1561914392.012446,4.634827002887274,-74.15131324909082,2552.999,0.26,5.2734375,4,30,-9999,1561914392.497079,9.719764709472656,23.00493240356445,15.17510986328125,30.94086265563965,38.43432998657227,15,197107.676272,-0.6819000244140625,0.727813720703125,0.0942535400390625,197107.65906,0.02010952939118833,-0.0210024873046919,0.009198025772915673,197107.649874,-66.23458862304688,-6.385696411132812,-548.3145141601562,197107.65906,0.5567191591607414,-1.680223440191334,-0.8204119081374874,0.01745006628334522,-0.02758420631289482,0.005954451858997345,0.001510560512542725,-0.006619036197662354,0.01846957206726074,1,0.06824898719787598,0.7297793626785278,-0.4537282884120941,-0.5068477988243103,-0.6778411269187927,0.7314267754554749,0.07447168231010437,0,0,0,-1,197105.806768875,3,2,1561914390.644305,1561913957.287787,16,1.221493,0,0,13.06835,0,0,1561914226.950748,197104.514438,0,0.9750977,75.29597,3232235528,177845136,1,1,0.54,-26.62037,-31.70056,1
1561914392.520987,64,0,0,1561914392.012446,4.634827002887274,-74.15131324909082,2552.999,0.26,5.2734375,4,30,-9999,1561914392.497079,9.719764709472656,23.00493240356445,15.17510986328125,30.94086265563965,38.43432998657227,15,197107.696536,-0.6785430908203125,0.7263336181640625,0.0938262939453125,197107.679324,0.02454262734173423,-0.03163862006625036,0.01451689110202193,197107.669986,-66.08695983886719,-6.41607666015625,-548.5443115234375,197107.679324,0.5572263753296981,-1.680586626820098,-0.8205314237090762,0.0218831654638052,-0.03822033852338791,0.01127331703901291,-0.004172861576080322,-0.003694593906402588,0.01954519748687744,1,0.06802152842283249,0.7298816442489624,-0.4539040327072144,-0.5065736770629883,-0.6777271628379822,0.7315082550048828,0.07470828294754028,0,0,0,-1,197105.806768875,3,2,1561914390.644305,1561913957.287787,16,1.221493,0,0,13.06835,0,0,1561914226.950748,197104.514438,0,0.9750977,75.29597,3232235528,177845136,1,1,0.54,-26.62037,-32.23602,1
1561914392.542463,65,0,0,1561914392.012446,4.634827002887274,-74.15131324909082,2552.999,0.26,5.2734375,4,30,-9999,1561914392.521153,9.606475830078125,22.80303955078125,15.1026611328125,30.90536308288574,38.39883041381836,15,197107.7168,-0.67962646484375,0.7228240966796875,0.0933380126953125,197107.699557,0.0143680203970865,-0.02571681506635016,0.006678941697809721,197107.690097,-66.15934753417969,-6.42010498046875,-548.5319213867188,197107.699557,0.5576051095318978,-1.681040850014828,-0.820692402451029,0.01170855853706598,-0.03229853510856628,0.003435367485508323,-0.0009669065475463867,-0.005284368991851807,0.01882314682006836,1,0.06783413141965866,0.7300000786781311,-0.4540623128414154,-0.5062862634658813,-0.6775761842727661,0.7316180467605591,0.07500316947698593,0,0,0,-1,197105.806768875,3,2,1561914390.644305,1561913957.287787,16,1.221493,0,0,13.06835,0,0,1561914226.950748,197104.514438,0,0.9750977,75.29597,3232235528,177845136,1,1,0.54,-26.62037,-32.95064,1
1561914392.574007,66,0,0,1561914392.012446,4.634827002887274,-74.15131324909082,2552.999,0.26,5.2734375,4,30,-9999,1561914392.547532,9.719451904296875,22.99459457397461,15.12750244140625,30.89264869689941,38.38611602783203,15,197107.737063,-0.683868408203125,0.7229156494140625,0.093505859375,197107.719821,0.002829874974318199,-0.03534840346473073,-0.02084749132924928,197107.710208,-65.92466735839844,-6.509002685546875,-548.544189453125,197107.719821,0.5577560163177875,-1.681747525738907,-0.8204763990626147,0.0001704131718724966,-0.04193012416362762,-0.02409106679260731,-0.00194627046585083,-0.008646667003631592,0.01783847808837891,1,0.0675462931394577,0.7301967144012451,-0.454061359167099,-0.5060420632362366,-0.6776801943778992,0.7314707636833191,0.07549948990345001,0,0,0,-1,197105.806768875,3,2,1561914390.644305,1561913957.287787,16,1.221493,0,0,13.06835,0,0,1561914226.950748,197104.514438,0,0.9750977,75.29597,3232235528,177845136,1,1,0.54,-26.62037,-33.82319,1
1561914392.581543,67,0,0,1561914392.012446,4.634827002887274,-74.15131324909082,2552.999,0.26,5.2734375,4,30,-9999,1561914392.572088,9.709556579589844,22.94148254394531,15.17047119140625,30.89959144592285,38.39305877685547,15,197107.757327,-0.683868408203125,0.7267608642578125,0.0933685302734375,197107.740084,-0.007958057969374779,-0.04609425846320046,-0.04786978796195629,197107.730319,-66.17813110351562,-6.456008911132812,-548.2986450195312,197107.740084,0.5577066234774345,-1.682803340670372,-0.8197047553750485,-0.0106175197288394,-0.05267597734928131,-0.05111335963010788,-0.005707621574401855,-0.008028686046600342,0.0172278881072998,1,0.06706635653972626,0.7305074334144592,-0.4538590610027313,-0.5058388710021973,-0.6781607866287231,0.7309443950653076,0.07627801597118378,0,0,0,-1,197105.806768875,3,2,1561914390.644305,1561913957.287787,16,1.221493,0,0,13.06835,0,0,1561914226.950748,197104.514438,0,0.9750977,75.29597,3232235528,177845136,1,1,0.54,-26.62037,-34.71531,1
1561914392.602319,68,0,0,1561914392.012446,4.634827002887274,-74.15131324909082,2552.999,0.26,5.2734375,4,30,-9999,1561914392.598315,9.590682983398438,23.03607559204102,15.21435546875,30.93305778503418,38.4265251159668,15,197107.777591,-0.6786346435546875,0.7287139892578125,0.089691162109375,197107.760348,-0.01922722412204508,-0.03171505278953563,-0.05507683450392872,197107.75043,-66.12974548339844,-6.467010498046875,-548.6723022460938,197107.760348,0.5573351103351338,-1.684009576557244,-0.8185363934581172,-0.02188668586313725,-0.03829677402973175,-0.05832040682435036,-0.004951894283294678,-0.003385722637176514,0.01617610454559326,1,0.06653755903244019,0.7308686375617981,-0.4534637928009033,-0.5057415366172791,-0.6789165139198303,0.7301465272903442,0.07719242572784424,0,0,0,-1,197105.806768875,3,2,1561914390.644305,1561913957.287787,16,1.221493,0,0,13.06835,0,0,1561914226.950748,197104.514438,0,0.9750977,75.29597,3232235528,177845136,1,1,0.54,-26.62037,-35.36404,1
1561914392.622142,69,0,0,1561914392.012446,4.634827002887274,-74.15131324909082,2552.999,0.26,5.2734375,4,30,-9999,1561914392.598315,9.590682983398438,23.03607559204102,15.21435546875,30.93305778503418,38.4265251159668,15,197107.797854,-0.6795806884765625,0.7353668212890625,0.0882415771484375,197107.780612,-0.0130505546058243,-0.03185300453400174,-0.0609778668473263,197107.770541,-66.23715209960938,-6.046295166015625,-548.3343505859375,197107.780612,0.5568965834362548,-1.685121286491307,-0.8172513078728707,-0.01571001671254635,-0.03843472525477409,-0.06422144174575806,0.001127243041992188,-0.0005538463592529297,0.01163709163665771,1,0.06601611524820328,0.7312105894088745,-0.4530135691165924,-0.5057190656661987,-0.6797618865966797,0.7292678356170654,0.07805410772562027,0,0,0,-1,197105.806768875,3,2,1561914390.644305,1561913957.287787,16,1.221493,0,0,13.06835,0,0,1561914226.950748,197104.514438,0,0.9750977,75.29597,3232235528,177845136,1,1,0.54,-26.62037,-35.36404,1
1561914392.65386,70,0,0,1561914392.012446,4.634827002887274,-74.15131324909082,2552.999,0.26,5.2734375,4,30,-9999,1561914392.648992,9.670005798339844,23.17887878417969,15.28961181640625,30.93271446228027,38.42618179321289,15,197107.818087,-0.673553466796875,0.734100341796875,0.0833587646484375,197107.800875,-0.005580387748152036,-0.0204378971535951,-0.04301670950750489,197107.790652,-65.91427612304688,-6.46087646484375,-548.3632202148438,197107.800875,0.5566819525591795,-1.686020526610221,-0.8160594057093601,-0.008239849470555782,-0.02701961621642113,-0.0462602823972702,0.0009737014770507812,0.006915032863616943,0.009476304054260254,1,0.06549253314733505,0.7315007448196411,-0.4526395499706268,-0.5057024359703064,-0.6805543899536133,0.7284517884254456,0.07876522094011307,0,0,0,-1,197105.806768875,3,2,1561914390.644305,1561913957.287787,16,1.221493,0,0,13.06835,0,0,1561914226.950748,197104.514438,0,0.9750977,75.29597,3232235528,177845136,1,1,0.54,-26.62037,-36.41557,1
1561914392.662562,71,0,0,1561914392.012446,4.634827002887274,-74.15131324909082,2552.999,0.26,5.2734375,4,30,-9999,1561914392.648992,9.670005798339844,23.17887878417969,15.28961181640625,30.93271446228027,38.42618179321289,15,197107.838351,-0.6711883544921875,0.730438232421875,0.0858154296875,197107.821139,0.01423752550367261,-0.02064109634476814,-0.04258980478476519,197107.810763,-66.25932312011719,-6.084320068359375,-548.4080810546875,197107.821139,0.5568575362308742,-1.686432783573288,-0.8151848800600134,0.01159095298498869,-0.02720971778035164,-0.04583501070737839,0.007600963115692139,0.006247937679290771,0.004239559173583984,1,0.06504274159669876,0.731661856174469,-0.4524408876895905,-0.5057052373886108,-0.6811544895172119,0.7278524041175842,0.07911925762891769,0,0,0,-1,197105.806768875,3,2,1561914390.644305,1561913957.287787,16,1.221493,0,0,13.06835,0,0,1561914226.950748,197104.514438,0,0.9750977,75.29597,3232235528,177845136,1,1,0.54,-26.62037,-36.41557,1
1561914392.682822,72,0,0,1561914392.012446,4.634827002887274,-74.15131324909082,2552.999,0.26,5.2734375,4,30,-9999,1561914392.676906,9.593513488769531,23.14764022827148,15.4049072265625,30.88411521911621,38.37758255004883,15,197107.858615,-0.6714935302734375,0.72723388671875,0.0904388427734375,197107.841403,0.01877395410451359,-0.0399751132265254,-0.06383384080032728,197107.830874,-66.09689331054688,-6.167221069335938,-548.34228515625,197107.841403,0.5574894623486029,-1.686693648409783,-0.814069333451158,0.01612738333642483,-0.04654373601078987,-0.06707904487848282,0.01075118780136108,0.003351211547851562,0.006424665451049805,1,0.06437963992357254,0.7318132519721985,-0.4522818624973297,-0.5057130455970764,-0.6819395422935486,0.7270869612693787,0.079390749335289,0,0,0,-1,197105.806768875,3,2,1561914390.644305,1561913957.287787,16,1.221493,0,0,13.06835,0,0,1561914226.950748,197104.514438,0,0.9750977,75.29597,3232235528,177845136,1,1,0.54,-26.62037,-37.14049,1
1561914392.703069,73,0,0,1561914392.012446,4.634827002887274,-74.15131324909082,2552.999,0.26,5.2734375,4,30,-9999,1561914392.676906,9.593513488769531,23.14764022827148,15.4049072265625,30.88411521911621,38.37758255004883,15,197107.878878,-0.6725311279296875,0.7332000732421875,0.0904388427734375,197107.861666,0.0004215784005595434,-0.04966609011721473,-0.08382885426464219,197107.850985,-66.33189392089844,-6.109222412109375,-548.2139282226562,197107.861666,0.5579953401100221,-1.687483921903786,-0.8125187688581559,-0.002224993426352739,-0.05623470991849899,-0.08707405626773834,0.01150184869766235,0.00121229887008667,0.01037800312042236,1,0.06349766254425049,0.7321191430091858,-0.4519798159599304,-0.5056517720222473,-0.6829953789710999,0.7260215878486633,0.08006078749895096,0,0,0,-1,197105.806768875,3,2,1561914390.644305,1561913957.287787,16,1.221493,0,0,13.06835,0,0,1561914226.950748,197105.459805,0,0.9855957,75.29587,3232235528,177845136,1,1,0.54,-26.62037,-37.70125,1
1561914392.736156,74,0,0,1561914392.012446,4.634827002887274,-74.15131324909082,2552.999,0.26,5.2734375,4,30,-9999,1561914392.71146,9.559432983398438,23.26023864746094,15.20062255859375,30.86724281311035,38.36071014404297,15,197107.899142,-0.66119384765625,0.7347412109375,0.0849609375,197107.8819,-0.01262338356697559,-0.02631389578274593,-0.06447779315190844,197107.871096,-66.35307312011719,-6.505508422851562,-548.493896484375,197107.8819,0.5579401915501183,-1.68848762627555,-0.810902949306606,-0.01526995562016964,-0.03288251534104347,-0.06772299855947495,0.01154786348342896,0.008290588855743408,0.00955498218536377,1,0.06275137513875961,0.7324644923210144,-0.4515226185321808,-0.5056533813476562,-0.6840789914131165,0.7249094843864441,0.0808839350938797,0,0,0,-1,197105.806768875,3,2,1561914390.644305,1561913957.287787,16,1.221493,0,0,13.06835,0,0,1561914226.950748,197105.459805,0,0.9855957,75.29587,3232235528,177845136,1,1,0.54,-26.62037,-38.38509,1
1561914392.743628,75,0,0,1561914392.012446,4.634827002887274,-74.15131324909082,2552.999,0.26,5.2734375,4,30,-9999,1561914392.71146,9.559432983398438,23.26023864746094,15.20062255859375,30.86724281311035,38.36071014404297,15,197107.919406,-0.6592559814453125,0.7334442138671875,0.0807952880859375,197107.902163,-0.00425226931252952,-0.0032298817700481,-0.04488731385717655,197107.891207,-66.26751708984375,-6.292251586914062,-548.4625244140625,197107.902163,0.5578070999966157,-1.688998185438965,-0.8097679423892918,-0.006898840889334679,-0.009798502549529076,-0.0481325164437294,0.02366048097610474,0.01061409711837769,0.003630638122558594,1,0.06230586394667625,0.7326548099517822,-0.4511709809303284,-0.5057467222213745,-0.6848543286323547,0.7241271734237671,0.08133018016815186,0,0,0,-1,197105.806768875,3,2,1561914390.644305,1561913957.287787,16,1.221493,0,0,13.06835,0,0,1561914226.950748,197105.459805,0,0.9855957,75.29587,3232235528,177845136,1,1,0.54,-26.62037,-39.20749,1
1561914392.763902,76,0,0,1561914392.012446,4.634827002887274,-74.15131324909082,2552.999,0.26,5.2734375,4,30,-9999,1561914392.750166,9.731437683105469,23.31028938293457,15.08660888671875,30.86623573303223,38.35970306396484,15,197107.939669,-0.6611480712890625,0.7324066162109375,0.0836181640625,197107.922427,0.01108807119854491,-0.01147822429824152,-0.02817358117194826,197107.911288,-65.98939514160156,-6.248687744140625,-548.6024780273438,197107.922427,0.5579349410311404,-1.689188544603701,-0.8090474451339669,0.008441499434411526,-0.01804684475064278,-0.03141878545284271,0.026100754737854,0.009814143180847168,-0.0007269382476806641,1,0.06197548657655716,0.7327483296394348,-0.4509971439838409,-0.5058068633079529,-0.6853567361831665,0.7236300706863403,0.08152215182781219,0,0,0,-1,197105.806768875,3,2,1561914390.644305,1561913957.287787,16,1.221493,0,0,13.06835,0,0,1561914226.950748,197105.459805,0,0.9855957,75.29587,3232235528,177845136,1,1,0.54,-26.62037,-39.41108,1
1561914392.794278,77,0,0,1561914392.012446,4.634827002887274,-74.15131324909082,2552.999,0.26,5.2734375,4,30,-9999,1561914392.77478,9.629776000976562,23.31536483764648,15.14947509765625,30.8183422088623,38.31180953979492,15,197107.959933,-0.6637725830078125,0.7334442138671875,0.0868682861328125,197107.942691,0.02606622180136856,-0.02374447796303748,-0.0248978930311508,197107.93143,-66.23634338378906,-6.14422607421875,-548.3436279296875,197107.942691,0.5585006994965981,-1.68927721758444,-0.8085133397349953,0.02341965027153492,-0.03031309694051743,-0.02814309857785702,0.02458518743515015,0.009145259857177734,0.001989483833312988,1,0.06156985089182854,0.7328188419342041,-0.4509856998920441,-0.5057644844055176,-0.6857332587242126,0.723261296749115,0.08162860572338104,0,0,0,-1,197105.806768875,3,2,1561914390.644305,1561913957.287787,16,1.221493,0,0,13.06835,0,0,1561914226.950748,197105.459805,0,0.9855957,75.29587,3232235528,177845136,1,1,0.54,-26.62037,-39.49656,1
1561914392.82743,78,0,0,1561914392.012446,4.634827002887274,-74.15131324909082,2552.999,0.26,5.2734375,4,30,-9999,1561914392.80088,9.639793395996094,23.26378059387207,15.1507568359375,30.76322364807129,38.25669097900391,15,197107.980166,-0.6685333251953125,0.7344207763671875,0.085357666015625,197107.962954,0.02576794775927968,-0.03632418568813577,-0.01667325263665909,197107.951541,-66.258544921875,-6.312210083007812,-548.2452392578125,197107.962954,0.5592061805986873,-1.689480069765603,-0.8081593360787426,0.02312137745320797,-0.04289280623197556,-0.01991845853626728,0.02219825983047485,0.01042741537094116,0.005070328712463379,1,0.06114737316966057,0.732912003993988,-0.4510660767555237,-0.5056090354919434,-0.6859708428382874,0.7230167984962463,0.0817980170249939,0,0,0,-1,197105.806768875,3,2,1561914390.644305,1561913957.287787,16,1.221493,0,0,13.06835,0,0,1561914226.950748,197105.459805,0,0.9855957,75.29587,3232235528,177845136,1,1,0.54,-26.62037,-38.20631,1
1561914392.829574,79,0,0,1561914392.012446,4.634827002887274,-74.15131324909082,2552.999,0.26,5.2734375,4,30,-9999,1561914392.80088,9.639793395996094,23.26378059387207,15.1507568359375,30.76322364807129,38.25669097900391,15,197108.00043,-0.6675872802734375,0.7306976318359375,0.0838623046875,197107.983218,0.02528058927979519,-0.04344894055242476,-0.009475260842392922,197107.971652,-66.265380859375,-6.107025146484375,-548.303466796875,197107.983218,0.5599874238753554,-1.689862508270289,-0.8079458694363775,0.02263401821255684,-0.05001756176352501,-0.01272046659141779,0.01755934953689575,0.01155143976211548,0.003278970718383789,1,0.06070348992943764,0.7330446243286133,-0.4512123465538025,-0.5053396224975586,-0.6860926747322083,0.722869336605072,0.08207867294549942,0,0,0,-1,197105.806768875,3,2,1561914390.644305,1561913957.287787,16,1.221493,0,0,13.06835,0,0,1561914226.950748,197105.459805,0,0.9855957,75.29587,3232235528,177845136,1,1,0.54,-26.62037,-38.20631,1
1561914392.845075,80,0,0,1561914392.012446,4.634827002887274,-74.15131324909082,2552.999,0.26,5.2734375,4,30,-9999,1561914392.830241,9.601539611816406,23.26105499267578,15.15570068359375,30.7101879119873,38.20365524291992,15,197108.020694,-0.664398193359375,0.7232818603515625,0.09014892578125,197108.003482,0.01792840045841343,-0.04848604343820063,-0.01085371302261793,197107.991732,-66.28507995605469,-6.08197021484375,-548.36865234375,197108.003482,0.5606531386304188,-1.690411934717023,-0.8077877937523421,0.01528182905167341,-0.05505466461181641,-0.01409891899675131,0.01857352256774902,0.00793755054473877,0.00139307975769043,1,0.06028268858790398,0.7332125306129456,-0.451350599527359,-0.5050227642059326,-0.6861608028411865,0.7227600812911987,0.08246923238039017,0,0,0,-1,197105.806768875,3,2,1561914390.644305,1561913957.287787,16,1.221493,0,0,13.06835,0,0,1561914226.950748,197105.459805,0,0.9855957,75.29587,3232235528,177845136,1,1,0.54,-26.62037,-38.66291,1
1561914392.865297,81,0,0,1561914392.012446,4.634827002887274,-74.15131324909082,2552.999,0.26,5.2734375,4,30,-9999,1561914392.851936,9.74365234375,23.1244068145752,15.18145751953125,30.6878833770752,38.18135070800781,15,197108.040957,-0.662933349609375,0.7230224609375,0.102813720703125,197108.023745,0.003409911459737457,-0.07721569264575744,-0.01502102749637393,197108.011843,-66.0380859375,-6.329345703125,-548.5302734375,197108.023745,0.560932717856079,-1.691617491594091,-0.8075466679013051,0.000763339689001441,-0.0837843120098114,-0.01826623268425465,0.02183586359024048,0.0006884336471557617,0.006831526756286621,1,0.05982764810323715,0.7335389256477356,-0.4513863027095795,-0.5045709013938904,-0.6862340569496155,0.7225934267044067,0.08331740647554398,0,0,0,-1,197105.806768875,3,2,1561914390.644305,1561913957.287787,16,1.221493,0,0,13.06835,0,0,1561914226.950748,197105.459805,0,0.9855957,75.29587,3232235528,177845136,1,1,0.54,-26.62037,-39.29859,1
1561914392.895207,82,0,0,1561914392.012446,4.634827002887274,-74.15131324909082,2552.999,0.26,5.2734375,4,30,-9999,1561914392.875928,9.677658081054688,23.03783416748047,15.10296630859375,30.73016548156738,38.2236328125,15,197108.061221,-0.666168212890625,0.7269287109375,0.11676025390625,197108.044009,-0.02660125086436548,-0.1402167629732169,-0.0136758648297749,197108.031955,-66.09909057617188,-6.396148681640625,-548.4217529296875,197108.044009,0.5606600162487416,-1.694181644393339,-0.8072103668245801,-0.029247822239995,-0.1467853933572769,-0.01692107133567333,0.02332574129104614,0.0006615519523620605,0.01770710945129395,1,0.05923686549067497,0.7341963648796082,-0.4512947499752045,-0.5037655234336853,-0.6862590312957764,0.7223609089851379,0.08510661870241165,0,0,0,-1,197105.806768875,3,2,1561914390.644305,1561913957.287787,16,1.221493,0,0,13.06835,0,0,1561914226.950748,197105.459805,0,0.9855957,75.29587,3232235528,177845136,1,1,0.54,-26.62037,-39.92689,1
1561914392.905493,83,0,0,1561914392.012446,4.634827002887274,-74.15131324909082,2552.999,0.26,5.2734375,4,30,-9999,1561914392.901918,9.697036743164062,23.30493545532227,15.2657470703125,30.96147727966309,38.4549446105957,15,197108.081485,-0.665771484375,0.7228240966796875,0.1161651611328125,197108.064242,-0.1026038736335918,-0.1873829437751743,0.003899933100312036,197108.072177,-65.9404296875,-6.18499755859375,-548.7183227539062,197108.064242,0.5587126538344719,-1.699071162680214,-0.806878718520786,-0.1052504479885101,-0.1939515620470047,0.0006547272205352783,0.01990419626235962,0.004797220230102539,0.02826857566833496,1,0.05873916298151016,0.7353880405426025,-0.4508509933948517,-0.5024814009666443,-0.6860724091529846,0.7221315503120422,0.08849171549081802,0,0,0,-1,197105.806768875,3,2,1561914390.644305,1561913957.287787,16,1.221493,0,0,13.06835,0,0,1561914226.950748,197105.459805,0,0.9855957,75.29587,3232235528,177845136,1,1,0.54,-26.62037,-34.42099,1
1561914392.92654,84,0,0,1561914392.012446,4.634827002887274,-74.15131324909082,2552.999,0.26,5.2734375,4,30,-9999,1561914392.901918,9.697036743164062,23.30493545532227,15.2657470703125,30.96147727966309,38.4549446105957,15,197108.101748,-0.6565093994140625,0.71923828125,0.124053955078125,197108.084506,-0.1886721800588816,-0.2420395314590885,0.04012771235698694,197108.092288,-65.7327880859375,-6.091964721679688,-548.4105834960938,197108.084506,0.5542537487995435,-1.706915421636825,-0.80678934247481,-0.1913187503814697,-0.2486081570386887,0.03688250854611397,0.01964938640594482,0.0007544159889221191,0.02228569984436035,1,0.05858451500535011,0.7372296452522278,-0.4499363899230957,-0.5006170272827148,-0.6854208111763,0.7220696806907654,0.09387938678264618,0,0,0,-1,197105.806768875,3,2,1561914390.644305,1561913957.287787,32,0.8918345,0,0,26.32609,0,0,1561914392.923141,197105.459805,0,0.9855957,75.29587,3232235528,177845136,1,1,0.54,-26.62037,-34.34952,1
1561914392.946227,85,0,0,1561914392.012446,4.634827002887274,-74.15131324909082,2552.999,0.26,5.2734375,4,30,-9999,1561914392.927392,9.990631103515625,23.09353828430176,15.1190185546875,31.37717247009277,38.87063980102539,15,197108.122012,-0.674530029296875,0.7409210205078125,0.110198974609375,197108.104769,-0.183608711878314,-0.225083184798554,0.06443065520061403,197108.112399,-65.53282165527344,-6.19097900390625,-548.63916015625,197108.104769,0.5482753598661965,-1.716068763548474,-0.8073435936551751,-0.1862552762031555,-0.2316518127918243,0.06118544936180115,0.02762776613235474,-0.003214776515960693,0.02396261692047119,1,0.05891779437661171,0.7393066883087158,-0.4488777220249176,-0.4984608590602875,-0.6841371059417725,0.7224530577659607,0.1000913754105568,0,0,0,-1,197105.806768875,3,2,1561914390.644305,1561913957.287787,32,0.8918345,0,0,26.32609,0,0,1561914392.923141,197105.459805,0,0.9855957,75.29587,3232235528,177845136,1,1,0.54,-26.62037,-34.34952,1
1561914392.977174,86,0,0,1561914392.012446,4.634827002887274,-74.15131324909082,2552.999,0.26,5.2734375,4,30,-9999,1561914392.952817,10.15447235107422,23.10389709472656,15.2132568359375,31.70406913757324,39.19753646850586,15,197108.142276,-0.6710968017578125,0.73822021484375,0.097320556640625,197108.125033,-0.1025135924726381,-0.1074332499543415,0.1366851450516628,197108.13251,-65.64543151855469,-6.291839599609375,-548.4153442382812,197108.125033,0.5436360733219575,-1.723043676866229,-0.8088473338430726,-0.1051601618528366,-0.1140018701553345,0.1334399431943893,0.007817745208740234,0.01742911338806152,0.005503177642822266,1,0.0595647357404232,0.7408103346824646,-0.4483826458454132,-0.4965936243534088,-0.6823477745056152,0.723491907119751,0.1046958193182945,0,0,0,-1,197105.806768875,3,2,1561914390.644305,1561913957.287787,32,0.8918345,0,0,26.32609,0,0,1561914392.923141,197105.459805,0,0.9855957,75.29587,3232235528,177845136,1,1,0.54,-26.62037,-34.89111,1
1561914392.986697,87,0,0,1561914392.012446,4.634827002887274,-74.15131324909082,2552.999,0.26,5.2734375,4,30,-9999,1561914392.977058,10.16138458251953,23.06665802001953,15.26336669921875,31.78596687316895,39.27943420410156,15,197108.162509,-0.67279052734375,0.74444580078125,0.09832763671875,197108.145297,0.01677684960306317,-0.01025583335789515,0.1550702776370249,197108.152621,-65.66664123535156,-6.29083251953125,-548.2244873046875,197108.145297,0.54149509889058,-1.72596110732555,-0.8116575614281054,0.01413027662783861,-0.01682445406913757,0.1518250703811646,0.00893104076385498,0.01279109716415405,-0.009050846099853516,1,0.06062592193484306,0.7412895560264587,-0.44878751039505,-0.4953827857971191,-0.6800278425216675,0.7254290580749512,0.1063714176416397,0,0,0,-1,197105.806768875,3,2,1561914390.644305,1561913957.287787,32,0.8918345,0,0,26.32609,0,0,1561914392.923141,197105.459805,0,0.9855957,75.29587,3232235528,177845136,1,1,0.54,-26.62037,-34.89111,1
1561914393.010887,88,0,0,1561914392.012446,4.634827002887274,-74.15131324909082,2552.999,0.26,5.2734375,4,30,-9999,1561914393.004629,10.130615234375,23.04705810546875,15.19287109375,31.5417652130127,39.03523254394531,15,197108.182772,-0.6710052490234375,0.7403564453125,0.1108245849609375,197108.16556,0.1451891510445039,0.05431197463885797,0.1746825948526954,197108.172732,-65.5516357421875,-6.348434448242188,-548.5127563476562,197108.16556,0.5429804916367174,-1.724397434844054,-0.815144764679654,0.1425425857305527,0.04774335399270058,0.1714373826980591,0.004898965358734131,0.01662087440490723,-0.006592631340026855,1,0.06157093867659569,0.7407220602035522,-0.4501591324806213,-0.4948704838752747,-0.6776895523071289,0.727824866771698,0.1049203053116798,0,0,0,-1,197105.806768875,3,2,1561914390.644305,1561913957.287787,32,0.8918345,0,0,26.32609,0,0,1561914392.923141,197105.459805,0,0.9855957,75.29587,3232235528,177845136,1,1,0.54,-26.62037,-35.5246,1
1561914393.027448,89,0,0,1561914392.012446,4.634827002887274,-74.15131324909082,2552.999,0.26,5.2734375,4,30,-9999,1561914393.004629,10.130615234375,23.04705810546875,15.19287109375,31.5417652130127,39.03523254394531,15,197108.203036,-0.652496337890625,0.7511749267578125,0.1230316162109375,197108.185824,0.2563108791086051,0.009024387669842506,0.256103152543579,197108.192843,-65.42669677734375,-6.351119995117188,-548.751220703125,197108.185824,0.5479225656024175,-1.720106751628669,-0.8198147596487744,0.2536643147468567,0.002455766312777996,0.2528579533100128,0.003759682178497314,0.009337007999420166,0.009319663047790527,1,0.06224463507533073,0.739512026309967,-0.4526509046554565,-0.494322657585144,-0.6747649312019348,0.7310194373130798,0.1015048623085022,0,0,0,-1,197105.806768875,3,2,1561914390.644305,1561913957.287787,32,0.8918345,0,0,26.32609,0,0,1561914392.923141,197105.459805,0,0.9855957,75.29587,3232235528,177845136,1,1,0.54,-26.62037,-35.70473,1
1561914393.06111,90,0,0,1561914393.026697,4.634835678157057,-74.15131408728114,2552.952,0.21,5.625,4,10,-9999,1561914393.035367,10.44301605224609,23.03010749816895,14.9779052734375,31.06026268005371,38.55373001098633,15,197108.2233,-0.6376495361328125,0.7622833251953125,0.104278564453125,197108.206088,0.3381580752061193,-0.04988473564271025,0.4838164752346952,197108.212954,-64.97268676757812,-6.624603271484375,-548.71875,197108.206088,0.5549646319089059,-1.71578371835007,-0.8276575305791755,0.3355115056037903,-0.05645335838198662,0.4805712699890137,0.01700705289840698,0.01482641696929932,0.02527618408203125,1,0.06320803612470627,0.738161563873291,-0.456591784954071,-0.4925913214683533,-0.669503390789032,0.7363484501838684,0.09775549918413162,0,0,0,-1,197105.806768875,3,2,1561914390.644305,1561913957.287787,32,0.8918345,0,0,26.32609,0,0,1561914392.923141,197105.459805,0,0.9855957,75.29587,3232235528,177845136,1,1,0.54,-26.62037,-36.36533,1
1561914393.068351,91,0,0,1561914393.026697,4.634835678157057,-74.15131408728114,2552.952,0.21,5.625,4,10,-9999,1561914393.035367,10.44301605224609,23.03010749816895,14.9779052734375,31.06026268005371,38.55373001098633,15,197108.243563,-0.6408233642578125,0.741455078125,0.1114654541015625,197108.226352,0.3576446912183381,-0.1477007782685576,0.4811527815123979,197108.233065,-64.93820190429688,-6.6558837890625,-548.6508178710938,197108.226352,0.5634919914425368,-1.711287441760369,-0.8391703438396959,0.3549981117248535,-0.1542693972587585,0.4779075682163239,0.02384871244430542,0.01819419860839844,0.0107276439666748,1,0.06489590555429459,0.7365894317626953,-0.4619443118572235,-0.4897266030311584,-0.6614983081817627,0.7440891265869141,0.09355093538761139,0,0,0,-1,197105.806768875,3,2,1561914390.644305,1561913957.287787,32,0.8918345,0,0,26.32609,0,0,1561914392.923141,197105.459805,0,0.9855957,75.29587,3232235528,177845136,1,1,0.54,-26.62037,-36.74903,1
1561914393.088011,92,0,0,1561914393.026697,4.634835678157057,-74.15131408728114,2552.952,0.21,5.625,4,10,-9999,1561914393.078365,11.00568389892578,22.93512344360352,14.73565673828125,29.88122749328613,37.37469482421875,15,197108.263827,-0.6568603515625,0.763885498046875,0.091033935546875,197108.246585,0.3071133400629567,-0.09223592119380433,0.4157980094135264,197108.253176,-64.79789733886719,-6.258407592773438,-549.0930786132812,197108.246585,0.571902783928917,-1.707760360836875,-0.8489523027157055,0.3044667840003967,-0.0988045409321785,0.4125528037548065,0.01375830173492432,-0.009133458137512207,0.02124643325805664,1,0.06585445255041122,0.7353724837303162,-0.4667457044124603,-0.4868663549423218,-0.6545816659927368,0.7505885362625122,0.09021899849176407,0,0,0,-1,197105.806768875,3,2,1561914390.644305,1561913957.287787,32,0.8918345,0,0,26.32609,0,0,1561914392.923141,197105.459805,0,0.9855957,75.29587,3232235528,177845136,1,1,0.54,-26.62037,-36.74903,1
1561914393.109557,93,0,0,1561914393.026697,4.634835678157057,-74.15131408728114,2552.952,0.21,5.625,4,10,-9999,1561914393.104775,11.22128295898438,22.99642562866211,14.46661376953125,29.52460289001465,37.01807022094727,15,197108.284091,-0.65740966796875,0.7389373779296875,0.0995025634765625,197108.266848,0.2075611827224867,0.01396508412415751,0.3459965572425496,197108.273288,-64.45938110351562,-6.494888305664062,-549.097900390625,197108.266848,0.5780384447294559,-1.704203788922916,-0.8571496125343629,0.2049146145582199,0.007396463304758072,0.3427513539791107,-0.008081793785095215,0.007905721664428711,0.003964900970458984,1,0.06714939326047897,0.7341835498809814,-0.4704971015453339,-0.4848690330982208,-0.6487785577774048,0.7559797763824463,0.08706904947757721,0,0,0,-1,197105.806768875,3,2,1561914390.644305,1561913957.287787,32,0.8918345,0,0,26.32609,0,0,1561914392.923141,197105.459805,0,0.9855957,75.29587,3232235528,177845136,1,1,0.54,-26.62037,-37.10918,1
1561914393.135572,94,0,0,1561914393.026697,4.634835678157057,-74.15131408728114,2552.952,0.21,5.625,4,10,-9999,1561914393.12899,11.27742004394531,23.2285270690918,14.4818115234375,29.25940895080566,36.75287628173828,15,197108.304354,-0.666717529296875,0.7468109130859375,0.0984649658203125,197108.287112,0.1665730030172951,0.07578770566925694,0.2064948530220189,197108.293399,-64.51881408691406,-6.1668701171875,-548.992431640625,197108.287112,0.5823252961767285,-1.699917146343287,-0.8632015138869622,0.163926437497139,0.06921909004449844,0.2032496482133865,-0.01281291246414185,-0.02099007368087769,0.01580607891082764,1,0.06859701126813889,0.7329002022743225,-0.47313392162323,-0.4840412735939026,-0.6445967555046082,0.7599274516105652,0.08369651436805725,0,0,0,-1,197105.806768875,3,2,1561914390.644305,1561913957.287787,32,0.8918345,0,0,26.32609,0,0,1561914392.923141,197105.459805,0,0.9855957,75.29587,3232235528,177845136,1,1,0.54,-26.62037,-36.35284,1
1561914393.148806,95,0,0,1561914393.026697,4.634835678157057,-74.15131408728114,2552.952,0.21,5.625,4,10,-9999,1561914393.12899,11.27742004394531,23.2285270690918,14.4818115234375,29.25940895080566,36.75287628173828,15,197108.324644,-0.658477783203125,0.743316650390625,0.0992431640625,197108.307376,0.08958740748972054,0.05736635409306984,0.08872028223879073,197108.313505,-64.4189453125,-6.10589599609375,-549.1124267578125,197108.307376,0.5856444416609926,-1.696251472392166,-0.8662493873906436,0.08694083243608475,0.0507977306842804,0.08547507971525192,-0.02411931753158569,-0.01509416103363037,0.01742208003997803,1,0.06926360726356506,0.7319316864013672,-0.4746840298175812,-0.4838941395282745,-0.6425982713699341,0.7619050741195679,0.08104287832975388,0,0,0,-1,197105.806768875,3,2,1561914390.644305,1561913957.287787,32,0.8918345,0,0,26.32609,0,0,1561914392.923141,197105.459805,0,0.9855957,75.29587,3232235528,177845136,1,1,0.54,-26.62037,-36.35284,1
1561914393.169064,96,0,0,1561914393.026697,4.634835678157057,-74.15131408728114,2552.952,0.21,5.625,4,10,-9999,1561914393.167091,11.32260894775391,23.29308891296387,14.2467041015625,29.12518882751465,36.61865615844727,15,197108.344877,-0.645904541015625,0.75042724609375,0.104217529296875,197108.327665,0.06082473508464675,-0.02276416836577931,0.02854482582790531,197108.333616,-64.49441528320312,-6.559906005859375,-549.0569458007812,197108.327665,0.5874654074611302,-1.69458898365493,-0.8674863537435838,0.05817816033959389,-0.02933279052376747,0.02529961988329887,-0.01668119430541992,-0.01938897371292114,0.01938509941101074,1,0.06940416246652603,0.7315135598182678,-0.4754200577735901,-0.4837838113307953,-0.6417965888977051,0.7627056837081909,0.07985804975032806,0,0,0,-1,197105.806768875,3,2,1561914390.644305,1561913957.287787,32,0.8918345,0,0,26.32609,0,0,1561914392.923141,197105.459805,0,0.9855957,75.29587,3232235528,177845136,1,1,0.54,-26.62037,-32.57834,1
1561914393.192251,97,0,0,1561914393.026697,4.634835678157057,-74.15131408728114,2552.952,0.21,5.625,4,10,-9999,1561914393.167091,11.32260894775391,23.29308891296387,14.2467041015625,29.12518882751465,36.61865615844727,15,197108.365141,-0.6385650634765625,0.7622528076171875,0.09814453125,197108.347929,0.07364359467563415,-0.1254404799810213,0.009048888751871235,197108.353727,-64.47596740722656,-6.08978271484375,-549.4796752929688,197108.347929,0.5893319626462555,-1.69492572403972,-0.8678928953871182,0.07099702209234238,-0.1320091038942337,0.005803682841360569,-0.004442811012268066,-0.01254129409790039,0.02418184280395508,1,0.0687766969203949,0.7316335439682007,-0.4759988188743591,-0.4831223487854004,-0.6414617896080017,0.7629685401916504,0.08003575354814529,0,0,0,-1,197105.806768875,3,2,1561914390.644305,1561913957.287787,32,0.8918345,0,0,26.32609,0,0,1561914392.923141,197105.459805,0,0.9855957,75.29587,3232235528,177845136,1,1,0.54,-26.62037,-32.01274,1
1561914393.213893,98,0,0,1561914393.026697,4.634835678157057,-74.15131408728114,2552.952,0.21,5.625,4,10,-9999,1561914393.207673,11.27648162841797,22.93745040893555,14.1258544921875,28.8116283416748,36.30509567260742,15,197108.385405,-0.63983154296875,0.7652130126953125,0.08782958984375,197108.368193,0.08273908874658177,-0.1507213355769255,0.02150848791180695,197108.373838,-64.38685607910156,-6.420562744140625,-549.6799926757812,197108.368193,0.5916799253671163,-1.696272071483889,-0.8682590778805738,0.08009251207113266,-0.1572899669408798,0.01826328039169312,0.002511084079742432,-0.0009523630142211914,0.01728010177612305,1,0.06771881878376007,0.7320152521133423,-0.476715624332428,-0.4819854497909546,-0.6410761475563049,0.7632051706314087,0.08086433261632919,0,0,0,-1,197105.806768875,3,2,1561914390.644305,1561913957.287787,32,0.8918345,0,0,26.32609,0,0,1561914392.923141,197105.459805,0,0.9855957,75.29587,3232235528,177845136,1,1,0.54,-26.62037,-29.88465,1
1561914393.230025,99,0,0,1561914393.026697,4.634835678157057,-74.15131408728114,2552.952,0.21,5.625,4,10,-9999,1561914393.207673,11.27648162841797,22.93745040893555,14.1258544921875,28.8116283416748,36.30509567260742,15,197108.405668,-0.6388092041015625,0.7610931396484375,0.082275390625,197108.388456,0.07255489442200976,-0.07991240956557166,0.04006246491028,197108.39395,-64.44380187988281,-6.273345947265625,-549.465576171875,197108.388456,0.5937868397708453,-1.697244363520418,-0.8688779258454291,0.06990832090377808,-0.08648102730512619,0.03681726008653641,0.0006969571113586426,0.001608133316040039,0.006401538848876953,1,0.06692161411046982,0.7322810292243958,-0.4774318635463715,-0.4809830188751221,-0.6405284404754639,0.7636049389839172,0.08142801374197006,0,0,0,-1,197105.806768875,3,2,1561914390.644305,1561913957.287787,32,0.8918345,0,0,26.32609,0,0,1561914392.923141,197105.459805,0,0.9855957,75.29587,3232235528,177845136,1,1,0.54,-26.62037,-28.71046,1
1561914393.250095,100,0,0,1561914393.026697,4.634835678157057,-74.15131408728114,2552.952,0.21,5.625,4,10,-9999,1561914393.229995,11.50237274169922,23.2006950378418,14.12542724609375,28.66359519958496,36.15706253051758,15,197108.425932,-0.6446533203125,0.76348876953125,0.0895538330078125,197108.40869,0.07550887270312565,0.009633452611143628,0.0396795023455266,197108.414061,-64.22137451171875,-6.269699096679688,-549.8140258789062,197108.40869,0.5957991958248189,-1.696513076674698,-0.8697972592918202,0.07286229729652405,0.003064831718802452,0.03643429651856422,0.001082122325897217,-0.003105044364929199,0.001403927803039551,1,0.06666574627161026,0.7321143746376038,-0.4781526923179626,-0.4805561602115631,-0.6398913264274597,0.7641981840133667,0.08087155967950821,0,0,0,-1,197105.806768875,3,2,1561914390.644305,1561913957.287787,32,0.8918345,0,0,26.32609,0,0,1561914392.923141,197105.459805,0,0.9855957,75.29587,3232235528,177845136,1,1,0.54,-26.62037,-28.71046,1
1561914393.270349,101,0,0,1561914393.026697,4.634835678157057,-74.15131408728114,2552.952,0.21,5.625,4,10,-9999,1561914393.257802,11.66751861572266,23.15755844116211,13.924560546875,28.53225898742676,36.02572631835938,15,197108.446196,-0.6439971923828125,0.754638671875,0.09881591796875,197108.428953,0.0619121037577261,0.03869679590328736,0.03394012388029684,197108.434172,-64.27522277832031,-6.259048461914062,-549.6649169921875,197108.428953,0.5976347000824465,-1.694604618063561,-0.8706108644213238,0.05926553159952164,0.03212817385792732,0.03069491870701313,-0.005225956439971924,-0.001233875751495361,0.009980320930480957,1,0.06672171503305435,0.7316658496856689,-0.4787611365318298,-0.4806257486343384,-0.6394273638725281,0.7647227048873901,0.07957340776920319,0,0,0,-1,197105.806768875,3,2,1561914390.644305,1561913957.287787,32,0.8918345,0,0,26.32609,0,0,1561914392.923141,197105.459805,0,0.9855957,75.29587,3232235528,177845136,1,1,0.54,-26.62037,-29.44912,1
1561914393.293396,102,0,0,1561914393.026697,4.634835678157057,-74.15131408728114,2552.952,0.21,5.625,4,10,-9999,1561914393.280866,11.50517272949219,23.28811836242676,13.97833251953125,28.4511775970459,35.94464492797852,15,197108.466459,-0.65252685546875,0.7571258544921875,0.1041412353515625,197108.449217,0.03230414402266116,-0.01413818959501266,-0.02879809244757184,197108.454252,-64.37107849121094,-6.300827026367188,-549.6192016601562,197108.449217,0.598941019913692,-1.6934887570775,-0.8707138086961114,0.02965757437050343,-0.02070681005716324,-0.03204329684376717,-0.004559576511383057,-0.01015037298202515,0.0199657678604126,1,0.06654542684555054,0.7314347624778748,-0.4790670871734619,-0.4806970655918121,-0.6394376158714294,0.7647890448570251,0.07885020971298218,0,0,0,-1,197105.806768875,3,2,1561914390.644305,1561913957.287787,32,0.8918345,0,0,26.32609,0,0,1561914392.923141,197105.459805,0,0.9855957,75.29587,3232235528,177845136,1,1,0.54,-26.62037,-30.11769,1
1561914393.310906,103,0,0,1561914393.026697,4.634835678157057,-74.15131408728114,2552.952,0.21,5.625,4,10,-9999,1561914393.307991,11.62522125244141,23.08903884887695,13.84228515625,28.50055503845215,35.99402236938477,15,197108.486723,-0.660308837890625,0.7612457275390625,0.104400634765625,197108.469481,-0.0274353529177783,-0.07232532993604493,-0.08258782119666527,197108.474363,-64.28689575195312,-6.476119995117188,-549.6290283203125,197108.469481,0.5992271903315427,-1.694336688449981,-0.8695051868231688,-0.03008192405104637,-0.07889394462108612,-0.08583302795886993,-0.01223963499069214,-0.006883919239044189,0.0246349573135376,1,0.06583458185195923,0.7317232489585876,-0.4788213968276978,-0.4806005954742432,-0.6402872204780579,0.7640097737312317,0.07950621098279953,0,0,0,-1,197105.806768875,3,2,1561914390.644305,1561913957.287787,32,0.8918345,0,0,26.32609,0,0,1561914392.923141,197105.459805,0,0.9855957,75.29587,3232235528,177845136,1,1,0.54,-26.62037,-30.60417,1
1561914393.331287,104,0,0,1561914393.026697,4.634835678157057,-74.15131408728114,2552.952,0.21,5.625,4,10,-9999,1561914393.307991,11.62522125244141,23.08903884887695,13.84228515625,28.50055503845215,35.99402236938477,15,197108.506987,-0.6539154052734375,0.753448486328125,0.096832275390625,197108.489744,-0.08856209047004003,-0.09092005329919618,-0.1119622217041303,197108.494474,-64.18034362792969,-6.367080688476562,-549.7522583007812,197108.489744,0.5976022653953635,-1.697405919975812,-0.8672834660312165,-0.09120865911245346,-0.09748867154121399,-0.1152074262499809,-0.01858651638031006,-0.001328706741333008,0.02271556854248047,1,0.06495492160320282,0.7325458526611328,-0.477900356054306,-0.4803837537765503,-0.6417223215103149,0.7625744342803955,0.0816851332783699,0,0,0,-1,197105.806768875,3,2,1561914390.644305,1561913957.287787,32,0.8918345,0,0,26.32609,0,0,1561914392.923141,197105.459805,0,0.9855957,75.29587,3232235528,177845136,1,1,0.54,-26.62037,-31.37958,1
1561914393.351372,105,0,0,1561914393.026697,4.634835678157057,-74.15131408728114,2552.952,0.21,5.625,4,10,-9999,1561914393.331468,11.37191009521484,22.96735382080078,13.95941162109375,28.66804313659668,36.1615104675293,15,197108.52722,-0.646209716796875,0.7389984130859375,0.0959625244140625,197108.510008,-0.08427413479890344,-0.0920263304160151,-0.1158621548044423,197108.514586,-64.33050537109375,-6.367019653320312,-549.6804809570312,197108.510008,0.5951700153066274,-1.701225652552032,-0.8647315065269686,-0.08692070841789246,-0.09859494864940643,-0.1191073581576347,-0.01058220863342285,-0.007472574710845947,0.0124436616897583,1,0.06408573687076569,0.7335443496704102,-0.4767118394374847,-0.4801577627658844,-0.6433331966400146,0.7609210610389709,0.08438859134912491,0,0,0,-1,197105.806768875,3,2,1561914390.644305,1561913957.287787,32,0.8918345,0,0,26.32609,0,0,1561914392.923141,197105.459805,0,0.9855957,75.29587,3232235528,177845136,1,1,0.54,-26.62037,-32.34582,1
1561914393.37454,106,0,0,1561914393.026697,4.634835678157057,-74.15131408728114,2552.952,0.21,5.625,4,10,-9999,1561914393.357828,11.37851715087891,23.01551055908203,14.003173828125,28.74634742736816,36.23981475830078,15,197108.547483,-0.6589202880859375,0.7453155517578125,0.104736328125,197108.530272,-0.02467205697071208,-0.182262750263388,-0.1817354443675523,197108.534697,-64.43382263183594,-6.144149780273438,-549.5682983398438,197108.530272,0.5939815829243752,-1.705187766545145,-0.8615291834206759,-0.02731862850487232,-0.1888313740491867,-0.184980645775795,-0.0008044242858886719,-0.01984095573425293,0.008699655532836914,1,0.06251496821641922,0.7346586585044861,-0.4756351113319397,-0.4797288477420807,-0.6454052925109863,0.7588393688201904,0.08726292848587036,0,0,0,-1,197105.806768875,3,2,1561914390.644305,1561913957.287787,32,0.8918345,0,0,26.32609,0,0,1561914392.923141,197105.459805,0,0.9855957,75.29587,3232235528,177845136,1,1,0.54,-26.62037,-33.09007,1
1561914393.392196,107,0,0,1561914393.026697,4.634835678157057,-74.15131408728114,2552.952,0.21,5.625,4,10,-9999,1561914393.382611,11.37696838378906,23.07809638977051,13.93023681640625,28.72284889221191,36.21631622314453,15,197108.567747,-0.647308349609375,0.7401885986328125,0.1075592041015625,197108.550535,-0.009499229292203634,-0.1415238424362278,-0.1586485008776553,197108.554808,-64.32498168945312,-6.445831298828125,-549.939453125,197108.550535,0.5943484969221047,-1.708354939704168,-0.8580043633454176,-0.01214580144733191,-0.1480924636125565,-0.1618937104940414,-0.01114916801452637,-0.01122349500656128,0.01506352424621582,1,0.06045841053128242,0.7356501817703247,-0.4748075306415558,-0.4792925715446472,-0.6477711200714111,0.7565390467643738,0.08967281877994537,0,0,0,-1,197105.806768875,3,2,1561914390.644305,1561913957.287787,32,0.8918345,0,0,26.32609,0,0,1561914392.923141,197105.459805,0,0.9855957,75.29587,3232235528,177845136,1,1,0.54,-26.62037,-33.53233,1
1561914393.412663,108,0,0,1561914393.026697,4.634835678157057,-74.15131408728114,2552.952,0.21,5.625,4,10,-9999,1561914393.408743,11.41746520996094,22.89343452453613,13.89813232421875,28.77960777282715,36.27307510375977,15,197108.588011,-0.64520263671875,0.745208740234375,0.1061859130859375,197108.570799,-0.04465242304903156,-0.06647756081444893,-0.1485796214282838,197108.574919,-64.5010986328125,-6.456283569335938,-549.8033447265625,197108.570799,0.5940471876391438,-1.710864458872179,-0.854767285484798,-0.04729899391531944,-0.07304617762565613,-0.1518248319625854,0.002657175064086914,-0.01422959566116333,0.01591968536376953,1,0.05890155583620071,0.7364444136619568,-0.4738771915435791,-0.4791873693466187,-0.6499655246734619,0.7544181942939758,0.09163953363895416,0,0,0,-1,197105.806768875,3,2,1561914390.644305,1561913957.287787,32,0.8918345,0,0,26.32609,0,0,1561914392.923141,197105.459805,0,0.9855957,75.29587,3232235528,177845136,1,1,0.54,-26.62037,-33.53233,1
1561914393.432561,109,0,0,1561914393.026697,4.634835678157057,-74.15131408728114,2552.952,0.21,5.625,4,10,-9999,1561914393.408743,11.41746520996094,22.89343452453613,13.89813232421875,28.77960777282715,36.27307510375977,15,197108.608274,-0.6454010009765625,0.757568359375,0.104217529296875,197108.591032,-0.05718153071341835,-0.02818902750627072,-0.1595877977941263,197108.59503,-64.50605773925781,-6.616836547851562,-549.5709228515625,197108.591032,0.5929631156127891,-1.712626768184916,-0.8515344527256811,-0.05982810258865356,-0.03475764766335487,-0.1628330051898956,0.007011473178863525,-0.007083535194396973,0.01305687427520752,1,0.05781363695859909,0.7370360493659973,-0.4727343022823334,-0.4795390069484711,-0.6522141098976135,0.7522922158241272,0.09312910586595535,0,0,0,-1,197105.806768875,3,2,1561914390.644305,1561913957.287787,32,0.8918345,0,0,26.32609,0,0,1561914392.923141,197105.459805,0,0.9855957,75.29587,3232235528,177845136,1,1,0.54,-27.17765,-34.02487,1
1561914393.453512,110,0,0,1561914393.026697,4.634835678157057,-74.15131408728114,2552.952,0.21,5.625,4,10,-9999,1561914393.432757,11.15744018554688,23.13249969482422,13.94708251953125,28.86359977722168,36.3570671081543,15,197108.628538,-0.64190673828125,0.759033203125,0.103485107421875,197108.611296,-0.05674530492686337,-0.002945456165627637,-0.1180725785092081,197108.61511,-64.67054748535156,-6.154815673828125,-549.77197265625,197108.611296,0.5917196788581337,-1.714112626873983,-0.8484391152850742,-0.05939187854528427,-0.009514076635241508,-0.1213177815079689,0.008975803852081299,0.007319033145904541,0.009787201881408691,1,0.05689729005098343,0.7375485301017761,-0.4715814590454102,-0.4799956977367401,-0.6543768048286438,0.7502493262290955,0.09443027526140213,0,0,0,-1,197105.806768875,3,2,1561914390.644305,1561913957.287787,32,0.8918345,0,0,26.32609,0,0,1561914392.923141,197105.459805,0,0.9855957,75.29587,3232235528,177845136,1,1,0.54,-27.73493,-34.3919,1
1561914393.475611,111,0,0,1561914393.026697,4.634835678157057,-74.15131408728114,2552.952,0.21,5.625,4,10,-9999,1561914393.459761,11.15895843505859,23.11882400512695,13.86962890625,28.93329048156738,36.4267578125,15,197108.648802,-0.640106201171875,0.763946533203125,0.0968017578125,197108.631559,-0.03296886903074494,0.01582929688721298,-0.06525144144857646,197108.635222,-64.714111328125,-6.330032348632812,-549.3430786132812,197108.631559,0.5907251430245092,-1.714850759129717,-0.846421280409672,-0.03561544045805931,0.009260675869882107,-0.06849664449691772,0.01389718055725098,0.01011949777603149,0.008354663848876953,1,0.05642302706837654,0.7378222346305847,-0.4707774817943573,-0.4804201424121857,-0.655803918838501,0.7489137053489685,0.09513041377067566,0,0,0,-1,197105.806768875,3,2,1561914390.644305,1561913957.287787,32,0.8918345,0,0,26.32609,0,0,1561914392.923141,197105.459805,0,0.9855957,75.29587,3232235528,177845136,1,1,0.54,-28.29221,-35.03873,1
1561914393.493361,112,0,0,1561914393.026697,4.634835678157057,-74.15131408728114,2552.952,0.21,5.625,4,10,-9999,1561914393.483438,11.16379547119141,22.972412109375,14.107177734375,28.94605445861816,36.43952178955078,15,197108.669065,-0.6398162841796875,0.7594757080078125,0.0958709716796875,197108.651823,-0.003057042615301958,0.01104865641441174,-0.04496534447711587,197108.655333,-64.69076538085938,-6.272735595703125,-549.4054565429688,197108.651823,0.5902497045716921,-1.715058069204391,-0.8452390556009997,-0.005703614093363285,0.004480035044252872,-0.04821055009961128,0.01655358076095581,0.01581674814224243,0.001408219337463379,1,0.05615879595279694,0.7379315495491028,-0.4703253209590912,-0.480725884437561,-0.6566597819328308,0.7481297850608826,0.09539356082677841,0,0,0,-1,197105.806768875,3,2,1561914390.644305,1561913957.287787,32,0.8918345,0,0,26.32609,0,0,1561914392.923141,197105.459805,0,0.9855957,75.29587,3232235528,177845136,1,1,0.54,-28.84949,-35.57956,1
1561914393.513529,113,0,0,1561914393.026697,4.634835678157057,-74.15131408728114,2552.952,0.21,5.625,4,10,-9999,1561914393.509891,11.12483215332031,23.19131278991699,14.0023193359375,28.8707103729248,36.36417770385742,15,197108.689329,-0.6383819580078125,0.75482177734375,0.1031036376953125,197108.672087,0.03119733427362423,-0.001876463304069831,-0.04043797062398117,197108.675444,-64.71762084960938,-6.46685791015625,-549.4860229492188,197108.672087,0.5908026669064053,-1.71479467590384,-0.8443585379773094,0.02855076268315315,-0.008445084095001221,-0.04368317499756813,0.01752036809921265,0.01193052530288696,0.000555872917175293,1,0.05572560429573059,0.7379378080368042,-0.4701947271823883,-0.4808944463729858,-0.6573365926742554,0.7475451827049255,0.0953151062130928,0,0,0,-1,197105.806768875,3,2,1561914390.644305,1561913957.287787,32,0.8918345,0,0,26.32609,0,0,1561914392.923141,197105.459805,0,0.9855957,75.29587,3232235528,177845136,1,1,0.54,-29.38839,-36.02451,1
1561914393.535201,114,0,0,1561914393.026697,4.634835678157057,-74.15131408728114,2552.952,0.21,5.625,4,10,-9999,1561914393.509891,11.12483215332031,23.19131278991699,14.0023193359375,28.8707103729248,36.36417770385742,15,197108.709562,-0.6424102783203125,0.7576141357421875,0.1026458740234375,197108.69235,0.04536348706008272,0.004912999578978178,-0.02352237032812487,197108.695555,-64.73493957519531,-6.494491577148438,-549.4777221679688,197108.69235,0.5920868813138286,-1.714030599014254,-0.8437468102654656,0.04271691292524338,-0.001655621454119682,-0.02676757611334324,0.01947963237762451,0.007683038711547852,0.008225560188293457,1,0.05522911995649338,0.7378270626068115,-0.4703044891357422,-0.481014221906662,-0.657861590385437,0.7471387386322021,0.09487806260585785,0,0,0,-1,197105.806768875,3,2,1561914390.644305,1561913957.287787,32,0.8918345,0,0,26.32609,0,0,1561914392.923141,197105.459805,0,0.9855957,75.29587,3232235528,177845136,1,1,0.54,-29.38839,-36.28091,1
1561914393.554566,115,0,0,1561914393.026697,4.634835678157057,-74.15131408728114,2552.952,0.21,5.625,4,10,-9999,1561914393.534437,10.89999389648438,23.0722541809082,13.90679931640625,28.77917289733887,36.27264022827148,15,197108.729826,-0.642242431640625,0.7574310302734375,0.10125732421875,197108.712614,0.03824672167906397,0.01224521469218434,-0.01140285683939227,197108.715666,-64.69511413574219,-6.234329223632812,-549.62451171875,197108.712614,0.59326152188762,-1.713082144178997,-0.8435411074931518,0.03560014814138412,0.005676593631505966,-0.01464806217700243,0.01569336652755737,0.0106121301651001,0.008370041847229004,1,0.05495088547468185,0.7376437783241272,-0.4705010950565338,-0.4811350405216217,-0.6581036448478699,0.7470020055770874,0.09427588433027267,0,0,0,-1,197105.806768875,3,2,1561914390.644305,1561913957.287787,32,0.8918345,0,0,26.32609,0,0,1561914392.923141,197105.459805,0,0.9855957,75.29587,3232235528,177845136,1,1,0.54,-29.38839,-36.70423,1
1561914393.576347,116,0,0,1561914393.026697,4.634835678157057,-74.15131408728114,2552.952,0.21,5.625,4,10,-9999,1561914393.560575,10.92448425292969,23.16231346130371,14.023193359375,28.6960506439209,36.18951797485352,15,197108.75009,-0.6363372802734375,0.74932861328125,0.099578857421875,197108.732878,0.03822062270038119,0.003360110347352975,-0.02151860792394925,197108.735746,-64.91116333007812,-6.008132934570312,-549.6397705078125,197108.732878,0.5943831175765185,-1.71218615184154,-0.8433289237283875,0.0355740487575531,-0.00320851057767868,-0.0247638151049614,0.01610225439071655,0.01057010889053345,0.007548809051513672,1,0.05467783659696579,0.7374717593193054,-0.4706847965717316,-0.481250137090683,-0.6583447456359863,0.7468609213829041,0.09370852261781693,0,0,0,-1,197105.806768875,3,2,1561914390.644305,1561913957.287787,32,0.8918345,0,0,26.32609,0,0,1561914392.923141,197105.459805,0,0.9855957,75.29587,3232235528,177845136,1,1,0.54,-29.38839,-37.19957,1
1561914393.594594,117,0,0,1561914393.026697,4.634835678157057,-74.15131408728114,2552.952,0.21,5.625,4,10,-9999,1561914393.584755,11.00190734863281,23.17239189147949,13.96875,28.59159278869629,36.08506011962891,15,197108.770353,-0.6327362060546875,0.748992919921875,0.1035003662109375,197108.753141,0.05149355125722711,0.003273823928034407,-0.02557620016079398,197108.755857,-64.73860168457031,-6.04931640625,-549.4954223632812,197108.753141,0.5957057035984022,-1.71127396171273,-0.8429390313088126,0.04884697869420052,-0.003294796915724874,-0.02882140688598156,0.02238065004348755,0.002726972103118896,0.006430149078369141,1,0.05427573248744011,0.7373116612434387,-0.4708651900291443,-0.4813643395900726,-0.6587179899215698,0.7466015815734863,0.09314867854118347,0,0,0,-1,197105.806768875,3,2,1561914390.644305,1561913957.287787,32,0.8918345,0,0,26.32609,0,0,1561914392.923141,197105.459805,0,0.9855957,75.29587,3232235528,177845136,1,1,0.54,-29.38839,-37.19957,1
1561914393.617388,118,0,0,1561914393.026697,4.634835678157057,-74.15131408728114,2552.952,0.21,5.625,4,10,-9999,1561914393.611235,10.91509246826172,23.27830696105957,14.0216064453125,28.5100040435791,36.00347137451172,15,197108.790617,-0.633056640625,0.7500457763671875,0.1067047119140625,197108.773375,0.0405903034383337,0.004925516436101551,-0.02791498823010157,197108.775969,-64.70877075195312,-6.308502197265625,-549.6195068359375,197108.773375,0.5971732186410563,-1.710317335303898,-0.8425092051884367,0.03794373199343681,-0.00164310447871685,-0.03116019442677498,0.02638828754425049,0.002677321434020996,0.01093733310699463,1,0.05381760001182556,0.7371466755867004,-0.4710680246353149,-0.481469988822937,-0.659124493598938,0.746315598487854,0.09256310760974884,0,0,0,-1,197105.806768875,3,2,1561914390.644305,1561913957.287787,32,0.8918345,0,0,26.32609,0,0,1561914392.923141,197105.459805,0,0.9855957,75.29587,3232235528,177845136,1,1,0.54,-29.38839,-37.57653,1
1561914393.635325,119,0,0,1561914393.026697,4.634835678157057,-74.15131408728114,2552.952,0.21,5.625,4,10,-9999,1561914393.611235,10.91509246826172,23.27830696105957,14.0216064453125,28.5100040435791,36.00347137451172,15,197108.810881,-0.6312103271484375,0.7459564208984375,0.1008148193359375,197108.793638,-0.0007099987466151249,0.0225788123539098,-0.01055863477383715,197108.79608,-64.5579833984375,-6.2703857421875,-549.6976928710938,197108.793638,0.5977550991052825,-1.709790040080572,-0.8421283820732581,-0.0033565703779459,0.01601019129157066,-0.01380384061485529,0.02639806270599365,0.003983736038208008,0.0144498348236084,1,0.05360108613967896,0.7370579242706299,-0.4710836708545685,-0.4816147089004517,-0.6594547033309937,0.7460620403289795,0.09225492179393768,0,0,0,-1,197105.806768875,3,2,1561914390.644305,1561913957.287787,32,0.8918345,0,0,26.32609,0,0,1561914392.923141,197105.459805,0,0.9855957,75.29587,3232235528,177845136,1,1,0.54,-29.38839,-37.76727,1
1561914393.655419,120,0,0,1561914393.026697,4.634835678157057,-74.15131408728114,2552.952,0.21,5.625,4,10,-9999,1561914393.635527,11.13568115234375,23.26437187194824,13.80224609375,28.51303291320801,36.00650024414062,15,197108.831144,-0.6334228515625,0.7491607666015625,0.099365234375,197108.813902,0.001634914593199644,0.02698900711908101,-0.01405776213009227,197108.816191,-64.86013793945312,-6.178619384765625,-549.6009521484375,197108.813902,0.5975986609074945,-1.709537393718456,-0.8418872710918403,-0.00101165717933327,0.0204203873872757,-0.01730296760797501,0.02844572067260742,5.495548248291016e-05,0.008701682090759277,1,0.0536382757127285,0.7370071411132812,-0.4709694087505341,-0.481799989938736,-0.6596561074256897,0.7459014654159546,0.0921131819486618,0,0,0,-1,197105.806768875,3,2,1561914390.644305,1561913957.287787,32,0.8918345,0,0,26.32609,0,0,1561914392.923141,197106.405266,0,0.9855957,75.29587,3232235528,177845136,1,1,0.54,-29.38839,-38.35359,1
1561914393.676899,121,0,0,1561914393.026697,4.634835678157057,-74.15131408728114,2552.952,0.21,5.625,4,10,-9999,1561914393.670691,11.17108154296875,23.15738677978516,14.100341796875,28.50822639465332,36.00169372558594,15,197108.851408,-0.63592529296875,0.7525482177734375,0.0967864990234375,197108.834166,0.003071423685188385,0.0176248000941444,-0.01366095112767046,197108.836302,-64.75502014160156,-5.785568237304688,-549.5398559570312,197108.834166,0.5976716499013717,-1.709169785780984,-0.8416096281055676,0.0004189973697066307,0.01105022802948952,-0.01690541580319405,0.02647215127944946,0.003444254398345947,0.007465958595275879,1,0.05360585451126099,0.7369369268417358,-0.4708967506885529,-0.4819819927215576,-0.6598950028419495,0.7457165122032166,0.09189924597740173,0,0,0,-1,197105.806768875,3,2,1561914390.644305,1561913957.287787,32,0.8918345,0,0,26.32609,0,0,1561914392.923141,197106.405266,0,0.9855957,75.29587,3232235528,177845136,1,1,0.54,-29.38839,-38.46676,1
1561914393.700282,122,0,0,1561914393.026697,4.634835678157057,-74.15131408728114,2552.952,0.21,5.625,4,10,-9999,1561914393.670691,11.17108154296875,23.15738677978516,14.100341796875,28.50822639465332,36.00169372558594,15,197108.871641,-0.63861083984375,0.7561492919921875,0.0923004150390625,197108.854429,-0.004366252607184911,0.02475461496450454,-0.01015090481094602,197108.856382,-64.72854614257812,-6.144561767578125,-549.3757934570312,197108.854429,0.5975824136131767,-1.709030308140869,-0.8413022623720409,-0.007018678821623325,0.01818004436790943,-0.01339536905288696,0.02420938014984131,0.007036507129669189,0.004947662353515625,1,0.05356958135962486,0.7369190454483032,-0.4707825481891632,-0.4821248054504395,-0.6601346731185913,0.7455117106437683,0.09183876216411591,0,0,0,-1,197105.806768875,3,2,1561914390.644305,1561913957.287787,32,0.8918345,0,0,26.32609,0,0,1561914392.923141,197106.405266,0,0.9855957,75.29587,3232235528,177845136,1,1,0.54,-29.38839,-38.79573,1
