loggingTime,loggingSample,identifierForVendor,deviceID,locationTimestamp_since1970,locationLatitude,locationLongitude,locationAltitude,locationSpeed,locationCourse,locationVerticalAccuracy,locationHorizontalAccuracy,locationFloor,locationHeadingTimestamp_since1970,locationHeadingX,locationHeadingY,locationHeadingZ,locationTrueHeading,locationMagneticHeading,locationHeadingAccuracy,accelerometerTimestamp_sinceReboot,accelerometerAccelerationX,accelerometerAccelerationY,accelerometerAccelerationZ,gyroTimestamp_sinceReboot,gyroRotationX,gyroRotationY,gyroRotationZ,magnetometerTimestamp_sinceReboot,magnetometerX,magnetometerY,magnetometerZ,motionTimestamp_sinceReboot,motionYaw,motionRoll,motionPitch,motionRotationRateX,motionRotationRateY,motionRotationRateZ,motionUserAccelerationX,motionUserAccelerationY,motionUserAccelerationZ,motionAttitudeReferenceFrame,motionQuaternionX,motionQuaternionY,motionQuaternionZ,motionQuaternionW,motionGravityX,motionGravityY,motionGravityZ,motionMagneticFieldX,motionMagneticFieldY,motionMagneticFieldZ,motionMagneticFieldCalibrationAccuracy,activityTimestamp_sinceReboot,activity,activityActivityConfidence,activityActivityStartDate,pedometerStartDate,pedometerNumberofSteps,pedometerAverageActivePace,pedometerCurrentPace,pedometerCurrentCadence,pedometerDistance,pedometerFloorAscended,pedometerFloorDescended,pedometerEndDate,altimeterTimestamp_sinceReboot,altimeterReset,altimeterRelativeAltitude,altimeterPressure,IP_en0,IP_pdp_ip0,deviceOrientation,batteryState,batteryLevel,avAudioRecorderPeakPower,avAudioRecorderAveragePower,label
1561914403.308541,1,0,0,1561914402.988981,4.634818537165071,-74.15128366097262,2553.02,0,203.203125,4,30,-9999,1561914403.283234,10.5550537109375,24.95148658752441,10.96124267578125,19.15864753723145,26.65211486816406,15,197118.454823125,-0.683868408203125,0.718658447265625,0.0379486083984375,197118.437580125,-0.0186969887490103,-0.02067625007115719,0.01547855857164954,197118.427784125,-65.27809143066406,-4.261276245117188,-552.5629272460938,197118.437580125,0.7565748369878948,-1.63644601571924,-0.8134960834639812,-0.02136115171015263,-0.02726274356245995,0.01223558001220226,-0.003513157367706299,-0.005440831184387207,-0.003532052040100098,1,0.003707625903189182,0.7228550910949707,-0.5002097487449646,-0.4767147898674011,-0.6854822635650635,0.7266932725906372,0.04506645724177361,0,0,0,-1,197116.1803254167,3,2,1561914401.017862,1561913957.287787,32,0.8918345,0,0,26.32609,0,0,1561914403.296296,197115.859289,0,1.017334,75.29558,3232235528,177845136,1,1,0.54,-17.54708,-26.82032,2
1561914403.330409,2,0,0,1561914402.988981,4.634818537165071,-74.15128366097262,2553.02,0,203.203125,4,30,-9999,1561914403.323442,10.34111785888672,25.18289947509766,11.0869140625,19.18169975280762,26.67516708374023,15,197118.475086125,-0.683013916015625,0.718170166015625,0.0372314453125,197118.457844125,0.002492718780314167,-0.0241149236706675,0.006432332980868384,197118.447895125,-65.57518005371094,-4.121170043945312,-552.4715576171875,197118.457844125,0.7562075486079644,-1.637284841547527,-0.8136299051543925,-0.0001714443787932396,-0.0307014174759388,0.003189353737980127,0.001478731632232666,-0.008126735687255859,-0.007686376571655273,1,0.003676771419122815,0.7230518460273743,-0.5001587867736816,-0.4764700531959534,-0.6853471398353577,0.7267851829528809,0.04563498124480247,0,0,0,-1,197116.1803254167,3,2,1561914401.017862,1561913957.287787,32,0.8918345,0,0,26.32609,0,0,1561914403.296296,197115.859289,0,1.017334,75.29558,3232235528,177845136,1,1,0.54,-17.54708,-27.72695,2
1561914403.332669,3,0,0,1561914402.988981,4.634818537165071,-74.15128366097262,2553.02,0,203.203125,4,30,-9999,1561914403.323442,10.34111785888672,25.18289947509766,11.0869140625,19.18169975280762,26.67516708374023,15,197118.495350125,-0.68170166015625,0.7210845947265625,0.0398406982421875,197118.478107125,0.02407684046707937,-0.03486583867520838,-0.002682069533818801,197118.468006125,-65.49940490722656,-4.383071899414062,-552.6928100585938,197118.478107125,0.7564939949137169,-1.637858483302409,-0.8136063817367762,0.02141267620027065,-0.04145233333110809,-0.00592504907399416,0.002324163913726807,-0.008598864078521729,-0.008797764778137207,1,0.003421654459089041,0.7231894135475159,-0.500221848487854,-0.4761969745159149,-0.685338020324707,0.7267690300941467,0.04602926969528198,0,0,0,-1,197116.1803254167,3,2,1561914401.017862,1561913957.287787,32,0.8918345,0,0,26.32609,0,0,1561914403.296296,197115.859289,0,1.017334,75.29558,3232235528,177845136,1,1,0.54,-17.54708,-27.72695,2
1561914403.348698,4,0,0,1561914402.988981,4.634818537165071,-74.15128366097262,2553.02,0,203.203125,4,30,-9999,1561914403.345584,10.32861328125,25.17955017089844,11.11383056640625,19.10015487670898,26.5936222076416,15,197118.515583125,-0.6807708740234375,0.725128173828125,0.040283203125,197118.498371125,0.02833789821120615,-0.02948279116383121,-0.008025702261062792,197118.488117125,-65.47267150878906,-4.2724609375,-552.521484375,197118.498371125,0.757260779398552,-1.638089507600376,-0.8134391125138318,0.02567373402416706,-0.03606928512454033,-0.01126868091523647,0.003746986389160156,-0.005569577217102051,-0.006355047225952148,1,0.003028902458027005,0.7232487201690674,-0.5003609657287598,-0.4759633243083954,-0.6854486465454102,0.7266541719436646,0.04619577154517174,0,0,0,-1,197116.1803254167,3,2,1561914401.017862,1561913957.287787,32,0.8918345,0,0,26.32609,0,0,1561914403.296296,197115.859289,0,1.017334,75.29558,3232235528,177845136,1,1,0.54,-17.54708,-26.82234,2
1561914403.381946,5,0,0,1561914402.988981,4.634818537165071,-74.15128366097262,2553.02,0,203.203125,4,30,-9999,1561914403.372747,10.3822021484375,25.16648483276367,10.97540283203125,19.08045959472656,26.57392692565918,15,197118.535847125,-0.6810150146484375,0.7278900146484375,0.0376739501953125,197118.518635125,0.009877664483103895,-0.02336737435268226,-0.008355135287905595,197118.508228125,-65.59365844726562,-4.215194702148438,-552.51220703125,197118.518635125,0.757765949529323,-1.638361982993959,-0.8131873264767268,0.007213500794023275,-0.02995386719703674,-0.01159811392426491,0.004847466945648193,-0.001352965831756592,-0.006111741065979004,1,0.002691178349778056,0.723318874835968,-0.5004156827926636,-0.4758010506629944,-0.6856183409690857,0.7264811396598816,0.04639487341046333,0,0,0,-1,197116.1803254167,3,2,1561914401.017862,1561913957.287787,32,0.8918345,0,0,26.32609,0,0,1561914403.296296,197115.859289,0,1.017334,75.29558,3232235528,177845136,1,1,0.54,-17.54708,-26.86292,2
1561914403.389343,6,0,0,1561914402.988981,4.634818537165071,-74.15128366097262,2553.02,0,203.203125,4,30,-9999,1561914403.372747,10.3822021484375,25.16648483276367,10.97540283203125,19.08045959472656,26.57392692565918,15,197118.556110125,-0.678436279296875,0.7291107177734375,0.0362396240234375,197118.538898125,0.01279755430226677,-0.002863697120162205,-0.001562742927658497,197118.528309125,-65.337646484375,-4.322830200195312,-552.498779296875,197118.538898125,0.758026800094376,-1.638567655021971,-0.8130320751961952,0.01013339124619961,-0.009450191631913185,-0.004805722273886204,0.004706501960754395,0.001515567302703857,-0.008869528770446777,1,0.002491900231689215,0.7233709692955017,-0.500437319278717,-0.475700318813324,-0.6857215166091919,0.7263744473457336,0.04654353857040405,0,0,0,-1,197116.1803254167,3,2,1561914401.017862,1561913957.287787,32,0.8918345,0,0,26.32609,0,0,1561914403.296296,197115.859289,0,1.017334,75.29558,3232235528,177845136,1,1,0.54,-17.54708,-25.46036,2
1561914403.409555,7,0,0,1561914402.988981,4.634818537165071,-74.15128366097262,2553.02,0,203.203125,4,30,-9999,1561914403.395722,10.46086883544922,25.33345794677734,10.8516845703125,19.03961181640625,26.53307914733887,15,197118.576374125,-0.67529296875,0.726837158203125,0.035003662109375,197118.559162125,0.027862257640518,0.01714836057512922,0.0148015830225514,197118.548420125,-65.32135009765625,-3.994125366210938,-552.5758666992188,197118.559162125,0.7585360476834601,-1.638150999548822,-0.8131302855372621,0.02519809454679489,0.01056186575442553,0.01155860349535942,0.007233321666717529,0.00266873836517334,-0.01001334190368652,1,0.002445835620164871,0.7232707142829895,-0.5005836486816406,-0.4756989777088165,-0.6856696009635925,0.7264419198036194,0.0462530180811882,0,0,0,-1,197116.1803254167,3,2,1561914401.017862,1561913957.287787,32,0.8918345,0,0,26.32609,0,0,1561914403.296296,197115.859289,0,1.017334,75.29558,3232235528,177845136,1,1,0.54,-17.54708,-24.1374,2
1561914403.429873,8,0,0,1561914402.988981,4.634818537165071,-74.15128366097262,2553.02,0,203.203125,4,30,-9999,1561914403.420077,10.52561950683594,25.13246726989746,10.6990966796875,18.95749664306641,26.45096397399902,15,197118.596638125,-0.672943115234375,0.7257080078125,0.042205810546875,197118.579426125,0.04714327761658268,0.006458165643442153,0.0116760971672344,197118.568531125,-65.25456237792969,-4.217620849609375,-552.7152099609375,197118.579426125,0.7595336128001933,-1.637268922291816,-0.8134304694265555,0.04447911307215691,-0.0001283292658627033,0.008433118462562561,0.01019942760467529,0.0001889467239379883,-0.01063001155853271,1,0.002409479347988963,0.7230567336082458,-0.5008983612060547,-0.4756931066513062,-0.6854923963546753,0.726648211479187,0.04563369229435921,0,0,0,-1,197116.1803254167,3,2,1561914401.017862,1561913957.287787,32,0.8918345,0,0,26.32609,0,0,1561914403.296296,197115.859289,0,1.017334,75.29558,3232235528,177845136,1,1,0.54,-17.54708,-24.1374,2
1561914403.462182,9,0,0,1561914402.988981,4.634818537165071,-74.15128366097262,2553.02,0,203.203125,4,30,-9999,1561914403.446427,10.27091217041016,25.28889083862305,10.87542724609375,18.85989570617676,26.35336303710938,15,197118.616901125,-0.67401123046875,0.7264404296875,0.04681396484375,197118.599659125,0.04759202026026103,-0.00966913896975069,-0.004042944850849292,197118.588642125,-65.59825134277344,-3.95147705078125,-552.58203125,197118.599659125,0.7609122935082631,-1.63640329072964,-0.8135127592541255,0.04492785781621933,-0.01625563390552998,-0.007285924162715673,0.01252889633178711,-0.0009967684745788574,-0.00283050537109375,1,0.002156394068151712,0.7228509783744812,-0.5012467503547668,-0.4756400883197784,-0.6854720115661621,0.7267047166824341,0.04503637552261353,0,0,0,-1,197116.1803254167,3,2,1561914401.017862,1561913957.287787,32,0.8918345,0,0,26.32609,0,0,1561914403.296296,197115.859289,0,1.017334,75.29558,3232235528,177845136,1,1,0.54,-17.54708,-25.0738,2
1561914403.470441,10,0,0,1561914402.988981,4.634818537165071,-74.15128366097262,2553.02,0,203.203125,4,30,-9999,1561914403.446427,10.27091217041016,25.28889083862305,10.87542724609375,18.85989570617676,26.35336303710938,15,197118.637165125,-0.6745147705078125,0.7306976318359375,0.04547119140625,197118.619923125,0.03372360888367339,-0.009680590562438031,-0.006401173996114457,197118.608753125,-65.31706237792969,-4.048858642578125,-552.7024536132812,197118.619923125,0.7620974618522564,-1.635877328289555,-0.8133627944807688,0.03105944395065308,-0.01626708544790745,-0.009644152596592903,0.01159322261810303,-0.000161290168762207,0.002130985260009766,1,0.001808200497180223,0.7227296829223633,-0.5014889240264893,-0.4755706489086151,-0.685604453086853,0.7266017198562622,0.04468292742967606,0,0,0,-1,197116.1803254167,3,2,1561914401.017862,1561913957.287787,32,0.8918345,0,0,26.32609,0,0,1561914403.296296,197115.859289,0,1.017334,75.29558,3232235528,177845136,1,1,0.54,-17.54708,-25.0738,2
1561914403.490648,11,0,0,1561914402.988981,4.634818537165071,-74.15128366097262,2553.02,0,203.203125,4,30,-9999,1561914403.471463,10.38536834716797,25.51165771484375,10.94189453125,18.78776550292969,26.2812328338623,15,197118.657429125,-0.674102783203125,0.739105224609375,0.044342041015625,197118.640186125,0.04311125172620271,-0.01168461928272266,-0.01303564090371986,197118.628834125,-65.183349609375,-4.075393676757812,-552.6376953125,197118.640186125,0.7630956595048933,-1.635503265272984,-0.8131518250087855,0.04044708609580994,-0.01827111467719078,-0.01627862080931664,0.01125931739807129,0.004240870475769043,0.001034855842590332,1,0.001468503032810986,0.7226451635360718,-0.5016709566116333,-0.4755082726478577,-0.6857740879058838,0.7264567613601685,0.04443637654185295,0,0,0,-1,197116.1803254167,3,2,1561914401.017862,1561913957.287787,32,0.8918345,0,0,26.32609,0,0,1561914403.296296,197115.859289,0,1.017334,75.29558,3232235528,177845136,1,1,0.54,-17.54708,-25.82298,2
1561914403.51105,12,0,0,1561914402.988981,4.634818537165071,-74.15128366097262,2553.02,0,203.203125,4,30,-9999,1561914403.497122,10.39512634277344,25.23503494262695,10.930908203125,18.68793296813965,26.18140029907227,15,197118.677692125,-0.672698974609375,0.7366485595703125,0.0492095947265625,197118.660450125,0.0519803771044936,-0.004387025263687529,0.003934820510592074,197118.648945125,-65.50448608398438,-4.040237426757812,-552.7564086914062,197118.660450125,0.7644841556705827,-1.634744340501779,-0.8130414523052875,0.04931621253490448,-0.01097352057695389,0.0006918413564562798,0.01178479194641113,0.01272433996200562,0.0004210472106933594,1,0.001119158579967916,0.7224674820899963,-0.5019718408584595,-0.4754616022109985,-0.6858875155448914,0.7263808846473694,0.04392103105783463,0,0,0,-1,197116.1803254167,3,2,1561914401.017862,1561913957.287787,32,0.8918345,0,0,26.32609,0,0,1561914403.296296,197115.859289,0,1.017334,75.29558,3232235528,177845136,1,1,0.54,-17.54708,-26.63796,2
1561914403.541325,13,0,0,1561914402.988981,4.634818537165071,-74.15128366097262,2553.02,0,203.203125,4,30,-9999,1561914403.521467,10.62040710449219,25.13943862915039,10.84515380859375,18.56440734863281,26.05787467956543,15,197118.697926125,-0.6752166748046875,0.7342071533203125,0.0580291748046875,197118.680714125,0.06544212378262612,-0.009432117632733638,0.002061552999830338,197118.669056125,-65.33668518066406,-4.291290283203125,-552.475341796875,197118.680714125,0.7661074398464638,-1.633821710743491,-0.813189495568886,0.06277795881032944,-0.01601861231029034,-0.001181426225230098,0.01312154531478882,0.01016592979431152,0.005928158760070801,1,0.0008156808908097446,0.722246527671814,-0.5023957490921021,-0.4753502309322357,-0.6858205199241638,0.726482629776001,0.0432814247906208,0,0,0,-1,197116.1803254167,3,2,1561914401.017862,1561913957.287787,32,0.8918345,0,0,26.32609,0,0,1561914403.296296,197115.859289,0,1.017334,75.29558,3232235528,177845136,1,1,0.54,-17.54708,-27.34361,2
1561914403.551557,14,0,0,1561914402.988981,4.634818537165071,-74.15128366097262,2553.02,0,203.203125,4,30,-9999,1561914403.547925,10.29570007324219,25.20351219177246,10.7303466796875,18.45631980895996,25.94978713989258,15,197118.718189125,-0.672393798828125,0.7288665771484375,0.0636138916015625,197118.700977125,0.05476817413358854,-0.004016579556057507,0.005861617559264403,197118.689167125,-65.36978149414062,-4.080047607421875,-552.753173828125,197118.700977125,0.7678504608720653,-1.632830522028043,-0.8132726936838435,0.05210401117801666,-0.01060307398438454,0.002618638332933187,0.01058608293533325,0.007667362689971924,0.01543128490447998,1,0.0004641640116460621,0.7220101952552795,-0.5028312802314758,-0.475249171257019,-0.685802698135376,0.7265397906303406,0.04259787499904633,0,0,0,-1,197116.1803254167,3,2,1561914401.017862,1561913957.287787,32,0.8918345,0,0,26.32609,0,0,1561914403.296296,197115.859289,0,1.017334,75.29558,3232235528,177845136,1,1,0.54,-17.54708,-27.9015,2
1561914403.571911,15,0,0,1561914402.988981,4.634818537165071,-74.15128366097262,2553.02,0,203.203125,4,30,-9999,1561914403.547925,10.29570007324219,25.20351219177246,10.7303466796875,18.45631980895996,25.94978713989258,15,197118.738453125,-0.6728515625,0.727813720703125,0.065643310546875,197118.721241125,0.03461630048106795,0.004249872467548448,0.008501609147859952,197118.709278125,-65.32185363769531,-3.827041625976562,-552.9684448242188,197118.721241125,0.7690759227217399,-1.632061984963108,-0.8134480879423936,0.0319521352648735,-0.002336622215807438,0.005258629564195871,0.01331430673599243,0.002206265926361084,0.02155089378356934,1,0.000275736179901287,0.7218250632286072,-0.5031678080558777,-0.4751743674278259,-0.6857080459594727,0.7266603112220764,0.04206299409270287,0,0,0,-1,197116.1803254167,3,2,1561914401.017862,1561913957.287787,32,0.8918345,0,0,26.32609,0,0,1561914403.296296,197115.859289,0,1.017334,75.29558,3232235528,177845136,1,1,0.54,-17.54708,-28.85123,2
1561914403.592007,16,0,0,1561914402.988981,4.634818537165071,-74.15128366097262,2553.02,0,203.203125,4,30,-9999,1561914403.572086,10.44313049316406,25.57946586608887,10.5611572265625,18.40136909484863,25.89483642578125,15,197118.758717125,-0.67449951171875,0.72845458984375,0.0635986328125,197118.741505125,0.01288890072765649,0.00950748509158288,0.01435763406883519,197118.749470125,-65.56533813476562,-4.376007080078125,-552.9379272460938,197118.741505125,0.769678971144649,-1.631603836772763,-0.8136567908963184,0.01022473722696304,0.002920989878475666,0.01111465506255627,0.01272433996200562,0.001010000705718994,0.02390372753143311,1,0.0002455500944051892,0.7217130661010742,-0.5033650994300842,-0.4751355648040771,-0.6855759024620056,0.7268036603927612,0.04173962026834488,0,0,0,-1,197116.1803254167,3,2,1561914401.017862,1561913957.287787,32,0.8918345,0,0,26.32609,0,0,1561914403.296296,197115.859289,0,1.017334,75.29558,3232235528,177845136,1,1,0.54,-17.54708,-28.85123,2
1561914403.627062,17,0,0,1561914402.988981,4.634818537165071,-74.15128366097262,2553.02,0,203.203125,4,30,-9999,1561914403.622921,10.66676330566406,25.27810668945312,10.8070068359375,18.42852210998535,25.92198944091797,15,197118.778980125,-0.6766815185546875,0.7310028076171875,0.0611724853515625,197118.761768125,0.001809351644599835,0.01063906223875755,0.01218263040656748,197118.769581125,-65.59208679199219,-4.223556518554688,-552.9793090820312,197118.761768125,0.7698237710876169,-1.631481682395859,-0.8139020504505019,-0.0008548116311430931,0.004052567295730114,0.008939651772379875,0.01090341806411743,0.001482486724853516,0.02195358276367188,1,0.0003088174853473902,0.7216802835464478,-0.5034630298614502,-0.4750814735889435,-0.6854029297828674,0.7269721031188965,0.04164505377411842,0,0,0,-1,197116.1803254167,3,2,1561914401.017862,1561913957.287787,32,0.8918345,0,0,26.32609,0,0,1561914403.296296,197115.859289,0,1.017334,75.29558,3232235528,177845136,1,1,0.54,-17.54708,-30.32652,2
1561914403.632838,18,0,0,1561914402.988981,4.634818537165071,-74.15128366097262,2553.02,0,203.203125,4,30,-9999,1561914403.622921,10.66676330566406,25.27810668945312,10.8070068359375,18.42852210998535,25.92198944091797,15,197118.799244125,-0.676483154296875,0.7326202392578125,0.056884765625,197118.782002125,-0.02100515046578198,0.02492266042928853,0.01951724236475471,197118.789692125,-65.59378051757812,-4.046661376953125,-552.7020263671875,197118.782002125,0.7694663531531797,-1.631541799336945,-0.8141425033223022,-0.02366931363940239,0.01833616569638252,0.01627426408231258,0.008544623851776123,0.003865599632263184,0.01949691772460938,1,0.000505847972817719,0.7216907739639282,-0.5034403800964355,-0.4750895202159882,-0.6852261424064636,0.7271372079849243,0.04167565703392029,0,0,0,-1,197116.1803254167,3,2,1561914401.017862,1561913957.287787,32,0.8918345,0,0,26.32609,0,0,1561914403.296296,197115.859289,0,1.017334,75.29558,3232235528,177845136,1,1,0.54,-17.54708,-30.32652,2
1561914403.652909,19,0,0,1561914402.988981,4.634818537165071,-74.15128366097262,2553.02,0,203.203125,4,30,-9999,1561914403.650192,10.28359985351562,25.2754020690918,10.96502685546875,18.52653503417969,26.0200023651123,15,197118.819508125,-0.679779052734375,0.7325286865234375,0.0501708984375,197118.802265125,-0.04391099900155351,0.03817961001959397,0.02709579987879319,197118.809803125,-65.47126770019531,-4.35321044921875,-552.9866333007812,197118.802265125,0.7683278523791965,-1.631892333464632,-0.8145301901450077,-0.0465751625597477,0.03159311413764954,0.02385282143950462,0.008446812629699707,0.00521695613861084,0.01498603820800781,1,0.0009624859085306525,0.7217675447463989,-0.5032705068588257,-0.4751521050930023,-0.6849299669265747,0.7274032831192017,0.04189863055944443,0,0,0,-1,197116.1803254167,3,2,1561914401.017862,1561913957.287787,32,0.8918345,0,0,26.32609,0,0,1561914403.296296,197115.859289,0,1.017334,75.29558,3232235528,177845136,1,1,0.54,-17.54708,-31.12835,2
1561914403.673773,20,0,0,1561914402.988981,4.634818537165071,-74.15128366097262,2553.02,0,203.203125,4,30,-9999,1561914403.650192,10.28359985351562,25.2754020690918,10.96502685546875,18.52653503417969,26.0200023651123,15,197118.839771125,-0.6789703369140625,0.733062744140625,0.050994873046875,197118.822529125,-0.03123355326444931,0.02917359816127301,0.02281130631707371,197118.829884125,-65.44168090820312,-4.179595947265625,-552.9877319335938,197118.822529125,0.7669934234844831,-1.632329509320157,-0.8149724084075262,-0.03389771655201912,0.02258710190653801,0.01956832781434059,0.004811286926269531,0.004822015762329102,0.00799262523651123,1,0.001486948225647211,0.7218635082244873,-0.5030683875083923,-0.4752189517021179,-0.6845903396606445,0.7277066707611084,0.04217826947569847,0,0,0,-1,197116.1803254167,3,2,1561914401.017862,1561913957.287787,32,0.8918345,0,0,26.32609,0,0,1561914403.296296,197115.859289,0,1.017334,75.29558,3232235528,177845136,1,1,0.54,-17.54708,-31.83275,2
1561914403.712527,21,0,0,1561914402.988981,4.634818537165071,-74.15128366097262,2553.02,0,203.203125,4,30,-9999,1561914403.702382,10.47927856445312,25.05514144897461,10.81304931640625,18.63829231262207,26.13175964355469,15,197118.860035125,-0.6763458251953125,0.729095458984375,0.0509490966796875,197118.842793125,-0.01612197829101268,0.03051876082787204,0.03256460117727091,197118.849995125,-65.30827331542969,-4.301055908203125,-552.8048706054688,197118.842793125,0.7661958645531213,-1.632484791909558,-0.8153880663790454,-0.01878614164888859,0.02393226698040962,0.02932162024080753,0.005311667919158936,0.005071043968200684,0.008728981018066406,1,0.001879468443803489,0.7218929529190063,-0.5029867887496948,-0.4752593338489532,-0.6842820048332214,0.7279917001724243,0.04226593673229218,0,0,0,-1,197116.1803254167,3,2,1561914401.017862,1561913957.287787,32,0.8918345,0,0,26.32609,0,0,1561914403.296296,197115.859289,0,1.017334,75.29558,3232235528,177845136,1,1,0.54,-17.54708,-32.62288,2
1561914403.71569,22,0,0,1561914402.988981,4.634818537165071,-74.15128366097262,2553.02,0,203.203125,4,30,-9999,1561914403.702382,10.47927856445312,25.05514144897461,10.81304931640625,18.63829231262207,26.13175964355469,15,197118.880268125,-0.6770477294921875,0.724151611328125,0.0545196533203125,197118.863056125,-0.01541837113101375,0.007961253762682875,0.04294560310639978,197118.870106125,-65.40606689453125,-4.305587768554688,-552.791015625,197118.863056125,0.7654895449444166,-1.632744730111701,-0.8161272754813547,-0.01809666864573956,0.00136041734367609,0.03970440849661827,0.007387757301330566,0.0005971193313598633,0.008538603782653809,1,0.002324478700757027,0.7219417095184326,-0.5030110478401184,-0.4751575291156769,-0.6837335824966431,0.7284982800483704,0.0424104705452919,0,0,0,-1,197116.1803254167,3,2,1561914401.017862,1561913957.287787,32,0.8918345,0,0,26.32609,0,0,1561914403.296296,197115.859289,0,1.017334,75.29558,3232235528,177845136,1,1,0.54,-17.54708,-32.62288,2
1561914403.73393,23,0,0,1561914402.988981,4.634818537165071,-74.15128366097262,2553.02,0,203.203125,4,30,-9999,1561914403.702382,10.47927856445312,25.05514144897461,10.81304931640625,18.63829231262207,26.13175964355469,15,197118.900532125,-0.6810455322265625,0.723175048828125,0.0497283935546875,197118.883320125,-0.008160990844438817,-0.004114317568063415,0.04367610819340852,197118.890217125,-65.47605895996094,-4.363632202148438,-552.6387329101562,197118.883320125,0.7650045081129607,-1.633191615275151,-0.8169138311985085,-0.01083928812295198,-0.01071515399962664,0.04043491557240486,0.006094694137573242,-0.004885315895080566,0.01183938980102539,1,0.002658938756212592,0.7220339775085449,-0.5031005144119263,-0.4749207496643066,-0.6831424236297607,0.7290369272232056,0.04268027096986771,0,0,0,-1,197116.1803254167,3,2,1561914401.017862,1561913957.287787,32,0.8918345,0,0,26.32609,0,0,1561914403.296296,197115.859289,0,1.017334,75.29558,3232235528,177845136,1,1,0.54,-17.54708,-32.9479,2
1561914403.754211,24,0,0,1561914402.988981,4.634818537165071,-74.15128366097262,2553.02,0,203.203125,4,30,-9999,1561914403.736699,10.46934509277344,25.02890777587891,10.9625244140625,18.67174339294434,26.16521072387695,15,197118.920795125,-0.6827850341796875,0.7224273681640625,0.046630859375,197118.903584125,-0.02601402384400301,0.004510329622158198,0.04345852793234904,197118.910328125,-65.09706115722656,-4.221832275390625,-552.547119140625,197118.903584125,0.7643407363095138,-1.633827699781906,-0.817724099534047,-0.02869232185184956,-0.002090506721287966,0.04021733626723289,0.001479804515838623,-0.006416261196136475,0.006650805473327637,1,0.003018486313521862,0.7221701145172119,-0.5031541585922241,-0.4746546745300293,-0.6825253367424011,0.7295912504196167,0.04307756945490837,0,0,0,-1,197116.1803254167,3,2,1561914401.017862,1561913957.287787,32,0.8918345,0,0,26.32609,0,0,1561914403.296296,197115.859289,0,1.017334,75.29558,3232235528,177845136,1,1,0.54,-17.54708,-32.9479,2
1561914403.786185,25,0,0,1561914402.988981,4.634818537165071,-74.15128366097262,2553.02,0,203.203125,4,30,-9999,1561914403.774887,10.55770874023438,25.23592567443848,10.91522216796875,18.77240943908691,26.26587677001953,15,197118.941059125,-0.680694580078125,0.720458984375,0.046234130859375,197118.923847125,-0.01993029864982599,0.01416135909649635,0.04365107447916177,197118.930439125,-65.40647888183594,-4.256118774414062,-552.7637939453125,197118.923847125,0.7633747002091882,-1.634477235423895,-0.8185271331256666,-0.02260859683156013,0.007560522295534611,0.0404098816215992,-0.0008726119995117188,-0.007712900638580322,0.003147244453430176,1,0.003481316845864058,0.7223085761070251,-0.5031344890594482,-0.4744617342948914,-0.6819124221801758,0.730140209197998,0.04348359629511833,0,0,0,-1,197116.1803254167,3,2,1561914401.017862,1561913957.287787,32,0.8918345,0,0,26.32609,0,0,1561914403.296296,197115.859289,0,1.017334,75.29558,3232235528,177845136,1,1,0.54,-17.54708,-33.70514,2
1561914403.794806,26,0,0,1561914402.988981,4.634818537165071,-74.15128366097262,2553.02,0,203.203125,4,30,-9999,1561914403.774887,10.55770874023438,25.23592567443848,10.91522216796875,18.77240943908691,26.26587677001953,15,197118.961323125,-0.6815032958984375,0.723602294921875,0.046356201171875,197118.944080125,0.003856789890652753,0.005143629329379041,0.04531022383828114,197118.950550125,-65.31727600097656,-4.29302978515625,-552.785888671875,197118.944080125,0.7629617988477723,-1.634720163520607,-0.8193638407392605,0.001178492093458772,-0.001457206904888153,0.04206903278827667,0.0005971193313598633,-0.01025265455245972,0.002623915672302246,1,0.003858194220811129,0.7223504781723022,-0.5032543540000916,-0.4742677211761475,-0.6812916994094849,0.7307116985321045,0.04361019656062126,0,0,0,-1,197116.1803254167,3,2,1561914401.017862,1561913957.287787,32,0.8918345,0,0,26.32609,0,0,1561914403.296296,197115.859289,0,1.017334,75.29558,3232235528,177845136,1,1,0.54,-17.54708,-33.70514,2
1561914403.815435,27,0,0,1561914402.988981,4.634818537165071,-74.15128366097262,2553.02,0,203.203125,4,30,-9999,1561914403.801477,10.59986114501953,25.09902954101562,10.8807373046875,18.78696441650391,26.28043174743652,15,197118.981586125,-0.6820068359375,0.7228851318359375,0.0426025390625,197118.964344125,-0.008891762247556561,-0.002230397412941362,0.04774328781017752,197118.970661125,-65.31088256835938,-4.045745849609375,-552.7938232421875,197118.964344125,0.7627758708970774,-1.635027337958725,-0.8202373817959766,-0.01157005969434977,-0.008831233717501163,0.04450209438800812,-0.0008622407913208008,-0.007705450057983398,0.002577662467956543,1,0.004149644635617733,0.7224071025848389,-0.5034377574920654,-0.4739842712879181,-0.6806410551071167,0.7313077449798584,0.04377848282456398,0,0,0,-1,197116.1803254167,3,2,1561914401.017862,1561913957.287787,32,0.8918345,0,0,26.32609,0,0,1561914403.296296,197115.859289,0,1.017334,75.29558,3232235528,177845136,1,1,0.54,-17.54708,-34.35783,2
1561914403.835591,28,0,0,1561914402.988981,4.634818537165071,-74.15128366097262,2553.02,0,203.203125,4,30,-9999,1561914403.825724,10.77772521972656,25.08823776245117,11.02325439453125,18.81728172302246,26.31074905395508,15,197119.001850125,-0.68438720703125,0.7258758544921875,0.038330078125,197118.984608125,-0.007679491319352492,-0.003772367684097241,0.04510862254376213,197118.990772125,-64.98616027832031,-4.107620239257812,-552.7550048828125,197118.984608125,0.7622859648373227,-1.635631392469769,-0.8210525891679201,-0.01035778876394033,-0.01037320401519537,0.04186743125319481,-0.001987278461456299,-0.008978366851806641,-0.001548409461975098,1,0.004456018097698689,0.7225341796875,-0.5035346746444702,-0.4736849069595337,-0.6800195574760437,0.7318634986877441,0.04415099322795868,0,0,0,-1,197116.1803254167,3,2,1561914401.017862,1561913957.287787,32,0.8918345,0,0,26.32609,0,0,1561914403.296296,197115.859289,0,1.017334,75.29558,3232235528,177845136,1,1,0.54,-17.54708,-34.89163,2
1561914403.871236,29,0,0,1561914402.988981,4.634818537165071,-74.15128366097262,2553.02,0,203.203125,4,30,-9999,1561914403.852355,10.63748168945312,25.15637588500977,10.765625,18.79145812988281,26.28492546081543,15,197119.022114125,-0.6849517822265625,0.7236785888671875,0.039215087890625,197119.004871125,0.01478693563655596,-0.008553008156898481,0.04944451511452014,197119.010853125,-65.20625305175781,-4.074356079101562,-552.734619140625,197119.004871125,0.7622146766656924,-1.635919804004475,-0.8219286589632862,0.01210863795131445,-0.0151538448408246,0.04620332270860672,-0.005020380020141602,-0.006584405899047852,-0.005975246429443359,1,0.004711544141173363,0.7225859761238098,-0.503745973110199,-0.4733787477016449,-0.6793668270111084,0.7324602603912354,0.04430538415908813,0,0,0,-1,197116.1803254167,3,2,1561914401.017862,1561913957.287787,32,0.8918345,0,0,26.32609,0,0,1561914403.296296,197115.859289,0,1.017334,75.29558,3232235528,177845136,1,1,0.54,-17.54708,-35.20335,2
1561914403.875861,30,0,0,1561914402.988981,4.634818537165071,-74.15128366097262,2553.02,0,203.203125,4,30,-9999,1561914403.852355,10.63748168945312,25.15637588500977,10.765625,18.79145812988281,26.28492546081543,15,197119.042377125,-0.6806488037109375,0.7205352783203125,0.0443572998046875,197119.025135125,0.03885738451701914,-0.02255670811686214,0.03675987884247273,197119.030964125,-64.93804931640625,-4.308624267578125,-552.7574462890625,197119.025135125,0.7628803159709242,-1.635926372936257,-0.8227784712191618,0.03617908805608749,-0.02915754355490208,0.03351868689060211,-0.006206691265106201,-0.009359955787658691,-0.005054235458374023,1,0.004762672353535891,0.7225731611251831,-0.5041241049766541,-0.4729950428009033,-0.6787450909614563,0.7330385446548462,0.04426931217312813,0,0,0,-1,197116.1803254167,3,2,1561914401.017862,1561913957.287787,32,0.8918345,0,0,26.32609,0,0,1561914403.296296,197115.859289,0,1.017334,75.29558,3232235528,177845136,1,1,0.54,-17.54708,-35.741,2
1561914403.896279,31,0,0,1561914402.988981,4.634818537165071,-74.15128366097262,2553.02,0,203.203125,4,30,-9999,1561914403.876831,10.77539825439453,25.16672897338867,10.88970947265625,18.71675872802734,26.21022605895996,15,197119.062611125,-0.6789398193359375,0.7216796875,0.0486297607421875,197119.045399125,0.03541391722754669,-0.008262190965861829,0.02709846303988327,197119.051075125,-64.92755126953125,-4.270294189453125,-552.6251831054688,197119.045399125,0.763932889367495,-1.635624804071744,-0.8233558256054717,0.03273561969399452,-0.01486302725970745,0.02385726943612099,-0.002312958240509033,-0.01289588212966919,0.0003200769424438477,1,0.004657699260860682,0.7224935293197632,-0.5045220255851746,-0.4726932644844055,-0.6783358454704285,0.7334311008453369,0.04403718933463097,0,0,0,-1,197116.1803254167,3,2,1561914401.017862,1561913957.287787,32,0.8918345,0,0,26.32609,0,0,1561914403.296296,197115.859289,0,1.017334,75.29558,3232235528,177845136,1,1,0.54,-17.54708,-36.39144,2
1561914403.916655,32,0,0,1561914402.988981,4.634818537165071,-74.15128366097262,2553.02,0,203.203125,4,30,-9999,1561914403.90301,10.81156921386719,25.22935104370117,10.7989501953125,18.66501998901367,26.15848731994629,15,197119.082874125,-0.6782073974609375,0.72418212890625,0.0475921630859375,197119.065662125,0.02115268959017236,-0.0004079962790001393,0.02347762922181154,197119.071186125,-65.19204711914062,-4.098236083984375,-552.7178955078125,197119.065662125,0.7646312890626232,-1.635284559389596,-0.8238307418554053,0.01847439259290695,-0.007008832413703203,0.02023643627762794,-0.0009365677833557129,-0.01207423210144043,0.004845738410949707,1,0.004655246622860432,0.7224059104919434,-0.5048093199729919,-0.4725205302238464,-0.6780032515525818,0.7337538599967957,0.04378394037485123,0,0,0,-1,197116.1803254167,3,2,1561914401.017862,1561913957.287787,32,0.8918345,0,0,26.32609,0,0,1561914403.296296,197115.859289,0,1.017334,75.29558,3232235528,177845136,1,1,0.54,-17.54708,-36.39144,2
1561914403.947822,33,0,0,1561914402.988981,4.634818537165071,-74.15128366097262,2553.02,0,203.203125,4,30,-9999,1561914403.927057,10.65685272216797,25.09169960021973,10.762451171875,18.60521697998047,26.09868431091309,15,197119.103138125,-0.680755615234375,0.7279052734375,0.046783447265625,197119.085926125,0.03185220558567471,-0.01960059930687419,0.007896006315975933,197119.091267125,-64.93901062011719,-4.259735107421875,-552.85595703125,197119.085926125,0.765346496721405,-1.635044861216239,-0.8241319658423808,0.02917390689253807,-0.02620143629610538,0.004654813557863235,-0.0004143714904785156,-0.00977635383605957,0.003984928131103516,1,0.004561423789709806,0.7223453521728516,-0.5050557255744934,-0.4723506569862366,-0.6777930855751038,0.7339584827423096,0.04360722750425339,0,0,0,-1,197116.1803254167,3,2,1561914401.017862,1561913957.287787,32,0.8918345,0,0,26.32609,0,0,1561914403.296296,197115.859289,0,1.017334,75.29558,3232235528,177845136,1,1,0.54,-17.54708,-36.56652,2
1561914403.957027,34,0,0,1561914402.988981,4.634818537165071,-74.15128366097262,2553.02,0,203.203125,4,30,-9999,1561914403.95369,10.7691650390625,25.10356712341309,10.85736083984375,18.53491973876953,26.02838706970215,15,197119.123402125,-0.6811981201171875,0.7325439453125,0.0459136962890625,197119.106190125,0.03488794291225604,-0.02515994808241459,-0.003850131987927555,197119.111378125,-65.30715942382812,-4.502410888671875,-552.5887451171875,197119.106190125,0.7663210450292459,-1.634945776148329,-0.824087671653458,0.03220964595675468,-0.03176078200340271,-0.007091324776411057,-0.002925872802734375,-0.006023108959197998,0.003241300582885742,1,0.004219159483909607,0.7223249077796936,-0.5052741765975952,-0.4721513688564301,-0.6778297424316406,0.733928382396698,0.04354214668273926,0,0,0,-1,197116.1803254167,3,2,1561914401.017862,1561913957.287787,32,0.8918345,0,0,26.32609,0,0,1561914403.296296,197115.859289,0,1.017334,75.29558,3232235528,177845136,1,1,0.54,-17.54708,-36.56652,2
1561914403.977493,35,0,0,1561914402.988981,4.634818537165071,-74.15128366097262,2553.02,0,203.203125,4,30,-9999,1561914403.95369,10.7691650390625,25.10356712341309,10.85736083984375,18.53491973876953,26.02838706970215,15,197119.143665125,-0.6793670654296875,0.734130859375,0.0475921630859375,197119.126423125,0.0358983462298321,-0.01263776463686202,-0.01096716368505531,197119.131489125,-65.35336303710938,-4.391326904296875,-553.0067749023438,197119.126423125,0.7672664678202226,-1.634766954924957,-0.823870912127238,0.03322004899382591,-0.01923860050737858,-0.01420835591852665,-0.003201782703399658,-0.001237213611602783,0.00248265266418457,1,0.003848076332360506,0.7222885489463806,-0.505440890789032,-0.4720317721366882,-0.6779963374137878,0.7337811589241028,0.0434311106801033,0,0,0,-1,197116.1803254167,3,2,1561914401.017862,1561913957.287787,32,0.8918345,0,0,26.32609,0,0,1561914403.296296,197115.859289,0,1.017334,75.29558,3232235528,177845136,1,1,0.54,-18.10436,-37.21223,2
1561914403.997635,36,0,0,1561914402.988981,4.634818537165071,-74.15128366097262,2553.02,0,203.203125,4,30,-9999,1561914403.977722,10.64109039306641,25.03936767578125,10.60498046875,18.45856475830078,25.9520320892334,15,197119.163929125,-0.6783447265625,0.7337188720703125,0.05218505859375,197119.146687125,0.04157380882889997,-0.01228356421188148,-0.0160822971907705,197119.151600125,-64.9373779296875,-4.083953857421875,-552.7435302734375,197119.146687125,0.7683330127264446,-1.634370202295137,-0.8235875188385164,0.03889551013708115,-0.01888440176844597,-0.01932348869740963,-0.001146197319030762,0.0005422234535217285,0.004416942596435547,1,0.003465301590040326,0.722201943397522,-0.5056186318397522,-0.4719767868518829,-0.6782208681106567,0.7335885763168335,0.04317530989646912,0,0,0,-1,197116.1803254167,3,2,1561914401.017862,1561913957.287787,32,0.8918345,0,0,26.32609,0,0,1561914403.296296,197115.859289,0,1.017334,75.29558,3232235528,177845136,1,1,0.54,-18.66164,-31.44708,2
1561914404.030986,37,0,0,1561914402.988981,4.634818537165071,-74.15128366097262,2553.02,0,203.203125,4,30,-9999,1561914404.004293,10.875,25.13473701477051,10.6766357421875,18.37153053283691,25.86499786376953,15,197119.184193125,-0.6749725341796875,0.732025146484375,0.055755615234375,197119.166950125,0.04146595080475175,0.0003507383155634357,-0.01578775157420774,197119.171711125,-65.30209350585938,-4.263168334960938,-553.0347900390625,197119.166950125,0.7695616028028196,-1.633757300392333,-0.8232185333755575,0.03878765180706978,-0.006250097882002592,-0.01902894489467144,0.0001726746559143066,0.0003810524940490723,0.009408354759216309,1,0.003049238352105021,0.722065806388855,-0.5058122277259827,-0.4719805717468262,-0.6785174012184143,0.7333378195762634,0.04277665168046951,0,0,0,-1,197116.1803254167,3,2,1561914401.017862,1561913957.287787,32,0.8918345,0,0,26.32609,0,0,1561914403.296296,197115.859289,0,1.017334,75.29558,3232235528,177845136,1,1,0.54,-19.21892,-31.83156,2
1561914404.038163,38,0,0,1561914402.988981,4.634818537165071,-74.15128366097262,2553.02,0,203.203125,4,30,-9999,1561914404.004293,10.875,25.13473701477051,10.6766357421875,18.37153053283691,25.86499786376953,15,197119.204456125,-0.671905517578125,0.7328033447265625,0.0596923828125,197119.187214125,0.02844149517761023,0.01713611003411486,-0.01393552303605763,197119.191822125,-65.12605285644531,-4.039459228515625,-552.8629150390625,197119.187214125,0.7705450886318017,-1.633000672242056,-0.8228976058319286,0.02576319687068462,0.01053527370095253,-0.01717671565711498,0.003811836242675781,-0.001094400882720947,0.01347780227661133,1,0.002774704247713089,0.7218942046165466,-0.5059604048728943,-0.4720859229564667,-0.6787844300270081,0.7331195473670959,0.04227788373827934,0,0,0,-1,197116.1803254167,3,2,1561914401.017862,1561913957.287787,32,0.8918345,0,0,26.32609,0,0,1561914403.296296,197115.859289,0,1.017334,75.29558,3232235528,177845136,1,1,0.54,-19.7762,-28.37695,2
1561914404.058388,39,0,0,1561914403.989743,4.634818537165071,-74.15128366097262,2553.011,0,199.6875,4,30,-9999,1561914404.056862,10.64749145507812,25.30872917175293,10.60943603515625,18.26363563537598,25.75710296630859,15,197119.224720125,-0.671966552734375,0.7344818115234375,0.060638427734375,197119.207478125,0.02169277865924044,0.01869166242683014,-0.004947088040931193,197119.211933125,-65.24519348144531,-4.12176513671875,-553.0428466796875,197119.207478125,0.7712515770845344,-1.632210602779191,-0.8226720128603136,0.01901448145508766,0.01209082640707493,-0.008188281208276749,0.007077157497406006,-0.0001627802848815918,0.01794064044952393,1,0.002641663420945406,0.7217124700546265,-0.5060679316520691,-0.472249299287796,-0.678982675075531,0.7329661250114441,0.04175173491239548,0,0,0,-1,197116.1803254167,3,2,1561914401.017862,1561913957.287787,32,0.8918345,0,0,26.32609,0,0,1561914403.296296,197116.804701,0,1.096436,75.29484,3232235528,177845136,1,1,0.54,-12.83974,-15.81096,2
1561914404.078611,40,0,0,1561914403.989743,4.634818537165071,-74.15128366097262,2553.011,0,199.6875,4,30,-9999,1561914404.056862,10.64749145507812,25.30872917175293,10.60943603515625,18.26363563537598,25.75710296630859,15,197119.244953125,-0.671844482421875,0.7318267822265625,0.0600433349609375,197119.227741125,0.0212176707207703,0.0005712480538219966,0.005049353426790235,197119.232014125,-65.13629150390625,-4.043243408203125,-552.9784545898438,197119.227741125,0.771770401028659,-1.631769378524693,-0.8226198245178847,0.01853937283158302,-0.006029588170349598,0.001808160683140159,0.007072687149047852,0.001551151275634766,0.01918399333953857,1,0.002548080636188388,0.7216098308563232,-0.5061764121055603,-0.472290426492691,-0.6790392994880676,0.732930600643158,0.04145448282361031,0,0,0,-1,197116.1803254167,3,2,1561914401.017862,1561913957.287787,32,0.8918345,0,0,26.32609,0,0,1561914403.296296,197116.804701,0,1.096436,75.29484,3232235528,177845136,1,1,0.54,-12.83974,-15.81096,2
1561914404.102798,41,0,0,1561914403.989743,4.634818537165071,-74.15128366097262,2553.011,0,199.6875,4,30,-9999,1561914404.079695,10.50133514404297,25.40164566040039,10.468017578125,18.22605514526367,25.71952247619629,15,197119.265217125,-0.67474365234375,0.733734130859375,0.0614471435546875,197119.248005125,0.02176308611201853,-0.02098011675153523,0.007680023951570508,197119.252125125,-65.02973937988281,-4.196121215820312,-552.9220581054688,197119.248005125,0.7722616888144462,-1.631750299194997,-0.8227152898545546,0.01908478885889053,-0.02758095227181911,0.004438831470906734,0.0071258544921875,-0.001168787479400635,0.01860606670379639,1,0.002408690983429551,0.7216043472290039,-0.5063169598579407,-0.4721489548683167,-0.6789703369140625,0.7329955697059631,0.04143727198243141,0,0,0,-1,197116.1803254167,3,2,1561914401.017862,1561913957.287787,32,0.8918345,0,0,26.32609,0,0,1561914403.296296,197116.804701,0,1.096436,75.29484,3232235528,177845136,1,1,0.54,-11.53938,-15.90897,2
1561914404.119238,42,0,0,1561914403.989743,4.634818537165071,-74.15128366097262,2553.011,0,199.6875,4,30,-9999,1561914404.10563,10.66051483154297,25.32701301574707,10.6961669921875,18.18948936462402,25.68295669555664,15,197119.285481125,-0.6776885986328125,0.7365570068359375,0.05999755859375,197119.268269125,0.01903707442021342,-0.02410853208405131,0.007779359860230463,197119.272236125,-65.11680603027344,-4.106292724609375,-553.02978515625,197119.268269125,0.7727730731397926,-1.632025036517871,-0.8228108802406641,0.01635877601802349,-0.03070936910808086,0.004538167268037796,0.004145145416259766,0.0006735324859619141,0.01982772350311279,1,0.002187603851780295,0.7216681838035583,-0.5064626336097717,-0.4718959927558899,-0.6788887977600098,0.7330605983734131,0.04161950573325157,0,0,0,-1,197116.1803254167,3,2,1561914401.017862,1561913957.287787,32,0.8918345,0,0,26.32609,0,0,1561914403.296296,197116.804701,0,1.096436,75.29484,3232235528,177845136,1,1,0.54,-11.53938,-16.50356,2
1561914404.139506,43,0,0,1561914403.989743,4.634818537165071,-74.15128366097262,2553.011,0,199.6875,4,30,-9999,1561914404.129885,10.60865783691406,25.36630630493164,10.65045166015625,18.17644119262695,25.66990852355957,15,197119.305744125,-0.6783447265625,0.7352142333984375,0.0570831298828125,197119.288532125,0.007215036025242672,-0.01236345904458386,0.01445643734527713,197119.292347125,-65.015625,-3.85833740234375,-553.16552734375,197119.288532125,0.7730210442128167,-1.632351691986142,-0.8230053819699173,0.004536738619208336,-0.01896429434418678,0.01121524441987276,0.001044094562530518,0.003364145755767822,0.0181649923324585,1,0.002082614926621318,0.7217422723770142,-0.5065715909004211,-0.4716660976409912,-0.6787327527999878,0.7331928610801697,0.04183249175548553,0,0,0,-1,197116.1803254167,3,2,1561914401.017862,1561913957.287787,32,0.8918345,0,0,26.32609,0,0,1561914403.296296,197116.804701,0,1.096436,75.29484,3232235528,177845136,1,1,0.54,-11.53938,-17.29079,2
1561914404.159741,44,0,0,1561914403.989743,4.634818537165071,-74.15128366097262,2553.011,0,199.6875,4,30,-9999,1561914404.156166,10.82418060302734,25.21608543395996,10.58935546875,18.17825698852539,25.67172431945801,15,197119.3260197917,-0.680999755859375,0.73223876953125,0.0576171875,197119.308765125,0.0024770061298827,-0.02464169693428517,-0.003789678231182756,197119.312458125,-64.94497680664062,-3.866302490234375,-552.9843139648438,197119.308765125,0.7730464575122099,-1.632883329004173,-0.823103694180579,-0.0002012916374951601,-0.03124253265559673,-0.007030870765447617,0.0002939105033874512,0.001954495906829834,0.01489424705505371,1,0.001972805010154843,0.7218660116195679,-0.5066034197807312,-0.4714430868625641,-0.6786386370658875,0.7332597374916077,0.042188860476017,0,0,0,-1,197116.1803254167,3,2,1561914401.017862,1561913957.287787,32,0.8918345,0,0,26.32609,0,0,1561914403.296296,197116.804701,0,1.096436,75.29484,3232235528,177845136,1,1,0.54,-11.53938,-18.29395,2
1561914404.188573,45,0,0,1561914403.989743,4.634818537165071,-74.15128366097262,2553.011,0,199.6875,4,30,-9999,1561914404.180465,10.93840026855469,25.24625015258789,10.43218994140625,18.20385551452637,25.69732284545898,15,197119.3462837917,-0.678924560546875,0.733367919921875,0.0565948486328125,197119.3290407917,-0.00555668561445033,-0.03022261731465523,-0.01678989909240456,197119.3325807917,-64.82621765136719,-4.075088500976562,-552.9909057617188,197119.3290407917,0.7729371503032945,-1.63375881103918,-0.8228288956705909,-0.008234983310103416,-0.03682345151901245,-0.02003109082579613,-0.002197265625,-0.0008341073989868164,0.01482152938842773,1,0.001695558079518378,0.7220768332481384,-0.5065076351165771,-0.4712241590023041,-0.678802490234375,0.733072817325592,0.04279565438628197,0,0,0,-1,197116.1803254167,3,2,1561914401.017862,1561913957.287787,32,0.8918345,0,0,26.32609,0,0,1561914403.296296,197116.804701,0,1.096436,75.29484,3232235528,177845136,1,1,0.54,-11.53938,-19.19223,2
1561914404.200345,46,0,0,1561914403.989743,4.634818537165071,-74.15128366097262,2553.011,0,199.6875,4,30,-9999,1561914404.180465,10.93840026855469,25.24625015258789,10.43218994140625,18.20385551452637,25.69732284545898,15,197119.3665467917,-0.67431640625,0.7357177734375,0.0537109375,197119.3493047917,-0.02415886582865381,-0.002148904683584937,-0.02864416173656526,197119.3526917917,-65.1292724609375,-4.108932495117188,-552.7676391601562,197119.3493047917,0.772455978106445,-1.634662889244171,-0.8222770312252348,-0.02683716267347336,-0.00874974112957716,-0.03188535571098328,0.0002425909042358398,0.0006705522537231445,0.01315975189208984,1,0.001449785893782973,0.7222987413406372,-0.5062525868415833,-0.4711590111255646,-0.6791672110557556,0.7326973676681519,0.04343514889478683,0,0,0,-1,197116.1803254167,3,2,1561914401.017862,1561913957.287787,32,0.8918345,0,0,26.32609,0,0,1561914403.296296,197116.804701,0,1.096436,75.29484,3232235528,177845136,1,1,0.54,-11.53938,-20.19263,2
1561914404.221084,47,0,0,1561914403.989743,4.634818537165071,-74.15128366097262,2553.011,0,199.6875,4,30,-9999,1561914404.212446,10.74679565429688,25.13420486450195,10.70855712890625,18.28266143798828,25.7761287689209,15,197119.3868107917,-0.6703643798828125,0.7402496337890625,0.0553131103515625,197119.3695677917,-0.0445395050188122,0.02239265739371326,-0.0321171901141376,197119.3728027917,-64.85208129882812,-4.180267333984375,-552.8401489257812,197119.3695677917,0.771355408156156,-1.635400192975135,-0.8215229153326934,-0.04721780121326447,0.01579182036221027,-0.03535838425159454,0.005369663238525391,0.003533840179443359,0.009739398956298828,1,0.001400314853526652,0.7224844694137573,-0.5057989954948425,-0.4713614284992218,-0.6796860694885254,0.7321839332580566,0.04397153854370117,0,0,0,-1,197116.1803254167,3,2,1561914401.017862,1561913957.287787,32,0.8918345,0,0,26.32609,0,0,1561914403.296296,197116.804701,0,1.096436,75.29484,3232235528,177845136,1,1,0.54,-11.53938,-21.14299,2
1561914404.240812,48,0,0,1561914403.989743,4.634818537165071,-74.15128366097262,2553.011,0,199.6875,4,30,-9999,1561914404.212446,10.74679565429688,25.13420486450195,10.70855712890625,18.28266143798828,25.7761287689209,15,197119.4070747917,-0.6683502197265625,0.7425689697265625,0.0531768798828125,197119.3898317917,-0.04177620907174599,0.02145735521887743,-0.02698554500966391,197119.3928837917,-65.04185485839844,-3.812973022460938,-552.9788818359375,197119.3898317917,0.7699709416581692,-1.636151713467721,-0.8207948500735128,-0.04445450752973557,0.01485651917755604,-0.03022673726081848,0.009820282459259033,0.008561789989471436,0.0107959508895874,1,0.001459212973713875,0.7226731181144714,-0.5052847862243652,-0.4716235101222992,-0.6801846027374268,0.7316878437995911,0.04451712965965271,0,0,0,-1,197116.1803254167,3,2,1561914401.017862,1561913957.287787,32,0.8918345,0,0,26.32609,0,0,1561914403.296296,197116.804701,0,1.096436,75.29484,3232235528,177845136,1,1,0.54,-11.53938,-21.14299,2
1561914404.263827,49,0,0,1561914403.989743,4.634818537165071,-74.15128366097262,2553.011,0,199.6875,4,30,-9999,1561914404.257542,10.85957336425781,25.42844581604004,10.7760009765625,18.4517707824707,25.94523811340332,15,197119.4273077917,-0.668243408203125,0.738922119140625,0.053863525390625,197119.4100957917,-0.03351188757701209,-0.001276453110474979,-0.006466954075039414,197119.4129947917,-64.91911315917969,-4.080337524414062,-552.7742919921875,197119.4100957917,0.7687619916311905,-1.636958355221806,-0.8203462422452208,-0.03619018569588661,-0.007877289317548275,-0.009708146564662457,0.01212561130523682,0.01118701696395874,0.008089423179626465,1,0.001537550706416368,0.7228702306747437,-0.5048840641975403,-0.4717502295970917,-0.6804758310317993,0.7313820123672485,0.04508746787905693,0,0,0,-1,197116.1803254167,3,2,1561914401.017862,1561913957.287787,32,0.8918345,0,0,26.32609,0,0,1561914403.296296,197116.804701,0,1.096436,75.29484,3232235528,177845136,1,1,0.54,-11.53938,-22.13687,2
1561914404.28163,50,0,0,1561914403.989743,4.634818537165071,-74.15128366097262,2553.011,0,199.6875,4,30,-9999,1561914404.257542,10.85957336425781,25.42844581604004,10.7760009765625,18.4517707824707,25.94523811340332,15,197119.4475707917,-0.67059326171875,0.734100341796875,0.0538177490234375,197119.4303587917,-0.01291073864859514,-0.02361131990853352,-0.002055960361541172,197119.4331057917,-65.27919006347656,-4.113372802734375,-552.9037475585938,197119.4303587917,0.7679849745063908,-1.637911379717955,-0.8201701536336585,-0.01558903604745865,-0.0302121564745903,-0.005297153256833553,0.0123177170753479,0.007660210132598877,0.008118867874145508,1,0.001517184427939355,0.7230975031852722,-0.5046558380126953,-0.471646249294281,-0.6805611252784729,0.7312619090080261,0.04574460163712502,0,0,0,-1,197116.1803254167,3,2,1561914401.017862,1561913957.287787,32,0.8918345,0,0,26.32609,0,0,1561914403.296296,197116.804701,0,1.096436,75.29484,3232235528,177845136,1,1,0.54,-11.53938,-23.19519,2
1561914404.301843,51,0,0,1561914403.989743,4.634818537165071,-74.15128366097262,2553.011,0,199.6875,4,30,-9999,1561914404.281801,10.49118041992188,25.23566055297852,10.66485595703125,18.48021507263184,25.97368240356445,15,197119.4678347917,-0.67138671875,0.731597900390625,0.0540924072265625,197119.4506227917,-0.006282130695387915,-0.03020317623869765,-0.003298058693954129,197119.4532167917,-65.12709045410156,-3.971572875976562,-552.9478759765625,197119.4506227917,0.7676396424542723,-1.638887083255931,-0.8200533495025327,-0.008960428647696972,-0.03680401295423508,-0.006539251655340195,0.01000815629959106,0.002918124198913574,0.007403254508972168,1,0.001355606596916914,0.7233293652534485,-0.5045447945594788,-0.471409946680069,-0.6806013584136963,0.7311822175979614,0.04641441628336906,0,0,0,-1,197116.1803254167,3,2,1561914401.017862,1561913957.287787,32,0.8918345,0,0,26.32609,0,0,1561914403.296296,197116.804701,0,1.096436,75.29484,3232235528,177845136,1,1,0.54,-11.53938,-24.1536,2
1561914404.321993,52,0,0,1561914403.989743,4.634818537165071,-74.15128366097262,2553.011,0,199.6875,4,30,-9999,1561914404.31016,10.75799560546875,25.18160629272461,10.71453857421875,18.50497245788574,25.99843978881836,15,197119.4880987917,-0.66851806640625,0.7334442138671875,0.055389404296875,197119.4708867917,-0.01399091678673128,-0.01682185702548551,-0.007295463490163065,197119.4733277917,-65.06788635253906,-4.03948974609375,-553.0199584960938,197119.4708867917,0.7673028872320498,-1.639831706522823,-0.8199004702544532,-0.01666921377182007,-0.02342269383370876,-0.01053665578365326,0.009282052516937256,0.0005199909210205078,0.007027387619018555,1,0.001186452922411263,0.7235544919967651,-0.5044263005256653,-0.4711917042732239,-0.6806687712669373,0.7310779094696045,0.04706501960754395,0,0,0,-1,197116.1803254167,3,2,1561914401.017862,1561913957.287787,32,0.8918345,0,0,26.32609,0,0,1561914403.296296,197116.804701,0,1.096436,75.29484,3232235528,177845136,1,1,0.54,-11.53938,-25.04354,2
1561914404.347165,53,0,0,1561914403.989743,4.634818537165071,-74.15128366097262,2553.011,0,199.6875,4,30,-9999,1561914404.334751,10.72343444824219,25.17633628845215,10.71685791015625,18.57594680786133,26.06941413879395,15,197119.5083617917,-0.6667022705078125,0.7353057861328125,0.0553741455078125,197119.4911197917,-0.03716174985096569,-0.00203438875671153,0.00314013324131243,197119.4934387917,-64.96272277832031,-4.313079833984375,-552.7565307617188,197119.4911197917,0.7664476560514516,-1.640785759426905,-0.8197592499862877,-0.03984004631638527,-0.008635224774479866,-0.0001010596752166748,0.01220858097076416,0.002462625503540039,0.007667779922485352,1,0.001206685206852853,0.7237812876701355,-0.5041886568069458,-0.4710977077484131,-0.6807265877723694,0.7309815883636475,0.04772161692380905,0,0,0,-1,197116.1803254167,3,2,1561914401.017862,1561913957.287787,32,0.8918345,0,0,26.32609,0,0,1561914403.296296,197116.804701,0,1.096436,75.29484,3232235528,177845136,1,1,0.54,-11.53938,-25.97439,2
1561914404.362984,54,0,0,1561914403.989743,4.634818537165071,-74.15128366097262,2553.011,0,199.6875,4,30,-9999,1561914404.359138,10.78759765625,25.22777938842773,10.67608642578125,18.66127014160156,26.15473747253418,15,197119.5286257917,-0.6697540283203125,0.7380523681640625,0.0515594482421875,197119.5113837917,-0.03837961341745893,-0.006842992420958602,0.01207716922740034,197119.5135197917,-64.95375061035156,-4.307525634765625,-552.72900390625,197119.5113837917,0.765167896213409,-1.641937581145714,-0.8198378547474227,-0.04105791077017784,-0.01344382856041193,0.00883597694337368,0.01391172409057617,0.004270613193511963,0.00687253475189209,1,0.00140671688131988,0.7240502834320068,-0.5039084553718567,-0.4709836542606354,-0.6806139945983887,0.7310351729393005,0.04850158467888832,0,0,0,-1,197116.1803254167,3,2,1561914401.017862,1561913957.287787,32,0.8918345,0,0,26.32609,0,0,1561914403.296296,197116.804701,0,1.096436,75.29484,3232235528,177845136,1,1,0.54,-11.53938,-26.94881,2
1561914404.383587,55,0,0,1561914403.989743,4.634818537165071,-74.15128366097262,2553.011,0,199.6875,4,30,-9999,1561914404.359138,10.78759765625,25.22777938842773,10.67608642578125,18.66127014160156,26.15473747253418,15,197119.5488897917,-0.669525146484375,0.736785888671875,0.0487213134765625,197119.5316467917,-0.02597940274983198,-0.001797633735803486,0.02390879500229537,197119.5336307917,-65.10397338867188,-4.0428466796875,-553.04736328125,197119.5316467917,0.7640459616298415,-1.643046356718996,-0.8201245914573774,-0.0286577008664608,-0.008398469537496567,0.02066760137677193,0.0105966329574585,0.006821513175964355,0.002318382263183594,1,0.001632360741496086,0.7243050932884216,-0.5037199258804321,-0.4707927405834198,-0.680350661277771,0.7312307953834534,0.04924106597900391,0,0,0,-1,197116.1803254167,3,2,1561914401.017862,1561913957.287787,32,0.8918345,0,0,26.32609,0,0,1561914403.296296,197116.804701,0,1.096436,75.29484,3232235528,177845136,1,1,0.54,-11.53938,-27.90773,2
1561914404.40316,56,0,0,1561914403.989743,4.634818537165071,-74.15128366097262,2553.011,0,199.6875,4,30,-9999,1561914404.384871,10.73058319091797,25.18857192993164,10.808349609375,18.72176361083984,26.21523094177246,15,197119.5691527917,-0.66900634765625,0.7329254150390625,0.0492706298828125,197119.5519107917,-0.02042404871592669,0.008299208905013931,0.03627944458182244,197119.5537417917,-65.21817016601562,-4.30413818359375,-552.7371215820312,197119.5519107917,0.763230809795569,-1.643730287045558,-0.8206728894243087,-0.02310234680771828,0.001698372885584831,0.03303825110197067,0.01039153337478638,0.005181193351745605,-0.0009558200836181641,1,0.001944020739756525,0.7244548201560974,-0.5036718249320984,-0.470612496137619,-0.6799166798591614,0.7316046953201294,0.04967712983489037,0,0,0,-1,197116.1803254167,3,2,1561914401.017862,1561913957.287787,32,0.8918345,0,0,26.32609,0,0,1561914403.296296,197116.804701,0,1.096436,75.29484,3232235528,177845136,1,1,0.54,-11.53938,-27.90773,2
1561914404.43425,57,0,0,1561914403.989743,4.634818537165071,-74.15128366097262,2553.011,0,199.6875,4,30,-9999,1561914404.412123,10.66191864013672,25.24127960205078,10.73602294921875,18.76810455322266,26.26157188415527,15,197119.5893867917,-0.6710662841796875,0.7311859130859375,0.0511322021484375,197119.5721747917,-0.01095917420178507,0.0007038734761079426,0.0347824817330889,197119.5738527917,-65.08686828613281,-4.30731201171875,-552.8982543945312,197119.5721747917,0.7625594779735038,-1.644223469862559,-0.8213515966188617,-0.0136374719440937,-0.005896962713450193,0.03154128789901733,0.0103905200958252,0.0008581280708312988,-0.0007053613662719727,1,0.002296565100550652,0.7245569229125977,-0.5036916136741638,-0.4704325795173645,-0.6793968677520752,0.7320672273635864,0.04997601732611656,0,0,0,-1,197116.1803254167,3,2,1561914401.017862,1561913957.287787,32,0.8918345,0,0,26.32609,0,0,1561914403.296296,197116.804701,0,1.096436,75.29484,3232235528,177845136,1,1,0.54,-11.53938,-29.05105,2
1561914404.443556,58,0,0,1561914403.989743,4.634818537165071,-74.15128366097262,2553.011,0,199.6875,4,30,-9999,1561914404.437144,10.68448638916016,25.14249992370605,10.59051513671875,18.81087493896484,26.30434226989746,15,197119.6096497917,-0.671630859375,0.7282562255859375,0.049468994140625,197119.5924377917,-0.01741707352911822,-0.01252671081940571,0.02283900319241054,197119.5939337917,-65.18663024902344,-4.217926025390625,-552.7461547851562,197119.5924377917,0.7620212617654951,-1.64487988096203,-0.8218762215007522,-0.02009537070989609,-0.01912754774093628,0.01959780976176262,0.007914483547210693,-0.001238644123077393,0.0007387399673461914,1,0.002506721066311002,0.7247002720832825,-0.5037028789520264,-0.4701985716819763,-0.6789807677268982,0.7324245572090149,0.05039353668689728,0,0,0,-1,197116.1803254167,3,2,1561914401.017862,1561913957.287787,32,0.8918345,0,0,26.32609,0,0,1561914403.296296,197116.804701,0,1.096436,75.29484,3232235528,177845136,1,1,0.54,-11.53938,-29.05105,2
1561914404.46396,59,0,0,1561914403.989743,4.634818537165071,-74.15128366097262,2553.011,0,199.6875,4,30,-9999,1561914404.460365,10.96881866455078,25.14119148254395,10.66998291015625,18.85606575012207,26.34953308105469,15,197119.6299137917,-0.666046142578125,0.7282257080078125,0.0494842529296875,197119.6127017917,-0.01862055602572503,-0.007369765684576276,0.005307147420309906,197119.6140447917,-64.86259460449219,-4.400360107421875,-552.9146728515625,197119.6127017917,0.7613281583859695,-1.6457918507902,-0.8220651959790046,-0.02129885368049145,-0.01397060230374336,0.002065954497084022,0.007165610790252686,-0.004296958446502686,-0.001533389091491699,1,0.002593234414234757,0.7249099612236023,-0.5035905241966248,-0.4699951708316803,-0.6787965297698975,0.7325531840324402,0.05100235342979431,0,0,0,-1,197116.1803254167,3,2,1561914401.017862,1561913957.287787,32,0.8918345,0,0,26.32609,0,0,1561914403.296296,197116.804701,0,1.096436,75.29484,3232235528,177845136,1,1,0.54,-11.53938,-29.62379,2
1561914404.48493,60,0,0,1561914403.989743,4.634818537165071,-74.15128366097262,2553.011,0,199.6875,4,30,-9999,1561914404.460365,10.96881866455078,25.14119148254395,10.66998291015625,18.85606575012207,26.34953308105469,15,197119.6501777917,-0.6672515869140625,0.7361602783203125,0.0516357421875,197119.6329657917,-0.01869725506511931,0.007471232122108295,0.01322632323776953,197119.6341557917,-64.99546813964844,-4.245986938476562,-552.7114868164062,197119.6329657917,0.7607172467028932,-1.646350220122254,-0.8221818517179723,-0.02137555181980133,0.0008703959174454212,0.009985130280256271,0.01263654232025146,-0.004406869411468506,-0.001890659332275391,1,0.002714206697419286,0.7250379920005798,-0.5034782290458679,-0.4699172973632812,-0.6786826848983765,0.732632577419281,0.05137491226196289,0,0,0,-1,197116.1803254167,3,2,1561914401.017862,1561913957.287787,32,0.8918345,0,0,26.32609,0,0,1561914403.296296,197116.804701,0,1.096436,75.29484,3232235528,177845136,1,1,0.54,-11.53938,-30.33037,2
1561914404.511404,61,0,0,1561914403.989743,4.634818537165071,-74.15128366097262,2553.011,0,199.6875,4,30,-9999,1561914404.48494,10.8173828125,25.17997550964355,10.8843994140625,18.90449333190918,26.3979606628418,15,197119.6704407917,-0.6651611328125,0.7414093017578125,0.0459136962890625,197119.6532287917,-0.02132579506102751,0.003669037033802166,0.02961142184448204,197119.6542667917,-65.13923645019531,-4.34173583984375,-552.8560180664062,197119.6532287917,0.7600151238160713,-1.646890391538254,-0.8225408880542769,-0.02400409244000912,-0.002931799273937941,0.02637022919952869,0.01114088296890259,0.003283321857452393,-8.58306884765625e-05,1,0.002956187119707465,0.7251565456390381,-0.5034080147743225,-0.4698081016540527,-0.6783925294876099,0.7328768968582153,0.05172150954604149,0,0,0,-1,197116.1803254167,3,2,1561914401.017862,1561913957.287787,32,0.8918345,0,0,26.32609,0,0,1561914403.296296,197116.804701,0,1.096436,75.29484,3232235528,177845136,1,1,0.54,-11.53938,-31.21213,2
1561914404.524726,62,0,0,1561914403.989743,4.634818537165071,-74.15128366097262,2553.011,0,199.6875,4,30,-9999,1561914404.511278,10.72151184082031,25.11681365966797,10.73126220703125,18.94830131530762,26.44176864624023,15,197119.6907047917,-0.667083740234375,0.7399749755859375,0.0469818115234375,197119.6734617917,-0.01013066478666142,-0.005676794179612904,0.03890398983609553,197119.6743777917,-64.86993408203125,-4.290420532226562,-552.6253662109375,197119.6734617917,0.7593486924362038,-1.647594772500361,-0.8231350671811839,-0.01280896179378033,-0.0122776310890913,0.03566279634833336,0.0127604603767395,0.00812828540802002,-0.006252169609069824,1,0.003224708372727036,0.7253085970878601,-0.5034081935882568,-0.4695713222026825,-0.6779215335845947,0.7332810163497925,0.0521659180521965,0,0,0,-1,197116.1803254167,3,2,1561914401.017862,1561913957.287787,32,0.8918345,0,0,26.32609,0,0,1561914403.296296,197116.804701,0,1.096436,75.29484,3232235528,177845136,1,1,0.54,-11.53938,-32.05948,2
1561914404.545057,63,0,0,1561914403.989743,4.634818537165071,-74.15128366097262,2553.011,0,199.6875,4,30,-9999,1561914404.535971,10.82189178466797,25.155517578125,10.89727783203125,18.94533729553223,26.43880462646484,15,197119.7109687917,-0.6687774658203125,0.7323760986328125,0.050628662109375,197119.6937257917,0.009533051438047641,-0.002523611448959086,0.04221163590997394,197119.6944587917,-65.05130004882812,-4.461898803710938,-552.8257446289062,197119.6937257917,0.7592439064933495,-1.64790104300191,-0.823918325506666,0.006854753941297531,-0.009124447591602802,0.03897044435143471,0.01024913787841797,0.006161630153656006,-0.005347490310668945,1,0.003454742021858692,0.7253638505935669,-0.5035892128944397,-0.4692902863025665,-0.677332878112793,0.7338133454322815,0.05232930183410645,0,0,0,-1,197116.1803254167,3,2,1561914401.017862,1561913957.287787,32,0.8918345,0,0,26.32609,0,0,1561914403.296296,197116.804701,0,1.096436,75.29484,3232235528,177845136,1,1,0.54,-11.53938,-32.9513,2
1561914404.568808,64,0,0,1561914403.989743,4.634818537165071,-74.15128366097262,2553.011,0,199.6875,4,30,-9999,1561914404.561705,10.72581481933594,25.11309623718262,10.6309814453125,18.93942070007324,26.43288803100586,15,197119.7312317917,-0.6715240478515625,0.7281951904296875,0.0557861328125,197119.7139897917,0.00714339699191954,-0.007530620614417062,0.03724537310919418,197119.7145697917,-64.96749877929688,-4.236770629882812,-552.740966796875,197119.7139897917,0.7593489883689069,-1.648067185246444,-0.8247084286551778,0.004465099424123764,-0.01413145661354065,0.03400418162345886,0.007968246936798096,-0.001973807811737061,-0.001768350601196289,1,0.003646155120804906,0.7253862619400024,-0.503821074962616,-0.4690051078796387,-0.6767457127571106,0.7343499064445496,0.05239704623818398,0,0,0,-1,197116.1803254167,3,2,1561914401.017862,1561913957.287787,32,0.8918345,0,0,26.32609,0,0,1561914403.296296,197116.804701,0,1.096436,75.29484,3232235528,177845136,1,1,0.54,-11.53938,-33.7187,2
1561914404.594827,65,0,0,1561914403.989743,4.634818537165071,-74.15128366097262,2553.011,0,199.6875,4,30,-9999,1561914404.586255,10.81945037841797,25.1303596496582,10.77899169921875,18.94635009765625,26.43981742858887,15,197119.7514957917,-0.6698455810546875,0.7272491455078125,0.0552520751953125,197119.7342527917,0.001924932835909273,-0.0001832254829974516,0.03037495012900776,197119.7346807917,-65.1131591796875,-4.021392822265625,-552.9017333984375,197119.7342527917,0.7593157579721772,-1.648311747903553,-0.8253004035900959,-0.0007533648749813437,-0.006784061901271343,0.02713375724852085,0.004775285720825195,-0.006556391716003418,0.003257274627685547,1,0.0037999227643013,0.7254309058189392,-0.5039687156677246,-0.468776136636734,-0.6762993335723877,0.7347515821456909,0.05252887681126595,0,0,0,-1,197116.1803254167,3,2,1561914401.017862,1561913957.287787,32,0.8918345,0,0,26.32609,0,0,1561914403.296296,197116.804701,0,1.096436,75.29484,3232235528,177845136,1,1,0.54,-11.53938,-34.70468,2
1561914404.605825,66,0,0,1561914403.989743,4.634818537165071,-74.15128366097262,2553.011,0,199.6875,4,30,-9999,1561914404.586255,10.81945037841797,25.1303596496582,10.77899169921875,18.94635009765625,26.43981742858887,15,197119.7717287917,-0.6694488525390625,0.728271484375,0.0556640625,197119.7545167917,0.005000883894950793,-0.006320213898976048,0.03004764763103702,197119.7547917917,-64.78164672851562,-4.28839111328125,-552.9959716796875,197119.7545167917,0.7592446097166605,-1.648524425925092,-0.8258663976271676,0.002322586020454764,-0.0129210501909256,0.02680645510554314,0.006028115749359131,-0.007886290550231934,0.002611637115478516,1,0.003966594580560923,0.7254684567451477,-0.5041005611419678,-0.4685750305652618,-0.6758736968040466,0.7351354360580444,0.05264043062925339,0,0,0,-1,197116.1803254167,3,2,1561914401.017862,1561913957.287787,32,0.8918345,0,0,26.32609,0,0,1561914403.296296,197116.804701,0,1.096436,75.29484,3232235528,177845136,1,1,0.54,-11.53938,-34.70468,2
1561914404.62612,67,0,0,1561914403.989743,4.634818537165071,-74.15128366097262,2553.011,0,199.6875,4,30,-9999,1561914404.613014,11.07106018066406,25.02983474731445,10.66058349609375,18.91628837585449,26.40975570678711,15,197119.7919927917,-0.6695098876953125,0.729339599609375,0.058319091796875,197119.7747807917,0.03000716758246781,-0.03454838987327093,0.02576555091429861,197119.7749027917,-65.12664794921875,-4.293258666992188,-552.813720703125,197119.7747807917,0.7596402496866304,-1.64874796189393,-0.8264090700978055,0.02732886932790279,-0.04114922881126404,0.02252435870468616,0.006015121936798096,-0.007231712341308594,0.00290369987487793,1,0.003953075036406517,0.7255098819732666,-0.5043357014656067,-0.4682578146457672,-0.6754639744758606,0.7355031967163086,0.05276042968034744,0,0,0,-1,197116.1803254167,3,2,1561914401.017862,1561913957.287787,32,0.8918345,0,0,26.32609,0,0,1561914403.296296,197116.804701,0,1.096436,75.29484,3232235528,177845136,1,1,0.54,-11.53938,-35.12834,2
1561914404.647401,68,0,0,1561914403.989743,4.634818537165071,-74.15128366097262,2553.011,0,199.6875,4,30,-9999,1561914404.636669,10.69834136962891,24.93581771850586,10.71942138671875,18.84310340881348,26.33657073974609,15,197119.8122557917,-0.6701812744140625,0.730743408203125,0.05902099609375,197119.7950447917,0.04172081532107234,-0.04944744459171923,0.03153635468039132,197119.7950137917,-64.75143432617188,-4.461090087890625,-552.7693481445312,197119.7950447917,0.7606297820458279,-1.649028317720146,-0.826953911863914,0.03904251754283905,-0.05604828149080276,0.02829516306519508,0.005539357662200928,-0.006532669067382812,0.005400657653808594,1,0.003710411721840501,0.7255656123161316,-0.5047103762626648,-0.4677692949771881,-0.6750492453575134,0.735872209072113,0.0529184490442276,0,0,0,-1,197116.1803254167,3,2,1561914401.017862,1561913957.287787,32,0.8918345,0,0,26.32609,0,0,1561914403.296296,197116.804701,0,1.096436,75.29484,3232235528,177845136,1,1,0.54,-11.53938,-32.83421,2
1561914404.672851,69,0,0,1561914403.989743,4.634818537165071,-74.15128366097262,2553.011,0,199.6875,4,30,-9999,1561914404.663171,11.02973937988281,24.99686431884766,10.7330322265625,18.78640747070312,26.27987480163574,15,197119.8325197917,-0.6748046875,0.728118896484375,0.0607147216796875,197119.8153077917,0.02969557773492855,-0.04275785024954919,0.03602431374939285,197119.8150947917,-64.70663452148438,-4.514358520507812,-552.8922119140625,197119.8153077917,0.7615673674115784,-1.649396791634702,-0.8276432111458109,0.02701728045940399,-0.04935868829488754,0.03278312087059021,0.004342854022979736,-0.005595386028289795,0.005893707275390625,1,0.003513968782499433,0.7256385684013367,-0.5051103830337524,-0.4672257006168365,-0.6745240688323975,0.7363387942314148,0.05312735959887505,0,0,0,-1,197116.1803254167,3,2,1561914401.017862,1561913957.287787,32,0.8918345,0,0,26.32609,0,0,1561914403.296296,197116.804701,0,1.096436,75.29484,3232235528,177845136,1,1,0.54,-11.53938,-33.07135,2
1561914404.687747,70,0,0,1561914403.989743,4.634818537165071,-74.15128366097262,2553.011,0,199.6875,4,30,-9999,1561914404.663171,11.02973937988281,24.99686431884766,10.7330322265625,18.78640747070312,26.27987480163574,15,197119.8527837917,-0.6781005859375,0.7273406982421875,0.0583343505859375,197119.8355717917,0.02157639851960397,-0.02368668736738276,0.02900981375423314,197119.8352057917,-64.93104553222656,-4.254653930664062,-552.9319458007812,197119.8355717917,0.7621841419752936,-1.649783167189924,-0.8282513118456255,0.01889810152351856,-0.03028752282261848,0.02576862089335918,-0.0007477998733520508,-0.008631229400634766,0.007362127304077148,1,0.003401319729164243,0.7257167100906372,-0.5054140090942383,-0.4667765200138092,-0.6740568876266479,0.7367501258850098,0.05335262417793274,0,0,0,-1,197116.1803254167,3,2,1561914401.017862,1561913957.287787,32,0.8918345,0,0,26.32609,0,0,1561914403.296296,197116.804701,0,1.096436,75.29484,3232235528,177845136,1,1,0.54,-11.53938,-33.22434,2
1561914404.707262,71,0,0,1561914403.989743,4.634818537165071,-74.15128366097262,2553.011,0,199.6875,4,30,-9999,1561914404.691622,10.84651184082031,24.96505546569824,10.76416015625,18.76570892333984,26.25917625427246,15,197119.8730467917,-0.6772918701171875,0.725860595703125,0.0589599609375,197119.8558047917,-0.0006833671357143325,0.002931341411850218,0.01893347745380933,197119.8553167917,-64.87178039550781,-4.261077880859375,-552.95849609375,197119.8558047917,0.762337748878592,-1.650012918583462,-0.828677061266118,-0.003348704427480698,-0.003656345186755061,0.01569064520299435,-0.00436866283416748,-0.009697198867797852,0.004851698875427246,1,0.003433683887124062,0.725761353969574,-0.5055614709854126,-0.4665471613407135,-0.6737319231033325,0.7370378971099854,0.05348266661167145,0,0,0,-1,197116.1803254167,3,2,1561914401.017862,1561913957.287787,32,0.8918345,0,0,26.32609,0,0,1561914403.296296,197116.804701,0,1.096436,75.29484,3232235528,177845136,1,1,0.54,-11.53938,-33.22434,2
1561914404.727556,72,0,0,1561914403.989743,4.634818537165071,-74.15128366097262,2553.011,0,199.6875,4,30,-9999,1561914404.713798,11.00790405273438,24.92258262634277,10.71478271484375,18.78796005249023,26.28142738342285,15,197119.8933107917,-0.67498779296875,0.7304534912109375,0.0600738525390625,197119.8760687917,-0.01435310669498205,0.01617790467390435,-0.0005640575188787827,197119.8753967917,-64.66233825683594,-4.271331787109375,-552.7523803710938,197119.8760687917,0.7620472403137858,-1.650168500294887,-0.828763216759697,-0.01701844483613968,0.009590217843651772,-0.003806888591498137,-0.003631472587585449,-0.01123553514480591,0.005377531051635742,1,0.003529376117512584,0.7257952690124512,-0.5055164694786072,-0.466542512178421,-0.6736603975296021,0.7370961308479309,0.05358245968818665,0,0,0,-1,197116.1803254167,3,2,1561914401.017862,1561913957.287787,32,0.8918345,0,0,26.32609,0,0,1561914403.296296,197116.804701,0,1.096436,75.29484,3232235528,177845136,1,1,0.54,-11.53938,-33.48943,2
1561914404.755066,73,0,0,1561914403.989743,4.634818537165071,-74.15128366097262,2553.011,0,199.6875,4,30,-9999,1561914404.713798,11.00790405273438,24.92258262634277,10.71478271484375,18.78796005249023,26.28142738342285,15,197119.9135747917,-0.672119140625,0.7319183349609375,0.05792236328125,197119.8963317917,-0.01705541625308546,0.01482581778847112,0.003556917951909831,197119.8955077917,-64.83535766601562,-4.7265625,-552.895263671875,197119.8963317917,0.7614556446562406,-1.650425234793509,-0.8286760285937786,-0.01972075365483761,0.008238131180405617,0.0003140869084745646,-0.001277148723602295,-0.006583690643310547,0.006313443183898926,1,0.003649258520454168,0.7258560061454773,-0.5053561329841614,-0.4666207730770111,-0.6737106442451477,0.737037181854248,0.05376051738858223,0,0,0,-1,197116.1803254167,3,2,1561914401.017862,1561913957.287787,32,0.8918345,0,0,26.32609,0,0,1561914403.296296,197116.804701,0,1.096436,75.29484,3232235528,177845136,1,1,0.54,-11.53938,-34.31284,2
1561914404.768072,74,0,0,1561914403.989743,4.634818537165071,-74.15128366097262,2553.011,0,199.6875,4,30,-9999,1561914404.763064,11.02330780029297,24.92729377746582,10.867919921875,18.82949066162109,26.32295799255371,15,197119.9338377917,-0.6710357666015625,0.730316162109375,0.0566253662109375,197119.9165957917,0.006090116780793202,-0.008857673785603546,0.007236074997854298,197119.9156187917,-64.91860961914062,-4.035110473632812,-552.9730834960938,197119.9165957917,0.7611278993542646,-1.650724221666502,-0.8286739465667516,0.003424779511988163,-0.01544536091387272,0.003993243910372257,0.001577019691467285,-0.005117475986480713,0.003960251808166504,1,0.00369197316467762,0.7259252071380615,-0.5052796602249146,-0.4665956497192383,-0.6736961007118225,0.7370358109474182,0.05396207422018051,0,0,0,-1,197116.1803254167,3,2,1561914401.017862,1561913957.287787,32,0.8918345,0,0,26.32609,0,0,1561914403.296296,197116.804701,0,1.096436,75.29484,3232235528,177845136,1,1,0.54,-11.53938,-34.31284,2
1561914404.788333,75,0,0,1561914403.989743,4.634818537165071,-74.15128366097262,2553.011,0,199.6875,4,30,-9999,1561914404.763064,11.02330780029297,24.92729377746582,10.867919921875,18.82949066162109,26.32295799255371,15,197119.9540717917,-0.669891357421875,0.7281036376953125,0.0579986572265625,197119.9368597917,0.02947027430670784,-0.02816106431482489,0.01343298453835968,197119.9357307917,-64.55976867675781,-4.085708618164062,-552.86767578125,197119.9368597917,0.7615737667821486,-1.650918908153667,-0.8288318937622943,0.02680493704974651,-0.03474875167012215,0.01019015349447727,0.002533674240112305,-0.006826400756835938,0.002541422843933105,1,0.003535114927217364,0.7259679436683655,-0.5054253339767456,-0.4663724601268768,-0.6735694408416748,0.7371425628662109,0.05408390611410141,0,0,0,-1,197116.1803254167,3,2,1561914401.017862,1561913957.287787,32,0.8918345,0,0,26.32609,0,0,1561914403.296296,197116.804701,0,1.096436,75.29484,3232235528,177845136,1,1,0.54,-11.53938,-34.978,2
1561914404.824855,76,0,0,1561914403.989743,4.634818537165071,-74.15128366097262,2553.011,0,199.6875,4,30,-9999,1561914404.815208,11.04746246337891,25.10980987548828,10.6580810546875,18.63994598388672,26.13341331481934,15,197119.9743347917,-0.67034912109375,0.72576904296875,0.05963134765625,197119.9571227917,0.05070765241954472,-0.04468011992436838,0.01423273181371047,197119.9558417917,-64.75863647460938,-4.227035522460938,-552.9368896484375,197119.9571227917,0.7626157140229267,-1.650998785211521,-0.829117085771979,0.04804231598973274,-0.05126780644059181,0.01098990067839622,0.003464102745056152,-0.009231626987457275,0.003877758979797363,1,0.003234557341784239,0.7259820699691772,-0.5057429075241089,-0.466008186340332,-0.6733554601669312,0.737335205078125,0.05412085726857185,0,0,0,-1,197116.1803254167,3,2,1561914401.017862,1561913957.287787,32,0.8918345,0,0,26.32609,0,0,1561914403.296296,197116.804701,0,1.096436,75.29484,3232235528,177845136,1,1,0.54,-11.53938,-36.16833,2
1561914404.82878,77,0,0,1561914403.989743,4.634818537165071,-74.15128366097262,2553.011,0,199.6875,4,30,-9999,1561914404.815208,11.04746246337891,25.10980987548828,10.6580810546875,18.63994598388672,26.13341331481934,15,197119.9945987917,-0.66864013671875,0.7225189208984375,0.06121826171875,197119.9773867917,0.06108252907816641,-0.06600458340485087,0.005862416507591427,197119.9759527917,-64.81361389160156,-4.2701416015625,-553.0556640625,197119.9773867917,0.7641701702098547,-1.651069535466366,-0.8293069441941997,0.0584171898663044,-0.07259226590394974,0.002619585255160928,0.002863109111785889,-0.01169437170028687,0.005474090576171875,1,0.002717588096857071,0.725996732711792,-0.5061545968055725,-0.4655415415763855,-0.6732122302055359,0.7374634742736816,0.05415728315711021,0,0,0,-1,197116.1803254167,3,2,1561914401.017862,1561913957.287787,32,0.8918345,0,0,26.32609,0,0,1561914403.296296,197116.804701,0,1.096436,75.29484,3232235528,177845136,1,1,0.54,-11.53938,-36.16833,2
1561914404.849184,78,0,0,1561914403.989743,4.634818537165071,-74.15128366097262,2553.011,0,199.6875,4,30,-9999,1561914404.839304,11.15390777587891,25.1787052154541,10.6319580078125,18.50799560546875,26.00146293640137,15,197120.0148627917,-0.6668701171875,0.71942138671875,0.056304931640625,197119.9976507917,0.06401360417390763,-0.1000712074369265,-0.001751561048945115,197119.9960327917,-64.56971740722656,-4.310958862304688,-553.0321044921875,197119.9976507917,0.7659604901686968,-1.651570543675578,-0.8293712884443609,0.06134826317429543,-0.1066588908433914,-0.004994391929358244,0.004497349262237549,-0.01498794555664062,0.006727457046508789,1,0.001962834037840366,0.7261139750480652,-0.5065884590148926,-0.4648899734020233,-0.6731374859809875,0.7375069260597229,0.05449071526527405,0,0,0,-1,197116.1803254167,3,2,1561914401.017862,1561913957.287787,32,0.8918345,0,0,26.32609,0,0,1561914403.296296,197116.804701,0,1.096436,75.29484,3232235528,177845136,1,1,0.54,-11.53938,-36.73192,2
1561914404.869532,79,0,0,1561914403.989743,4.634818537165071,-74.15128366097262,2553.011,0,199.6875,4,30,-9999,1561914404.865878,11.30499267578125,25.15201759338379,10.37432861328125,18.32460975646973,25.81807708740234,15,197120.0351257917,-0.6661529541015625,0.7218475341796875,0.0553131103515625,197120.0179137917,0.08203814474767292,-0.1388303213097217,-0.009705624276684775,197120.0161437917,-64.67826843261719,-4.058364868164062,-553.3009643554688,197120.0179137917,0.7680158327408466,-1.652602506084331,-0.8292890891910004,0.07937280833721161,-0.1454180032014847,-0.01294845528900623,0.0062713623046875,-0.01803004741668701,0.001114726066589355,1,0.0009268353460356593,0.7263568639755249,-0.5070450305938721,-0.4640153050422668,-0.6731414794921875,0.737451434135437,0.0551903061568737,0,0,0,-1,197116.1803254167,3,2,1561914401.017862,1561913957.287787,32,0.8918345,0,0,26.32609,0,0,1561914403.296296,197116.804701,0,1.096436,75.29484,3232235528,177845136,1,1,0.54,-11.53938,-36.73192,2
1561914404.908741,80,0,0,1561914403.989743,4.634818537165071,-74.15128366097262,2553.011,0,199.6875,4,30,-9999,1561914404.891902,11.49722290039062,25.07051277160645,10.18609619140625,17.99494743347168,25.4884147644043,15,197120.0553897917,-0.6612091064453125,0.7234954833984375,0.0551300048828125,197120.0381477917,0.13692482954977,-0.1613888936393469,0.008728244156625695,197120.0362547917,-64.5308837890625,-4.283416748046875,-553.2042236328125,197120.0381477917,0.7711616778430087,-1.653415164649845,-0.8293357952316572,0.1342594921588898,-0.1679765731096268,0.00548541359603405,0.006909310817718506,-0.01563543081283569,-0.0004214048385620117,1,-0.0004059282946400344,0.7265446186065674,-0.5077862739562988,-0.4629103541374207,-0.6730623245239258,0.7374829649925232,0.05573449656367302,0,0,0,-1,197116.1803254167,3,2,1561914401.017862,1561913957.287787,32,0.8918345,0,0,26.32609,0,0,1561914403.296296,197116.804701,0,1.096436,75.29484,3232235528,177845136,1,1,0.54,-11.53938,-37.77034,2
1561914404.911292,81,0,0,1561914403.989743,4.634818537165071,-74.15128366097262,2553.011,0,199.6875,4,30,-9999,1561914404.891902,11.49722290039062,25.07051277160645,10.18609619140625,17.99494743347168,25.4884147644043,15,197120.0756537917,-0.667999267578125,0.7270965576171875,0.0641326904296875,197120.0584107917,0.2089614728236503,-0.2173797250293908,0.03296647218576387,197120.0563667917,-64.56669616699219,-4.213699340820312,-553.1543579101562,197120.0584107917,0.7762072543785027,-1.653587195388188,-0.8299805638592899,0.2062961310148239,-0.2239674031734467,0.0297236405313015,0.01136916875839233,-0.0144227147102356,-0.0006809234619140625,1,-0.002061581006273627,0.7265681028366089,-0.509119987487793,-0.4614014327526093,-0.6725783348083496,0.7379182577133179,0.05581091716885567,0,0,0,-1,197116.1803254167,3,2,1561914401.017862,1561913957.287787,32,0.8918345,0,0,26.32609,0,0,1561914403.296296,197116.804701,0,1.096436,75.29484,3232235528,177845136,1,1,0.54,-11.53938,-37.77034,2
1561914404.930229,82,0,0,1561914403.989743,4.634818537165071,-74.15128366097262,2553.011,0,199.6875,4,30,-9999,1561914404.917382,11.30667114257812,24.99668312072754,10.41326904296875,17.48552513122559,24.9789924621582,15,197120.0959167917,-0.687286376953125,0.732940673828125,0.0771484375,197120.0786747917,0.2742472690502888,-0.3001747401588643,0.02900049269041786,197120.0764777917,-64.47599792480469,-4.297409057617188,-553.5,197120.0786747917,0.7832635602880939,-1.653800004986891,-0.8309397735257549,0.2715819180011749,-0.3067624270915985,0.02575766108930111,0.003861665725708008,-0.01146870851516724,0.008237242698669434,1,-0.004350291099399328,0.7265870571136475,-0.5109926462173462,-0.4592808187007904,-0.671860933303833,0.7385652661323547,0.0558953545987606,0,0,0,-1,197116.1803254167,3,2,1561914401.017862,1561913957.287787,32,0.8918345,0,0,26.32609,0,0,1561914403.296296,197116.804701,0,1.096436,75.29484,3232235528,177845136,1,1,0.54,-11.53938,-38.44078,2
1561914404.950632,83,0,0,1561914403.989743,4.634818537165071,-74.15128366097262,2553.011,0,199.6875,4,30,-9999,1561914404.941071,11.48406219482422,25.11497497558594,9.8038330078125,16.8571605682373,24.35062789916992,15,197120.1161807917,-0.704010009765625,0.739898681640625,0.0887451171875,197120.0989387917,0.2990540819721589,-0.3444932028071999,0.004603540260310971,197120.0965577917,-64.15153503417969,-4.282379150390625,-553.8001098632812,197120.0989387917,0.7918808683155687,-1.654182702342235,-0.8317006552512792,0.2963887453079224,-0.3510808944702148,0.001360709080472589,-0.01600730419158936,-0.006137371063232422,0.02104282379150391,1,-0.007318059448152781,0.7266355752944946,-0.5131615996360779,-0.4567408859729767,-0.6712790727615356,0.7390780448913574,0.05610562488436699,0,0,0,-1,197116.1803254167,3,2,1561914401.017862,1561913957.287787,32,0.8918345,0,0,26.32609,0,0,1561914403.296296,197116.804701,0,1.096436,75.29484,3232235528,177845136,1,1,0.54,-11.53938,-38.50342,2
1561914404.998591,84,0,0,1561914403.989743,4.634818537165071,-74.15128366097262,2553.011,0,199.6875,4,30,-9999,1561914404.974841,11.50519561767578,25.1619815826416,9.61669921875,16.26515007019043,23.75861740112305,15,197120.1364137917,-0.7203369140625,0.7517547607421875,0.09686279296875,197120.1192017917,0.2775690298779446,-0.3306426346099158,-0.01876010566684518,197120.1166687917,-64.30073547363281,-4.011428833007812,-553.9387817382812,197120.1192017917,0.8004771117916786,-1.654913755703219,-0.8319284723070705,0.2749036848545074,-0.3372303247451782,-0.02200293727219105,-0.03293949365615845,0.0006672143936157227,0.03216290473937988,1,-0.01055118069052696,0.7267597913742065,-0.5151745676994324,-0.4542072415351868,-0.6710705161094666,0.7392314672470093,0.0565822422504425,0,0,0,-1,197116.1803254167,3,2,1561914401.017862,1561913957.287787,32,0.8918345,0,0,26.32609,0,0,1561914403.296296,197116.804701,0,1.096436,75.29484,3232235528,177845136,1,1,0.54,-11.53938,-39.15706,2
1561914405.002254,85,0,0,1561914403.989743,4.634818537165071,-74.15128366097262,2553.011,0,199.6875,4,30,-9999,1561914404.974841,11.50519561767578,25.1619815826416,9.61669921875,16.26515007019043,23.75861740112305,15,197120.1566777917,-0.7320709228515625,0.75946044921875,0.10467529296875,197120.1394657917,0.2543736957316815,-0.3172107153359921,-0.04339514469840516,197120.1367797917,-64.20390319824219,-3.74200439453125,-554.0726928710938,197120.1394657917,0.8084402689153526,-1.655651701387727,-0.8317253690058244,0.2517083585262299,-0.3237983882427216,-0.04663797467947006,-0.04915899038314819,0.01266008615493774,0.039772629737854,1,-0.01370520517230034,0.7268818616867065,-0.5169219970703125,-0.4519365131855011,-0.6711779236793518,0.7390946745872498,0.0570901483297348,0,0,0,-1,197116.1803254167,3,2,1561914401.017862,1561913957.287787,32,0.8918345,0,0,26.32609,0,0,1561914403.296296,197116.804701,0,1.096436,75.29484,3232235528,177845136,1,1,0.54,-11.53938,-39.15706,2
1561914405.011313,86,0,0,1561914403.989743,4.634818537165071,-74.15128366097262,2553.011,0,199.6875,4,30,-9999,1561914404.974841,11.50519561767578,25.1619815826416,9.61669921875,16.26515007019043,23.75861740112305,15,197120.1769407917,-0.7407684326171875,0.7457275390625,0.1182403564453125,197120.1597297917,0.2504798879018766,-0.330113464501317,-0.08235852302680945,197120.1568607917,-64.25784301757812,-3.870040893554688,-554.2093505859375,197120.1597297917,0.815918343585306,-1.656812529054159,-0.8307746997260578,0.2478145360946655,-0.3367011547088623,-0.08560135215520859,-0.06025993824005127,0.02100646495819092,0.04674577713012695,1,-0.01704991422593594,0.7270997762680054,-0.5183559060096741,-0.4498248696327209,-0.6718109846115112,0.7384539842605591,0.05792956799268723,0,0,0,-1,197116.1803254167,3,2,1561914401.017862,1561913957.287787,32,0.8918345,0,0,26.32609,0,0,1561914403.296296,197117.750085,0,1.096436,75.29484,3232235528,177845136,1,1,0.54,-12.09666,-39.66016,2
1561914405.031525,87,0,0,1561914403.989743,4.634818537165071,-74.15128366097262,2553.011,0,199.6875,4,30,-9999,1561914405.021373,11.63904571533203,25.55177116394043,9.2769775390625,15.11238861083984,22.60585594177246,15,197120.1972047917,-0.7499237060546875,0.7356109619140625,0.1259765625,197120.1799927917,0.3054470001688941,-0.4061602957446387,-0.1418594007335778,197120.1769717917,-64.15798950195312,-3.839813232421875,-554.403564453125,197120.1799927917,0.8243461107081139,-1.658027490163653,-0.8290018750213175,0.3027816712856293,-0.4127479791641235,-0.1451022326946259,-0.06772500276565552,0.008470118045806885,0.05938065052032471,1,-0.02103733830153942,0.7273151278495789,-0.5197831988334656,-0.4476558268070221,-0.673043429851532,0.7372574210166931,0.05885972827672958,0,0,0,-1,197116.1803254167,3,2,1561914401.017862,1561913957.287787,32,0.8918345,0,0,26.32609,0,0,1561914403.296296,197117.750085,0,1.096436,75.29484,3232235528,177845136,1,1,0.54,-12.09666,-39.66016,2
1561914405.071166,88,0,0,1561914404.990422,4.634799049240197,-74.15127167485109,2553.011,0.43,199.3359375,4,30,-9999,1561914405.050014,11.58832550048828,25.76315307617188,8.948974609375,14.27092170715332,21.76438903808594,15,197120.2174687917,-0.75457763671875,0.72601318359375,0.1292266845703125,197120.2002567917,0.4044540084342249,-0.5581122780612897,-0.2440342391155579,197120.1970827917,-64.06834411621094,-3.643844604492188,-554.5745239257812,197120.2002567917,0.8351863099099819,-1.659912221932106,-0.82566999512144,0.4017886519432068,-0.5646999478340149,-0.2472770661115646,-0.07454967498779297,0.0006086826324462891,0.06563019752502441,1,-0.02661273069679737,0.7276434302330017,-0.5213325619697571,-0.4450159668922424,-0.6753740310668945,0.7350022196769714,0.06034639850258827,0,0,0,-1,197116.1803254167,3,2,1561914401.017862,1561913957.287787,32,0.8918345,0,0,26.32609,0,0,1561914403.296296,197117.750085,0,1.096436,75.29484,3232235528,177845136,1,1,0.54,-13.21122,-40.10336,2
1561914405.075993,89,0,0,1561914404.990422,4.634799049240197,-74.15127167485109,2553.011,0.43,199.3359375,4,30,-9999,1561914405.072693,11.55752563476562,25.76093292236328,8.3829345703125,13.16828536987305,20.66175270080566,15,197120.2377317917,-0.755645751953125,0.72589111328125,0.127716064453125,197120.2204897917,0.4899129836021046,-0.7079057683144316,-0.3430609547729552,197120.2171637917,-64.35359191894531,-3.389068603515625,-555.2042236328125,197120.2204897917,0.8491773553692936,-1.662630065955798,-0.8204819497830032,0.48724764585495,-0.714493453502655,-0.3463037610054016,-0.07558220624923706,-0.005461335182189941,0.06669604778289795,1,-0.03419068083167076,0.7280771136283875,-0.5230768918991089,-0.4417298138141632,-0.6789954304695129,0.7314745187759399,0.06253056973218918,0,0,0,-1,197116.1803254167,3,2,1561914401.017862,1561913957.287787,32,0.8918345,0,0,26.32609,0,0,1561914403.296296,197117.750085,0,1.096436,75.29484,3232235528,177845136,1,1,0.54,-13.21122,-40.10336,2
1561914405.092525,90,0,0,1561914404.990422,4.634799049240197,-74.15127167485109,2553.011,0.43,199.3359375,4,30,-9999,1561914405.072693,11.55752563476562,25.76093292236328,8.3829345703125,13.16828536987305,20.66175270080566,15,197120.2579957917,-0.763641357421875,0.7362213134765625,0.1314544677734375,197120.2407537917,0.5673672954815331,-0.8345388118315904,-0.4543278251164658,197120.2372747917,-64.68017578125,-3.395034790039062,-555.4859619140625,197120.2407537917,0.8657970550590869,-1.666339391190967,-0.8134074961268749,0.5647019743919373,-0.8411265015602112,-0.4575706422328949,-0.07175284624099731,-0.0007413029670715332,0.06217527389526367,1,-0.04363448172807693,0.7286058068275452,-0.5248695611953735,-0.4378829598426819,-0.6838929653167725,0.7266324162483215,0.06554078310728073,0,0,0,-1,197116.1803254167,3,2,1561914401.017862,1561913957.287787,32,0.8918345,0,0,26.32609,0,0,1561914403.296296,197117.750085,0,1.096436,75.29484,3232235528,177845136,1,1,0.54,-13.7685,-40.42538,2
1561914405.11313,91,0,0,1561914404.990422,4.634799049240197,-74.15127167485109,2553.011,0.43,199.3359375,4,30,-9999,1561914405.092735,11.23360443115234,25.96463775634766,7.7945556640625,11.84892272949219,19.3423900604248,15,197120.2782597917,-0.7551422119140625,0.7420501708984375,0.127838134765625,197120.2610167917,0.6262726903685598,-0.9341953650867916,-0.5497092058737627,197120.2573857917,-64.39112854003906,-3.069625854492188,-556.0211181640625,197120.2610167917,0.8847110193275115,-1.670780590174753,-0.8043210457671169,0.623607337474823,-0.9407830238342285,-0.5529520511627197,-0.07350486516952515,0.01586145162582397,0.06222081184387207,1,-0.05479723960161209,0.7291187047958374,-0.5265878438949585,-0.4336916208267212,-0.6901364922523499,0.7203598618507385,0.06923364847898483,0,0,0,-1,197116.1803254167,3,2,1561914401.017862,1561913957.287787,32,0.8918345,0,0,26.32609,0,0,1561914403.296296,197117.750085,0,1.096436,75.29484,3232235528,177845136,1,1,0.54,-14.32578,-40.05552,2
1561914405.144076,92,0,0,1561914404.990422,4.634799049240197,-74.15127167485109,2553.011,0.43,199.3359375,4,30,-9999,1561914405.122148,11.06698608398438,26.20679092407227,7.2802734375,10.42865180969238,17.922119140625,15,197120.2985237917,-0.7383575439453125,0.7340850830078125,0.1174468994140625,197120.2812807917,0.633071740631532,-0.9860290020152217,-0.5815182682497781,197120.2774967917,-64.63902282714844,-3.105361938476562,-556.667236328125,197120.2812807917,0.9045711596204121,-1.676154062809976,-0.7940741661976818,0.630406379699707,-0.9926166534423828,-0.5847611427307129,-0.05808365345001221,0.0288352370262146,0.05412459373474121,1,-0.06694786250591278,0.7296401262283325,-0.5281267762184143,-0.4292147755622864,-0.6970585584640503,0.7132149338722229,0.07371345907449722,0,0,0,-1,197116.1803254167,3,2,1561914401.017862,1561913957.287787,32,0.8918345,0,0,26.32609,0,0,1561914403.296296,197117.750085,0,1.096436,75.29484,3232235528,177845136,1,1,0.54,-14.88305,-39.6805,2
1561914405.154573,93,0,0,1561914404.990422,4.634799049240197,-74.15127167485109,2553.011,0.43,199.3359375,4,30,-9999,1561914405.143996,10.89858245849609,26.54928588867188,6.22265625,9.006855010986328,16.50032234191895,15,197120.3187567917,-0.7241973876953125,0.7241973876953125,0.1174468994140625,197120.3015447917,0.6353364928225355,-0.9986952624757476,-0.6014981016958796,197120.2975767917,-64.73179626464844,-2.891754150390625,-557.152099609375,197120.3015447917,0.9244791512119075,-1.682338132464748,-0.7834545830759791,0.6326711177825928,-1.005282998085022,-0.6047409176826477,-0.03428030014038086,0.0283539891242981,0.03858554363250732,1,-0.07945597916841507,0.7301489114761353,-0.5294767022132874,-0.4245278239250183,-0.7040772438049316,0.7057311534881592,0.07886137068271637,0,0,0,-1,197116.1803254167,3,2,1561914401.017862,1561913957.287787,32,0.8918345,0,0,26.32609,0,0,1561914403.296296,197117.750085,0,1.096436,75.29484,3232235528,177845136,1,1,0.54,-15.44033,-39.92071,2
1561914405.17349,94,0,0,1561914404.990422,4.634799049240197,-74.15127167485109,2553.011,0.43,199.3359375,4,30,-9999,1561914405.171886,10.60777282714844,26.83916854858398,5.81072998046875,7.676145076751709,15.16961288452148,15,197120.3390115417,-0.6885223388671875,0.724884033203125,0.13177490234375,197120.3218077917,0.6011114107056001,-0.9475194263365669,-0.625610095889348,197120.3176805417,-65.33348083496094,-2.806655883789062,-557.5269165039062,197120.3218077917,0.9440581053808055,-1.688628997234906,-0.7725244854104135,0.5984460711479187,-0.9541071057319641,-0.6288529634475708,-0.0130121111869812,0.02625203132629395,0.03325605392456055,1,-0.0919739156961441,0.7305040955543518,-0.5305914878845215,-0.4199730753898621,-0.7111852765083313,0.6979453563690186,0.08419086784124374,0,0,0,-1,197116.1803254167,3,2,1561914401.017862,1561913957.287787,32,0.8918345,0,0,26.32609,0,0,1561914403.296296,197117.750085,0,1.096436,75.29484,3232235528,177845136,1,1,0.54,-15.99761,-40.4672,2
1561914405.194308,95,0,0,1561914404.990422,4.634799049240197,-74.15127167485109,2553.011,0.43,199.3359375,4,30,-9999,1561914405.171886,10.60777282714844,26.83916854858398,5.81072998046875,7.676145076751709,15.16961288452148,15,197120.3592755417,-0.6523590087890625,0.7185516357421875,0.14337158203125,197120.3420635417,0.4538540487585407,-0.779236673899441,-0.6190406101123406,197120.3377915417,-65.49739074707031,-2.50958251953125,-558.0135498046875,197120.3420635417,0.9610527922549943,-1.694626395132476,-0.7611721989664412,0.451188713312149,-0.7858243584632874,-0.6222834587097168,0.02996164560317993,0.03511339426040649,0.04234731197357178,1,-0.1036049947142601,0.7307391762733459,-0.5309953689575195,-0.41632941365242,-0.7184839844703674,0.6897706389427185,0.08942747861146927,0,0,0,-1,197116.1803254167,3,2,1561914401.017862,1561913957.287787,32,0.8918345,0,0,26.32609,0,0,1561914403.296296,197117.750085,0,1.096436,75.29484,3232235528,177845136,1,1,0.54,-15.99761,-40.4672,2
1561914405.223714,96,0,0,1561914404.990422,4.634799049240197,-74.15127167485109,2553.011,0.43,199.3359375,4,30,-9999,1561914405.171886,10.60777282714844,26.83916854858398,5.81072998046875,7.676145076751709,15.16961288452148,15,197120.3795395417,-0.63690185546875,0.7149505615234375,0.1548614501953125,197120.3623275417,0.3250065867949811,-0.555698655165351,-0.5051033881438075,197120.3578715417,-65.69789123535156,-2.469558715820312,-558.3155517578125,197120.3623275417,0.973737248431723,-1.699595679136948,-0.7505297562320764,0.3223412334918976,-0.5622863173484802,-0.5083462595939636,0.07291114330291748,0.03652536869049072,0.04943728446960449,1,-0.1131383776664734,0.7308672070503235,-0.5306776762008667,-0.4140219390392303,-0.72527015209198,0.6820262670516968,0.09393433481454849,0,0,0,-1,197116.1803254167,3,2,1561914401.017862,1561913957.287787,32,0.8918345,0,0,26.32609,0,0,1561914403.296296,197117.750085,0,1.096436,75.29484,3232235528,177845136,1,1,0.54,-17.11217,-38.64794,2
1561914405.234512,97,0,0,1561914404.990422,4.634799049240197,-74.15127167485109,2553.011,0.43,199.3359375,4,30,-9999,1561914405.224246,10.31203460693359,27.05089569091797,5.2015380859375,6.700558185577393,14.19402599334717,15,197120.3998025417,-0.6253814697265625,0.696533203125,0.1600799560546875,197120.3825605417,0.2128922985926073,-0.3803979406236481,-0.278725374423257,197120.3779825417,-65.72163391113281,-2.34759521484375,-558.7451782226562,197120.3825605417,0.9823902158806183,-1.703137967453062,-0.7432239593469037,0.2102269530296326,-0.3869856297969818,-0.2819682061672211,0.09295070171356201,0.03828537464141846,0.05770373344421387,1,-0.1196909546852112,0.7309260964393616,-0.5304150581359863,-0.412408858537674,-0.729852557182312,0.676665186882019,0.09715776890516281,0,0,0,-1,197116.1803254167,3,2,1561914401.017862,1561913957.287787,32,0.8918345,0,0,26.32609,0,0,1561914403.296296,197117.750085,0,1.096436,75.29484,3232235528,177845136,1,1,0.54,-17.11217,-38.64794,2
1561914405.254532,98,0,0,1561914404.990422,4.634799049240197,-74.15127167485109,2553.011,0.43,199.3359375,4,30,-9999,1561914405.244807,9.895889282226562,27.31314659118652,4.68902587890625,5.821810245513916,13.31527805328369,15,197120.4200665417,-0.6321258544921875,0.6785736083984375,0.155303955078125,197120.4028245417,0.09689245835980788,-0.3308711338314446,-0.0673433544848337,197120.3980935417,-65.75453186035156,-2.283477783203125,-558.7955322265625,197120.4028245417,0.9871582987298116,-1.707075410805874,-0.740061428431523,0.09422712028026581,-0.3374588191509247,-0.0705861821770668,0.1061994433403015,0.02219992876052856,0.05975890159606934,1,-0.1235368028283119,0.7313680052757263,-0.5303570032119751,-0.4105619192123413,-0.731580913066864,0.6743332743644714,0.100321002304554,0,0,0,-1,197116.1803254167,3,2,1561914401.017862,1561913957.287787,32,0.8918345,0,0,26.32609,0,0,1561914403.296296,197117.750085,0,1.096436,75.29484,3232235528,177845136,1,1,0.54,-17.66945,-39.02565,2
1561914405.274879,99,0,0,1561914404.990422,4.634799049240197,-74.15127167485109,2553.011,0.43,199.3359375,4,30,-9999,1561914405.271353,10.02048492431641,27.24279022216797,4.601318359375,5.79996919631958,13.29343700408936,15,197120.4403305417,-0.6583099365234375,0.6751708984375,0.1465911865234375,197120.4230875417,0.01312139469082041,-0.4150501937794322,0.06916895141208301,197120.4182045417,-65.69248962402344,-2.1431884765625,-559.01953125,197120.4230875417,0.9883783230126668,-1.713786883159645,-0.7403542077252288,0.01045605726540089,-0.4216378629207611,0.06592611968517303,0.09856945276260376,0.004024207592010498,0.05010342597961426,1,-0.1256652623414993,0.7326721549034119,-0.5302627086639404,-0.4077021777629852,-0.7306952476501465,0.6745494604110718,0.1052004918456078,0,0,0,-1,197116.1803254167,3,2,1561914401.017862,1561913957.287787,32,0.8918345,0,0,26.32609,0,0,1561914403.296296,197117.750085,0,1.096436,75.29484,3232235528,177845136,1,1,0.54,-18.22673,-39.65431,2
1561914405.306361,100,0,0,1561914404.990422,4.634799049240197,-74.15127167485109,2553.011,0.43,199.3359375,4,30,-9999,1561914405.295384,9.9837646484375,27.09983253479004,4.39703369140625,5.688165187835693,13.18163299560547,15,197120.4605935417,-0.690460205078125,0.68023681640625,0.12939453125,197120.4433515417,0.04639865777579652,-0.5502189349064039,0.1004882584636329,197120.4382855417,-65.89936828613281,-2.265380859375,-559.042724609375,197120.4433515417,0.9885287530491293,-1.723593444077753,-0.7420739949203908,0.04373332113027573,-0.5568066239356995,0.09724543243646622,0.07017135620117188,-0.000647127628326416,0.03440690040588379,1,-0.1277473717927933,0.7346922755241394,-0.5301098823547363,-0.4035982489585876,-0.7284812927246094,0.6758180260658264,0.1121842637658119,0,0,0,-1,197116.1803254167,3,2,1561914401.017862,1561913957.287787,32,0.8918345,0,0,26.32609,0,0,1561914403.296296,197117.750085,0,1.096436,75.29484,3232235528,177845136,1,1,0.54,-18.78401,-39.94268,2
1561914405.315864,101,0,0,1561914404.990422,4.634799049240197,-74.15127167485109,2553.011,0.43,199.3359375,4,30,-9999,1561914405.295384,9.9837646484375,27.09983253479004,4.39703369140625,5.688165187835693,13.18163299560547,15,197120.4808575417,-0.709442138671875,0.6827545166015625,0.11712646484375,197120.4636155417,0.1500113368303103,-0.670610860408962,0.1281241474114941,197120.4583965417,-65.74148559570312,-2.497833251953125,-559.233642578125,197120.4636155417,0.9906350284864421,-1.734753981105463,-0.7446163498310734,0.1473459899425507,-0.6771985292434692,0.1248813197016716,0.03502613306045532,0.002547025680541992,0.009368062019348145,1,-0.1306382119655609,0.736849308013916,-0.5304619669914246,-0.3982422947883606,-0.7254863381385803,0.6776897311210632,0.1200264915823936,0,0,0,-1,197116.1803254167,3,2,1561914401.017862,1561913957.287787,32,0.8918345,0,0,26.32609,0,0,1561914403.296296,197117.750085,0,1.096436,75.29484,3232235528,177845136,1,1,0.54,-19.34129,-37.61239,2
1561914405.338172,102,0,0,1561914404.990422,4.634799049240197,-74.15127167485109,2553.011,0.43,199.3359375,4,30,-9999,1561914405.321965,10.13201141357422,27.0283374786377,4.18597412109375,5.376887798309326,12.8703556060791,15,197120.5010905417,-0.716827392578125,0.693756103515625,0.11419677734375,197120.4838785417,0.2159722443932839,-0.7333322988219632,0.1398596330710373,197120.4785075417,-65.62796020507812,-2.387298583984375,-559.3644409179688,197120.4838785417,0.994973343593867,-1.746288118499255,-0.7479698817493933,0.2133069038391113,-0.7399199604988098,0.1366167962551117,0.01236969232559204,0.002602577209472656,-0.01086223125457764,1,-0.1341931968927383,0.7389090061187744,-0.5314172506332397,-0.3919201791286469,-0.721811830997467,0.6801519393920898,0.1279886662960052,0,0,0,-1,197116.1803254167,3,2,1561914401.017862,1561913957.287787,32,0.8918345,0,0,26.32609,0,0,1561914403.296296,197117.750085,0,1.096436,75.29484,3232235528,177845136,1,1,0.54,-19.89856,-28.97816,2
1561914405.355905,103,0,0,1561914404.990422,4.634799049240197,-74.15127167485109,2553.011,0.43,199.3359375,4,30,-9999,1561914405.346669,10.43218231201172,27.12265968322754,3.7242431640625,4.933028697967529,12.4264965057373,15,197120.5213545417,-0.7171478271484375,0.702789306640625,0.122894287109375,197120.5041425417,0.2710493452133216,-0.7329847562997078,0.1520201592405571,197120.4985885417,-65.36053466796875,-2.395050048828125,-559.7904052734375,197120.5041425417,1.000723199998772,-1.757394563504532,-0.7517508211083891,0.2683840095996857,-0.7395724058151245,0.1487773209810257,0.0009862780570983887,0.01083731651306152,-0.02132248878479004,1,-0.1380314826965332,0.7407475709915161,-0.5327529907226562,-0.3852461576461792,-0.7178136706352234,0.6829187870025635,0.1355193108320236,0,0,0,-1,197116.1803254167,3,2,1561914401.017862,1561913957.287787,32,0.8918345,0,0,26.32609,0,0,1561914403.296296,197117.750085,0,1.096436,75.29484,3232235528,177845136,1,1,0.54,-19.89856,-28.97816,2
1561914405.386604,104,0,0,1561914404.990422,4.634799049240197,-74.15127167485109,2553.011,0.43,199.3359375,4,30,-9999,1561914405.372543,10.72867584228516,26.78990936279297,3.447509765625,4.348966121673584,11.84243392944336,15,197120.5416185417,-0.716522216796875,0.70941162109375,0.131378173828125,197120.5244065417,0.3390390488947176,-0.6908034804261608,0.1831461207969672,197120.5186995417,-65.08981323242188,-2.50933837890625,-559.8342895507812,197120.5244065417,1.00816341029689,-1.766979525034176,-0.7562143612040342,0.3363737165927887,-0.697391152381897,0.1799032837152481,-0.003662824630737305,0.01661676168441772,-0.01890325546264648,1,-0.1418850719928741,0.74213707447052,-0.5346542596817017,-0.3784786760807037,-0.7134850025177002,0.6861725449562073,0.1417976170778275,0,0,0,-1,197116.1803254167,3,2,1561914401.017862,1561913957.287787,32,0.8918345,0,0,26.32609,0,0,1561914403.296296,197117.750085,0,1.096436,75.29484,3232235528,177845136,1,1,0.54,-14.28491,-14.9966,2
1561914405.396624,105,0,0,1561914404.990422,4.634799049240197,-74.15127167485109,2553.011,0.43,199.3359375,4,30,-9999,1561914405.372543,10.72867584228516,26.78990936279297,3.447509765625,4.348966121673584,11.84243392944336,15,197120.5618815417,-0.7252349853515625,0.714874267578125,0.1440887451171875,197120.5446695417,0.3866766092096189,-0.6654294141921038,0.2351613853117409,197120.5388105417,-64.94871520996094,-2.418914794921875,-560.384033203125,197120.5446695417,1.016835836713503,-1.774743506714376,-0.7617586616659734,0.3840112686157227,-0.6720170974731445,0.2319185435771942,-0.007896482944488525,0.01921647787094116,-0.0151817798614502,1,-0.1453747749328613,0.743065357208252,-0.5371515154838562,-0.3717365860939026,-0.7086257338523865,0.6901951432228088,0.1465598940849304,0,0,0,-1,197116.1803254167,3,2,1561914401.017862,1561913957.287787,32,0.8918345,0,0,26.32609,0,0,1561914403.296296,197117.750085,0,1.096436,75.29484,3232235528,177845136,1,1,0.54,-14.28491,-14.9966,2
1561914405.416716,106,0,0,1561914404.990422,4.634799049240197,-74.15127167485109,2553.011,0.43,199.3359375,4,30,-9999,1561914405.399276,10.7947998046875,26.73050880432129,3.0299072265625,3.630066394805908,11.12353420257568,15,197120.5821455417,-0.7462615966796875,0.7285003662109375,0.1581573486328125,197120.5649025417,0.5064267128894679,-0.7282472590365658,0.2617591740666892,197120.5589215417,-64.718505859375,-2.504013061523438,-560.6510009765625,197120.5649025417,1.0274113769956,-1.781503669579847,-0.7684519896540434,0.503761351108551,-0.7348349094390869,0.2585163414478302,-0.02214938402175903,0.0198512077331543,-0.006288647651672363,1,-0.1489455252885818,0.7436423301696777,-0.5403183698654175,-0.3645096123218536,-0.7030855417251587,0.6950230598449707,0.1503773629665375,0,0,0,-1,197116.1803254167,3,2,1561914401.017862,1561913957.287787,32,0.8918345,0,0,26.32609,0,0,1561914403.296296,197117.750085,0,1.096436,75.29484,3232235528,177845136,1,1,0.54,-13.70615,-15.41999,2
1561914405.43732,107,0,0,1561914404.990422,4.634799049240197,-74.15127167485109,2553.011,0.43,199.3359375,4,30,-9999,1561914405.423374,11.04886627197266,27.02954864501953,2.3736572265625,2.529257297515869,10.02272510528564,15,197120.6024095417,-0.7534027099609375,0.731719970703125,0.1685028076171875,197120.5851665417,0.7066367720550089,-0.8570169566962952,0.2598952276197428,197120.5790025417,-64.66319274902344,-2.43359375,-561.266845703125,197120.5851665417,1.042598838358476,-1.786983544381835,-0.7761823065646191,0.7039714455604553,-0.8636046051979065,0.2566524147987366,-0.04927909374237061,0.02794015407562256,0.005086421966552734,1,-0.1535647511482239,0.743608295917511,-0.5446103811264038,-0.3561798632144928,-0.6969825029373169,0.7005602717399597,0.153070867061615,0,0,0,-1,197116.1803254167,3,2,1561914401.017862,1561913957.287787,32,0.8918345,0,0,26.32609,0,0,1561914403.296296,197117.750085,0,1.096436,75.29484,3232235528,177845136,1,1,0.54,-13.70615,-15.71556,2
1561914405.463164,108,0,0,1561914404.990422,4.634799049240197,-74.15127167485109,2553.011,0.43,199.3359375,4,30,-9999,1561914405.449728,11.37583923339844,26.95549583435059,1.79156494140625,0.9220480918884277,8.415515899658203,15,197120.6226725417,-0.796630859375,0.75146484375,0.1859588623046875,197120.6054305417,0.9054316274172817,-0.9919428175318518,0.2280190535842574,197120.5991135417,-64.67637634277344,-2.41229248046875,-561.6988525390625,197120.6054305417,1.063505189713391,-1.791164415250206,-0.7845193528791535,0.9027662873268127,-0.9985305070877075,0.2247762233018875,-0.06278961896896362,0.0252348780632019,0.01380133628845215,1,-0.1597705483436584,0.7428486347198486,-0.5500565767288208,-0.3465358912944794,-0.6906130909919739,0.7064850926399231,0.154701441526413,0,0,0,-1,197116.1803254167,3,2,1561914401.017862,1561913957.287787,32,0.8918345,0,0,26.32609,0,0,1561914403.296296,197117.750085,0,1.096436,75.29484,3232235528,177845136,1,1,0.54,-10.33883,-15.52118,2
1561914405.477559,109,0,0,1561914404.990422,4.634799049240197,-74.15127167485109,2553.011,0.43,199.3359375,4,30,-9999,1561914405.473981,11.50392150878906,27.0107479095459,0.7109375,358.9900207519531,6.483486652374268,15,197120.6429365417,-0.8247528076171875,0.7613067626953125,0.17523193359375,197120.6256935417,1.02154172251921,-1.009311421529131,0.2308497275069026,197120.6192245417,-64.21281433105469,-2.381729125976562,-562.4496459960938,197120.6256935417,1.089419514331133,-1.793379578165171,-0.793224951433299,1.018876433372498,-1.015899181365967,0.2276068925857544,-0.11238694190979,0.03884536027908325,0.03109157085418701,1,-0.1671736240386963,0.7412736415863037,-0.5564566254615784,-0.3360393047332764,-0.68424391746521,0.712619423866272,0.1548672616481781,0,0,0,-1,197116.1803254167,3,2,1561914401.017862,1561913957.287787,32,0.8918345,0,0,26.32609,0,0,1561914403.296296,197117.750085,0,1.096436,75.29484,3232235528,177845136,1,1,0.54,-10.33883,-15.6064,2
1561914405.497838,110,0,0,1561914404.990422,4.634799049240197,-74.15127167485109,2553.011,0.43,199.3359375,4,30,-9999,1561914405.473981,11.50392150878906,27.0107479095459,0.7109375,358.9900207519531,6.483486652374268,15,197120.6632005417,-0.9100799560546875,0.8257904052734375,0.164031982421875,197120.6459575417,1.006604318281065,-1.004807749809697,0.2342644326566022,197120.6393355417,-64.21694946289062,-2.42901611328125,-563.2132568359375,197120.6459575417,1.116651529838615,-1.794372208957982,-0.8023467036555746,1.003939032554626,-1.011395454406738,0.2310215979814529,-0.1470299363136292,0.04231768846511841,0.0211331844329834,1,-0.1745723187923431,0.7393063306808472,-0.5630929470062256,-0.3253874480724335,-0.6777228713035583,0.7189890742301941,0.1540986895561218,0,0,0,-1,197116.1803254167,3,2,1561914401.017862,1561913957.287787,32,0.8918345,0,0,26.32609,0,0,1561914403.296296,197117.750085,0,1.096436,75.29484,3232235528,177845136,1,1,0.54,-10.33883,-15.6064,2
1561914405.520815,111,0,0,1561914404.990422,4.634799049240197,-74.15127167485109,2553.011,0.43,199.3359375,4,30,-9999,1561914405.499052,11.60801696777344,26.79907608032227,0.08331298828125,356.9759826660156,4.469436168670654,15,197120.6834335417,-0.99908447265625,0.8829803466796875,0.16485595703125,197120.6662215417,1.17191285241279,-1.021563826756258,0.2256815970954948,197120.6594155417,-63.90963745117188,-2.637603759765625,-564.1573486328125,197120.6662215417,1.145491231157432,-1.794293154429888,-0.8115721649942094,1.169247508049011,-1.028151512145996,0.2224387526512146,-0.2388416528701782,0.1004201173782349,0.01146352291107178,1,-0.1822007596492767,0.7369444370269775,-0.5699077844619751,-0.3145169615745544,-0.6712383031845093,0.7253702878952026,0.152568444609642,0,0,0,-1,197116.1803254167,3,2,1561914401.017862,1561913957.287787,32,0.8918345,0,0,26.32609,0,0,1561914403.296296,197117.750085,0,1.096436,75.29484,3232235528,177845136,1,1,0.54,-10.33883,-16.10973,2
1561914405.543916,112,0,0,1561914404.990422,4.634799049240197,-74.15127167485109,2553.011,0.43,199.3359375,4,30,-9999,1561914405.524586,11.76673126220703,26.74704933166504,-1.81085205078125,354.261962890625,1.755432844161987,15,197120.7036965417,-1.036712646484375,0.9304046630859375,0.1783447265625,197120.6864845417,1.517734706287831,-1.029856377758547,0.08191643828585629,197120.6795265417,-63.89540100097656,-2.65814208984375,-565.119140625,197120.6864845417,1.183051559409594,-1.787781406419684,-0.8208831338332008,1.515069365501404,-1.036444067955017,0.07867360860109329,-0.3334916234016418,0.1512323617935181,0.01812207698822021,1,-0.1911073327064514,0.7326970100402832,-0.578468382358551,-0.3033271133899689,-0.6655928492546082,0.7317480444908142,0.1467338353395462,0,0,0,-1,197116.1803254167,3,2,1561914401.017862,1561913957.287787,32,0.8918345,0,0,26.32609,0,0,1561914403.296296,197117.750085,0,1.096436,75.29484,3232235528,177845136,1,1,0.54,-10.33883,-16.76042,2
1561914405.558629,113,0,0,1561914404.990422,4.634799049240197,-74.15127167485109,2553.011,0.43,199.3359375,4,30,-9999,1561914405.549386,11.63083648681641,26.70984840393066,-2.8326416015625,350.4537353515625,357.9472045898438,15,197120.7239605417,-1.058547973632812,0.9873809814453125,0.177001953125,197120.7067485417,1.874170322371273,-1.044859029443399,-0.205488977078296,197120.6996385417,-64.31938171386719,-2.77252197265625,-566.08935546875,197120.7067485417,1.233022325131391,-1.772235730268367,-0.8268917038192808,1.87150502204895,-1.051446795463562,-0.2087318152189255,-0.373238742351532,0.1945745944976807,0.04285740852355957,1,-0.2028329968452454,0.7256737947463989,-0.5887753963470459,-0.2925748229026794,-0.663473904132843,0.7358300685882568,0.135487362742424,0,0,0,-1,197116.1803254167,3,2,1561914401.017862,1561913957.287787,32,0.8918345,0,0,26.32609,0,0,1561914403.296296,197117.750085,0,1.096436,75.29484,3232235528,177845136,1,1,0.54,-10.33883,-17.65044,2
1561914405.578899,114,0,0,1561914404.990422,4.634799049240197,-74.15127167485109,2553.011,0.43,199.3359375,4,30,-9999,1561914405.575331,11.54576873779297,26.58192443847656,-4.11871337890625,345.9730529785156,353.4665222167969,15,197120.7442245417,-1.119766235351562,1.052108764648438,0.1645965576171875,197120.7270125417,2.071616020325312,-0.8790868389658909,-0.4676572126884214,197120.7197495417,-64.06483459472656,-2.615005493164062,-567.4075317382812,197120.7270125417,1.293492455492327,-1.747988485205368,-0.8275548655531345,2.068950653076172,-0.8856745362281799,-0.4709000289440155,-0.3924650549888611,0.2511019706726074,0.05772638320922852,1,-0.217202365398407,0.7158637642860413,-0.6001651883125305,-0.2831323146820068,-0.6660829186439514,0.7362790107727051,0.1192755922675133,0,0,0,-1,197116.1803254167,3,2,1561914401.017862,1561913957.287787,32,0.8918345,0,0,26.32609,0,0,1561914403.296296,197117.750085,0,1.096436,75.29484,3232235528,177845136,1,1,0.54,-10.33883,-18.46053,2
1561914405.599352,115,0,0,1561914404.990422,4.634799049240197,-74.15127167485109,2553.011,0.43,199.3359375,4,30,-9999,1561914405.575331,11.54576873779297,26.58192443847656,-4.11871337890625,345.9730529785156,353.4665222167969,15,197120.7644875417,-1.173110961914062,1.082366943359375,0.1179351806640625,197120.7472455417,1.893727512152379,-0.2429087872388904,-0.5526599883615705,197120.7398295417,-64.30116271972656,-2.668365478515625,-568.5743408203125,197120.7472455417,1.355438791295092,-1.714646206351323,-0.8237022524855206,1.891062259674072,-0.2494964748620987,-0.5559028387069702,-0.4472750425338745,0.318442165851593,0.06718599796295166,1,-0.2303536087274551,0.7040188312530518,-0.6118273735046387,-0.2774200439453125,-0.6724911332130432,0.7336665391921997,0.09741059690713882,0,0,0,-1,197116.1803254167,3,2,1561914401.017862,1561913957.287787,32,0.8918345,0,0,26.32609,0,0,1561914403.296296,197117.750085,0,1.096436,75.29484,3232235528,177845136,1,1,0.54,-10.33883,-19.43051,2
1561914405.622756,116,0,0,1561914404.990422,4.634799049240197,-74.15127167485109,2553.011,0.43,199.3359375,4,30,-9999,1561914405.599522,11.35901641845703,26.45486640930176,-5.240234375,342.0496826171875,349.5431518554688,15,197120.7847515417,-1.332687377929688,1.148681640625,0.032440185546875,197120.7675095417,1.516761587225516,0.67326629833188,-0.7357946575658504,197120.7599405417,-64.62251281738281,-2.84747314453125,-569.5726928710938,197120.7675095417,1.407713498170989,-1.672263638991146,-0.8151145216765584,1.514096260070801,0.6666786074638367,-0.7390375137329102,-0.4908533692359924,0.3545628190040588,0.04846978187561035,1,-0.2383386641740799,0.691322922706604,-0.6225129365921021,-0.278827577829361,-0.6822575926780701,0.7278041243553162,0.06946540623903275,0,0,0,-1,197116.1803254167,3,2,1561914401.017862,1561913957.287787,32,0.8918345,0,0,26.32609,0,0,1561914403.296296,197117.750085,0,1.096436,75.29484,3232235528,177845136,1,1,0.54,-10.33883,-20.30077,2
1561914405.639773,117,0,0,1561914404.990422,4.634799049240197,-74.15127167485109,2553.011,0.43,199.3359375,4,30,-9999,1561914405.62617,10.64596557617188,26.5568962097168,-6.77117919921875,338.953857421875,346.4473266601562,15,197120.8050155417,-1.419204711914062,1.151824951171875,-0.0947265625,197120.7877725417,1.379457523536519,1.445605917640234,-0.9377887683456354,197120.7800515417,-64.95164489746094,-2.824432373046875,-570.1398315429688,197120.7877725417,1.450830615602458,-1.619232340902268,-0.8011594928386746,1.376792192459106,1.439018130302429,-0.9410316348075867,-0.6376290321350098,0.4305182099342346,-0.001252055168151855,1,-0.2410659343004227,0.6772985458374023,-0.6326505541801453,-0.2879360914230347,-0.6950584053993225,0.7181634306907654,0.03369221091270447,0,0,0,-1,197116.1803254167,3,2,1561914401.017862,1561913957.287787,32,0.8918345,0,0,26.32609,0,0,1561914403.296296,197117.750085,0,1.096436,75.29484,3232235528,177845136,1,1,0.54,-10.33883,-21.29502,2
1561914405.660503,118,0,0,1561914404.990422,4.634799049240197,-74.15127167485109,2553.011,0.43,199.3359375,4,30,-9999,1561914405.650233,9.964515686035156,26.72970962524414,-7.3154296875,335.7145385742188,343.2080078125,15,197120.8252785417,-1.393600463867188,1.070968627929688,-0.21002197265625,197120.8080365417,1.673687555510108,1.900455189698137,-1.603874651746444,197120.8001625417,-65.55503845214844,-2.701675415039062,-571.0188598632812,197120.8080365417,1.494599054641122,-1.553443765590277,-0.7766487127832999,1.671022295951843,1.893867373466492,-1.607117533683777,-0.7060457468032837,0.4509319067001343,-0.08235019445419312,1,-0.2428446412086487,0.6594226956367493,-0.6433337330818176,-0.3038253784179688,-0.7131590247154236,0.7008929848670959,-0.01237637735903263,0,0,0,-1,197116.1803254167,3,2,1561914401.017862,1561913957.287787,32,0.8918345,0,0,26.32609,0,0,1561914403.296296,197117.750085,0,1.096436,75.29484,3232235528,177845136,1,1,0.54,-10.33883,-21.29502,2
1561914405.680264,119,0,0,1561914404.990422,4.634799049240197,-74.15127167485109,2553.011,0.43,199.3359375,4,30,-9999,1561914405.650233,9.964515686035156,26.72970962524414,-7.3154296875,335.7145385742188,343.2080078125,15,197120.8455425417,-1.343505859375,0.9886932373046875,-0.3358612060546875,197120.8283005417,1.978683416190343,2.063789522513787,-2.425128550796283,197120.8202435417,-66.43309020996094,-2.658004760742188,-571.0857543945312,197120.8283005417,1.542599239141982,-1.48039065044018,-0.7336004544835616,1.976018071174622,2.057201862335205,-2.42837119102478,-0.6538652181625366,0.4014203548431396,-0.1429628729820251,1,-0.2489961087703705,0.6359806656837463,-0.6538580656051636,-0.3255751729011536,-0.7397352457046509,0.6695482730865479,-0.06705906242132187,0,0,0,-1,197116.1803254167,3,2,1561914401.017862,1561913957.287787,32,0.8918345,0,0,26.32609,0,0,1561914403.296296,197117.750085,0,1.096436,75.29484,3232235528,177845136,1,1,0.54,-10.33883,-22.3618,2
1561914405.706423,120,0,0,1561914404.990422,4.634799049240197,-74.15127167485109,2553.011,0.43,199.3359375,4,30,-9999,1561914405.68918,9.308189392089844,26.73931503295898,-7.662353515625,332.3637084960938,339.857177734375,15,197120.8657755417,-1.245193481445312,0.8915863037109375,-0.417236328125,197120.8485635417,1.991539560036591,2.259152894811493,-3.107375827272237,197120.8403545417,-67.40243530273438,-2.486190795898438,-572.1041870117188,197120.8485635417,1.586272812862463,-1.408182507476481,-0.672449951714972,1.988874316215515,2.252565145492554,-3.110618591308594,-0.5715285539627075,0.3657888174057007,-0.2092086672782898,1,-0.259005606174469,0.6079390048980713,-0.6625477075576782,-0.3526424467563629,-0.7719773650169373,0.6229044198989868,-0.1266525238752365,0,0,0,-1,197116.1803254167,3,2,1561914401.017862,1561913957.287787,32,0.8918345,0,0,26.32609,0,0,1561914403.296296,197117.750085,0,1.096436,75.29484,3232235528,177845136,1,1,0.54,-10.33883,-23.19299,2
