loggingTime,loggingSample,identifierForVendor,deviceID,locationTimestamp_since1970,locationLatitude,locationLongitude,locationAltitude,locationSpeed,locationCourse,locationVerticalAccuracy,locationHorizontalAccuracy,locationFloor,locationHeadingTimestamp_since1970,locationHeadingX,locationHeadingY,locationHeadingZ,locationTrueHeading,locationMagneticHeading,locationHeadingAccuracy,accelerometerTimestamp_sinceReboot,accelerometerAccelerationX,accelerometerAccelerationY,accelerometerAccelerationZ,gyroTimestamp_sinceReboot,gyroRotationX,gyroRotationY,gyroRotationZ,magnetometerTimestamp_sinceReboot,magnetometerX,magnetometerY,magnetometerZ,motionTimestamp_sinceReboot,motionYaw,motionRoll,motionPitch,motionRotationRateX,motionRotationRateY,motionRotationRateZ,motionUserAccelerationX,motionUserAccelerationY,motionUserAccelerationZ,motionAttitudeReferenceFrame,motionQuaternionX,motionQuaternionY,motionQuaternionZ,motionQuaternionW,motionGravityX,motionGravityY,motionGravityZ,motionMagneticFieldX,motionMagneticFieldY,motionMagneticFieldZ,motionMagneticFieldCalibrationAccuracy,activityTimestamp_sinceReboot,activity,activityActivityConfidence,activityActivityStartDate,pedometerStartDate,pedometerNumberofSteps,pedometerAverageActivePace,pedometerCurrentPace,pedometerCurrentCadence,pedometerDistance,pedometerFloorAscended,pedometerFloorDescended,pedometerEndDate,altimeterTimestamp_sinceReboot,altimeterReset,altimeterRelativeAltitude,altimeterPressure,IP_en0,IP_pdp_ip0,deviceOrientation,batteryState,batteryLevel,avAudioRecorderPeakPower,avAudioRecorderAveragePower,label
1561914436.299692,1,0,0,1561914435.999159,4.634726922963406,-74.15120319470218,2553.119,0.42,53.7890625,4,30,-9999,1561914436.266319,-21.27366638183594,19.62704086303711,8.1785888671875,12.05120849609375,19.54467582702637,15,197151.43881075,-0.9475860595703125,-0.259185791015625,-0.0488433837890625,197151.42156875,-0.0126673257249619,0.06339335395602817,0.05491784378685099,197151.41821175,-96.90187072753906,-9.9234619140625,-555.582275390625,197151.42156875,0.879763569031172,-1.509616088351282,0.2764089813520119,-0.01536336168646812,0.05677454173564911,0.05167888849973679,0.01264035701751709,0.008788317441940308,-0.003694057464599609,1,-0.3797721862792969,0.5712814331054688,-0.2218163311481476,-0.6929704546928406,-0.9602416753768921,-0.2729026973247528,-0.05882121995091438,0,0,0,-1,197147.3001757917,3,2,1561914432.137712,1561913957.287787,32,0.8918345,0,0,26.32609,0,0,1561914413.669193,197148.947899,0,1.403076,75.29193,3232235528,177845136,1,1,0.53,-25.80622,-34.8335,4
1561914436.303067,2,0,0,1561914435.999159,4.634726922963406,-74.15120319470218,2553.119,0.42,53.7890625,4,30,-9999,1561914436.266319,-21.27366638183594,19.62704086303711,8.1785888671875,12.05120849609375,19.54467582702637,15,197151.45907475,-0.9579010009765625,-0.2817840576171875,-0.042022705078125,197151.44183175,-0.03985553729358084,0.007606520705484321,0.09164390048347971,197151.43832275,-97.07110595703125,-9.4930419921875,-555.4212646484375,197151.44183175,0.8792482464155624,-1.508960241089525,0.2747641726076747,-0.04255157336592674,0.00098770996555686,0.08840494602918625,0.01306360960006714,0.01213416457176208,0.01063525676727295,1,-0.379048079252243,0.5714746117591858,-0.2223021686077118,-0.6930519938468933,-0.9606496691703796,-0.2713199555873871,-0.05947864428162575,0,0,0,-1,197147.3001757917,3,2,1561914432.137712,1561913957.287787,32,0.8918345,0,0,26.32609,0,0,1561914413.669193,197148.947899,0,1.403076,75.29193,3232235528,177845136,1,1,0.53,-25.80622,-34.8335,4
1561914436.322444,3,0,0,1561914435.999159,4.634726922963406,-74.15120319470218,2553.119,0.42,53.7890625,4,30,-9999,1561914436.302595,-20.97068786621094,19.60516357421875,8.09967041015625,12.14863204956055,19.64209938049316,15,197151.47933875,-0.9652252197265625,-0.281219482421875,-0.03839111328125,197151.46209575,-0.07857896480776899,0.03965473494738887,0.05393114260297664,197151.45843375,-96.600830078125,-9.713607788085938,-555.4996337890625,197151.46209575,0.8781520382675655,-1.508437657912556,0.2732309887028335,-0.08127500116825104,0.03303592652082443,0.05069218948483467,0.003131508827209473,-0.01194009184837341,0.01798379421234131,1,-0.3782063126564026,0.5718013048171997,-0.2225243151187897,-0.6931710839271545,-0.9610324501991272,-0.2698439657688141,-0.06000650674104691,0,0,0,-1,197147.3001757917,3,2,1561914432.137712,1561913957.287787,32,0.8918345,0,0,26.32609,0,0,1561914413.669193,197148.947899,0,1.403076,75.29193,3232235528,177845136,1,1,0.53,-26.36349,-35.57712,4
1561914436.354724,4,0,0,1561914435.999159,4.634726922963406,-74.15120319470218,2553.119,0.42,53.7890625,4,30,-9999,1561914436.329982,-20.93029022216797,19.79439163208008,7.7578125,12.30256080627441,19.79602813720703,15,197151.49957175,-0.9608612060546875,-0.2772369384765625,-0.04345703125,197151.48235975,-0.1139135198348313,0.05250581878756623,-0.01563302191487414,197151.47851475,-96.81893920898438,-9.770065307617188,-555.6447143554688,197151.48235975,0.8760328138271375,-1.506876905552583,0.2727583230486118,-0.1166095584630966,0.04588700830936432,-0.0188719742000103,-0.004160463809967041,-0.0118306577205658,0.02312338352203369,1,-0.3772817254066467,0.5717527866363525,-0.2222393006086349,-0.6938060522079468,-0.9610647559165955,-0.2693888247013092,-0.06151450052857399,0,0,0,-1,197147.3001757917,3,2,1561914432.137712,1561913957.287787,32,0.8918345,0,0,26.32609,0,0,1561914413.669193,197148.947899,0,1.403076,75.29193,3232235528,177845136,1,1,0.53,-26.92077,-35.87343,4
1561914436.364744,5,0,0,1561914435.999159,4.634726922963406,-74.15120319470218,2553.119,0.42,53.7890625,4,30,-9999,1561914436.329982,-20.93029022216797,19.79439163208008,7.7578125,12.30256080627441,19.79602813720703,15,197151.51983475,-0.9508819580078125,-0.2576141357421875,-0.0540924072265625,197151.50262275,-0.1338789722110464,0.02363395677779919,-0.05262379682385674,197151.49862575,-96.73297119140625,-9.977691650390625,-555.4278564453125,197151.50262275,0.873298705380664,-1.505557210256143,0.2734914254048064,-0.1365750133991241,0.01701514609158039,-0.05586275085806847,-7.581710815429688e-05,-0.007142186164855957,0.01931285858154297,1,-0.3765793740749359,0.5716668963432312,-0.2212986350059509,-0.6945586800575256,-0.9607853889465332,-0.2700947523117065,-0.06276986747980118,0,0,0,-1,197147.3001757917,3,2,1561914432.137712,1561913957.287787,32,0.8918345,0,0,26.32609,0,0,1561914413.669193,197148.947899,0,1.403076,75.29193,3232235528,177845136,1,1,0.53,-26.92077,-35.87343,4
1561914436.383726,6,0,0,1561914435.999159,4.634726922963406,-74.15120319470218,2553.119,0.42,53.7890625,4,30,-9999,1561914436.366514,-21.16591644287109,19.54034423828125,8.14215087890625,12.50705146789551,20.00051879882812,15,197151.54009875,-0.950408935546875,-0.245361328125,-0.067230224609375,197151.52288675,-0.09814361143992711,0.02081579971227734,-0.01487189047532949,197151.51873675,-96.92491149902344,-9.876388549804688,-555.5262451171875,197151.52288675,0.8705822841090696,-1.504448945787972,0.2741570007529146,-0.1008396446704865,0.01419698819518089,-0.0181108433753252,0.009653806686401367,0.01312139630317688,0.009730339050292969,1,-0.3758855760097504,0.5716630816459656,-0.220345064997673,-0.6952405571937561,-0.9605357646942139,-0.270735502243042,-0.06382270902395248,0,0,0,-1,197151.51434175,2,0,1561914436.351878,1561913957.287787,32,0.8918345,0,0,26.32609,0,0,1561914413.669193,197148.947899,0,1.403076,75.29193,3232235528,177845136,1,1,0.53,-27.47805,-36.09943,4
1561914436.403629,7,0,0,1561914435.999159,4.634726922963406,-74.15120319470218,2553.119,0.42,53.7890625,4,30,-9999,1561914436.366514,-21.16591644287109,19.54034423828125,8.14215087890625,12.50705146789551,20.00051879882812,15,197151.56036275,-0.9499053955078125,-0.24835205078125,-0.07061767578125,197151.54315075,0.02571148874417,-0.0543535199518632,0.03524081175669153,197151.53884775,-96.87274169921875,-9.687042236328125,-555.4090576171875,197151.54315075,0.8697452388620915,-1.504696480192676,0.2738873298761073,0.0230154525488615,-0.06097233295440674,0.03200185671448708,0.0102154016494751,0.02511459589004517,-0.003640472888946533,1,-0.3755903840065002,0.5719588994979858,-0.2200960218906403,-0.6952356696128845,-0.9606243371963501,-0.2704758942127228,-0.06358975917100906,0,0,0,-1,197151.51434175,2,0,1561914436.351878,1561913957.287787,32,0.8918345,0,0,26.32609,0,0,1561914413.669193,197148.947899,0,1.403076,75.29193,3232235528,177845136,1,1,0.53,-28.03533,-36.4378,4
1561914436.434977,8,0,0,1561914435.999159,4.634726922963406,-74.15120319470218,2553.119,0.42,53.7890625,4,30,-9999,1561914436.431056,-21.09060668945312,19.57275390625,8.1519775390625,12.37862396240234,19.87209129333496,15,197151.58062575,-0.9834136962890625,-0.2647247314453125,-0.0645751953125,197151.56338375,0.1160176834121029,-0.128826955623166,0.05175640525681793,197151.55892775,-96.85137939453125,-9.841964721679688,-555.2845458984375,197151.56338375,0.8713228511825766,-1.507386255159192,0.2731978504064815,0.1133216470479965,-0.135445773601532,0.04851745069026947,0.01107233762741089,0.02146002650260925,-0.009600222110748291,1,-0.3761256635189056,0.5727309584617615,-0.2203647643327713,-0.6942247748374939,-0.9609777331352234,-0.2698120772838593,-0.0610174685716629,0,0,0,-1,197151.51434175,2,0,1561914436.351878,1561913957.287787,32,0.8918345,0,0,26.32609,0,0,1561914413.669193,197148.947899,0,1.403076,75.29193,3232235528,177845136,1,1,0.53,-28.59261,-36.75255,4
1561914436.444,9,0,0,1561914435.999159,4.634726922963406,-74.15120319470218,2553.119,0.42,53.7890625,4,30,-9999,1561914436.431056,-21.09060668945312,19.57275390625,8.1519775390625,12.37862396240234,19.87209129333496,15,197151.60088975,-1.0189208984375,-0.27606201171875,-0.081695556640625,197151.58364775,0.122910743261555,0.1419832377242665,0.05860206083886661,197151.57903875,-96.62498474121094,-9.788742065429688,-555.619140625,197151.58364775,0.8740535314810716,-1.508617707925893,0.2723258594422134,0.1202147081494331,0.1353644281625748,0.05536310747265816,-0.02212715148925781,0.004247605800628662,-0.004726588726043701,1,-0.3767754733562469,0.5728140473365784,-0.2213665693998337,-0.6934847235679626,-0.9612865447998047,-0.2689723074436188,-0.05984862148761749,0,0,0,-1,197151.51434175,2,0,1561914436.351878,1561913957.287787,32,0.8918345,0,0,26.32609,0,0,1561914413.669193,197148.947899,0,1.403076,75.29193,3232235528,177845136,1,1,0.53,-29.14989,-37.16495,4
1561914436.464673,10,0,0,1561914435.999159,4.634726922963406,-74.15120319470218,2553.119,0.42,53.7890625,4,30,-9999,1561914436.454561,-20.99941253662109,19.57612991333008,7.8607177734375,12.19631958007812,19.68978691101074,15,197151.62115375,-0.9849853515625,-0.262603759765625,-0.0803070068359375,197151.60391075,0.1200592966824072,0.3786024374167167,0.05725423501117751,197151.59915075,-96.45407104492188,-9.917449951171875,-555.8843994140625,197151.60391075,0.8764735664260924,-1.503784170931604,0.2713001361260795,0.1173632591962814,0.3719836473464966,0.05401528254151344,-0.05765998363494873,-0.008077740669250488,-0.01718276739120483,1,-0.3766142427921295,0.570881187915802,-0.2234529554843903,-0.6944963335990906,-0.9612609148025513,-0.2679842412471771,-0.06451275944709778,0,0,0,-1,197151.51434175,2,0,1561914436.351878,1561913957.287787,32,0.8918345,0,0,26.32609,0,0,1561914413.669193,197148.947899,0,1.403076,75.29193,3232235528,177845136,1,1,0.53,-29.70717,-37.76167,4
1561914436.48455,11,0,0,1561914435.999159,4.634726922963406,-74.15120319470218,2553.119,0.42,53.7890625,4,30,-9999,1561914436.48122,-20.75346374511719,19.78665542602539,7.5479736328125,11.81157302856445,19.30504035949707,15,197151.64141675,-0.957550048828125,-0.2480316162109375,-0.0973052978515625,197151.62417475,0.2620398712455836,0.3938253325237187,0.05097956116684182,197151.61923075,-96.84263610839844,-9.535736083984375,-555.9025268554688,197151.62417475,0.8803793168102602,-1.497028652890894,0.2704815807189765,0.2593438327312469,0.3872065246105194,0.04774060845375061,-0.02396374940872192,0.004591763019561768,-0.009285807609558105,1,-0.3767141103744507,0.5679576396942139,-0.2263503074645996,-0.695899486541748,-0.9610215425491333,-0.2671955525875092,-0.07102119922637939,0,0,0,-1,197151.51434175,2,0,1561914436.351878,1561913957.287787,32,0.8918345,0,0,26.32609,0,0,1561914413.669193,197148.947899,0,1.403076,75.29193,3232235528,177845136,1,1,0.53,-30.26445,-38.24621,4
1561914436.516402,12,0,0,1561914435.999159,4.634726922963406,-74.15120319470218,2553.119,0.42,53.7890625,4,30,-9999,1561914436.505208,-21.16211700439453,19.76816177368164,7.2376708984375,11.33156967163086,18.82503700256348,15,197151.66168075,-0.9415435791015625,-0.2665252685546875,-0.0870819091796875,197151.64443875,0.3345185992604171,0.3263682610603386,-0.0006498113059793341,197151.63934175,-96.80746459960938,-9.63934326171875,-556.272705078125,197151.64443875,0.886792302014033,-1.49147211968976,0.2702530312686963,0.3318225741386414,0.3197494745254517,-0.003888763953000307,0.003123044967651367,0.01894363760948181,-0.02094042301177979,1,-0.3778261244297028,0.5648583769798279,-0.2297055870294571,-0.6967193484306335,-0.9606730937957764,-0.2669752836227417,-0.07636486738920212,0,0,0,-1,197151.51434175,2,0,1561914436.351878,1561913957.287787,32,0.8918345,0,0,26.32609,0,0,1561914413.669193,197148.947899,0,1.403076,75.29193,3232235528,177845136,1,1,0.53,-28.17861,-37.1133,4
1561914436.525006,13,0,0,1561914435.999159,4.634726922963406,-74.15120319470218,2553.119,0.42,53.7890625,4,30,-9999,1561914436.505208,-21.16211700439453,19.76816177368164,7.2376708984375,11.33156967163086,18.82503700256348,15,197151.68191375,-0.9847564697265625,-0.2819061279296875,-0.0833282470703125,197151.66470175,0.2817432685705348,0.296538992638688,-0.0904939475247835,197151.65945275,-96.70701599121094,-9.4737548828125,-556.3711547851562,197151.66470175,0.8933792349848046,-1.487267245940824,0.2719152148049899,0.2790472209453583,0.2899201810359955,-0.09373290091753006,0.01835614442825317,0.00205153226852417,-0.006715357303619385,1,-0.3797096312046051,0.5618160963058472,-0.232258215546608,-0.6973085999488831,-0.9598997831344604,-0.2685767710208893,-0.08036653697490692,0,0,0,-1,197151.51434175,2,0,1561914436.351878,1561913957.287787,32,0.8918345,0,0,26.32609,0,0,1561914413.669193,197148.947899,0,1.403076,75.29193,3232235528,177845136,1,1,0.53,-28.17861,-37.1133,4
1561914436.548175,14,0,0,1561914435.999159,4.634726922963406,-74.15120319470218,2553.119,0.42,53.7890625,4,30,-9999,1561914436.532019,-21.15796661376953,19.90057754516602,7.1156005859375,11.03755569458008,18.5310230255127,15,197151.70217775,-1.003677368164062,-0.282318115234375,-0.0930328369140625,197151.68496575,0.1373868879988987,0.5113772630398162,-0.1272096178931609,197151.67956375,-97.015380859375,-9.541961669921875,-556.8394165039062,197151.68496575,0.8976059361325939,-1.480755132014139,0.2745880244145101,0.1346908509731293,0.5047584772109985,-0.1304485648870468,-0.02611887454986572,-0.01075568795204163,0.003222644329071045,1,-0.3809603452682495,0.5582058429718018,-0.2341073751449585,-0.6989055871963501,-0.9586375951766968,-0.2711504101753235,-0.08655090630054474,0,0,0,-1,197151.51434175,2,0,1561914436.351878,1561913957.287787,32,0.8918345,0,0,26.32609,0,0,1561914413.669193,197148.947899,0,1.403076,75.29193,3232235528,177845136,1,1,0.53,-28.17861,-35.70915,4
1561914436.565586,15,0,0,1561914435.999159,4.634726922963406,-74.15120319470218,2553.119,0.42,53.7890625,4,30,-9999,1561914436.555817,-21.26326751708984,19.85182189941406,6.5015869140625,11.00145721435547,18.49492454528809,15,197151.72244175,-0.96295166015625,-0.2911224365234375,-0.0860443115234375,197151.70522975,0.01087848042075567,0.5872376730068324,-0.09535421651417812,197151.69964475,-97.05682373046875,-9.687118530273438,-556.760498046875,197151.70522975,0.8987550188248251,-1.469650088578285,0.2769898782049662,0.008182443678379059,0.5806188583374023,-0.09859316796064377,-0.04671066999435425,-0.008856594562530518,0.004092216491699219,1,-0.3807198703289032,0.5536152720451355,-0.2358507812023163,-0.702094554901123,-0.9569666981697083,-0.2734615206718445,-0.09712502360343933,0,0,0,-1,197151.51434175,2,0,1561914436.351878,1561913957.287787,32,0.8918345,0,0,26.32609,0,0,1561914413.669193,197148.947899,0,1.403076,75.29193,3232235528,177845136,1,1,0.53,-28.17861,-36.36848,4
1561914436.596205,16,0,0,1561914435.999159,4.634726922963406,-74.15120319470218,2553.119,0.42,53.7890625,4,30,-9999,1561914436.58226,-21.47351837158203,19.6818962097168,6.3795166015625,11.09250259399414,18.58596992492676,15,197151.74270475,-0.927581787109375,-0.287384033203125,-0.087310791015625,197151.72549275,-0.05096997378691753,0.4902325629329141,-0.08631305092946812,197151.71975575,-97.46209716796875,-9.70343017578125,-557.156005859375,197151.72549275,0.8980585491128384,-1.458489633910115,0.2787662089507886,-0.05366601049900055,0.4836137592792511,-0.08955200761556625,-0.007612526416778564,-0.01595273613929749,0.02170002460479736,1,-0.379761666059494,0.5494623780250549,-0.2371582388877869,-0.7054276466369629,-0.9553391337394714,-0.27516970038414,-0.1077443435788155,0,0,0,-1,197151.51434175,2,0,1561914436.351878,1561913957.287787,32,0.8918345,0,0,26.32609,0,0,1561914413.669193,197148.947899,0,1.403076,75.29193,3232235528,177845136,1,1,0.53,-28.17861,-36.88506,4
1561914436.60625,17,0,0,1561914435.999159,4.634726922963406,-74.15120319470218,2553.119,0.42,53.7890625,4,30,-9999,1561914436.58226,-21.47351837158203,19.6818962097168,6.3795166015625,11.09250259399414,18.58596992492676,15,197151.76296875,-0.927642822265625,-0.282135009765625,-0.10150146484375,197151.74572575,-0.04993293885844068,0.2867332335050163,-0.1182568692566415,197151.73986675,-97.27833557128906,-9.746368408203125,-557.32958984375,197151.74572575,0.8965237615434314,-1.450118866059356,0.2805551955252664,-0.05262897536158562,0.2801144421100616,-0.121495820581913,0.02633166313171387,-0.0104948878288269,0.02836716175079346,1,-0.3789078891277313,0.5464337468147278,-0.2376326024532318,-0.7080746293067932,-0.9539135098457336,-0.2768891751766205,-0.1156779453158379,0,0,0,-1,197151.51434175,2,0,1561914436.351878,1561913957.287787,32,0.8918345,0,0,26.32609,0,0,1561914413.669193,197148.947899,0,1.403076,75.29193,3232235528,177845136,1,1,0.53,-28.17861,-37.50374,4
1561914436.626318,18,0,0,1561914435.999159,4.634726922963406,-74.15120319470218,2553.119,0.42,53.7890625,4,30,-9999,1561914436.606422,-21.50502777099609,19.66358947753906,6.1514892578125,11.1606388092041,18.65410614013672,15,197151.78323275,-0.9515838623046875,-0.280975341796875,-0.1086273193359375,197151.76598975,0.04493897918232409,0.1877344810390648,-0.2012841120331699,197151.75994775,-97.34855651855469,-9.769882202148438,-557.4404907226562,197151.76598975,0.8959319660820527,-1.445863056657026,0.2839185705464113,0.04224294051527977,0.1811156719923019,-0.2045230567455292,0.02484035491943359,-0.002015531063079834,0.01811838150024414,1,-0.3792976438999176,0.5443559288978577,-0.2371588200330734,-0.7096235752105713,-0.9524831771850586,-0.2801194787025452,-0.1196198388934135,0,0,0,-1,197151.51434175,2,0,1561914436.351878,1561913957.287787,32,0.8918345,0,0,26.32609,0,0,1561914413.669193,197148.947899,0,1.403076,75.29193,3232235528,177845136,1,1,0.53,-28.17861,-37.88741,4
1561914436.647577,19,0,0,1561914435.999159,4.634726922963406,-74.15120319470218,2553.119,0.42,53.7890625,4,30,-9999,1561914436.633295,-21.87607574462891,19.45184898376465,6.132568359375,11.13419723510742,18.62766456604004,15,197151.80349575,-0.9298248291015625,-0.2884368896484375,-0.11566162109375,197151.78625375,0.02500921316471611,0.2436195849338325,-0.1890463541920378,197151.78005875,-97.54121398925781,-9.88800048828125,-557.51708984375,197151.78625375,0.8964217951823596,-1.441764219081124,0.2881718338710781,0.02231317758560181,0.2370007634162903,-0.1922852993011475,-0.0007891058921813965,0.003224551677703857,0.01474118232727051,1,-0.3802821338176727,0.5419421195983887,-0.2367589324712753,-0.7110762596130371,-0.9507947564125061,-0.2841999232769012,-0.1233684718608856,0,0,0,-1,197151.51434175,2,0,1561914436.351878,1561913957.287787,32,0.8918345,0,0,26.32609,0,0,1561914413.669193,197148.947899,0,1.403076,75.29193,3232235528,177845136,1,1,0.53,-28.17861,-38.49803,4
1561914436.671111,20,0,0,1561914435.999159,4.634726922963406,-74.15120319470218,2553.119,0.42,53.7890625,4,30,-9999,1561914436.657132,-21.81233978271484,19.35785675048828,6.1610107421875,11.18206596374512,18.67553329467773,15,197151.82375975,-0.9280548095703125,-0.2802886962890625,-0.120208740234375,197151.80651675,-0.01335016022845821,0.1999794294151401,-0.1250836163949507,197151.80016975,-97.72731018066406,-9.95068359375,-557.666015625,197151.80651675,0.8957738537048101,-1.437178237770432,0.2912864167199932,-0.0160461962223053,0.1933606117963791,-0.1283225566148758,0.0195123553276062,-0.001252204179763794,0.01194733381271362,1,-0.3805446028709412,0.5397974848747253,-0.236411839723587,-0.7126808762550354,-0.9493371844291687,-0.2871846854686737,-0.1276089549064636,0,0,0,-1,197151.51434175,2,0,1561914436.351878,1561913957.287787,32,0.8918345,0,0,26.32609,0,0,1561914413.669193,197148.947899,0,1.403076,75.29193,3232235528,177845136,1,1,0.53,-28.17861,-38.35958,4
1561914436.687166,21,0,0,1561914435.999159,4.634726922963406,-74.15120319470218,2553.119,0.42,53.7890625,4,30,-9999,1561914436.684269,-21.98027038574219,19.45512390136719,5.7471923828125,11.17396545410156,18.66743278503418,15,197151.84402375,-0.9163665771484375,-0.2888946533203125,-0.129974365234375,197151.82678075,0.02333994379345444,0.1662374447199451,-0.07999922861710826,197151.82028075,-98.03587341308594,-9.960861206054688,-557.75830078125,197151.82678075,0.8956176181555462,-1.433548402669363,0.2933811348163664,0.02064390853047371,0.1596186310052872,-0.08323818445205688,0.02021491527557373,0.008901834487915039,0.01076269149780273,1,-0.3807336390018463,0.538104236125946,-0.2363829463720322,-0.7138689756393433,-0.9482697248458862,-0.2891905307769775,-0.1309714615345001,0,0,0,-1,197151.83917075,3,2,1561914436.676707,1561913957.287787,32,0.8918345,0,0,26.32609,0,0,1561914413.669193,197148.947899,0,1.403076,75.29193,3232235528,177845136,1,1,0.53,-28.17861,-38.35958,4
1561914436.707568,22,0,0,1561914435.999159,4.634726922963406,-74.15120319470218,2553.119,0.42,53.7890625,4,30,-9999,1561914436.684269,-21.98027038574219,19.45512390136719,5.7471923828125,11.17396545410156,18.66743278503418,15,197151.86425675,-0.9001617431640625,-0.30078125,-0.1188507080078125,197151.84704475,0.01050989892588871,0.04108325455610737,-0.1278919197644392,197151.84036075,-97.85977172851562,-9.878005981445312,-557.8370971679688,197151.84704475,0.8957329305521856,-1.431402035817042,0.2953917455371302,0.007813862524926662,0.03446444123983383,-0.1311308592557907,0.03104192018508911,0.002219974994659424,0.00295102596282959,1,-0.3811452984809875,0.5369036793708801,-0.2361962497234344,-0.7146145105361938,-0.9474084973335266,-0.2911146581172943,-0.1329254060983658,0,0,0,-1,197151.83917075,3,2,1561914436.676707,1561913957.287787,32,0.8918345,0,0,26.32609,0,0,1561914413.669193,197148.947899,0,1.403076,75.29193,3232235528,177845136,1,1,0.53,-28.17861,-38.46476,4
1561914436.730475,23,0,0,1561914435.999159,4.634726922963406,-74.15120319470218,2553.119,0.42,53.7890625,4,30,-9999,1561914436.707768,-22.16415405273438,19.23189544677734,5.85333251953125,11.17191505432129,18.66538238525391,15,197151.88451975,-0.8910369873046875,-0.293182373046875,-0.0858306884765625,197151.86730775,0.09537445653846272,-0.2561990263428218,-0.239972385820969,197151.86047275,-97.93710327148438,-10.37911987304688,-557.8600463867188,197151.86730775,0.8959139871218973,-1.433709021228937,0.2991711622434496,0.09267842024564743,-0.2628178298473358,-0.2432113289833069,0.04645431041717529,-0.006052970886230469,0.01173734664916992,1,-0.3826563954353333,0.5369171500205994,-0.234622985124588,-0.7143151164054871,-0.9466160535812378,-0.2947282791137695,-0.1305881142616272,0,0,0,-1,197151.83917075,3,2,1561914436.676707,1561913957.287787,32,0.8918345,0,0,26.32609,0,0,1561914413.669193,197148.947899,0,1.403076,75.29193,3232235528,177845136,1,1,0.53,-28.17861,-38.96447,4
1561914436.754091,24,0,0,1561914435.999159,4.634726922963406,-74.15120319470218,2553.119,0.42,53.7890625,4,30,-9999,1561914436.734106,-22.20249176025391,18.96992111206055,5.97021484375,10.96143341064453,18.45490074157715,15,197151.90478375,-0.9109954833984375,-0.28631591796875,-0.0940093994140625,197151.88757175,0.2577316755501624,-0.4826468148839324,-0.286757734587045,197151.88058375,-98.13233947753906,-10.49331665039062,-557.63134765625,197151.88757175,0.898836101483766,-1.442439780337155,0.3051199271218429,0.2550356388092041,-0.4892656207084656,-0.2899966835975647,0.05492764711380005,0.007225185632705688,0.03626132011413574,1,-0.3863261640071869,0.5382435321807861,-0.2320954352617264,-0.7121641635894775,-0.9459645748138428,-0.3004075586795807,-0.122091993689537,0,0,0,-1,197151.83917075,3,2,1561914436.676707,1561913957.287787,32,0.8918345,0,0,26.32609,0,0,1561914413.669193,197148.947899,0,1.403076,75.29193,3232235528,177845136,1,1,0.53,-28.17861,-39.48518,4
1561914436.768172,25,0,0,1561914435.999159,4.634726922963406,-74.15120319470218,2553.119,0.42,53.7890625,4,30,-9999,1561914436.758361,-22.21308898925781,19.15597152709961,6.12567138671875,10.60097503662109,18.09444236755371,15,197151.92504775,-0.9165191650390625,-0.296783447265625,-0.1099090576171875,197151.90783575,0.2650937180675775,-0.4767644246681654,-0.200984506410536,197151.90066375,-98.20799255371094,-10.29713439941406,-557.409912109375,197151.90783575,0.9040742972373597,-1.454146147473479,0.3110170836450388,0.2623976767063141,-0.4833832085132599,-0.2042234539985657,0.03455734252929688,0.01971113681793213,0.01679253578186035,1,-0.3909242451190948,0.5401641130447388,-0.2297965735197067,-0.7089388966560364,-0.9455528259277344,-0.3060270845890045,-0.1108019277453423,0,0,0,-1,197151.83917075,3,2,1561914436.676707,1561913957.287787,32,0.8918345,0,0,26.32609,0,0,1561914413.669193,197148.947899,0,1.403076,75.29193,3232235528,177845136,1,1,0.53,-28.17861,-40.21735,4
1561914436.788917,26,0,0,1561914435.999159,4.634726922963406,-74.15120319470218,2553.119,0.42,53.7890625,4,30,-9999,1561914436.784837,-22.34951782226562,19.08805847167969,6.14276123046875,10.39882278442383,17.89229011535645,15,197151.94531075,-0.9451446533203125,-0.3202056884765625,-0.0854339599609375,197151.92806875,0.1428293240025847,-0.3368264946610797,-0.1508006977774098,197151.92077475,-98.10722351074219,-10.40303039550781,-557.5477905273438,197151.92806875,0.9078343380053816,-1.463713754937481,0.3149830140809712,0.1401332914829254,-0.3434453010559082,-0.1540396362543106,0.02883642911911011,0.01301684975624084,-0.008289217948913574,1,-0.3942592740058899,0.5419868230819702,-0.2279742062091827,-0.7062844038009644,-0.9453555941581726,-0.3098003268241882,-0.1016198173165321,0,0,0,-1,197151.83917075,3,2,1561914436.676707,1561913957.287787,32,0.8918345,0,0,26.32609,0,0,1561914413.669193,197148.947899,0,1.403076,75.29193,3232235528,177845136,1,1,0.53,-28.17861,-40.44958,4
1561914436.808857,27,0,0,1561914435.999159,4.634726922963406,-74.15120319470218,2553.119,0.42,53.7890625,4,30,-9999,1561914436.784837,-22.34951782226562,19.08805847167969,6.14276123046875,10.39882278442383,17.89229011535645,15,197151.96557475,-0.936798095703125,-0.346160888671875,-0.073638916015625,197151.94833275,0.1161697499103465,-0.2767138888519202,-0.154469202178994,197151.94088575,-98.12654113769531,-10.36396789550781,-557.2337646484375,197151.94833275,0.9101907035538768,-1.470550249500421,0.3181434738843877,0.1134654060006142,-0.283341109752655,-0.1577071100473404,-9.5367431640625e-05,-0.007401943206787109,0.00962221622467041,1,-0.3966434597969055,0.5432733297348022,-0.2264335751533508,-0.7044543027877808,-0.9450492858886719,-0.3128037452697754,-0.09505610913038254,0,0,0,-1,197151.83917075,3,2,1561914436.676707,1561913957.287787,32,0.8918345,0,0,26.32609,0,0,1561914413.669193,197148.947899,0,1.403076,75.29193,3232235528,177845136,1,1,0.53,-26.71856,-30.52993,4
1561914436.83464,28,0,0,1561914435.999159,4.634726922963406,-74.15120319470218,2553.119,0.42,53.7890625,4,30,-9999,1561914436.80904,-22.18009948730469,18.96457290649414,6.08148193359375,10.27762031555176,17.77108764648438,15,197151.98583875,-0.9482421875,-0.3323516845703125,-0.0816802978515625,197151.96859575,0.04139377913921061,-0.3802296288427551,-0.1831421260553321,197151.96099675,-98.07853698730469,-10.39938354492188,-557.3955688476562,197151.96859575,0.9116201415645908,-1.477662374909245,0.3219128584157348,0.03868943825364113,-0.3868568539619446,-0.1863800287246704,0.007722616195678711,-0.02977913618087769,0.01458323001861572,1,-0.3989821672439575,0.5447037220001221,-0.2243009209632874,-0.7027091383934021,-0.9445207118988037,-0.3163817226886749,-0.08822216838598251,0,0,0,-1,197151.83917075,3,2,1561914436.676707,1561913957.287787,32,0.8918345,0,0,26.32609,0,0,1561914413.669193,197148.947899,0,1.403076,75.29193,3232235528,177845136,1,1,0.53,-26.71856,-31.20606,4
1561914436.849266,29,0,0,1561914435.999159,4.634726922963406,-74.15120319470218,2553.119,0.42,53.7890625,4,30,-9999,1561914436.836173,-22.23960113525391,18.73810577392578,6.5001220703125,10.31540679931641,17.80887413024902,15,197152.00610175,-0.9439544677734375,-0.304473876953125,-0.097076416015625,197151.98885975,-0.04134584223958918,-0.4958595560001425,-0.1510233380445405,197151.98107775,-97.84051513671875,-10.650390625,-557.0763549804688,197151.98885975,0.9111201853838834,-1.486511292208243,0.3253231508555682,-0.044050183147192,-0.5024867653846741,-0.1542612463235855,-0.004058480262756348,-0.01273667812347412,-0.001910746097564697,1,-0.4008646309375763,0.5471953749656677,-0.221246749162674,-0.7006672024726868,-0.9441837072372437,-0.3196150064468384,-0.07976953685283661,0,0,0,-1,197151.83917075,3,2,1561914436.676707,1561913957.287787,32,0.8918345,0,0,26.32609,0,0,1561914413.669193,197148.947899,0,1.403076,75.29193,3232235528,177845136,1,1,0.53,-26.71856,-31.20606,4
1561914436.869496,30,0,0,1561914435.999159,4.634726922963406,-74.15120319470218,2553.119,0.42,53.7890625,4,30,-9999,1561914436.859728,-22.33187103271484,18.53788757324219,6.75433349609375,10.30979347229004,17.80326080322266,15,197152.02636575,-0.9614105224609375,-0.30987548828125,-0.096954345703125,197152.00912375,0.04471447470243041,-0.4902797008842085,-0.1511612897890066,197152.00118875,-98.0985107421875,-10.94926452636719,-556.9281616210938,197152.00912375,0.9105154376778846,-1.496880606875108,0.3283506536258611,0.04201013222336769,-0.4969069361686707,-0.154399186372757,3.647804260253906e-05,0.01800835132598877,-0.02717328071594238,1,-0.4027489721775055,0.5503105521202087,-0.2179622501134872,-0.6981719732284546,-0.94399094581604,-0.3224822282791138,-0.06990312039852142,0,0,0,-1,197151.83917075,3,2,1561914436.676707,1561913957.287787,32,0.8918345,0,0,26.32609,0,0,1561914413.669193,197148.947899,0,1.403076,75.29193,3232235528,177845136,1,1,0.53,-26.71856,-31.81595,4
1561914436.889688,31,0,0,1561914435.999159,4.634726922963406,-74.15120319470218,2553.119,0.42,53.7890625,4,30,-9999,1561914436.859728,-22.33187103271484,18.53788757324219,6.75433349609375,10.30979347229004,17.80326080322266,15,197152.04659875,-0.97021484375,-0.3248138427734375,-0.07086181640625,197152.02938675,0.1974060168537965,-0.2424336793004202,-0.1402473893257528,197152.02129975,-98.37921142578125,-11.0296630859375,-556.6819458007812,197152.02938675,0.9129257346032978,-1.505509524638667,0.3316614146191033,0.1947016716003418,-0.2490608990192413,-0.1434852927923203,-0.017922043800354,0.015738844871521,-0.03526937961578369,1,-0.4053398966789246,0.55213862657547,-0.2159714549779892,-0.6958440542221069,-0.9434884786605835,-0.3256143629550934,-0.06168501079082489,0,0,0,-1,197151.83917075,3,2,1561914436.676707,1561913957.287787,32,0.8918345,0,0,26.32609,0,0,1561914413.669193,197148.947899,0,1.403076,75.29193,3232235528,177845136,1,1,0.53,-26.71856,-32.14864,4
1561914436.918263,32,0,0,1561914435.999159,4.634726922963406,-74.15120319470218,2553.119,0.42,53.7890625,4,30,-9999,1561914436.910814,-22.45860290527344,18.4434928894043,6.91644287109375,9.817054748535156,17.31052207946777,15,197152.06686275,-0.9527435302734375,-0.3309173583984375,-0.0513763427734375,197152.04965075,0.1904586285181068,0.05992085821067385,-0.121935227354259,197152.04141075,-98.27070617675781,-10.9481201171875,-556.7437744140625,197152.04965075,0.9170947613080211,-1.508566373406661,0.3345159237893413,0.187754288315773,0.05329364165663719,-0.1251731365919113,-0.02747386693954468,0.0034981369972229,-0.01211929321289062,1,-0.407669872045517,0.5517553687095642,-0.2158593535423279,-0.6948208808898926,-0.9427410364151001,-0.328311949968338,-0.05874257534742355,0,0,0,-1,197151.83917075,3,2,1561914436.676707,1561913957.287787,32,0.8918345,0,0,26.32609,0,0,1561914413.669193,197148.947899,0,1.403076,75.29193,3232235528,177845136,1,1,0.53,-26.71856,-32.67475,4
1561914436.931413,33,0,0,1561914435.999159,4.634726922963406,-74.15120319470218,2553.119,0.42,53.7890625,4,30,-9999,1561914436.910814,-22.45860290527344,18.4434928894043,6.91644287109375,9.817054748535156,17.31052207946777,15,197152.08712675,-0.9351348876953125,-0.3355560302734375,-0.012725830078125,197152.06991475,0.09333767093677012,0.03070038841421544,-0.1019482033732143,197152.06149175,-98.16323852539062,-10.54988098144531,-556.5982666015625,197152.06991475,0.9199155314780845,-1.508235249829829,0.3371499552205535,0.090633325278759,0.0240731704980135,-0.1051861047744751,-0.01088833808898926,-0.0001184940338134766,0.007624149322509766,1,-0.4091929197311401,0.5505096912384033,-0.2160388976335526,-0.6948578953742981,-0.9418551921844482,-0.3307988345623016,-0.05900046974420547,0,0,0,-1,197151.83917075,3,2,1561914436.676707,1561913957.287787,32,0.8918345,0,0,26.32609,0,0,1561914413.669193,197148.947899,0,1.403076,75.29193,3232235528,177845136,1,1,0.53,-26.71856,-33.27411,4
1561914436.950577,34,0,0,1561914435.999159,4.634726922963406,-74.15120319470218,2553.119,0.42,53.7890625,4,30,-9999,1561914436.936739,-22.45179748535156,18.66751289367676,6.81982421875,9.726951599121094,17.22041893005371,15,197152.10738975,-0.9245758056640625,-0.337127685546875,-0.0015869140625,197152.09017775,0.05985933918949302,-0.1297095272084183,-0.09981075028231672,197152.08160275,-98.04273986816406,-10.87814331054688,-556.6038818359375,197152.09017775,0.921166291481891,-1.509654837474699,0.339266640393,0.05715499818325043,-0.1363367438316345,-0.1030486524105072,0.006102085113525391,-0.002760410308837891,0.04489463567733765,1,-0.4103171229362488,0.5502995848655701,-0.215484693646431,-0.6945334076881409,-0.9412370324134827,-0.3327956199645996,-0.05762045085430145,0,0,0,-1,197151.83917075,3,2,1561914436.676707,1561913957.287787,32,0.8918345,0,0,26.32609,0,0,1561914413.669193,197148.947899,0,1.403076,75.29193,3232235528,177845136,1,1,0.53,-26.71856,-33.9319,4
1561914436.970782,35,0,0,1561914435.999159,4.634726922963406,-74.15120319470218,2553.119,0.42,53.7890625,4,30,-9999,1561914436.963502,-22.45601654052734,18.74438285827637,6.873046875,9.65431022644043,17.14777755737305,15,197152.12765375,-0.93109130859375,-0.3328857421875,-0.0183258056640625,197152.11041175,0.05491384904521587,-0.2558759849025952,-0.0820578521397395,197152.10171375,-98.17982482910156,-10.73446655273438,-556.6107177734375,197152.11041175,0.9222397623846079,-1.514291236485177,0.3411506489792294,0.05220950767397881,-0.2625032067298889,-0.08529575169086456,0.01629054546356201,-0.002556025981903076,0.05163347721099854,1,-0.4116672873497009,0.5512892603874207,-0.2142823338508606,-0.6933205127716064,-0.9408663511276245,-0.3345716595649719,-0.05322039127349854,0,0,0,-1,197151.83917075,3,2,1561914436.676707,1561913957.287787,32,0.8918345,0,0,26.32609,0,0,1561914413.669193,197148.947899,0,1.403076,75.29193,3232235528,177845136,1,1,0.53,-26.71856,-34.23866,4
1561914436.993799,36,0,0,1561914435.999159,4.634726922963406,-74.15120319470218,2553.119,0.42,53.7890625,4,30,-9999,1561914436.987534,-22.4368896484375,18.5853385925293,7.0543212890625,9.629524230957031,17.12299156188965,15,197152.14791775,-0.949798583984375,-0.334136962890625,-0.036163330078125,197152.13067475,0.02728381905175279,-0.1747406517644591,-0.0721293212798151,197152.12182475,-98.15899658203125,-10.65031433105469,-556.5186767578125,197152.13067475,0.9229608702244776,-1.519177056715703,0.3427423619220529,0.02457947842776775,-0.1813678741455078,-0.07536722719669342,0.009490728378295898,0.003185480833053589,0.03026950359344482,1,-0.4128565788269043,0.5524959564208984,-0.2129982113838196,-0.6920472383499146,-0.9405820369720459,-0.3360712230205536,-0.04859532788395882,0,0,0,-1,197151.83917075,3,2,1561914436.676707,1561913957.287787,32,0.8918345,0,0,26.32609,0,0,1561914413.669193,197148.947899,0,1.403076,75.29193,3232235528,177845136,1,1,0.53,-26.71856,-34.63736,4
1561914437.014864,37,0,0,1561914435.999159,4.634726922963406,-74.15120319470218,2553.119,0.42,53.7890625,4,30,-9999,1561914436.987534,-22.4368896484375,18.5853385925293,7.0543212890625,9.629524230957031,17.12299156188965,15,197152.16818075,-0.9485931396484375,-0.3390045166015625,-0.0423583984375,197152.15093875,-0.03869919274826843,0.0896638402130058,-0.03491217767817575,197152.14193575,-98.25553894042969,-10.63800048828125,-556.7267456054688,197152.15093875,0.9228465704291724,-1.520443792468441,0.3439147981622228,-0.04140353202819824,0.0830366238951683,-0.03815007954835892,-0.009549796581268311,0.003038227558135986,0.01122069358825684,1,-0.4133038520812988,0.5527096390724182,-0.2123084664344788,-0.6918216347694397,-0.9402487874031067,-0.3371752202510834,-0.04738396033644676,0,0,0,-1,197151.83917075,3,2,1561914436.676707,1561913957.287787,32,0.8918345,0,0,26.32609,0,0,1561914413.669193,197148.947899,0,1.403076,75.29193,3232235528,177845136,1,1,0.53,-26.71856,-34.63736,4
1561914437.031677,38,0,0,1561914435.999159,4.634726922963406,-74.15120319470218,2553.119,0.42,53.7890625,4,30,-9999,1561914437.013858,-22.380859375,18.45097732543945,7.04498291015625,9.731941223144531,17.22540855407715,15,197152.18844475,-0.93060302734375,-0.3380279541015625,-0.0296783447265625,197152.17120275,-0.1086894630405319,0.188214382667497,-0.006524744670694134,197152.16201675,-98.01644897460938,-10.86146545410156,-556.6472778320312,197152.17120275,0.9210500025501757,-1.516685150841294,0.3441320495941908,-0.1113938093185425,0.1815871596336365,-0.009762648493051529,-0.008602380752563477,-0.001624792814254761,0.008555293083190918,1,-0.4124725759029388,0.5517331957817078,-0.2123904079198837,-0.6930708289146423,-0.9399908185005188,-0.3373797535896301,-0.05091371014714241,0,0,0,-1,197151.83917075,3,2,1561914436.676707,1561913957.287787,32,0.8918345,0,0,26.32609,0,0,1561914413.669193,197148.947899,0,1.403076,75.29193,3232235528,177845136,1,1,0.53,-26.71856,-31.9082,4
1561914437.051927,39,0,0,1561914436.99924,4.634726922963406,-74.15120319470218,2553.111,0,327.65625,4,30,-9999,1561914437.038092,-22.51625823974609,18.57441329956055,7.05255126953125,9.903833389282227,17.39730072021484,15,197152.20870875,-0.92144775390625,-0.324859619140625,-0.0249786376953125,197152.19146575,-0.1002256707801511,0.1296472092389105,-0.01551451124636561,197152.18212775,-98.47885131835938,-10.96435546875,-556.4419555664062,197152.19146575,0.9186454598838354,-1.512952533685095,0.3444298211313203,-0.1029300168156624,0.1230199933052063,-0.01875241473317146,0.009090721607208252,-0.0003679096698760986,0.02473783493041992,1,-0.4115012884140015,0.5508707761764526,-0.2122267037630081,-0.6943830251693726,-0.9396937489509583,-0.3376600444316864,-0.05441615357995033,0,0,0,-1,197151.83917075,3,2,1561914436.676707,1561913957.287787,32,0.8918345,0,0,26.32609,0,0,1561914413.669193,197148.947899,0,1.403076,75.29193,3232235528,177845136,1,1,0.53,-26.71856,-32.41284,4
1561914437.075624,40,0,0,1561914436.99924,4.634726922963406,-74.15120319470218,2553.111,0,327.65625,4,30,-9999,1561914437.067082,-22.65727233886719,18.5373420715332,7.00390625,10.02150535583496,17.51497268676758,15,197152.22894175,-0.930755615234375,-0.326324462890625,-0.0466461181640625,197152.21172975,-0.06922487779497467,0.0511771677197257,0.03614868337229955,197152.20223875,-98.64735412597656,-10.82855224609375,-556.78662109375,197152.21172975,0.916767184720932,-1.510661775918814,0.3442224072859159,-0.07192922383546829,0.04454994946718216,0.0329107791185379,0.01818889379501343,0.01260516047477722,0.03159415721893311,1,-0.410679817199707,0.5505049228668213,-0.2121136337518692,-0.6951936483383179,-0.9396366477012634,-0.3374648094177246,-0.05657283589243889,0,0,0,-1,197151.83917075,3,2,1561914436.676707,1561913957.287787,32,0.8918345,0,0,26.32609,0,0,1561914413.669193,197148.947899,0,1.403076,75.29193,3232235528,177845136,1,1,0.53,-15.87256,-26.04825,4
1561914437.092355,41,0,0,1561914436.99924,4.634726922963406,-74.15120319470218,2553.111,0,327.65625,4,30,-9999,1561914437.088734,-22.64451599121094,18.49497985839844,7.01934814453125,10.05426979064941,17.54773712158203,15,197152.24920475,-0.9765777587890625,-0.3438262939453125,-0.0589447021484375,197152.23199375,-0.0141025032364056,0.05500146704507948,0.08322351774886719,197152.22234975,-98.37858581542969,-10.74522399902344,-556.5441284179688,197152.23199375,0.9158938880364101,-1.509839129874188,0.3430355620357451,-0.01680684462189674,0.04837425053119659,0.079985611140728,0.009233415126800537,0.0100228488445282,0.01072406768798828,1,-0.4100009799003601,0.5506488084793091,-0.2123709172010422,-0.6954019069671631,-0.9399890303611755,-0.3363473415374756,-0.05737017095088959,0,0,0,-1,197151.83917075,3,2,1561914436.676707,1561913957.287787,32,0.8918345,0,0,26.32609,0,0,1561914413.669193,197148.947899,0,1.403076,75.29193,3232235528,177845136,1,1,0.53,-11.80234,-14.17747,4
1561914437.114326,42,0,0,1561914436.99924,4.634726922963406,-74.15120319470218,2553.111,0,327.65625,4,30,-9999,1561914437.088734,-22.64451599121094,18.49497985839844,7.01934814453125,10.05426979064941,17.54773712158203,15,197152.26946875,-1.00823974609375,-0.3707733154296875,-0.078460693359375,197152.25225675,-0.06917267983760912,0.2330340522329856,0.1575518111407607,197152.24243075,-98.41201782226562,-10.98043823242188,-556.62109375,197152.25225675,0.9154044396296498,-1.507091404336796,0.3405533418668272,-0.07187702506780624,0.2264068275690079,0.1543139070272446,-0.03591978549957275,-0.009817600250244141,0.001061081886291504,1,-0.4088380336761475,0.5503168106079102,-0.2135823220014572,-0.695978045463562,-0.9406579732894897,-0.3340086936950684,-0.06000573933124542,0,0,0,-1,197151.83917075,3,2,1561914436.676707,1561913957.287787,32,0.8918345,0,0,26.32609,0,0,1561914413.669193,197148.947899,0,1.403076,75.29193,3232235528,177845136,1,1,0.53,-11.55901,-14.71062,4
1561914437.132888,43,0,0,1561914436.99924,4.634726922963406,-74.15120319470218,2553.111,0,327.65625,4,30,-9999,1561914437.114762,-22.67795562744141,18.51541709899902,6.93182373046875,10.23273086547852,17.72619819641113,15,197152.28973275,-1.042068481445312,-0.351043701171875,-0.0870208740234375,197152.27252075,-0.2857731639320427,0.4505922090554116,0.2943410857910457,197152.26254175,-98.22383117675781,-10.83406066894531,-556.825927734375,197152.27252075,0.9121055714462412,-1.499370016865703,0.3361123450483479,-0.2884775102138519,0.4439649879932404,0.291103184223175,-0.06660276651382446,-0.0409538745880127,-0.01108849048614502,1,-0.4057804942131042,0.5492322444915771,-0.2154669165611267,-0.698040246963501,-0.9416369795799255,-0.3298194706439972,-0.06737226247787476,0,0,0,-1,197151.83917075,3,2,1561914436.676707,1561913957.287787,32,0.8918345,0,0,26.32609,0,0,1561914413.669193,197148.947899,0,1.403076,75.29193,3232235528,177845136,1,1,0.53,-11.55901,-15.5491,4
1561914437.153384,44,0,0,1561914436.99924,4.634726922963406,-74.15120319470218,2553.111,0,327.65625,4,30,-9999,1561914437.1395,-22.66592407226562,18.73635673522949,6.61175537109375,10.85173797607422,18.34520530700684,15,197152.30999575,-0.951385498046875,-0.2883148193359375,-0.07135009765625,197152.29275375,-0.5725679164582399,0.9865624331815647,0.5333249062153772,197152.28265275,-98.33367919921875,-10.80097961425781,-557.0321044921875,197152.29275375,0.9036427998935067,-1.483395944023962,0.3269772906783657,-0.575272262096405,0.9799352288246155,0.5300869941711426,-0.09866571426391602,-0.02986174821853638,-0.004356503486633301,1,-0.3989767134189606,0.5472525954246521,-0.2187073975801468,-0.7024950385093689,-0.9434027671813965,-0.3211819529533386,-0.08266435563564301,0,0,0,-1,197151.83917075,3,2,1561914436.676707,1561913957.287787,32,0.8918345,0,0,26.32609,0,0,1561914413.669193,197149.893211,0,1.403076,75.29193,3232235528,177845136,1,1,0.53,-11.55901,-15.5491,4
1561914437.173445,45,0,0,1561914436.99924,4.634726922963406,-74.15120319470218,2553.111,0,327.65625,4,30,-9999,1561914437.163766,-22.66764831542969,18.76552200317383,6.41607666015625,11.8823356628418,19.37580299377441,15,197152.33025975,-0.9044189453125,-0.2776947021484375,-0.1500091552734375,197152.31301775,-0.775440870397751,1.446515653468605,0.4820041941128963,197152.30276375,-98.37550354003906,-10.6558837890625,-557.1271362304688,197152.31301775,0.8900655362148858,-1.453270138155441,0.3150952812086069,-0.7781451940536499,1.439888477325439,0.4787662923336029,-0.007177233695983887,0.02159225940704346,0.04013288021087646,1,-0.3883004784584045,0.5417391061782837,-0.2236848026514053,-0.7111305594444275,-0.9442083239555359,-0.3099070489406586,-0.1114829555153847,0,0,0,-1,197151.83917075,3,2,1561914436.676707,1561913957.287787,32,0.8918345,0,0,26.32609,0,0,1561914413.669193,197149.893211,0,1.403076,75.29193,3232235528,177845136,1,1,0.53,-11.55901,-16.3486,4
1561914437.193718,46,0,0,1561914436.99924,4.634726922963406,-74.15120319470218,2553.111,0,327.65625,4,30,-9999,1561914437.190053,-22.54283905029297,18.77004623413086,6.251220703125,12.73033714294434,20.22380447387695,15,197152.35052375,-0.8563232421875,-0.2808380126953125,-0.1421356201171875,197152.33328075,-0.6254255388258055,1.179916983069023,0.2783450750195937,197152.32287475,-98.42070007324219,-10.62538146972656,-557.3156127929688,197152.33328075,0.8755288138946824,-1.42110328116471,0.3052616205641556,-0.6281298398971558,1.173289775848389,0.2751071751117706,0.03868341445922852,0.02284801006317139,-0.007769227027893066,1,-0.3776637315750122,0.5350235104560852,-0.2277771532535553,-0.7205814719200134,-0.9431024193763733,-0.3005427122116089,-0.142239898443222,0,0,0,-1,197151.83917075,3,2,1561914436.676707,1561913957.287787,32,0.8918345,0,0,26.32609,0,0,1561914413.669193,197149.893211,0,1.403076,75.29193,3232235528,177845136,1,1,0.53,-11.55901,-17.22365,4
1561914437.214146,47,0,0,1561914436.99924,4.634726922963406,-74.15120319470218,2553.111,0,327.65625,4,30,-9999,1561914437.190053,-22.54283905029297,18.77004623413086,6.251220703125,12.73033714294434,20.22380447387695,15,197152.3708039167,-0.881195068359375,-0.267547607421875,-0.1476287841796875,197152.3535619167,-0.2348806881328465,0.522157739132457,0.06902700492598179,197152.3429719167,-98.34811401367188,-10.52674865722656,-557.993408203125,197152.3535619167,0.8670830750145558,-1.401398824261633,0.3008076184016595,-0.2375850230455399,0.515530526638031,0.06578910350799561,0.08510339260101318,0.01545366644859314,0.01888281106948853,1,-0.3717327415943146,0.5303824543952942,-0.2298157811164856,-0.7264253497123718,-0.9414266347885132,-0.2962916493415833,-0.1610184460878372,0,0,0,-1,197151.83917075,3,2,1561914436.676707,1561913957.287787,32,0.8918345,0,0,26.32609,0,0,1561914413.669193,197149.893211,0,1.403076,75.29193,3232235528,177845136,1,1,0.53,-11.55901,-18.17837,4
1561914437.234422,48,0,0,1561914436.99924,4.634726922963406,-74.15120319470218,2553.111,0,327.65625,4,30,-9999,1561914437.214332,-22.60636901855469,18.82545852661133,5.99383544921875,12.98973655700684,20.48320388793945,15,197152.3910679167,-0.889862060546875,-0.2657318115234375,-0.1384735107421875,197152.3738259167,-0.06298189556761093,-0.0644767278874724,0.07690490174654518,197152.3630839167,-98.22688293457031,-10.46951293945312,-557.7305297851562,197152.3738259167,0.8645403289968974,-1.396683040717522,0.2991566876501319,-0.06568624079227448,-0.07110394537448883,0.07366699725389481,0.05994224548339844,0.02716681361198425,0.01791191101074219,1,-0.3699829876422882,0.5294735431671143,-0.2302823960781097,-0.727832555770874,-0.9411373138427734,-0.2947144508361816,-0.1655407100915909,0,0,0,-1,197151.83917075,3,2,1561914436.676707,1561913957.287787,32,0.8918345,0,0,26.32609,0,0,1561914413.669193,197149.893211,0,1.403076,75.29193,3232235528,177845136,1,1,0.53,-11.55901,-19.22368,4
1561914437.2545,49,0,0,1561914436.99924,4.634726922963406,-74.15120319470218,2553.111,0,327.65625,4,30,-9999,1561914437.241227,-22.62119293212891,18.9605884552002,5.81658935546875,13.0757007598877,20.56916809082031,15,197152.4113009167,-0.9130401611328125,-0.2740631103515625,-0.1652069091796875,197152.3940889167,-0.1013934669181508,-0.1465678695408379,0.1749997773385238,197152.3831949167,-98.31512451171875,-10.43896484375,-557.867919921875,197152.3940889167,0.8634565450137213,-1.399177412055521,0.2965391211532024,-0.1040978133678436,-0.1531950831413269,0.1717618703842163,0.05244225263595581,0.02648031711578369,0.02485036849975586,1,-0.369135320186615,0.5311093926429749,-0.2302458137273788,-0.727082371711731,-0.942304253578186,-0.2922121286392212,-0.163323849439621,0,0,0,-1,197151.83917075,3,2,1561914436.676707,1561913957.287787,32,0.8918345,0,0,26.32609,0,0,1561914413.669193,197149.893211,0,1.403076,75.29193,3232235528,177845136,1,1,0.53,-11.55901,-20.27031,4
1561914437.274709,50,0,0,1561914436.99924,4.634726922963406,-74.15120319470218,2553.111,0,327.65625,4,30,-9999,1561914437.264946,-22.446044921875,19.02205467224121,5.92169189453125,13.2732982635498,20.76676559448242,15,197152.4315649167,-0.929443359375,-0.2814483642578125,-0.1590728759765625,197152.4143529167,-0.1772789105994137,-0.005876531261368847,0.2018553600869919,197152.4033059167,-98.33914184570312,-10.41641235351562,-557.5634155273438,197152.4143529167,0.8610233612246577,-1.400445640071712,0.2922305691097138,-0.1799832433462143,-0.01250374875962734,0.1986174583435059,0.03070253133773804,0.01402583718299866,-0.002866268157958984,1,-0.3672383725643158,0.5328842997550964,-0.2304760813713074,-0.7266712188720703,-0.9437426924705505,-0.2880889475345612,-0.1623405963182449,0,0,0,-1,197151.83917075,3,2,1561914436.676707,1561913957.287787,32,0.8918345,0,0,26.32609,0,0,1561914413.669193,197149.893211,0,1.403076,75.29193,3232235528,177845136,1,1,0.53,-11.55901,-21.31243,4
1561914437.297284,51,0,0,1561914436.99924,4.634726922963406,-74.15120319470218,2553.111,0,327.65625,4,30,-9999,1561914437.291176,-22.41700744628906,19.12404823303223,5.88653564453125,13.5141773223877,21.00764465332031,15,197152.4518289167,-0.9224090576171875,-0.2828521728515625,-0.1674041748046875,197152.4346169167,-0.2003964804418465,0.143781670408397,0.2133825865492909,197152.4234169167,-98.42359924316406,-10.35108947753906,-557.704833984375,197152.4346169167,0.8577820250873319,-1.3981143451985,0.2873758712251981,-0.2031008154153824,0.1371544450521469,0.2101446837186813,0.0152849555015564,0.001988351345062256,0.005705833435058594,1,-0.3645285069942474,0.5336006283760071,-0.2312421947717667,-0.7272663712501526,-0.9447283148765564,-0.2834366858005524,-0.1647786796092987,0,0,0,-1,197151.83917075,3,2,1561914436.676707,1561913957.287787,32,0.8918345,0,0,26.32609,0,0,1561914413.669193,197149.893211,0,1.403076,75.29193,3232235528,177845136,1,1,0.53,-11.55901,-22.36885,4
1561914437.315459,52,0,0,1561914436.99924,4.634726922963406,-74.15120319470218,2553.111,0,327.65625,4,30,-9999,1561914437.291176,-22.41700744628906,19.12404823303223,5.88653564453125,13.5141773223877,21.00764465332031,15,197152.4720919167,-0.9072265625,-0.276336669921875,-0.1640472412109375,197152.4548799167,-0.1682806219082539,0.139982138481181,0.1721712339447507,197152.4435279167,-98.14297485351562,-10.16647338867188,-557.433349609375,197152.4548799167,0.8545075865676189,-1.39411939949857,0.2829459272968164,-0.1709849536418915,0.1333549171686172,0.1689333319664001,0.0228801965713501,-0.003666520118713379,0.001366317272186279,1,-0.3617479503154755,0.533622682094574,-0.2321580946445465,-0.7283459305763245,-0.9452892541885376,-0.2791856527328491,-0.168770506978035,0,0,0,-1,197151.83917075,3,2,1561914436.676707,1561913957.287787,32,0.8918345,0,0,26.32609,0,0,1561914413.669193,197149.893211,0,1.403076,75.29193,3232235528,177845136,1,1,0.53,-11.55901,-22.36885,4
1561914437.335517,53,0,0,1561914436.99924,4.634726922963406,-74.15120319470218,2553.111,0,327.65625,4,30,-9999,1561914437.315666,-22.55760955810547,19.36159515380859,6.03216552734375,13.71319007873535,21.20665740966797,15,197152.4923559167,-0.8992462158203125,-0.2704315185546875,-0.1573944091796875,197152.4751139167,-0.1250423373980544,-0.007747135611040504,0.1609984742235413,197152.4636389167,-98.11451721191406,-10.170654296875,-557.6397705078125,197152.4751139167,0.8519119538122596,-1.392035183390887,0.2792610579167541,-0.1277466714382172,-0.01437435299158096,0.1577605754137039,0.03871488571166992,-0.0006912350654602051,0.00687485933303833,1,-0.359607458114624,0.5340612530708313,-0.2327357679605484,-0.7288999557495117,-0.9459415078163147,-0.2756454050540924,-0.170922115445137,0,0,0,-1,197151.83917075,3,2,1561914436.676707,1561913957.287787,32,0.8918345,0,0,26.32609,0,0,1561914413.669193,197149.893211,0,1.403076,75.29193,3232235528,177845136,1,1,0.53,-11.55901,-23.36306,4
1561914437.355864,54,0,0,1561914436.99924,4.634726922963406,-74.15120319470218,2553.111,0,327.65625,4,30,-9999,1561914437.342622,-21.98828887939453,19.3994197845459,6.0885009765625,13.8365306854248,21.32999801635742,15,197152.5126199167,-0.912933349609375,-0.2697906494140625,-0.1654205322265625,197152.4953769167,-0.1020105213427222,-0.1200100282022407,0.186869220000898,197152.4837199167,-98.0040283203125,-9.946365356445312,-557.535888671875,197152.4953769167,0.8502244425797937,-1.393114397925837,0.2754687623240866,-0.1047148630023003,-0.1266372501850128,0.1836313158273697,0.04790115356445312,0.001566529273986816,0.01269024610519409,1,-0.3580390214920044,0.5355051159858704,-0.2331073582172394,-0.7284938097000122,-0.9471473693847656,-0.2719980478286743,-0.1700846552848816,0,0,0,-1,197151.83917075,3,2,1561914436.676707,1561913957.287787,32,0.8918345,0,0,26.32609,0,0,1561914413.669193,197149.893211,0,1.403076,75.29193,3232235528,177845136,1,1,0.53,-11.55901,-24.38818,4
1561914437.391663,55,0,0,1561914436.99924,4.634726922963406,-74.15120319470218,2553.111,0,327.65625,4,30,-9999,1561914437.366356,-21.87950897216797,19.31767082214355,6.452392578125,13.98610687255859,21.47957420349121,15,197152.5328829167,-0.926849365234375,-0.2725677490234375,-0.1649169921875,197152.5156409167,-0.1560910672828522,-0.07445825565308939,0.2418288754168632,197152.5038309167,-97.9241943359375,-9.929840087890625,-557.1151733398438,197152.5156409167,0.848474600484331,-1.395144985564084,0.2708026039873241,-0.1587954014539719,-0.08108547329902649,0.2385909706354141,0.03579676151275635,-0.002285778522491455,0.002960443496704102,1,-0.3562757968902588,0.5374728441238403,-0.2335600405931473,-0.7277637720108032,-0.9487301111221313,-0.267504870891571,-0.1683809906244278,0,0,0,-1,197151.83917075,3,2,1561914436.676707,1561913957.287787,32,0.8918345,0,0,26.32609,0,0,1561914413.669193,197149.893211,0,1.403076,75.29193,3232235528,177845136,1,1,0.53,-11.55901,-26.19105,4
1561914437.410357,56,0,0,1561914436.99924,4.634726922963406,-74.15120319470218,2553.111,0,327.65625,4,30,-9999,1561914437.366356,-21.87950897216797,19.31767082214355,6.452392578125,13.98610687255859,21.47957420349121,15,197152.5531469167,-0.9310150146484375,-0.2619171142578125,-0.163787841796875,197152.5359049167,-0.1697448278755795,-0.05025864345975737,0.224579048404202,197152.5239419167,-97.74205017089844,-9.910018920898438,-557.3982543945312,197152.5359049167,0.8456470669900426,-1.395484937816537,0.2654876885170937,-0.1724491566419601,-0.05688586086034775,0.221341148018837,0.02332454919815063,-0.01018783450126648,0.003387093544006348,1,-0.3538083434104919,0.5391359925270081,-0.2341252416372299,-0.7275557518005371,-0.9501739144325256,-0.262379914522171,-0.1683040708303452,0,0,0,-1,197151.83917075,3,2,1561914436.676707,1561913957.287787,32,0.8918345,0,0,26.32609,0,0,1561914413.669193,197149.893211,0,1.403076,75.29193,3232235528,177845136,1,1,0.53,-11.55901,-27.10359,4
1561914437.416429,57,0,0,1561914436.99924,4.634726922963406,-74.15120319470218,2553.111,0,327.65625,4,30,-9999,1561914437.415045,-21.92283630371094,19.53100204467773,6.279052734375,14.16936874389648,21.6628360748291,15,197152.5734109167,-0.922119140625,-0.2593231201171875,-0.167449951171875,197152.5561679167,-0.09207613152839958,-0.1862170118499376,0.2203302412010896,197152.5641329167,-97.71492004394531,-9.706451416015625,-556.8635864257812,197152.5561679167,0.8437505410986095,-1.397307177735466,0.2607823838256024,-0.09478047490119934,-0.1928442269563675,0.2170923352241516,0.02066957950592041,-0.004080533981323242,0.002995789051055908,1,-0.3519614636898041,0.5410465002059937,-0.2345785945653915,-0.7268869876861572,-0.9516845941543579,-0.2578365504741669,-0.1667836308479309,0,0,0,-1,197151.83917075,3,2,1561914436.676707,1561913957.287787,32,0.8918345,0,0,26.32609,0,0,1561914413.669193,197149.893211,0,1.403076,75.29193,3232235528,177845136,1,1,0.53,-11.55901,-27.10359,4
1561914437.436624,58,0,0,1561914436.99924,4.634726922963406,-74.15120319470218,2553.111,0,327.65625,4,30,-9999,1561914437.415045,-21.92283630371094,19.53100204467773,6.279052734375,14.16936874389648,21.6628360748291,15,197152.5936439167,-0.9485015869140625,-0.2617950439453125,-0.1755523681640625,197152.5764319167,-0.01325508537754238,-0.3924546035106549,0.1971676639362344,197152.5842439167,-97.27267456054688,-9.58843994140625,-557.015625,197152.5764319167,0.8432071752962367,-1.403135908108272,0.2564170331192821,-0.01595942676067352,-0.399081826210022,0.1939297616481781,0.03162211179733276,-0.005706757307052612,-0.006029963493347168,1,-0.3510618507862091,0.5441007018089294,-0.2347174137830734,-0.7249950170516968,-0.9537412524223328,-0.2536163628101349,-0.161420002579689,0,0,0,-1,197151.83917075,3,2,1561914436.676707,1561913957.287787,32,0.8918345,0,0,26.32609,0,0,1561914413.669193,197149.893211,0,1.403076,75.29193,3232235528,177845136,1,1,0.53,-11.55901,-27.80917,4
1561914437.480561,59,0,0,1561914436.99924,4.634726922963406,-74.15120319470218,2553.111,0,327.65625,4,30,-9999,1561914437.467827,-21.32318115234375,19.66462707519531,6.85845947265625,13.93601989746094,21.42948722839355,15,197152.6139079167,-0.990814208984375,-0.2590484619140625,-0.18402099609375,197152.5966959167,0.1240263414421892,-0.4617364729529572,0.1418623302107769,197152.6043559167,-97.25881958007812,-9.757049560546875,-556.6972045898438,197152.5966959167,0.8449401639820233,-1.412841432178836,0.2533736407141043,0.1213219985365868,-0.4683637022972107,0.1386244297027588,0.007519185543060303,-0.01112371683120728,-0.02327567338943481,1,-0.3516753911972046,0.5478923916816711,-0.2345907837152481,-0.7218763828277588,-0.9560207724571228,-0.2506712973117828,-0.1522766947746277,0,0,0,-1,197151.83917075,3,2,1561914436.676707,1561913957.287787,32,0.8918345,0,0,26.32609,0,0,1561914413.669193,197149.893211,0,1.403076,75.29193,3232235528,177845136,1,1,0.53,-11.55901,-29.11791,4
1561914437.482671,60,0,0,1561914436.99924,4.634726922963406,-74.15120319470218,2553.111,0,327.65625,4,30,-9999,1561914437.467827,-21.32318115234375,19.66462707519531,6.85845947265625,13.93601989746094,21.42948722839355,15,197152.6341709167,-0.9930419921875,-0.2668304443359375,-0.1784515380859375,197152.6169589167,0.0869412906306178,-0.1864282005243809,0.1131614431429929,197152.6244669167,-96.90350341796875,-9.589065551757812,-556.6376953125,197152.6169589167,0.8477749693572935,-1.420465552468031,0.2512725234992818,0.08423694223165512,-0.1930554211139679,0.1099235415458679,-0.03314149379730225,-0.01041176915168762,-0.03895890712738037,1,-0.3526623845100403,0.5505435466766357,-0.234929084777832,-0.7192631363868713,-0.957672655582428,-0.2486367225646973,-0.1450620889663696,0,0,0,-1,197151.83917075,3,2,1561914436.676707,1561913957.287787,32,0.8918345,0,0,26.32609,0,0,1561914413.669193,197149.893211,0,1.403076,75.29193,3232235528,177845136,1,1,0.53,-11.55901,-29.11791,4
1561914437.497612,61,0,0,1561914436.99924,4.634726922963406,-74.15120319470218,2553.111,0,327.65625,4,30,-9999,1561914437.493976,-21.2613525390625,19.65494346618652,6.86749267578125,13.89320373535156,21.38667106628418,15,197152.6544349167,-0.9807586669921875,-0.24786376953125,-0.149078369140625,197152.6372229167,0.02544464000294407,0.01556883973260323,0.0534120925065202,197152.6445779167,-97.09393310546875,-9.871185302734375,-556.6130981445312,197152.6372229167,0.8488652609980065,-1.422161102256496,0.2499056033990015,0.02274029888212681,0.008941622450947762,0.05017418786883354,-0.03478962182998657,-0.0195179283618927,-0.03496325016021729,1,-0.3527166247367859,0.5512230396270752,-0.2354517728090286,-0.7185447812080383,-0.9582523703575134,-0.2473125010728836,-0.1434882879257202,0,0,0,-1,197151.83917075,3,2,1561914436.676707,1561913957.287787,32,0.8918345,0,0,26.32609,0,0,1561914413.669193,197149.893211,0,1.403076,75.29193,3232235528,177845136,1,1,0.53,-11.55901,-29.11791,4
1561914437.517996,62,0,0,1561914436.99924,4.634726922963406,-74.15120319470218,2553.111,0,327.65625,4,30,-9999,1561914437.493976,-21.2613525390625,19.65494346618652,6.86749267578125,13.89320373535156,21.38667106628418,15,197152.6746989167,-0.941925048828125,-0.237152099609375,-0.1362457275390625,197152.6574559167,0.01640347441823406,-0.09874894795570212,0.0888097644514174,197152.6646579167,-97.03268432617188,-9.59637451171875,-556.77197265625,197152.6574559167,0.8493182696469891,-1.422561928786801,0.2486047838930854,0.01369913201779127,-0.105376161634922,0.08557186275720596,-0.02213162183761597,-0.0018119215965271,-0.005926787853240967,1,-0.3524650037288666,0.5515366196632385,-0.2359528988599777,-0.7182630896568298,-0.9586270451545715,-0.2460518777370453,-0.1431515514850616,0,0,0,-1,197151.83917075,3,2,1561914436.676707,1561913957.287787,32,0.8918345,0,0,26.32609,0,0,1561914413.669193,197149.893211,0,1.403076,75.29193,3232235528,177845136,1,1,0.53,-11.55901,-29.31818,4
1561914437.55182,63,0,0,1561914436.99924,4.634726922963406,-74.15120319470218,2553.111,0,327.65625,4,30,-9999,1561914437.545874,-20.93933868408203,19.76903915405273,7.103515625,13.57316207885742,21.06662940979004,15,197152.6949619167,-0.9290924072265625,-0.2263641357421875,-0.123016357421875,197152.6777199167,0.1085560386699189,-0.5029377055453551,0.1209439987965315,197152.6847689167,-96.86129760742188,-9.551513671875,-556.7227783203125,197152.6777199167,0.8507338154789018,-1.4288259997384,0.2468773434173242,0.1058516949415207,-0.5095648765563965,0.1177060976624489,0.01799923181533813,0.007225066423416138,0.0009580850601196289,1,-0.353033185005188,0.5538643002510071,-0.2358996719121933,-0.7162074446678162,-0.9599242806434631,-0.2443771809339523,-0.1372038125991821,0,0,0,-1,197151.83917075,3,2,1561914436.676707,1561913957.287787,32,0.8918345,0,0,26.32609,0,0,1561914413.669193,197149.893211,0,1.403076,75.29193,3232235528,177845136,1,1,0.53,-11.55901,-30.19779,4
1561914437.558509,64,0,0,1561914436.99924,4.634726922963406,-74.15120319470218,2553.111,0,327.65625,4,30,-9999,1561914437.545874,-20.93933868408203,19.76903915405273,7.103515625,13.57316207885742,21.06662940979004,15,197152.7152259167,-0.9657135009765625,-0.2355804443359375,-0.1305999755859375,197152.6979829167,0.1859456357348585,-0.8478522204370055,0.1880993341084056,197152.7048799167,-97.00166320800781,-9.239822387695312,-556.0947265625,197152.6979829167,0.8541574405461461,-1.443799433038916,0.2441531693268803,0.1832412928342819,-0.8544794321060181,0.1848614364862442,0.03343552350997925,0.01537057757377625,-0.0001168251037597656,1,-0.3548682630062103,0.5591232180595398,-0.2353335022926331,-0.7113844752311707,-0.9625279307365417,-0.2417346984148026,-0.1228994876146317,0,0,0,-1,197151.83917075,3,2,1561914436.676707,1561913957.287787,32,0.8918345,0,0,26.32609,0,0,1561914413.669193,197149.893211,0,1.403076,75.29193,3232235528,177845136,1,1,0.53,-11.55901,-30.19779,4
1561914437.578835,65,0,0,1561914436.99924,4.634726922963406,-74.15120319470218,2553.111,0,327.65625,4,30,-9999,1561914437.568904,-20.83113861083984,20.01288986206055,7.3763427734375,13.31322288513184,20.80669021606445,15,197152.7354899167,-1.021560668945312,-0.2314605712890625,-0.138214111328125,197152.7182469167,0.1315031662025867,-0.5362317465451988,0.2367558198563713,197152.7249909167,-96.84335327148438,-9.328094482421875,-556.1007690429688,197152.7182469167,0.858229265979903,-1.45984678185916,0.2405980958653096,0.1287988275289536,-0.5428589582443237,0.2335179150104523,-0.000489354133605957,0.002703100442886353,-0.02306723594665527,1,-0.3567581176757812,0.5647630095481873,-0.2350538074970245,-0.7060567140579224,-0.9652241468429565,-0.2382835298776627,-0.1075327768921852,0,0,0,-1,197151.83917075,3,2,1561914436.676707,1561913957.287787,32,0.8918345,0,0,26.32609,0,0,1561914413.669193,197149.893211,0,1.403076,75.29193,3232235528,177845136,1,1,0.53,-11.55901,-30.42666,4
1561914437.598978,66,0,0,1561914436.99924,4.634726922963406,-74.15120319470218,2553.111,0,327.65625,4,30,-9999,1561914437.595423,-20.77404022216797,19.8496208190918,7.56402587890625,13.14136123657227,20.63482856750488,15,197152.7557529167,-0.9993133544921875,-0.229217529296875,-0.114471435546875,197152.7385109167,0.071790034556939,-0.09236401924223715,0.2690993786631656,197152.7450719167,-96.20475769042969,-9.531478881835938,-556.0394287109375,197152.7385109167,0.8605550091864602,-1.466168442394773,0.2356141845888394,0.06908568739891052,-0.09899123758077621,0.2658614814281464,-0.05450701713562012,0.001979678869247437,-0.0366625189781189,1,-0.356569916009903,0.5675227642059326,-0.236340343952179,-0.7035048007965088,-0.9670537114143372,-0.2334402501583099,-0.1015516147017479,0,0,0,-1,197151.83917075,3,2,1561914436.676707,1561913957.287787,32,0.8918345,0,0,26.32609,0,0,1561914413.669193,197149.893211,0,1.403076,75.29193,3232235528,177845136,1,1,0.53,-11.55901,-30.77075,4
1561914437.631999,67,0,0,1561914436.99924,4.634726922963406,-74.15120319470218,2553.111,0,327.65625,4,30,-9999,1561914437.619559,-20.20486450195312,20.08380126953125,7.6376953125,12.73843765258789,20.23190498352051,15,197152.7759859167,-0.938720703125,-0.2139129638671875,-0.0811614990234375,197152.7587739167,0.2088970243252704,-0.2134571550598131,0.3002767392286143,197152.7651829167,-96.06283569335938,-9.32281494140625,-555.9267578125,197152.7587739167,0.8638621065110986,-1.469039416321101,0.2303172582262384,0.2061926871538162,-0.2200843691825867,0.2970388233661652,-0.03075569868087769,-0.0009311139583587646,-0.01557242870330811,1,-0.3561618626117706,0.5689457058906555,-0.2386866062879562,-0.7017678022384644,-0.9685577154159546,-0.2282864153385162,-0.09889902174472809,0,0,0,-1,197151.83917075,3,2,1561914436.676707,1561913957.287787,32,0.8918345,0,0,26.32609,0,0,1561914413.669193,197149.893211,0,1.403076,75.29193,3232235528,177845136,1,1,0.53,-11.55901,-31.06212,4
1561914437.639387,68,0,0,1561914436.99924,4.634726922963406,-74.15120319470218,2553.111,0,327.65625,4,30,-9999,1561914437.619559,-20.20486450195312,20.08380126953125,7.6376953125,12.73843765258789,20.23190498352051,15,197152.7962499167,-1.035049438476562,-0.2140045166015625,-0.05523681640625,197152.7790379167,0.2983683179914635,-0.6286695353496311,0.3171886110989445,197152.7852939167,-96.05670166015625,-8.9556884765625,-555.8651733398438,197152.7790379167,0.8701103894106312,-1.479724540083845,0.2243090576634123,0.2956639528274536,-0.6352967619895935,0.3139507174491882,0.03218698501586914,0.008519798517227173,0.007506072521209717,1,-0.3573170900344849,0.5727047324180603,-0.2408930063247681,-0.6973552703857422,-0.9709076881408691,-0.2224327772855759,-0.08866757154464722,0,0,0,-1,197151.83917075,3,2,1561914436.676707,1561913957.287787,32,0.8918345,0,0,26.32609,0,0,1561914413.669193,197149.893211,0,1.403076,75.29193,3232235528,177845136,1,1,0.53,-11.55901,-31.06212,4
1561914437.659647,69,0,0,1561914436.99924,4.634726922963406,-74.15120319470218,2553.111,0,327.65625,4,30,-9999,1561914437.646137,-20.05284118652344,20.44183731079102,7.7618408203125,12.19673156738281,19.69019889831543,15,197152.8165139167,-1.143463134765625,-0.3140106201171875,-0.033721923828125,197152.7993019167,0.2848916576112265,-0.5951347445872444,0.3846781731276235,197152.8054049167,-95.842041015625,-8.763519287109375,-555.8076782226562,197152.7993019167,0.8780549397897049,-1.494813543793397,0.2175017756026878,0.2821873128414154,-0.6017619371414185,0.381440281867981,-0.06142723560333252,0.001786410808563232,0.01888442039489746,1,-0.3592797815799713,0.5778039693832397,-0.2431397289037704,-0.6913346648216248,-0.97362220287323,-0.2157909274101257,-0.07412122189998627,0,0,0,-1,197151.83917075,3,2,1561914436.676707,1561913957.287787,32,0.8918345,0,0,26.32609,0,0,1561914413.669193,197149.893211,0,1.403076,75.29193,3232235528,177845136,1,1,0.53,-11.55901,-31.55804,4
1561914437.680101,70,0,0,1561914436.99924,4.634726922963406,-74.15120319470218,2553.111,0,327.65625,4,30,-9999,1561914437.670121,-19.97698211669922,20.54814147949219,7.8963623046875,12.36010932922363,19.85357666015625,15,197152.8367769167,-1.38189697265625,-0.6956939697265625,0.20257568359375,197152.8195649167,-0.1998848871964423,-0.4158318315593704,-0.3215226394569394,197152.8255159167,-95.73274230957031,-8.962814331054688,-555.459228515625,197152.8195649167,0.879653907731514,-1.504687642698165,0.2152640929637419,-0.2025892287492752,-0.4224590659141541,-0.3247605264186859,-0.1686770915985107,-0.1004051864147186,0.03081393241882324,1,-0.3602406978607178,0.5813421607017517,-0.2426386475563049,-0.6880366206169128,-0.9747860431671143,-0.2136054337024689,-0.06453586369752884,0,0,0,-1,197151.83917075,3,2,1561914436.676707,1561913957.287787,32,0.8918345,0,0,26.32609,0,0,1561914413.669193,197149.893211,0,1.403076,75.29193,3232235528,177845136,1,1,0.53,-11.55901,-32.01059,4
1561914437.713285,71,0,0,1561914436.99924,4.634726922963406,-74.15120319470218,2553.111,0,327.65625,4,30,-9999,1561914437.698082,-20.10485076904297,20.04893493652344,8.1492919921875,15.07079887390137,22.56426620483398,15,197152.8570409167,-1.678482055664062,-0.87255859375,0.3759613037109375,197152.8397989167,-1.477302860934357,-0.9040065699179803,-2.355848811882852,197152.8455969167,-96.39898681640625,-10.06703186035156,-554.7249755859375,197152.8397989167,0.8624115018658083,-1.513652468023989,0.2399675976202218,-1.480007290840149,-0.9106337428092957,-2.359086751937866,-0.4121368527412415,-0.458022803068161,0.258051872253418,1,-0.3639754951000214,0.5829097032546997,-0.2270224541425705,-0.6900716423988342,-0.9697601199150085,-0.2376711517572403,-0.05547623336315155,0,0,0,-1,197151.83917075,3,2,1561914436.676707,1561913957.287787,32,0.8918345,0,0,26.32609,0,0,1561914413.669193,197149.893211,0,1.403076,75.29193,3232235528,177845136,1,1,0.53,-11.55901,-33.32196,4
1561914437.720623,72,0,0,1561914436.99924,4.634726922963406,-74.15120319470218,2553.111,0,327.65625,4,30,-9999,1561914437.698082,-20.10485076904297,20.04893493652344,8.1492919921875,15.07079887390137,22.56426620483398,15,197152.8773049167,-1.854324340820312,-0.805938720703125,0.2093048095703125,197152.8600619167,-4.306317900536569,-0.9882844331424099,-5.165462989259947,197152.8657079167,-98.24250793457031,-13.03805541992188,-553.0294189453125,197152.8600619167,0.799145077417181,-1.517517185575044,0.3116031086897211,-4.309021949768066,-0.9949116110801697,-5.168700695037842,-0.7279893159866333,-0.5659736394882202,0.4266507029533386,1,-0.3681516349315643,0.5823398232460022,-0.1805403083562851,-0.7019615173339844,-0.9504927396774292,-0.3065849244594574,-0.05068940669298172,0,0,0,-1,197151.83917075,3,2,1561914436.676707,1561913957.287787,32,0.8918345,0,0,26.32609,0,0,1561914413.669193,197149.893211,0,1.403076,75.29193,3232235528,177845136,1,1,0.53,-11.55901,-33.32196,4
1561914437.741225,73,0,0,1561914436.99924,4.634726922963406,-74.15120319470218,2553.111,0,327.65625,4,30,-9999,1561914437.720826,-23.26906585693359,14.94053077697754,11.20428466796875,23.34779167175293,30.84125900268555,15,197152.8975679167,-1.933517456054688,-0.4631805419921875,0.0487823486328125,197152.8803259167,-6.654953540606941,0.1981410493146584,-8.073886302033378,197152.8858189167,-100.4670715332031,-18.40144348144531,-551.1065063476562,197152.8803259167,0.6683388181035613,-1.47831230250173,0.4391173912536782,-6.657657623291016,0.1915138363838196,-8.077123641967773,-0.9530652761459351,-0.3807979822158813,0.2928953170776367,1,-0.3677050173282623,0.5683289170265198,-0.09796678274869919,-0.7295188307762146,-0.9012590646743774,-0.425140768289566,-0.08359052240848541,0,0,0,-1,197151.83917075,3,2,1561914436.676707,1561913957.287787,32,0.8918345,0,0,26.32609,0,0,1561914413.669193,197149.893211,0,1.403076,75.29193,3232235528,177845136,1,1,0.53,-11.55901,-33.92302,4
1561914437.760992,74,0,0,1561914436.99924,4.634726922963406,-74.15120319470218,2553.111,0,327.65625,4,30,-9999,1561914437.747418,-25.45227813720703,8.988868713378906,12.6278076171875,37.83971405029297,45.33318328857422,15,197152.9178319167,-1.647048950195312,-0.21270751953125,0.1344757080078125,197152.9005899167,-7.761877805570746,1.380525983765858,-9.932742915504477,197152.9058999167,-102.8752593994141,-25.45368957519531,-550.8570556640625,197152.9005899167,0.4681114577077432,-1.360697790080861,0.5991331733241855,-7.764581680297852,1.37389874458313,-9.935980796813965,-1.125852346420288,0.1007462739944458,0.2210133075714111,1,-0.3625447452068329,0.5314563512802124,0.008320887573063374,-0.7655364871025085,-0.8076650500297546,-0.5639268159866333,-0.1722309142351151,0,0,0,-1,197151.83917075,3,2,1561914436.676707,1561913957.287787,32,0.8918345,0,0,26.32609,0,0,1561914413.669193,197149.893211,0,1.403076,75.29193,3232235528,177845136,1,1,0.53,-11.55901,-34.54239,4
1561914437.79146,75,0,0,1561914436.99924,4.634726922963406,-74.15120319470218,2553.111,0,327.65625,4,30,-9999,1561914437.771439,-27.01451873779297,1.48106575012207,12.67510986328125,59.91651153564453,67.40998077392578,15,197152.9380959167,-1.569778442382812,0.048492431640625,0.001861572265625,197152.9208529167,-7.749092501809494,1.798650264391569,-11.66384875674891,197152.9260109167,-103.0068511962891,-33.39305114746094,-551.7781982421875,197152.9208529167,0.1864649031601655,-1.151584248130121,0.7601313646281648,-7.751796722412109,1.792023062705994,-11.66708660125732,-0.9850592613220215,0.4763091206550598,0.4294767379760742,1,-0.3568876683712006,0.4744793772697449,0.1286076158285141,-0.7943302392959595,-0.661989688873291,-0.6890166401863098,-0.2950010299682617,0,0,0,-1,197151.83917075,3,2,1561914436.676707,1561913957.287787,32,0.8918345,0,0,26.32609,0,0,1561914413.669193,197149.893211,0,1.403076,75.29193,3232235528,177845136,1,1,0.53,-11.55901,-31.45255,4
1561914437.801489,76,0,0,1561914436.99924,4.634726922963406,-74.15120319470218,2553.111,0,327.65625,4,30,-9999,1561914437.798186,-26.91654205322266,-6.691978454589844,11.33905029296875,87.51350402832031,95.00697326660156,15,197152.9583289167,-0.838287353515625,0.121917724609375,-0.368316650390625,197152.9411169167,-6.056492241502079,1.995759072467713,-11.67857177651931,197152.9461219167,-101.5989379882812,-40.9998779296875,-553.579345703125,197152.9411169167,-0.1847845944175705,-0.837809199512237,0.885504975307963,-6.059196472167969,1.989131808280945,-11.681809425354,-1.099421381950378,0.8227270841598511,0.4253293871879578,1,-0.3558053970336914,0.4020803570747375,0.2496807426214218,-0.805849552154541,-0.4703570306301117,-0.7742347121238708,-0.4234678149223328,0,0,0,-1,197151.83917075,3,2,1561914436.676707,1561913957.287787,32,0.8918345,0,0,26.32609,0,0,1561914413.669193,197149.893211,0,1.403076,75.29193,3232235528,177845136,1,1,0.53,-11.55901,-31.45255,4
1561914437.821912,77,0,0,1561914436.99924,4.634726922963406,-74.15120319470218,2553.111,0,327.65625,4,30,-9999,1561914437.798186,-26.91654205322266,-6.691978454589844,11.33905029296875,87.51350402832031,95.00697326660156,15,197152.9785929167,-0.0092010498046875,-0.0874481201171875,-0.662841796875,197152.9613809167,-2.412364286007642,0.4954688702682279,-10.22436118539703,197152.9662019167,-98.85308837890625,-46.96318054199219,-554.8029174804688,197152.9613809167,-0.5623006391771243,-0.5094481829077095,0.9569155933822062,-2.415079355239868,0.4888308048248291,-10.22759819030762,-0.5573532581329346,0.9393364191055298,0.134577751159668,1,-0.3659974634647369,0.3385242521762848,0.3498147428035736,-0.7931436896324158,-0.2809341251850128,-0.8174186944961548,-0.502894401550293,0,0,0,-1,197151.83917075,3,2,1561914436.676707,1561913957.287787,32,0.8918345,0,0,26.32609,0,0,1561914413.669193,197149.893211,0,1.403076,75.29193,3232235528,177845136,1,1,0.53,-11.55901,-22.62429,4
1561914437.842118,78,0,0,1561914436.99924,4.634726922963406,-74.15120319470218,2553.111,0,327.65625,4,30,-9999,1561914437.822084,-21.97286987304688,-18.73089981079102,8.94781494140625,111.9275436401367,119.421012878418,15,197152.9988559167,0.1746978759765625,-0.2079315185546875,-0.782806396484375,197152.9816439167,0.0931587065115168,-0.8455219544831862,-8.146409504838415,197152.9863139167,-95.58303833007812,-50.665283203125,-554.36083984375,197152.9816439167,-0.8919168689873169,-0.2408440985132352,1.007018056024184,0.09044366329908371,-0.8521599769592285,-8.149645805358887,0.1182614266872406,0.7577940225601196,-0.143882155418396,1,-0.3867749273777008,0.3015382885932922,0.4273520112037659,-0.7595064640045166,-0.1274624764919281,-0.8452420830726624,-0.518959641456604,0,0,0,-1,197151.83917075,3,2,1561914436.676707,1561913957.287787,32,0.8918345,0,0,26.32609,0,0,1561914413.669193,197149.893211,0,1.403076,75.29193,3232235528,177845136,1,1,0.53,-11.55901,-17.31611,4
1561914437.880075,79,0,0,1561914436.99924,4.634726922963406,-74.15120319470218,2553.111,0,327.65625,4,30,-9999,1561914437.872923,-16.65038299560547,-23.50485992431641,9.86956787109375,141.4794158935547,148.9728851318359,15,197153.0191199167,0.3970947265625,-0.286712646484375,-0.721527099609375,197153.0019079167,1.192270322101465,-0.386074202171043,-5.415827295970513,197153.0063939167,-92.94692993164062,-52.50382995605469,-554.1654052734375,197153.0019079167,-1.151596188611759,-0.03396430466638805,1.040632714153547,1.189555287361145,-0.3927122354507446,-5.419064044952393,0.1918694376945496,0.6547927856445312,-0.2774235606193542,1,-0.4089095592498779,0.2830221652984619,0.4794586896896362,-0.7230565547943115,-0.01717158034443855,-0.8627243638038635,-0.5053828358650208,0,0,0,-1,197151.83917075,3,2,1561914436.676707,1561913957.287787,32,0.8918345,0,0,26.32609,0,0,1561914413.669193,197149.893211,0,1.403076,75.29193,3232235528,177845136,1,1,0.53,-11.55901,-19.01515,4
1561914437.883506,80,0,0,1561914436.99924,4.634726922963406,-74.15120319470218,2553.111,0,327.65625,4,30,-9999,1561914437.872923,-16.65038299560547,-23.50485992431641,9.86956787109375,141.4794158935547,148.9728851318359,15,197153.0393839167,0.4033966064453125,-0.4576263427734375,-0.4660797119140625,197153.0221409167,1.470722189880771,0.35895150436524,-3.178898746771841,197153.0265049167,-91.38308715820312,-53.38414001464844,-553.2686767578125,197153.0221409167,-1.325525003947825,0.1181528277034929,1.064738990943192,1.468007206916809,0.3523134589195251,-3.182135343551636,0.3399553894996643,0.587949812412262,-0.2401741743087769,1,-0.4307229220867157,0.2716639339923859,0.5055952072143555,-0.6964552402496338,0.05713934823870659,-0.874662458896637,-0.4813529551029205,0,0,0,-1,197151.83917075,3,2,1561914436.676707,1561913957.287787,32,0.8918345,0,0,26.32609,0,0,1561914413.669193,197149.893211,0,1.403076,75.29193,3232235528,177845136,1,1,0.53,-11.55901,-19.01515,4
1561914437.903673,81,0,0,1561914436.99924,4.634726922963406,-74.15120319470218,2553.111,0,327.65625,4,30,-9999,1561914437.872923,-16.65038299560547,-23.50485992431641,9.86956787109375,141.4794158935547,148.9728851318359,15,197153.0596469167,0.21527099609375,-0.6086578369140625,-0.2422332763671875,197153.0424049167,1.51267470021668,0.3877112472931147,-2.050002071234338,197153.0466159167,-90.15170288085938,-53.73968505859375,-552.65625,197153.0424049167,-1.44299411987933,0.2289373524345009,1.086175346309673,1.509959697723389,0.3810732066631317,-2.0532386302948,0.2976701259613037,0.4272252321243286,-0.01236224174499512,1,-0.4500574469566345,0.265686959028244,0.5174548029899597,-0.6775686144828796,0.1057264879345894,-0.8848515748977661,-0.4537174701690674,0,0,0,-1,197151.83917075,3,2,1561914436.676707,1561913957.287787,32,0.8918345,0,0,26.32609,0,0,1561914413.669193,197149.893211,0,1.403076,75.29193,3232235528,177845136,1,1,0.53,-11.55901,-19.8478,4
1561914437.923574,82,0,0,1561914436.99924,4.634726922963406,-74.15120319470218,2553.111,0,327.65625,4,30,-9999,1561914437.912939,-15.19614410400391,-24.14723587036133,10.51019287109375,130.3378448486328,137.8313140869141,15,197153.0799109167,0.2220458984375,-0.66973876953125,-0.1864471435546875,197153.0626679167,1.37889080285655,0.3177316296452116,-1.855834990898295,197153.0666969167,-89.32000732421875,-53.939453125,-551.7320556640625,197153.0626679167,-1.541104594613069,0.3236156997726304,1.103470247793127,1.376175761222839,0.3110935688018799,-1.859071493148804,0.07201328873634338,0.2841181755065918,0.1848827600479126,1,-0.466752290725708,0.2618860006332397,0.5248382687568665,-0.661893367767334,0.1432577073574066,-0.8927760720252991,-0.4271160364151001,0,0,0,-1,197151.83917075,3,2,1561914436.676707,1561913957.287787,32,0.8918345,0,0,26.32609,0,0,1561914413.669193,197149.893211,0,1.403076,75.29193,3232235528,177845136,1,1,0.53,-11.55901,-20.15985,4
1561914437.951652,83,0,0,1561914436.99924,4.634726922963406,-74.15120319470218,2553.111,0,327.65625,4,30,-9999,1561914437.949955,-12.58331298828125,-24.85991668701172,12.1822509765625,130.7237701416016,138.2172393798828,15,197153.1001749167,0.313140869140625,-0.6410980224609375,-0.2212371826171875,197153.0829319167,1.377344837843759,-0.01126037772107303,-1.754656441080114,197153.0868079167,-88.45196533203125,-54.17164611816406,-551.3995971679688,197153.0829319167,-1.642523879802164,0.4181334895663838,1.116415975133757,1.374629855155945,-0.01789841800928116,-1.757892966270447,0.04382592439651489,0.2287944555282593,0.2146459817886353,1,-0.481867641210556,0.2593395709991455,0.5324761867523193,-0.6457674503326416,0.1782199740409851,-0.8985331654548645,-0.4010931253433228,0,0,0,-1,197151.83917075,3,2,1561914436.676707,1561913957.287787,32,0.8918345,0,0,26.32609,0,0,1561914413.669193,197149.893211,0,1.403076,75.29193,3232235528,177845136,1,1,0.53,-6.332391,-9.115945,4
1561914437.963711,84,0,0,1561914436.99924,4.634726922963406,-74.15120319470218,2553.111,0,327.65625,4,30,-9999,1561914437.949955,-12.58331298828125,-24.85991668701172,12.1822509765625,130.7237701416016,138.2172393798828,15,197153.1204379167,0.41162109375,-0.652313232421875,-0.2790069580078125,197153.1031959167,0.9258713887836398,0.09037463790794796,-0.8442343160961329,197153.1069189167,-88.26707458496094,-54.43556213378906,-550.896728515625,197153.1031959167,-1.723420271814284,0.4905293592022338,1.1259806184824,0.9231563210487366,0.0837365910410881,-0.8474708199501038,0.1104335784912109,0.261591911315918,0.158315896987915,1,-0.492967426776886,0.2592422962188721,0.5382305979728699,-0.6325222253799438,0.2027072757482529,-0.9026899933815002,-0.3795531094074249,0,0,0,-1,197151.83917075,3,2,1561914436.676707,1561913957.287787,32,0.8918345,0,0,26.32609,0,0,1561914413.669193,197149.893211,0,1.403076,75.29193,3232235528,177845136,1,1,0.53,-6.332391,-9.115945,4
1561914437.983951,85,0,0,1561914436.99924,4.634726922963406,-74.15120319470218,2553.111,0,327.65625,4,30,-9999,1561914437.97428,-12.22979736328125,-24.80171966552734,12.68310546875,130.6669616699219,138.1604309082031,15,197153.1406709167,0.3135833740234375,-0.712677001953125,-0.232025146484375,197153.1234599167,0.4383943986306307,0.1752991166450487,-0.004310858856511263,197153.1270299167,-87.96391296386719,-53.78558349609375,-550.9315185546875,197153.1234599167,-1.755127071619785,0.5222068900231965,1.133560791249021,0.4356793463230133,0.1686610728502274,-0.007547413930296898,0.2004133760929108,0.2536125183105469,0.08799433708190918,1,-0.4989902675151825,0.2598231434822083,0.5383440256118774,-0.627444326877594,0.2112077474594116,-0.9059256911277771,-0.3670012950897217,0,0,0,-1,197151.83917075,3,2,1561914436.676707,1561913957.287787,32,0.8918345,0,0,26.32609,0,0,1561914413.669193,197149.893211,0,1.403076,75.29193,3232235528,177845136,1,1,0.53,-6.332391,-9.250237,4
1561914438.004273,86,0,0,1561914436.99924,4.634726922963406,-74.15120319470218,2553.111,0,327.65625,4,30,-9999,1561914438.000653,-12.22525787353516,-24.51825332641602,13.04913330078125,130.6727600097656,138.1662292480469,15,197153.1609349167,0.260955810546875,-0.7686309814453125,-0.2243499755859375,197153.1437229167,0.1029301108671265,0.08551862997629747,0.2526391789137129,197153.1471109167,-88.07493591308594,-53.65965270996094,-550.7885131835938,197153.1437229167,-1.754627758190302,0.5247736997131197,1.139801127656968,0.1002150699496269,0.07888058573007584,0.2494026124477386,0.104270875453949,0.1958733797073364,0.129533052444458,1,-0.5010338425636292,0.2611244916915894,0.5358631014823914,-0.627399206161499,0.2093124985694885,-0.9085504412651062,-0.3615581691265106,0,0,0,-1,197151.83917075,3,2,1561914436.676707,1561913957.287787,32,0.8918345,0,0,26.32609,0,0,1561914413.669193,197149.893211,0,1.403076,75.29193,3232235528,177845136,1,1,0.53,-6.332391,-9.920289,4
1561914438.047802,87,0,0,1561914436.99924,4.634726922963406,-74.15120319470218,2553.111,0,327.65625,4,30,-9999,1561914438.000653,-12.22525787353516,-24.51825332641602,13.04913330078125,130.6727600097656,138.1662292480469,15,197153.1811989167,0.184326171875,-0.8067474365234375,-0.2554779052734375,197153.1639869167,0.1356315985244275,-0.3612125281307173,0.07582232676342797,197153.1672219167,-87.9893798828125,-53.87335205078125,-550.5438232421875,197153.1639869167,-1.749034946435715,0.5165247621039956,1.143231516058339,0.1329165548086166,-0.3678505718708038,0.07258576899766922,0.05617329478263855,0.1413472294807434,0.1362103223800659,1,-0.5002683401107788,0.2635364532470703,0.5352476835250854,-0.6275268793106079,0.2047825306653976,-0.9099782109260559,-0.3605602383613586,0,0,0,-1,197151.83917075,3,2,1561914436.676707,1561913957.287787,32,0.8918345,0,0,26.32609,0,0,1561914413.669193,197149.893211,0,1.403076,75.29193,3232235528,177845136,1,1,0.53,-6.332391,-11.79927,4
1561914438.050296,88,0,0,1561914436.99924,4.634726922963406,-74.15120319470218,2553.111,0,327.65625,4,30,-9999,1561914438.000653,-12.22525787353516,-24.51825332641602,13.04913330078125,130.6727600097656,138.1662292480469,15,197153.2014619167,0.210205078125,-0.8175506591796875,-0.33184814453125,197153.1842509167,0.1007391282383183,-0.3814962282571968,-0.07546200106794025,197153.1873329167,-87.86393737792969,-53.75735473632812,-550.3998413085938,197153.1842509167,-1.752676346442292,0.5117059564177345,1.145238144259027,0.09802408516407013,-0.3881342709064484,-0.07869855314493179,-0.01782199740409851,0.1040610074996948,0.1044722199440002,1,-0.4989104866981506,0.2666707038879395,0.5370515584945679,-0.625740110874176,0.2021481990814209,-0.9108084440231323,-0.3599501252174377,0,0,0,-1,197151.83917075,3,2,1561914436.676707,1561913957.287787,32,0.8918345,0,0,26.32609,0,0,1561914413.669193,197149.893211,0,1.403076,75.29193,3232235528,177845136,1,1,0.53,-6.332391,-11.79927,4
1561914438.065096,89,0,0,1561914437.999315,4.634726922963406,-74.15120319470218,2553.116,0,343.828125,4,30,-9999,1561914438.054967,-12.15695190429688,-24.42370223999023,13.1746826171875,131.2869567871094,138.7804260253906,15,197153.2217259167,0.266998291015625,-0.7954864501953125,-0.41064453125,197153.2044839167,0.0587328220483895,-0.2592563352742328,0.08697191698315371,197153.2074129167,-87.80061340332031,-53.82281494140625,-549.96337890625,197153.2044839167,-1.755836030199265,0.507709739309414,1.146314518928164,0.05601777881383896,-0.2658943831920624,0.08373536169528961,0.009973764419555664,0.09370160102844238,0.02804994583129883,1,-0.4976357817649841,0.269090324640274,0.5387445688247681,-0.6242621541023254,0.2002313435077667,-0.9112522602081299,-0.3598980605602264,0,0,0,-1,197151.83917075,3,2,1561914436.676707,1561913957.287787,32,0.8918345,0,0,26.32609,0,0,1561914413.669193,197149.893211,0,1.403076,75.29193,3232235528,177845136,1,1,0.53,-6.332391,-12.83354,4
1561914438.08519,90,0,0,1561914437.999315,4.634726922963406,-74.15120319470218,2553.116,0,343.828125,4,30,-9999,1561914438.075483,-12.08538818359375,-24.41635894775391,13.26055908203125,132.035888671875,139.5293579101562,15,197153.2419899167,0.1735687255859375,-0.83404541015625,-0.376953125,197153.2247469167,0.1156352534795675,-0.07334851642685337,0.5236781377987832,197153.2275239167,-88.02896118164062,-53.72528076171875,-550.2105712890625,197153.2247469167,-1.744330183939476,0.4937896523436838,1.150363273530624,0.1129202097654343,-0.07998655736446381,0.5204415917396545,0.07354620099067688,0.117425799369812,-0.05124580860137939,1,-0.4962932169437408,0.2720178067684174,0.5375220775604248,-0.6251154541969299,0.1934520453214645,-0.9129122495651245,-0.3593987226486206,0,0,0,-1,197151.83917075,3,2,1561914436.676707,1561913957.287787,32,0.8918345,0,0,26.32609,0,0,1561914413.669193,197149.893211,0,1.403076,75.29193,3232235528,177845136,1,1,0.53,-6.332391,-13.90533,4
1561914438.11458,91,0,0,1561914437.999315,4.634726922963406,-74.15120319470218,2553.116,0,343.828125,4,30,-9999,1561914438.103412,-12.47344207763672,-24.28745651245117,13.49139404296875,132.2370910644531,139.7305603027344,15,197153.2622529167,0.101043701171875,-0.9506072998046875,-0.326904296875,197153.2450109167,0.1896567507138839,-0.08452899931522403,0.3330727691046131,197153.2476359167,-88.2481689453125,-53.51170349121094,-550.1876831054688,197153.2450109167,-1.72647225136664,0.4762369103054924,1.157696516201179,0.1869417130947113,-0.09116704016923904,0.3298361897468567,-0.01047137379646301,0.08183538913726807,-0.02017372846603394,1,-0.495597243309021,0.2756694853305817,0.5343270301818848,-0.6268048286437988,0.1840400844812393,-0.9158807992935181,-0.3567794263362885,0,0,0,-1,197151.83917075,3,2,1561914436.676707,1561913957.287787,32,0.8918345,0,0,26.32609,0,0,1561914413.669193,197150.838785,0,1.463867,75.29136,3232235528,177845136,1,1,0.53,-6.332391,-14.91212,4
1561914438.125883,92,0,0,1561914437.999315,4.634726922963406,-74.15120319470218,2553.116,0,343.828125,4,30,-9999,1561914438.103412,-12.47344207763672,-24.28745651245117,13.49139404296875,132.2370910644531,139.7305603027344,15,197153.2825169167,0.168670654296875,-0.921356201171875,-0.3852081298828125,197153.2652749167,0.3084387953374891,-0.1453167164607187,-0.01225133996269152,197153.2677469167,-88.05058288574219,-53.66970825195312,-550.1893310546875,197153.2652749167,-1.726081827074501,0.4732291649502096,1.163124583063905,0.3057237565517426,-0.1519547551870346,-0.01548789441585541,-0.07965394854545593,-0.03256094455718994,0.02599668502807617,1,-0.4960167109966278,0.2784186005592346,0.5335045456886292,-0.6259579658508301,0.1806976646184921,-0.9180464148521423,-0.3529010117053986,0,0,0,-1,197151.83917075,3,2,1561914436.676707,1561913957.287787,32,0.8918345,0,0,26.32609,0,0,1561914413.669193,197150.838785,0,1.463867,75.29136,3232235528,177845136,1,1,0.53,-6.332391,-14.91212,4
1561914438.146162,93,0,0,1561914437.999315,4.634726922963406,-74.15120319470218,2553.116,0,343.828125,4,30,-9999,1561914438.126077,-12.25417327880859,-24.27456665039062,13.7000732421875,132.5888061523438,140.082275390625,15,197153.3027809167,0.1664276123046875,-0.9144287109375,-0.38763427734375,197153.2855379167,0.5541793217634607,-0.1459974204353429,0.01972683314254394,197153.2878269167,-88.03889465332031,-53.57940673828125,-549.8162841796875,197153.2855379167,-1.736655019972974,0.4797071537745486,1.170700237262055,0.5514642596244812,-0.1526354551315308,0.0164902787655592,-0.01109430193901062,-0.0003326535224914551,-0.0396648645401001,1,-0.4978796243667603,0.2816811203956604,0.5331693291664124,-0.6232993602752686,0.1797649711370468,-0.9210235476493835,-0.3455432653427124,0,0,0,-1,197151.83917075,3,2,1561914436.676707,1561913957.287787,32,0.8918345,0,0,26.32609,0,0,1561914413.669193,197150.838785,0,1.463867,75.29136,3232235528,177845136,1,1,0.53,-6.332391,-15.97533,4
1561914438.166381,94,0,0,1561914437.999315,4.634726922963406,-74.15120319470218,2553.116,0,343.828125,4,30,-9999,1561914438.152469,-12.22164154052734,-24.08632278442383,14.03289794921875,132.8793182373047,140.3727874755859,15,197153.3230139167,0.161285400390625,-0.95294189453125,-0.3695831298828125,197153.3058019167,0.6022323352084145,-0.003148921672909691,0.09925494856281718,197153.3079379167,-88.24482727050781,-53.42607116699219,-549.5462646484375,197153.3058019167,-1.748394264794477,0.4888938616642388,1.181791990763307,0.599517285823822,-0.009786961600184441,0.09601839631795883,-0.01169523596763611,0.01085841655731201,-0.05279678106307983,1,-0.500979483127594,0.2856585681438446,0.5315274000167847,-0.6204010844230652,0.178122878074646,-0.925287127494812,-0.3348374664783478,0,0,0,-1,197151.83917075,3,2,1561914436.676707,1561913957.287787,32,0.8918345,0,0,26.32609,0,0,1561914413.669193,197150.838785,0,1.463867,75.29136,3232235528,177845136,1,1,0.53,-6.332391,-17.00618,4
1561914438.198719,95,0,0,1561914437.999315,4.634726922963406,-74.15120319470218,2553.116,0,343.828125,4,30,-9999,1561914438.176869,-12.58953094482422,-23.70685958862305,14.15484619140625,132.9006958007812,140.3941650390625,15,197153.3432779167,0.1829681396484375,-0.947113037109375,-0.3714447021484375,197153.3260659167,0.6067634374870753,0.1319913236303982,0.2148933978356928,197153.3280489167,-88.37910461425781,-52.95707702636719,-549.0570678710938,197153.3260659167,-1.756952250731392,0.498119863084433,1.193785362427346,0.6040483713150024,0.1253532916307449,0.2116568386554718,-0.01460400223731995,-0.02317273616790771,-0.04617607593536377,1,-0.5046492218971252,0.2891809642314911,0.5285807251930237,-0.6183089017868042,0.1758893728256226,-0.9297691583633423,-0.3234070539474487,0,0,0,-1,197151.83917075,3,2,1561914436.676707,1561913957.287787,32,0.8918345,0,0,26.32609,0,0,1561914413.669193,197150.838785,0,1.463867,75.29136,3232235528,177845136,1,1,0.53,-6.332391,-18.02637,4
1561914438.206758,96,0,0,1561914437.999315,4.634726922963406,-74.15120319470218,2553.116,0,343.828125,4,30,-9999,1561914438.203223,-12.79736328125,-23.13993453979492,14.70428466796875,132.7751159667969,140.2685852050781,15,197153.3635395417,0.1574859619140625,-0.9865264892578125,-0.323974609375,197153.3463289167,0.6745059998193119,0.2369845853940091,0.4122336346105644,197153.3481585417,-88.64476013183594,-52.73095703125,-549.01611328125,197153.3463289167,-1.758072868771919,0.5030366294280649,1.208335398292118,0.6717909574508667,0.2303465455770493,0.4089970588684082,0.01203104853630066,-0.01208591461181641,-0.06079232692718506,1,-0.5087062120437622,0.2930730283260345,0.5236660838127136,-0.6173329949378967,0.1709370762109756,-0.9350270628929138,-0.3106523752212524,0,0,0,-1,197151.83917075,3,2,1561914436.676707,1561913957.287787,32,0.8918345,0,0,26.32609,0,0,1561914413.669193,197150.838785,0,1.463867,75.29136,3232235528,177845136,1,1,0.53,-6.332391,-19.07243,4
1561914438.227279,97,0,0,1561914437.999315,4.634726922963406,-74.15120319470218,2553.116,0,343.828125,4,30,-9999,1561914438.203223,-12.79736328125,-23.13993453979492,14.70428466796875,132.7751159667969,140.2685852050781,15,197153.3838035417,0.106048583984375,-1.045928955078125,-0.2514190673828125,197153.3665915417,0.6381101750978529,0.07781037651717213,0.1992843443706294,197153.3682395417,-88.76094055175781,-52.44212341308594,-548.8084716796875,197153.3665915417,-1.759821516758156,0.5079449293823748,1.223151541021617,0.6353951096534729,0.07117233425378799,0.1960477828979492,-0.008217066526412964,-0.04634881019592285,-0.02630287408828735,1,-0.5126661062240601,0.2972164154052734,0.5188266038894653,-0.6161614060401917,0.1657030582427979,-0.9401776790618896,-0.2976717352867126,0,0,0,-1,197151.83917075,3,2,1561914436.676707,1561913957.287787,32,0.8918345,0,0,26.32609,0,0,1561914413.669193,197150.838785,0,1.463867,75.29136,3232235528,177845136,1,1,0.53,-6.332391,-20.08275,4
1561914438.247375,98,0,0,1561914437.999315,4.634726922963406,-74.15120319470218,2553.116,0,343.828125,4,30,-9999,1561914438.227483,-12.83463287353516,-22.81375122070312,15.04010009765625,132.8666229248047,140.3600921630859,15,197153.4040675417,0.1506195068359375,-1.0089111328125,-0.267974853515625,197153.3868245417,0.4662444057301344,-0.004272243020705114,0.06268681731883015,197153.3883505417,-88.71307373046875,-52.26947021484375,-548.2779541015625,197153.3868245417,-1.770327467604192,0.5181293169340511,1.233848851806021,0.4635293483734131,-0.0109102837741375,0.05945026129484177,-0.05768689513206482,-0.1021606922149658,0.03579550981521606,1,-0.5158134698867798,0.3005481064319611,0.5164313316345215,-0.6139267086982727,0.1637354493141174,-0.9437682628631592,-0.287214607000351,0,0,0,-1,197151.83917075,3,2,1561914436.676707,1561913957.287787,32,0.8918345,0,0,26.32609,0,0,1561914413.669193,197150.838785,0,1.463867,75.29136,3232235528,177845136,1,1,0.53,-6.332391,-21.04989,4
1561914438.279392,99,0,0,1561914437.999315,4.634726922963406,-74.15120319470218,2553.116,0,343.828125,4,30,-9999,1561914438.254021,-12.96767425537109,-22.64618301391602,15.3724365234375,132.9646606445312,140.4581298828125,15,197153.4243305417,0.1503448486328125,-1.000106811523438,-0.25390625,197153.4070885417,0.3161920562190368,0.03022687837239935,0.1250982637809461,197153.4084615417,-88.82530212402344,-52.02006530761719,-548.1943359375,197153.4070885417,-1.776996280205754,0.5243600818777614,1.241467614859769,0.3134770095348358,0.02358883805572987,0.1218617036938667,-0.01129758358001709,-0.06265145540237427,0.01198136806488037,1,-0.5178664922714233,0.303044855594635,0.5147055983543396,-0.6124183535575867,0.1619171053171158,-0.9462596774101257,-0.2799562215805054,0,0,0,-1,197151.83917075,3,2,1561914436.676707,1561913957.287787,32,0.8918345,0,0,26.32609,0,0,1561914413.669193,197150.838785,0,1.463867,75.29136,3232235528,177845136,1,1,0.53,-6.332391,-22.06706,4
1561914438.28837,100,0,0,1561914437.999315,4.634726922963406,-74.15120319470218,2553.116,0,343.828125,4,30,-9999,1561914438.279857,-13.03713989257812,-22.71417617797852,15.36053466796875,132.893310546875,140.3867797851562,15,197153.4445945417,0.1700897216796875,-0.9930419921875,-0.2570953369140625,197153.4273525417,0.1532164512022207,0.09782456474133562,0.09101033446014987,197153.4285725417,-88.89125061035156,-51.92767333984375,-548.0669555664062,197153.4273525417,-1.778205033273068,0.5268204062619483,1.246508380340512,0.1505014151334763,0.0911865234375,0.08777377754449844,-0.009860426187515259,-0.05222892761230469,0.02152436971664429,1,-0.5192657113075256,0.3043810427188873,0.5130014419555664,-0.6120007634162903,0.1602052599191666,-0.947877824306488,-0.2754305899143219,0,0,0,-1,197151.83917075,3,2,1561914436.676707,1561913957.287787,32,0.8918345,0,0,26.32609,0,0,1561914413.669193,197150.838785,0,1.463867,75.29136,3232235528,177845136,1,1,0.53,-6.332391,-22.06706,4
1561914438.308141,101,0,0,1561914437.999315,4.634726922963406,-74.15120319470218,2553.116,0,343.828125,4,30,-9999,1561914438.304621,-13.18463897705078,-22.57092666625977,15.20745849609375,132.8059387207031,140.2994079589844,15,197153.4648585417,0.1876678466796875,-0.9534149169921875,-0.2757720947265625,197153.4476155417,0.1422881696690806,0.09124575790051287,0.1306866410123684,197153.4486535417,-89.002197265625,-51.93772888183594,-548.3251342773438,197153.4476155417,-1.777073211504398,0.5277219353940944,1.249770248494162,0.1395731270313263,0.08460771292448044,0.1274500787258148,0.01119410991668701,-0.04412984848022461,0.01551789045333862,1,-0.5202816724777222,0.304959625005722,0.5114890336990356,-0.6121156811714172,0.1588955968618393,-0.9489121437072754,-0.2726132273674011,0,0,0,-1,197151.83917075,3,2,1561914436.676707,1561913957.287787,32,0.8918345,0,0,26.32609,0,0,1561914413.669193,197150.838785,0,1.463867,75.29136,3232235528,177845136,1,1,0.53,-6.332391,-23.03263,4
1561914438.328988,102,0,0,1561914437.999315,4.634726922963406,-74.15120319470218,2553.116,0,343.828125,4,30,-9999,1561914438.304621,-13.18463897705078,-22.57092666625977,15.20745849609375,132.8059387207031,140.2994079589844,15,197153.4851215417,0.159210205078125,-0.945343017578125,-0.26239013671875,197153.4678795417,0.2189517890208646,0.03305888387558962,0.2284968246838176,197153.4687645417,-89.08084106445312,-51.71759033203125,-548.063232421875,197153.4678795417,-1.772533387601453,0.5246388964763562,1.254811625834339,0.2162367552518845,0.0264208409935236,0.2252602577209473,0.0320117175579071,-0.002924084663391113,-0.006814241409301758,1,-0.5211361646652222,0.30649334192276,0.5094605684280396,-0.6123143434524536,0.1556561142206192,-0.9504908323287964,-0.2689578533172607,0,0,0,-1,197151.83917075,3,2,1561914436.676707,1561913957.287787,32,0.8918345,0,0,26.32609,0,0,1561914413.669193,197150.838785,0,1.463867,75.29136,3232235528,177845136,1,1,0.53,-6.332391,-23.90409,4
1561914438.361903,103,0,0,1561914437.999315,4.634726922963406,-74.15120319470218,2553.116,0,343.828125,4,30,-9999,1561914438.330489,-13.25885772705078,-22.09372711181641,15.389892578125,132.8545227050781,140.3479919433594,15,197153.5053545417,0.13519287109375,-0.9490966796875,-0.25677490234375,197153.4881435417,0.3157076272167514,-0.03132197021263994,0.2686969750224547,197153.4888755417,-88.90423583984375,-51.80195617675781,-548.1296997070312,197153.4881435417,-1.76707539981482,0.5192467659347788,1.261938460071554,0.3129925727844238,-0.03796000778675079,0.2654604017734528,0.008371949195861816,0.007338345050811768,0.00151515007019043,1,-0.5219501256942749,0.3092174232006073,0.5071572065353394,-0.6121635437011719,0.1508382707834244,-0.9526813626289368,-0.2639053165912628,0,0,0,-1,197151.83917075,3,2,1561914436.676707,1561913957.287787,32,0.8918345,0,0,26.32609,0,0,1561914413.669193,197150.838785,0,1.463867,75.29136,3232235528,177845136,1,1,0.53,-6.332391,-24.76415,4
1561914438.368873,104,0,0,1561914437.999315,4.634726922963406,-74.15120319470218,2553.116,0,343.828125,4,30,-9999,1561914438.330489,-13.25885772705078,-22.09372711181641,15.389892578125,132.8545227050781,140.3479919433594,15,197153.5256185417,0.111846923828125,-0.959625244140625,-0.24676513671875,197153.5084065417,0.3782026969370959,-0.05002535054826643,0.2320361657725329,197153.5089565417,-89.3160400390625,-51.32502746582031,-547.8011474609375,197153.5084065417,-1.763833745215204,0.5150196721834658,1.270686747601531,0.3754876554012299,-0.0566633902490139,0.2287995964288712,-0.01041761040687561,0.006207406520843506,0.000502169132232666,1,-0.5230385065078735,0.3127174079418182,0.5047644376754761,-0.6114338040351868,0.1456104815006256,-0.9553040862083435,-0.2572771012783051,0,0,0,-1,197151.83917075,3,2,1561914436.676707,1561913957.287787,32,0.8918345,0,0,26.32609,0,0,1561914413.669193,197150.838785,0,1.463867,75.29136,3232235528,177845136,1,1,0.53,-6.332391,-25.60156,4
1561914438.389123,105,0,0,1561914437.999315,4.634726922963406,-74.15120319470218,2553.116,0,343.828125,4,30,-9999,1561914438.372856,-13.47019958496094,-22.19094085693359,15.579833984375,133.0168151855469,140.5102844238281,15,197153.5458825417,0.12420654296875,-0.9518280029296875,-0.2431488037109375,197153.5286705417,0.3566028625998992,-0.01001162148593488,0.1670957815392777,197153.5290675417,-89.38906860351562,-51.35438537597656,-547.4736938476562,197153.5286705417,-1.765033460114436,0.515366728296111,1.279060773862965,0.3538877964019775,-0.01664966158568859,0.1638592183589935,-0.02990531921386719,-0.001879096031188965,0.003492295742034912,1,-0.5245147347450256,0.3158410787582397,0.5026348233222961,-0.6103171706199646,0.1417522728443146,-0.957746148109436,-0.2502574026584625,0,0,0,-1,197151.83917075,3,2,1561914436.676707,1561913957.287787,32,0.8918345,0,0,26.32609,0,0,1561914413.669193,197150.838785,0,1.463867,75.29136,3232235528,177845136,1,1,0.53,-6.332391,-26.436,4
1561914438.409436,106,0,0,1561914437.999315,4.634726922963406,-74.15120319470218,2553.116,0,343.828125,4,30,-9999,1561914438.405915,-13.86878967285156,-21.6485710144043,15.97906494140625,133.0826873779297,140.5761566162109,15,197153.5661455417,0.1693878173828125,-0.9094390869140625,-0.2562713623046875,197153.5489345417,0.2815784188990589,0.08237663252222199,0.2948121989878807,197153.5491785417,-89.56915283203125,-51.35848999023438,-547.5755615234375,197153.5489345417,-1.763137876227123,0.5141084793166687,1.286663593598791,0.2788633704185486,0.07573858648538589,0.2915756404399872,-0.01364579796791077,0.008077144622802734,0.0009390711784362793,1,-0.5259249806404114,0.3183692395687103,0.5001960396766663,-0.6097933053970337,0.1378523260354996,-0.9599051475524902,-0.244087889790535,0,0,0,-1,197151.83917075,3,2,1561914436.676707,1561913957.287787,32,0.8918345,0,0,26.32609,0,0,1561914413.669193,197150.838785,0,1.463867,75.29136,3232235528,177845136,1,1,0.53,-6.332391,-26.436,4
1561914438.438702,107,0,0,1561914437.999315,4.634726922963406,-74.15120319470218,2553.116,0,343.828125,4,30,-9999,1561914438.430155,-13.91931915283203,-21.54867935180664,15.99615478515625,132.9319610595703,140.4254302978516,15,197153.5864095417,0.122344970703125,-0.916748046875,-0.2270355224609375,197153.5691675417,0.2143336013745582,0.1343066758821131,0.416051808665411,197153.5692585417,-89.82145690917969,-51.14158630371094,-547.3594970703125,197153.5691675417,-1.748217606449392,0.5019603705655111,1.294691888145926,0.2116185575723648,0.127668634057045,0.4128152430057526,0.0382230281829834,0.05268561840057373,-0.01729053258895874,1,-0.5267986059188843,0.3209249079227448,0.4965278804302216,-0.6106967329978943,0.1311648041009903,-0.9621247053146362,-0.2389808595180511,0,0,0,-1,197151.83917075,3,2,1561914436.676707,1561913957.287787,32,0.8918345,0,0,26.32609,0,0,1561914413.669193,197150.838785,0,1.463867,75.29136,3232235528,177845136,1,1,0.53,-6.332391,-27.63601,4
1561914438.449993,108,0,0,1561914437.999315,4.634726922963406,-74.15120319470218,2553.116,0,343.828125,4,30,-9999,1561914438.430155,-13.91931915283203,-21.54867935180664,15.99615478515625,132.9319610595703,140.4254302978516,15,197153.6066735417,0.140045166015625,-0.918670654296875,-0.229278564453125,197153.5894305417,0.260709089648871,0.1274048276010637,0.4414919212945019,197153.5893695417,-89.62965393066406,-50.74598693847656,-547.6035766601562,197153.5894305417,-1.728052066512041,0.4852435213147662,1.302766152673726,0.2579940259456635,0.120766781270504,0.4382553696632385,-0.001179277896881104,0.04754638671875,0.007225155830383301,1,-0.5274714827537537,0.3234864473342896,0.4924544095993042,-0.6120613217353821,0.1235242336988449,-0.96429443359375,-0.2342607080936432,0,0,0,-1,197151.83917075,3,2,1561914436.676707,1561913957.287787,32,0.8918345,0,0,26.32609,0,0,1561914413.669193,197150.838785,0,1.463867,75.29136,3232235528,177845136,1,1,0.53,-6.332391,-27.63601,4
1561914438.470242,109,0,0,1561914437.999315,4.634726922963406,-74.15120319470218,2553.116,0,343.828125,4,30,-9999,1561914438.456547,-14.01129150390625,-21.07466506958008,16.25872802734375,132.8163909912109,140.3098602294922,15,197153.6269375417,0.164703369140625,-0.901397705078125,-0.252593994140625,197153.6096945417,0.3312160131926098,0.131918619332639,0.5553673579257451,197153.6094805417,-90.031005859375,-50.49520874023438,-547.3821411132812,197153.6096945417,-1.705427502540153,0.4656352076267032,1.312435778722575,0.3285009562969208,0.1252805888652802,0.5521308183670044,0.02532994747161865,0.04813951253890991,-0.0009837150573730469,1,-0.5282576680183411,0.3267971873283386,0.4879454672336578,-0.6132345795631409,0.1147151961922646,-0.9668101668357849,-0.2282948642969131,0,0,0,-1,197151.83917075,3,2,1561914436.676707,1561913957.287787,32,0.8918345,0,0,26.32609,0,0,1561914413.669193,197150.838785,0,1.463867,75.29136,3232235528,177845136,1,1,0.53,-6.332391,-28.40997,4
1561914438.491113,110,0,0,1561914437.999315,4.634726922963406,-74.15120319470218,2553.116,0,343.828125,4,30,-9999,1561914438.480803,-14.24526977539062,-21.08129119873047,16.30828857421875,132.4755249023438,139.968994140625,15,197153.6472005417,0.156829833984375,-0.9014892578125,-0.2571868896484375,197153.6299585417,0.3718273556035551,0.3198634900978201,0.9358846081662288,197153.6295615417,-90.39410400390625,-49.97608947753906,-547.14404296875,197153.6299585417,-1.664328984551627,0.4301330334110847,1.325381322472782,0.3691123127937317,0.3132254481315613,0.9326480627059937,0.06339159607887268,0.06863892078399658,-0.03176635503768921,1,-0.529080331325531,0.3311497867107391,0.4810610413551331,-0.6156249046325684,0.1013117581605911,-0.9700365662574768,-0.2208276391029358,0,0,0,-1,197151.83917075,3,2,1561914436.676707,1561913957.287787,32,0.8918345,0,0,26.32609,0,0,1561914413.669193,197150.838785,0,1.463867,75.29136,3232235528,177845136,1,1,0.53,-6.332391,-29.29951,4
1561914438.522308,111,0,0,1561914437.999315,4.634726922963406,-74.15120319470218,2553.116,0,343.828125,4,30,-9999,1561914438.50737,-15.44028472900391,-20.03348541259766,16.3419189453125,131.6971588134766,139.1906280517578,15,197153.6674645417,0.1068115234375,-0.9264984130859375,-0.23822021484375,197153.6502215417,0.3591634919880103,0.5549074300054884,1.205456165290665,197153.6496725417,-90.90882873535156,-49.85482788085938,-547.0252685546875,197153.6502215417,-1.591283735195177,0.3679070600820127,1.340480759403958,0.3564484417438507,0.5482693910598755,1.202219605445862,0.07472416758537292,0.07210516929626465,-0.04417842626571655,1,-0.5297749042510986,0.3359081745147705,0.470825731754303,-0.6203445792198181,0.08210568130016327,-0.9735944271087646,-0.2130084931850433,0,0,0,-1,197151.83917075,3,2,1561914436.676707,1561913957.287787,32,0.8918345,0,0,26.32609,0,0,1561914413.669193,197150.838785,0,1.463867,75.29136,3232235528,177845136,1,1,0.53,-6.332391,-30.18369,4
1561914438.531592,112,0,0,1561914437.999315,4.634726922963406,-74.15120319470218,2553.116,0,343.828125,4,30,-9999,1561914438.50737,-15.44028472900391,-20.03348541259766,16.3419189453125,131.6971588134766,139.1906280517578,15,197153.6876975417,0.122344970703125,-0.8942413330078125,-0.2739410400390625,197153.6704855417,0.4195275002040734,0.8269059258313143,1.545869671623973,197153.6697835417,-91.79566955566406,-49.12049865722656,-547.230712890625,197153.6704855417,-1.484156406314507,0.2771117043850326,1.35644536932727,0.4168124496936798,0.8202678561210632,1.542633175849915,0.04861781001091003,0.05061626434326172,-0.0336223840713501,1,-0.5306931734085083,0.3406843543052673,0.4573418498039246,-0.6270065903663635,0.05819372460246086,-0.9771146774291992,-0.2045978456735611,0,0,0,-1,197151.83917075,3,2,1561914436.676707,1561913957.287787,32,0.8918345,0,0,26.32609,0,0,1561914413.669193,197150.838785,0,1.463867,75.29136,3232235528,177845136,1,1,0.53,-6.332391,-30.8198,4
1561914438.551263,113,0,0,1561914437.999315,4.634726922963406,-74.15120319470218,2553.116,0,343.828125,4,30,-9999,1561914438.531632,-16.43671417236328,-19.50542068481445,16.2095947265625,130.3910675048828,137.8845367431641,15,197153.7079615417,0.064208984375,-0.8787689208984375,-0.2405548095703125,197153.6907495417,0.6470173836797319,1.062975182758663,2.054743829555224,197153.6898645417,-92.91459655761719,-48.25848388671875,-547.617431640625,197153.6907495417,-1.319886646401977,0.1359560735919269,1.374178803069531,0.6443023085594177,1.056337118148804,2.051507234573364,0.09586724638938904,0.08649158477783203,-0.08039039373397827,1,-0.5321428775787354,0.3464803695678711,0.4388305842876434,-0.6357696652412415,0.02647772245109081,-0.9807329773902893,-0.1935506165027618,0,0,0,-1,197151.83917075,3,2,1561914436.676707,1561913957.287787,32,0.8918345,0,0,26.32609,0,0,1561914413.669193,197150.838785,0,1.463867,75.29136,3232235528,177845136,1,1,0.53,-6.332391,-31.51753,4
1561914438.571542,114,0,0,1561914437.999315,4.634726922963406,-74.15120319470218,2553.116,0,343.828125,4,30,-9999,1561914438.557767,-17.66219329833984,-18.48050689697266,16.09423828125,129.0079193115234,136.5013885498047,15,197153.7282245417,-0.09893798828125,-0.9541473388671875,-0.1374969482421875,197153.7110125417,0.9486158497573526,0.8656991281660625,2.120225634438092,197153.7099755417,-94.12429809570312,-47.21170043945312,-547.6504516601562,197153.7110125417,-1.091208738233314,-0.06965881888249492,1.392098204517401,0.9459007978439331,0.859061062335968,2.116989135742188,0.07658076286315918,0.1053069829940796,-0.06323713064193726,1,-0.5338993668556213,0.3553767204284668,0.4170655012130737,-0.6439839005470276,-0.01237175893038511,-0.9840759038925171,-0.1773177087306976,0,0,0,-1,197151.83917075,3,2,1561914436.676707,1561913957.287787,32,0.8918345,0,0,26.32609,0,0,1561914413.669193,197150.838785,0,1.463867,75.29136,3232235528,177845136,1,1,0.53,-6.332391,-31.97766,4
1561914438.605703,115,0,0,1561914437.999315,4.634726922963406,-74.15120319470218,2553.116,0,343.828125,4,30,-9999,1561914438.5823,-18.54508209228516,-17.5312385559082,16.1224365234375,127.6204376220703,135.1139068603516,15,197153.7484885417,-0.112335205078125,-0.9564208984375,-0.146636962890625,197153.7312765417,0.9794057203841947,0.9394761472123097,1.939370364810811,197153.7300865417,-94.99716186523438,-46.06379699707031,-547.5090942382812,197153.7312765417,-0.8353806502533433,-0.3038353861540651,1.403968782870262,0.9766906499862671,0.9328380823135376,1.936133861541748,-0.04925718903541565,0.03196918964385986,0.02095246315002441,1,-0.5365473628044128,0.3645438551902771,0.3954921066761017,-0.6502390503883362,-0.04968080669641495,-0.9861165285110474,-0.1584494113922119,0,0,0,-1,197151.83917075,3,2,1561914436.676707,1561913957.287787,32,0.8918345,0,0,26.32609,0,0,1561914413.669193,197150.838785,0,1.463867,75.29136,3232235528,177845136,1,1,0.53,-6.332391,-32.41176,4
1561914438.612043,116,0,0,1561914437.999315,4.634726922963406,-74.15120319470218,2553.116,0,343.828125,4,30,-9999,1561914438.608635,-20.41869354248047,-15.59381484985352,15.926025390625,126.2022705078125,133.6957397460938,15,197153.7687525417,-0.1332244873046875,-0.9479827880859375,-0.1296844482421875,197153.7515095417,0.911152896387099,0.9307441746301578,1.821429879091671,197153.7501665417,-96.04019165039062,-45.46382141113281,-547.7932739257812,197153.7515095417,-0.5763244168776872,-0.5404292421368091,1.405962046714451,0.9084378480911255,0.9241061210632324,1.818193316459656,-0.0279107391834259,0.03002464771270752,-0.00593268871307373,1,-0.5394706726074219,0.3723160326480865,0.3744054436683655,-0.655875563621521,-0.0844244658946991,-0.9864455461502075,-0.140704333782196,0,0,0,-1,197151.83917075,3,2,1561914436.676707,1561913957.287787,32,0.8918345,0,0,26.32609,0,0,1561914413.669193,197150.838785,0,1.463867,75.29136,3232235528,177845136,1,1,0.53,-6.332391,-32.41176,4
1561914438.632511,117,0,0,1561914437.999315,4.634726922963406,-74.15120319470218,2553.116,0,343.828125,4,30,-9999,1561914438.608635,-20.41869354248047,-15.59381484985352,15.926025390625,126.2022705078125,133.6957397460938,15,197153.7890155417,-0.1721649169921875,-0.9803924560546875,-0.08624267578125,197153.7717735417,0.866084753891906,0.6782932812055136,1.675347503817554,197153.7702785417,-96.71260070800781,-44.15478515625,-547.7577514648438,197153.7717735417,-0.3450013411191165,-0.7521886763839406,1.398836098180173,0.8633697032928467,0.6716552376747131,1.672110915184021,-0.01631245017051697,0.03726840019226074,-0.004737496376037598,1,-0.5416476130485535,0.379663497209549,0.3551085591316223,-0.6605842113494873,-0.1169120147824287,-0.985251247882843,-0.1249469816684723,0,0,0,-1,197151.83917075,3,2,1561914436.676707,1561913957.287787,32,0.8918345,0,0,26.32609,0,0,1561914413.669193,197150.838785,0,1.463867,75.29136,3232235528,177845136,1,1,0.53,-6.332391,-33.2005,4
1561914438.652604,118,0,0,1561914437.999315,4.634726922963406,-74.15120319470218,2553.116,0,343.828125,4,30,-9999,1561914438.632791,-21.20719909667969,-14.42895889282227,15.91961669921875,125.1375274658203,132.6309967041016,15,197153.8092795417,-0.1506805419921875,-0.9585723876953125,-0.0849761962890625,197153.7920375417,0.8672187278840617,0.5304649375207412,1.66926830599723,197153.7903895417,-97.56932067871094,-43.02592468261719,-547.8802490234375,197153.7920375417,-0.1453768094905822,-0.9368283600644312,1.385242544919173,0.8645036816596985,0.5238268971443176,1.666031718254089,-0.02352353930473328,0.002441763877868652,0.02303993701934814,1,-0.5430374145507812,0.3879034221172333,0.3373987376689911,-0.6639302968978882,-0.1486413925886154,-0.9828342199325562,-0.1092826053500175,0,0,0,-1,197151.83917075,3,2,1561914436.676707,1561913957.287787,32,0.8918345,0,0,26.32609,0,0,1561914413.669193,197150.838785,0,1.463867,75.29136,3232235528,177845136,1,1,0.53,-6.332391,-34.09799,4
1561914438.686822,119,0,0,1561914437.999315,4.634726922963406,-74.15120319470218,2553.116,0,343.828125,4,30,-9999,1561914438.659212,-21.88048553466797,-13.30213928222656,15.86785888671875,124.3863677978516,131.8798370361328,15,197153.8295435417,-0.1822052001953125,-0.963226318359375,-0.0425872802734375,197153.8123005417,0.769257010346587,0.2368916410719653,1.697085023583108,197153.8104695417,-98.01823425292969,-42.26675415039062,-547.7772216796875,197153.8123005417,0.02223513873919534,-1.093311511271823,1.364702410243463,0.7665419578552246,0.2302536070346832,1.693848490715027,0.03107011318206787,0.02026534080505371,0.009064912796020508,1,-0.5431696772575378,0.3974243998527527,0.3204257190227509,-0.666594386100769,-0.1817506849765778,-0.9788377285003662,-0.09404109418392181,0,0,0,-1,197151.83917075,3,2,1561914436.676707,1561913957.287787,32,0.8918345,0,0,26.32609,0,0,1561914413.669193,197150.838785,0,1.463867,75.29136,3232235528,177845136,1,1,0.53,-6.332391,-34.65614,4
1561914438.693166,120,0,0,1561914437.999315,4.634726922963406,-74.15120319470218,2553.116,0,343.828125,4,30,-9999,1561914438.6845,-22.33110046386719,-12.58592987060547,15.96331787109375,123.8027954101562,131.2962646484375,15,197153.8498065417,-0.1775665283203125,-0.9495697021484375,-0.0633392333984375,197153.8325645417,0.5143357686947853,0.334280246342855,1.854796890705383,197153.8305805417,-98.72361755371094,-41.19540405273438,-547.5326538085938,197153.8325645417,0.1433731291340221,-1.207064428520414,1.338376179092073,0.5116207003593445,0.3276422023773193,1.851560354232788,0.03305858373641968,0.009885489940643311,0.03935706615447998,1,-0.541327953338623,0.4074209928512573,0.3049247264862061,-0.6693228483200073,-0.2152637988328934,-0.9731118083000183,-0.08194436132907867,0,0,0,-1,197151.83917075,3,2,1561914436.676707,1561913957.287787,32,0.8918345,0,0,26.32609,0,0,1561914413.669193,197150.838785,0,1.463867,75.29136,3232235528,177845136,1,1,0.53,-6.332391,-35.16714,4
