loggingTime,loggingSample,identifierForVendor,deviceID,locationTimestamp_since1970,locationLatitude,locationLongitude,locationAltitude,locationSpeed,locationCourse,locationVerticalAccuracy,locationHorizontalAccuracy,locationFloor,locationHeadingTimestamp_since1970,locationHeadingX,locationHeadingY,locationHeadingZ,locationTrueHeading,locationMagneticHeading,locationHeadingAccuracy,accelerometerTimestamp_sinceReboot,accelerometerAccelerationX,accelerometerAccelerationY,accelerometerAccelerationZ,gyroTimestamp_sinceReboot,gyroRotationX,gyroRotationY,gyroRotationZ,magnetometerTimestamp_sinceReboot,magnetometerX,magnetometerY,magnetometerZ,motionTimestamp_sinceReboot,motionYaw,motionRoll,motionPitch,motionRotationRateX,motionRotationRateY,motionRotationRateZ,motionUserAccelerationX,motionUserAccelerationY,motionUserAccelerationZ,motionAttitudeReferenceFrame,motionQuaternionX,motionQuaternionY,motionQuaternionZ,motionQuaternionW,motionGravityX,motionGravityY,motionGravityZ,motionMagneticFieldX,motionMagneticFieldY,motionMagneticFieldZ,motionMagneticFieldCalibrationAccuracy,activityTimestamp_sinceReboot,activity,activityActivityConfidence,activityActivityStartDate,pedometerStartDate,pedometerNumberofSteps,pedometerAverageActivePace,pedometerCurrentPace,pedometerCurrentCadence,pedometerDistance,pedometerFloorAscended,pedometerFloorDescended,pedometerEndDate,altimeterTimestamp_sinceReboot,altimeterReset,altimeterRelativeAltitude,altimeterPressure,IP_en0,IP_pdp_ip0,deviceOrientation,batteryState,batteryLevel,avAudioRecorderPeakPower,avAudioRecorderAveragePower,label
1561914445.550757,1,0,0,1561914444.999712,4.634658568543042,-74.15103388025811,2553.005,1.22,274.21875,4,30,-9999,1561914445.527811,-22.93946838378906,18.64344024658203,4.764404296875,7.033904552459717,14.52737236022949,15,197160.6978267917,-0.9303741455078125,-0.3474578857421875,-0.0689544677734375,197160.6806147917,0.004504470667760023,-0.04928898650685952,0.007664577617248047,197160.6868097917,-98.72311401367188,-10.60743713378906,-558.8404541015625,197160.6806147917,0.9733541686154141,-1.485038287024665,0.3555597071107914,0.001803689170628786,-0.05591259896755219,0.00442622322589159,0.01030051708221436,0.004014164209365845,0.01126480102539062,1,-0.426408976316452,0.527283251285553,-0.2334592640399933,-0.6968819499015808,-0.9340066313743591,-0.3481151163578033,-0.08029551804065704,0,0,0,-1,197157.357678,1,2,1561914442.195215,1561913957.287787,32,0.8918345,0,0,26.32609,0,0,1561914413.669193,197157.45672,0,1.4375,75.29161,3232235528,177845136,1,1,0.53,-22.76665,-35.05515,5
1561914445.570771,2,0,0,1561914444.999712,4.634658568543042,-74.15103388025811,2553.005,1.22,274.21875,4,30,-9999,1561914445.550691,-22.99055480957031,18.8062858581543,4.81732177734375,7.050777912139893,14.54424571990967,15,197160.7180897917,-0.929595947265625,-0.345916748046875,-0.070404052734375,197160.7008477917,-0.02304859397019977,-0.00757189961131329,-0.001238636222995854,197160.7069207917,-98.93406677246094,-10.86798095703125,-558.812744140625,197160.7008477917,0.9731589349186445,-1.485693941575156,0.3555465444622921,-0.02574937604367733,-0.01419551391154528,-0.004476990550756454,0.00368952751159668,0.0006448626518249512,0.01072907447814941,1,-0.4264301359653473,0.5275562405586243,-0.2332557290792465,-0.6967305541038513,-0.9340636730194092,-0.3481027781963348,-0.07968350499868393,0,0,0,-1,197157.357678,1,2,1561914442.195215,1561913957.287787,32,0.8918345,0,0,26.32609,0,0,1561914413.669193,197157.45672,0,1.4375,75.29161,3232235528,177845136,1,1,0.53,-23.32393,-35.2533,5
1561914445.582505,3,0,0,1561914444.999712,4.634658568543042,-74.15103388025811,2553.005,1.22,274.21875,4,30,-9999,1561914445.573183,-23.13203430175781,18.66353225708008,4.84051513671875,7.117812633514404,14.61128044128418,15,197160.7383537917,-0.922088623046875,-0.3485870361328125,-0.07421875,197160.7211117917,-0.04298421894220593,0.01723544594277482,-0.01091256888270869,197160.7270317917,-98.86386108398438,-10.89395141601562,-558.671875,197160.7211117917,0.9723608035024532,-1.485398375084193,0.3556945637735627,-0.04568500071763992,0.01061183214187622,-0.01415092311799526,0.004392921924591064,0.002324819564819336,0.009551167488098145,1,-0.426228404045105,0.5275905132293701,-0.2329926192760468,-0.6969161629676819,-0.9339888691902161,-0.3482415378093719,-0.07995519787073135,0,0,0,-1,197157.357678,1,2,1561914442.195215,1561913957.287787,32,0.8918345,0,0,26.32609,0,0,1561914413.669193,197157.45672,0,1.4375,75.29161,3232235528,177845136,1,1,0.53,-23.32393,-35.2533,5
1561914445.602229,4,0,0,1561914444.999712,4.634658568543042,-74.15103388025811,2553.005,1.22,274.21875,4,30,-9999,1561914445.598656,-23.12887573242188,18.6094799041748,4.7799072265625,7.204732418060303,14.69820022583008,15,197160.7586177917,-0.922607421875,-0.3470611572265625,-0.078857421875,197160.7413747917,-0.05089513896028631,-0.003141198505748461,-0.01382340395416529,197160.7471127917,-98.89579772949219,-10.87690734863281,-558.6559448242188,197160.7413747917,0.9712133516975178,-1.484981486047561,0.355938983175813,-0.05359592288732529,-0.009764812886714935,-0.0170617587864399,0.01178181171417236,-0.0001163780689239502,0.006118535995483398,1,-0.4259487390518188,0.5276353359222412,-0.232602134346962,-0.6971834897994995,-0.9338704347610474,-0.3484706580638885,-0.08033724874258041,0,0,0,-1,197157.357678,1,2,1561914442.195215,1561913957.287787,32,0.8918345,0,0,26.32609,0,0,1561914413.669193,197157.45672,0,1.4375,75.29161,3232235528,177845136,1,1,0.53,-23.88121,-35.60421,5
1561914445.631485,5,0,0,1561914444.999712,4.634658568543042,-74.15103388025811,2553.005,1.22,274.21875,4,30,-9999,1561914445.623093,-23.12892913818359,18.35080909729004,4.96826171875,7.276898860931396,14.77036666870117,15,197160.7788807917,-0.9251861572265625,-0.3460540771484375,-0.08349609375,197160.7616387917,-0.04749721172545421,-0.02367310524582335,-0.005792109054813335,197160.7672237917,-98.90200805664062,-11.1002197265625,-558.5581665039062,197160.7616387917,0.9700138716167459,-1.484957113709036,0.3561153429298484,-0.05019799619913101,-0.03029672056436539,-0.009030463173985481,0.01119989156723022,0.00157475471496582,0.001497268676757812,1,-0.4256810247898102,0.5278430581092834,-0.2321318835020065,-0.6973465085029602,-0.9338073134422302,-0.3486359417438507,-0.08035474270582199,0,0,0,-1,197157.357678,1,2,1561914442.195215,1561913957.287787,32,0.8918345,0,0,26.32609,0,0,1561914413.669193,197157.45672,0,1.4375,75.29161,3232235528,177845136,1,1,0.53,-24.99577,-35.63517,5
1561914445.642772,6,0,0,1561914444.999712,4.634658568543042,-74.15103388025811,2553.005,1.22,274.21875,4,30,-9999,1561914445.623093,-23.12892913818359,18.35080909729004,4.96826171875,7.276898860931396,14.77036666870117,15,197160.7991447917,-0.927642822265625,-0.3475341796875,-0.0867767333984375,197160.7819027917,-0.02962047659218831,-0.01473207451810033,-0.006768157594327376,197160.7873347917,-98.76258850097656,-11.11605834960938,-558.859619140625,197160.7819027917,0.9691176802582757,-1.485236080366257,0.3562250897804659,-0.0323212593793869,-0.02135568857192993,-0.01000651158392429,0.008605480194091797,0.002684742212295532,-0.003405153751373291,1,-0.4255089163780212,0.528106689453125,-0.2317243963479996,-0.6973875164985657,-0.9337916374206543,-0.348738819360733,-0.0800909698009491,0,0,0,-1,197157.357678,1,2,1561914442.195215,1561913957.287787,32,0.8918345,0,0,26.32609,0,0,1561914413.669193,197157.45672,0,1.4375,75.29161,3232235528,177845136,1,1,0.53,-24.99577,-35.63517,5
1561914445.665118,7,0,0,1561914444.999712,4.634658568543042,-74.15103388025811,2553.005,1.22,274.21875,4,30,-9999,1561914445.649483,-22.95184326171875,18.44076919555664,4.82080078125,7.329752445220947,14.82322025299072,15,197160.8193777917,-0.926483154296875,-0.3489532470703125,-0.0849609375,197160.8021657917,-0.03192837199285098,0.003916178382961519,-0.008282963622364447,197160.8074147917,-98.70887756347656,-11.00917053222656,-558.8292236328125,197160.8021657917,0.9683763959675669,-1.48521159916467,0.35634250835462,-0.03462915122509003,-0.002707436215132475,-0.01152131706476212,0.006105899810791016,0.001314640045166016,-0.006666421890258789,1,-0.4253447353839874,0.5282297730445862,-0.2314329445362091,-0.6974911689758301,-0.9337487816810608,-0.3488488495349884,-0.0801103264093399,0,0,0,-1,197157.357678,1,2,1561914442.195215,1561913957.287787,32,0.8918345,0,0,26.32609,0,0,1561914413.669193,197158.402166,0,1.506104,75.29097,3232235528,177845136,1,1,0.53,-25.55305,-30.83747,5
1561914445.68351,8,0,0,1561914444.999712,4.634658568543042,-74.15103388025811,2553.005,1.22,274.21875,4,30,-9999,1561914445.673537,-22.857177734375,18.41513061523438,4.77984619140625,7.383615016937256,14.87708282470703,15,197160.8396417917,-0.927001953125,-0.3533935546875,-0.086883544921875,197160.8224297917,-0.03058054616516188,0.003016296250623745,-0.01358904577823832,197160.8275267917,-98.70230102539062,-11.05509948730469,-558.872802734375,197160.8224297917,0.9676396293090329,-1.485018426570837,0.3565438112847958,-0.03328132629394531,-0.003607318270951509,-0.01682740077376366,0.007180094718933105,8.422136306762695e-05,-0.004676222801208496,1,-0.4251867830753326,0.5282744169235229,-0.2311516404151917,-0.6976469159126282,-0.9336633086204529,-0.3490374982357025,-0.08028467744588852,0,0,0,-1,197157.357678,1,2,1561914442.195215,1561913957.287787,32,0.8918345,0,0,26.32609,0,0,1561914413.669193,197158.402166,0,1.506104,75.29097,3232235528,177845136,1,1,0.53,-26.11032,-31.61971,5
1561914445.716788,9,0,0,1561914444.999712,4.634658568543042,-74.15103388025811,2553.005,1.22,274.21875,4,30,-9999,1561914445.673537,-22.857177734375,18.41513061523438,4.77984619140625,7.383615016937256,14.87708282470703,15,197160.8599057917,-0.9253997802734375,-0.3529205322265625,-0.085479736328125,197160.8426937917,-0.02945509428849439,0.007395598347150045,-0.02362516834620193,197160.8476377917,-98.6396484375,-10.96331787109375,-558.64453125,197160.8426937917,0.96687455380147,-1.484823296195132,0.3569609417931648,-0.03215587511658669,0.0007719835266470909,-0.02686352282762527,0.006500542163848877,-0.003965198993682861,-0.006429195404052734,1,-0.4250844120979309,0.5282765030860901,-0.2307906746864319,-0.6978272199630737,-0.9335024952888489,-0.3494283556938171,-0.08045435696840286,0,0,0,-1,197157.357678,1,2,1561914442.195215,1561913957.287787,32,0.8918345,0,0,26.32609,0,0,1561914413.669193,197158.402166,0,1.506104,75.29097,3232235528,177845136,1,1,0.53,-26.6676,-32.49963,5
1561914445.723745,10,0,0,1561914444.999712,4.634658568543042,-74.15103388025811,2553.005,1.22,274.21875,4,30,-9999,1561914445.673537,-22.857177734375,18.41513061523438,4.77984619140625,7.383615016937256,14.87708282470703,15,197160.8801687917,-0.9174652099609375,-0.3464508056640625,-0.08026123046875,197160.8629567917,-0.02219744768581045,-0.009332515407964674,-0.02840500987067615,197160.8677487917,-98.76420593261719,-10.90350341796875,-558.6307373046875,197160.8629567917,0.9661456966105673,-1.484694458416089,0.3575174893284953,-0.02489822916686535,-0.01595612987875938,-0.03164336457848549,0.007898449897766113,-0.002970755100250244,-0.004921793937683105,1,-0.4250401854515076,0.5282630920410156,-0.2303828597068787,-0.6979990601539612,-0.9332982301712036,-0.3499497771263123,-0.08055789023637772,0,0,0,-1,197157.357678,1,2,1561914442.195215,1561913957.287787,32,0.8918345,0,0,26.32609,0,0,1561914413.669193,197158.402166,0,1.506104,75.29097,3232235528,177845136,1,1,0.53,-26.6676,-32.49963,5
1561914445.74411,11,0,0,1561914444.999712,4.634658568543042,-74.15103388025811,2553.005,1.22,274.21875,4,30,-9999,1561914445.722983,-23.11222076416016,18.36756896972656,4.99951171875,7.439231395721436,14.93269920349121,15,197160.9004327917,-0.91986083984375,-0.3393096923828125,-0.074859619140625,197160.8831907917,-0.01658616726901349,-0.04681837196359301,-0.02525715346220249,197160.8878287917,-98.80010986328125,-11.16485595703125,-558.6527709960938,197160.8831907917,0.9656069529104618,-1.48514744201278,0.3581321447857027,-0.01928694918751717,-0.05344198644161224,-0.02849550731480122,0.01565492153167725,0.004074692726135254,-0.0001445412635803223,1,-0.425130158662796,0.5283994674682617,-0.2298987656831741,-0.6980006694793701,-0.9331201910972595,-0.3505254983901978,-0.08011670410633087,0,0,0,-1,197157.357678,1,2,1561914442.195215,1561913957.287787,32,0.8918345,0,0,26.32609,0,0,1561914413.669193,197158.402166,0,1.506104,75.29097,3232235528,177845136,1,1,0.53,-27.22488,-33.01408,5
1561914445.764784,12,0,0,1561914444.999712,4.634658568543042,-74.15103388025811,2553.005,1.22,274.21875,4,30,-9999,1561914445.750689,-22.83100891113281,18.2967700958252,4.8831787109375,7.513402462005615,15.00687026977539,15,197160.9206967917,-0.924957275390625,-0.342926025390625,-0.0807647705078125,197160.9034537917,-0.01691346976698423,-0.04424522571835845,0.002638660008050509,197160.9079397917,-98.66677856445312,-10.89797973632812,-558.5865478515625,197160.9034537917,0.9651541517533937,-1.486144687406998,0.3584402675432633,-0.01961425133049488,-0.05086883902549744,-0.0005996942054480314,0.01323115825653076,0.01150435209274292,0.004317402839660645,1,-0.4252152740955353,0.5287754535675049,-0.2294285595417023,-0.6978188157081604,-0.9330919981002808,-0.3508140444755554,-0.07917697727680206,0,0,0,-1,197157.357678,1,2,1561914442.195215,1561913957.287787,32,0.8918345,0,0,26.32609,0,0,1561914413.669193,197158.402166,0,1.506104,75.29097,3232235528,177845136,1,1,0.53,-25.97578,-33.01926,5
1561914445.792776,13,0,0,1561914444.999712,4.634658568543042,-74.15103388025811,2553.005,1.22,274.21875,4,30,-9999,1561914445.774813,-22.89316558837891,18.48670959472656,4.9678955078125,7.525793552398682,15.01926136016846,15,197160.9409597917,-0.936004638671875,-0.35174560546875,-0.0824737548828125,197160.9237177917,-0.002197107899315372,-0.02976162412996251,0.01119459764214808,197160.9280207917,-98.64125061035156,-10.92686462402344,-558.5827026367188,197160.9237177917,0.9648249262260045,-1.48690757454744,0.358240666770191,-0.00489788968116045,-0.03638523817062378,0.007956244051456451,0.008264541625976562,0.007701098918914795,-0.002293765544891357,1,-0.425157219171524,0.5291557908058167,-0.229216456413269,-0.6976355314254761,-0.9332218170166016,-0.3506271243095398,-0.07847097516059875,0,0,0,-1,197157.357678,1,2,1561914442.195215,1561913957.287787,32,0.8918345,0,0,26.32609,0,0,1561914413.669193,197158.402166,0,1.506104,75.29097,3232235528,177845136,1,1,0.53,-25.97578,-32.21487,5
1561914445.804927,14,0,0,1561914444.999712,4.634658568543042,-74.15103388025811,2553.005,1.22,274.21875,4,30,-9999,1561914445.801248,-23.00682830810547,18.51923751831055,5.015625,7.522952556610107,15.01642036437988,15,197160.9612237917,-0.9350128173828125,-0.3518829345703125,-0.082977294921875,197160.9439817917,-0.0007448861568951629,-0.006550577333267902,0.03099173823747011,197160.9481317917,-98.58062744140625,-11.00386047363281,-558.653076171875,197160.9439817917,0.9649295784522124,-1.48739527703646,0.3578213285157215,-0.003445667680352926,-0.01317419204860926,0.02775338478386402,-0.002598285675048828,-0.001511216163635254,-0.004445672035217285,1,-0.4251180291175842,0.5293964743614197,-0.2292857468128204,-0.6974539756774902,-0.9334063529968262,-0.3502343893051147,-0.07802806794643402,0,0,0,-1,197157.357678,1,2,1561914442.195215,1561913957.287787,32,0.8918345,0,0,26.32609,0,0,1561914413.669193,197158.402166,0,1.506104,75.29097,3232235528,177845136,1,1,0.53,-25.97578,-32.54738,5
1561914445.825391,15,0,0,1561914444.999712,4.634658568543042,-74.15103388025811,2553.005,1.22,274.21875,4,30,-9999,1561914445.801248,-23.00682830810547,18.51923751831055,5.015625,7.522952556610107,15.01642036437988,15,197160.9814877917,-0.9346923828125,-0.352386474609375,-0.0802459716796875,197160.9642447917,0.00688054299232872,0.004718855135511403,0.02789341662527193,197160.9682427917,-98.75724792480469,-10.85205078125,-558.4773559570312,197160.9642447917,0.9649686648394957,-1.487532738990783,0.3572776255081469,0.004179761279374361,-0.001904759556055069,0.0246550627052784,-0.001406073570251465,-0.002157866954803467,-0.005061745643615723,1,-0.4249849021434784,0.5295564532279968,-0.2294471263885498,-0.697360634803772,-0.9336068034172058,-0.349725067615509,-0.07791559398174286,0,0,0,-1,197157.357678,1,2,1561914442.195215,1561913957.287787,32,0.8918345,0,0,26.32609,0,0,1561914413.669193,197158.402166,0,1.506104,75.29097,3232235528,177845136,1,1,0.53,-25.97578,-32.87663,5
1561914445.845757,16,0,0,1561914444.999712,4.634658568543042,-74.15103388025811,2553.005,1.22,274.21875,4,30,-9999,1561914445.825571,-22.91590881347656,18.52301406860352,5.03802490234375,7.510231494903564,15.00369930267334,15,197161.0017207917,-0.93896484375,-0.3503265380859375,-0.0767822265625,197160.9845087917,0.01188968268665876,-0.01898194698564878,0.03568049965266362,197160.9883237917,-98.92532348632812,-10.76692199707031,-558.6070556640625,197160.9845087917,0.9651825144677787,-1.487798026674576,0.3567389678883368,0.009165107272565365,-0.02562961913645267,0.03244514390826225,-0.00087738037109375,-0.003166079521179199,-0.002562403678894043,1,-0.4249142408370972,0.5297226905822754,-0.2296406179666519,-0.6972137093544006,-0.9338150024414062,-0.3492203652858734,-0.07768351584672928,0,0,0,-1,197157.357678,1,2,1561914442.195215,1561913957.287787,32,0.8918345,0,0,26.32609,0,0,1561914413.669193,197158.402166,0,1.506104,75.29097,3232235528,177845136,1,1,0.53,-25.97578,-33.02208,5
1561914445.872391,17,0,0,1561914444.999712,4.634658568543042,-74.15103388025811,2553.005,1.22,274.21875,4,30,-9999,1561914445.852518,-22.94636535644531,18.54699325561523,4.85418701171875,7.489412784576416,14.98288059234619,15,197161.0219847917,-0.9484100341796875,-0.3492431640625,-0.076873779296875,197161.0047727917,0.01199354596917185,-0.01616059412681883,0.04292882519153228,197161.0084347917,-98.92356872558594,-10.8514404296875,-558.807861328125,197161.0047727917,0.9654806371046357,-1.488426776112239,0.3560425016002177,0.009268971160054207,-0.02280826680362225,0.03969347104430199,-0.004858970642089844,-0.001758873462677002,0.0003341436386108398,1,-0.4248614907264709,0.5300325751304626,-0.229837641119957,-0.6969454288482666,-0.9341058731079102,-0.3485676646232605,-0.07711636275053024,0,0,0,-1,197157.357678,1,2,1561914442.195215,1561913957.287787,32,0.8918345,0,0,26.32609,0,0,1561914413.669193,197158.402166,0,1.506104,75.29097,3232235528,177845136,1,1,0.53,-25.97578,-33.26801,5
1561914445.885916,18,0,0,1561914444.999712,4.634658568543042,-74.15103388025811,2553.005,1.22,274.21875,4,30,-9999,1561914445.876189,-23.11887359619141,18.55252075195312,4.930419921875,7.480960369110107,14.97442817687988,15,197161.0422477917,-0.952850341796875,-0.3555145263671875,-0.0729217529296875,197161.0250357917,0.006083458878068004,-0.01328411383342425,0.02590270371043769,197161.0285457917,-98.95205688476562,-10.63739013671875,-558.6137084960938,197161.0250357917,0.9656476895148842,-1.488876317160044,0.3553442536178877,0.003358883550390601,-0.01993178576231003,0.02266735024750233,-0.01402723789215088,-0.001330018043518066,-0.000157475471496582,1,-0.4247530102729797,0.5303081274032593,-0.2300276458263397,-0.6967392563819885,-0.9343828558921814,-0.3479131460189819,-0.0767163410782814,0,0,0,-1,197157.357678,1,2,1561914442.195215,1561913957.287787,32,0.8918345,0,0,26.32609,0,0,1561914413.669193,197158.402166,0,1.506104,75.29097,3232235528,177845136,1,1,0.53,-25.97578,-33.26801,5
1561914445.906156,19,0,0,1561914444.999712,4.634658568543042,-74.15103388025811,2553.005,1.22,274.21875,4,30,-9999,1561914445.902529,-23.08271789550781,18.54547119140625,4.9927978515625,7.503757953643799,14.99722576141357,15,197161.0625117917,-0.9513397216796875,-0.3546905517578125,-0.078857421875,197161.0452997917,-0.009731190623149536,0.02318920887575596,-0.005478122362292993,197161.0486257917,-98.75802612304688,-10.86029052734375,-558.5771484375,197161.0452997917,0.9655810684064744,-1.488910112465541,0.355260839079364,-0.012455765157938,0.01654153689742088,-0.008713475428521633,-0.01843607425689697,-0.007679641246795654,0.003765344619750977,1,-0.4247148334980011,0.5303524732589722,-0.2300243973731995,-0.6967297792434692,-0.934414267539978,-0.3478349149227142,-0.07668712735176086,0,0,0,-1,197157.357678,1,2,1561914442.195215,1561913957.287787,32,0.8918345,0,0,26.32609,0,0,1561914413.669193,197158.402166,0,1.506104,75.29097,3232235528,177845136,1,1,0.53,-25.97578,-33.87309,5
1561914445.926777,20,0,0,1561914444.999712,4.634658568543042,-74.15103388025811,2553.005,1.22,274.21875,4,30,-9999,1561914445.902529,-23.08271789550781,18.54547119140625,4.9927978515625,7.503757953643799,14.99722576141357,15,197161.0827757917,-0.95025634765625,-0.349365234375,-0.0782470703125,197161.0655327917,-0.01688231078223031,0.03972051502631382,-0.0139110219540289,197161.0687367917,-98.63124084472656,-10.90321350097656,-558.6548461914062,197161.0655327917,0.9651136391422553,-1.488110112849967,0.3555427475358982,-0.01960688643157482,0.03307284042239189,-0.01714637503027916,-0.01708483695983887,-0.006591349840164185,-0.001430869102478027,1,-0.4245814681053162,0.5301106572151184,-0.2299396395683289,-0.6970230340957642,-0.9342548847198486,-0.3480992317199707,-0.07742653787136078,0,0,0,-1,197157.357678,1,2,1561914442.195215,1561913957.287787,32,0.8918345,0,0,26.32609,0,0,1561914413.669193,197158.402166,0,1.506104,75.29097,3232235528,177845136,1,1,0.53,-25.97578,-34.60438,5
1561914445.951596,21,0,0,1561914444.999712,4.634658568543042,-74.15103388025811,2553.005,1.22,274.21875,4,30,-9999,1561914445.92737,-22.90254974365234,18.38200378417969,4.95098876953125,7.5148606300354,15.00832843780518,15,197161.1030387917,-0.9495849609375,-0.351348876953125,-0.080535888671875,197161.0857967917,0.02871766498265145,0.003513774742250547,-0.01181138575061043,197161.0888177917,-98.99139404296875,-10.88731384277344,-558.4859619140625,197161.0857967917,0.9651384648453576,-1.487829022900888,0.3558732567821184,0.02599309012293816,-0.003133897436782718,-0.01504673901945353,-0.01613795757293701,-0.0009561777114868164,-0.0005674362182617188,1,-0.4246525466442108,0.5299343466758728,-0.2299004197120667,-0.6971267461776733,-0.934118390083313,-0.3484090268611908,-0.07767960429191589,0,0,0,-1,197157.357678,1,2,1561914442.195215,1561913957.287787,32,0.8918345,0,0,26.32609,0,0,1561914413.669193,197158.402166,0,1.506104,75.29097,3232235528,177845136,1,1,0.53,-25.97578,-34.73311,5
1561914445.967108,22,0,0,1561914444.999712,4.634658568543042,-74.15103388025811,2553.005,1.22,274.21875,4,30,-9999,1561914445.955192,-22.94831085205078,18.51902770996094,4.9971923828125,7.466060161590576,14.95952796936035,15,197161.1233027917,-0.946136474609375,-0.354095458984375,-0.07733154296875,197161.1060597917,0.03742140805724842,-0.002515621965688848,-0.01993669023644219,197161.1089287917,-98.90899658203125,-10.92582702636719,-558.892578125,197161.1060597917,0.9658351749756765,-1.488303052020262,0.3562750023311751,0.03469683229923248,-0.009163293987512589,-0.0231720432639122,-0.01556944847106934,-0.002563267946243286,-0.003310620784759521,1,-0.4250092804431915,0.5298627018928528,-0.2299118041992188,-0.6969600319862366,-0.9340155720710754,-0.3487855792045593,-0.07722526043653488,0,0,0,-1,197157.357678,1,2,1561914442.195215,1561913957.287787,32,0.8918345,0,0,26.32609,0,0,1561914413.669193,197158.402166,0,1.506104,75.29097,3232235528,177845136,1,1,0.53,-25.97578,-33.40673,5
1561914445.987228,23,0,0,1561914444.999712,4.634658568543042,-74.15103388025811,2553.005,1.22,274.21875,4,30,-9999,1561914445.977466,-23.04711151123047,18.46440887451172,4.99932861328125,7.443819522857666,14.93728733062744,15,197161.1435667917,-0.9359893798828125,-0.3489227294921875,-0.0727386474609375,197161.1263237917,0.01703251306771078,0.01716380690945168,-0.03885525398814708,197161.1290397917,-98.76260375976562,-10.85191345214844,-558.6519775390625,197161.1263237917,0.9662683751014244,-1.488484073270605,0.35696256584453,0.01430793851613998,0.01051613502204418,-0.04209060966968536,-0.01234620809555054,-0.004665553569793701,-0.000295102596282959,1,-0.4253460764884949,0.5296815037727356,-0.2298004776239395,-0.6969289779663086,-0.9337902665138245,-0.3494298756122589,-0.07703644037246704,0,0,0,-1,197157.357678,1,2,1561914442.195215,1561913957.287787,32,0.8918345,0,0,26.32609,0,0,1561914413.669193,197158.402166,0,1.506104,75.29097,3232235528,177845136,1,1,0.53,-25.97578,-33.53345,5
1561914446.00798,24,0,0,1561914444.999712,4.634658568543042,-74.15103388025811,2553.005,1.22,274.21875,4,30,-9999,1561914446.003872,-22.96842956542969,18.59050941467285,5.033447265625,7.446139812469482,14.93960762023926,15,197161.1638297917,-0.9303741455078125,-0.342498779296875,-0.072967529296875,197161.1465877917,0.001654621985266231,0.008028365422152871,-0.03590420518423027,197161.1491207917,-98.65675354003906,-10.64105224609375,-558.5528564453125,197161.1465877917,0.9662978470797779,-1.488331652486972,0.3578178396146028,-0.001069953083060682,0.001380693633109331,-0.03913956135511398,-0.002508997917175293,0.001308411359786987,0.004415452480316162,1,-0.4255865812301636,0.5294327139854431,-0.2295647710561752,-0.6970489025115967,-0.9334803819656372,-0.3502311110496521,-0.07715412974357605,0,0,0,-1,197157.357678,1,2,1561914442.195215,1561913957.287787,32,0.8918345,0,0,26.32609,0,0,1561914413.669193,197158.402166,0,1.506104,75.29097,3232235528,177845136,1,1,0.53,-25.97578,-34.04009,5
1561914446.034965,25,0,0,1561914444.999712,4.634658568543042,-74.15103388025811,2553.005,1.22,274.21875,4,30,-9999,1561914446.029491,-23.09909057617188,18.38574409484863,4.98046875,7.446133136749268,14.93960094451904,15,197161.1840627917,-0.9240570068359375,-0.34576416015625,-0.08099365234375,197161.1668507917,0.007493070043046945,-0.0166871010743275,-0.03922756390854015,197161.1692317917,-98.89535522460938,-10.82673645019531,-558.6491088867188,197161.1668507917,0.9662772668531561,-1.488564207563978,0.3586084852418473,0.004768494516611099,-0.02333477325737476,-0.04246291890740395,0.002847790718078613,0.008472800254821777,0.00394672155380249,1,-0.4258390665054321,0.5293429493904114,-0.2292506694793701,-0.6970661878585815,-0.9332219362258911,-0.3509715795516968,-0.07691426575183868,0,0,0,-1,197157.357678,1,2,1561914442.195215,1561913957.287787,32,0.8918345,0,0,26.32609,0,0,1561914413.669193,197158.402166,0,1.506104,75.29097,3232235528,177845136,1,1,0.53,-25.97578,-33.82409,5
1561914446.048293,26,0,0,1561914445.999755,4.634668040093626,-74.15105047642639,2553.017,1.34,283.7109375,4,50,-9999,1561914446.029491,-23.09909057617188,18.38574409484863,4.98046875,7.446133136749268,14.93960094451904,15,197161.2043267917,-0.9206390380859375,-0.3421783447265625,-0.0882415771484375,197161.1871147917,0.006619819521609963,-0.0116758308511254,-0.03266047497651376,197161.1893427917,-98.82708740234375,-10.86569213867188,-558.4908447265625,197161.1871147917,0.9662782608087606,-1.489079159475766,0.3594351740663266,0.003895244328305125,-0.01832350343465805,-0.03589582815766335,0.00891488790512085,0.005981385707855225,-0.00458371639251709,1,-0.4261399805545807,0.5293389558792114,-0.2288720905780792,-0.6970096826553345,-0.9329718351364136,-0.3517455458641052,-0.07640997320413589,0,0,0,-1,197157.357678,1,2,1561914442.195215,1561913957.287787,32,0.8918345,0,0,26.32609,0,0,1561914413.669193,197158.402166,0,1.506104,75.29097,3232235528,177845136,1,1,0.53,-25.97578,-34.13027,5
1561914446.068413,27,0,0,1561914445.999755,4.634668040093626,-74.15105047642639,2553.017,1.34,283.7109375,4,50,-9999,1561914446.056077,-22.84979248046875,18.52050018310547,5.00872802734375,7.425419330596924,14.9188871383667,15,197161.2245907917,-0.919952392578125,-0.3454437255859375,-0.0832672119140625,197161.2073787917,0.0346416005114237,-0.001278583639347042,-0.01512196130168793,197161.2094227917,-98.70309448242188,-10.8721923828125,-558.627197265625,197161.2073787917,0.9665361109063983,-1.489416640824759,0.3599894898350693,0.0319170244038105,-0.007926255464553833,-0.01835731416940689,0.01216411590576172,0.0100860595703125,-0.01216232776641846,1,-0.4264087677001953,0.5292786955833435,-0.2287094444036484,-0.6969444751739502,-0.9328031539916992,-0.352264404296875,-0.07607924938201904,0,0,0,-1,197157.357678,1,2,1561914442.195215,1561913957.287787,32,0.8918345,0,0,26.32609,0,0,1561914413.669193,197158.402166,0,1.506104,75.29097,3232235528,177845136,1,1,0.53,-25.97578,-34.13027,5
1561914446.088518,28,0,0,1561914445.999755,4.634668040093626,-74.15105047642639,2553.017,1.34,283.7109375,4,50,-9999,1561914446.078775,-23.05449676513672,18.3662109375,4.98016357421875,7.340099811553955,14.83356761932373,15,197161.2448537917,-0.9221038818359375,-0.3508758544921875,-0.079864501953125,197161.2276417917,0.06628661216429026,0.01894386378206064,-0.0127144636762563,197161.2295347917,-98.53166198730469,-10.74507141113281,-558.6846313476562,197161.2276417917,0.967629814326872,-1.489735275187589,0.3603844636736822,0.06356203556060791,0.01229619048535824,-0.01594981737434864,0.01273620128631592,0.007190316915512085,-0.007496476173400879,1,-0.4268499314785004,0.5290687680244446,-0.2288938611745834,-0.6967732310295105,-0.9326885938644409,-0.3526340126991272,-0.07577075064182281,0,0,0,-1,197157.357678,1,2,1561914442.195215,1561913957.287787,32,0.8918345,0,0,26.32609,0,0,1561914413.669193,197158.402166,0,1.506104,75.29097,3232235528,177845136,1,1,0.53,-25.97578,-34.26628,5
1561914446.113956,29,0,0,1561914445.999755,4.634668040093626,-74.15105047642639,2553.017,1.34,283.7109375,4,50,-9999,1561914446.105253,-23.12518310546875,18.26713180541992,4.89215087890625,7.271153926849365,14.76462173461914,15,197161.2651177917,-0.92303466796875,-0.3476104736328125,-0.0736541748046875,197161.2478757917,0.05167784200466059,0.07132557926282918,-0.03162290741581889,197161.2496147917,-98.60000610351562,-11.06503295898438,-558.7974853515625,197161.2478757917,0.9688270266643206,-1.489411499748098,0.3609506076331666,0.04895326495170593,0.06467790901660919,-0.03485826402902603,0.01036107540130615,0.002287864685058594,-0.003808021545410156,1,-0.4272945821285248,0.5285745859146118,-0.2291956692934036,-0.6967766284942627,-0.9324649572372437,-0.3531637489795685,-0.07605649530887604,0,0,0,-1,197157.357678,1,2,1561914442.195215,1561913957.287787,32,0.8918345,0,0,26.32609,0,0,1561914413.669193,197158.402166,0,1.506104,75.29097,3232235528,177845136,1,1,0.53,-25.43104,-29.87803,5
1561914446.132864,30,0,0,1561914445.999755,4.634668040093626,-74.15105047642639,2553.017,1.34,283.7109375,4,50,-9999,1561914446.105253,-23.12518310546875,18.26713180541992,4.89215087890625,7.271153926849365,14.76462173461914,15,197161.2853817917,-0.9122161865234375,-0.3470611572265625,-0.0755157470703125,197161.2681387917,0.03215181120830863,0.08737698378495476,-0.04036979370007514,197161.2697257917,-98.69853210449219,-10.90936279296875,-558.6473388671875,197161.2681387917,0.9695687257802145,-1.487959333117953,0.361860497186259,0.02942723594605923,0.08072931319475174,-0.04360514879226685,0.00899815559387207,0.006404399871826172,0.003729701042175293,1,-0.4275894165039062,0.5277076363563538,-0.2294681817293167,-0.6971630454063416,-0.9320328831672668,-0.3540148437023163,-0.07738388329744339,0,0,0,-1,197157.357678,1,2,1561914442.195215,1561913957.287787,32,0.8918345,0,0,26.32609,0,0,1561914413.669193,197158.402166,0,1.506104,75.29097,3232235528,177845136,1,1,0.53,-13.7006,-21.17816,5
1561914446.149338,31,0,0,1561914445.999755,4.634668040093626,-74.15105047642639,2553.017,1.34,283.7109375,4,50,-9999,1561914446.131628,-22.97684478759766,18.44805526733398,4.7969970703125,7.220754146575928,14.7142219543457,15,197161.3056447917,-0.90765380859375,-0.34576416015625,-0.0790252685546875,197161.2884027917,0.06447379841027331,0.02270850829899666,-0.05223577425303219,197161.2898367917,-98.6773681640625,-11.21630859375,-558.7200317382812,197161.2884027917,0.9703794800534803,-1.487232674615339,0.3629297444565166,0.06174922361969948,0.0160608347505331,-0.05547112971544266,0.01938247680664062,0.007953464984893799,0.002513766288757324,1,-0.4280317723751068,0.5270427465438843,-0.2295582145452499,-0.697364866733551,-0.9315986037254333,-0.3550146520137787,-0.07802949100732803,0,0,0,-1,197157.357678,1,2,1561914442.195215,1561913957.287787,32,0.8918345,0,0,26.32609,0,0,1561914413.669193,197158.402166,0,1.506104,75.29097,3232235528,177845136,1,1,0.53,-12.14319,-13.57521,5
1561914446.169668,32,0,0,1561914445.999755,4.634668040093626,-74.15105047642639,2553.017,1.34,283.7109375,4,50,-9999,1561914446.159953,-23.0726318359375,18.42042922973633,4.71063232421875,7.100935459136963,14.59440326690674,15,197161.3259087917,-0.9102935791015625,-0.341827392578125,-0.0772705078125,197161.3086667917,0.1032100090976939,-0.02997068227553373,-0.04687163518539459,197161.3099177917,-98.8470458984375,-11.03292846679688,-558.6375732421875,197161.3086667917,0.9720517725732987,-1.488255860948245,0.3640830643926874,0.1004854366183281,-0.03661835193634033,-0.05010699108242989,0.02361547946929932,0.01032844185829163,-0.001982808113098145,1,-0.4289259314537048,0.5267839431762695,-0.2295465171337128,-0.6970148086547852,-0.9312693476676941,-0.3560926020145416,-0.07704244554042816,0,0,0,-1,197157.357678,1,2,1561914442.195215,1561913957.287787,32,0.8918345,0,0,26.32609,0,0,1561914413.669193,197158.402166,0,1.506104,75.29097,3232235528,177845136,1,1,0.53,-12.14319,-14.06473,5
1561914446.194364,33,0,0,1561914445.999755,4.634668040093626,-74.15105047642639,2553.017,1.34,283.7109375,4,50,-9999,1561914446.181151,-23.20034790039062,18.42984390258789,4.75738525390625,6.903119564056396,14.39658737182617,15,197161.3461727917,-0.9180755615234375,-0.343994140625,-0.0732574462890625,197161.3289297917,0.1444727607112726,-0.01035809874375419,-0.04791879012601375,197161.3300287917,-98.97779846191406,-11.06855773925781,-558.8104248046875,197161.3289297917,0.9746138037288614,-1.489756440912994,0.3652563361776214,0.1417481899261475,-0.01700577139854431,-0.05115414410829544,0.02067321538925171,0.01536136865615845,-0.001659512519836426,1,-0.4301141798496246,0.5264943242073059,-0.2297346442937851,-0.6964391469955444,-0.9309667944908142,-0.3571887314319611,-0.07561103999614716,0,0,0,-1,197157.357678,1,2,1561914442.195215,1561913957.287787,32,0.8918345,0,0,26.32609,0,0,1561914413.669193,197158.402166,0,1.506104,75.29097,3232235528,177845136,1,1,0.53,-12.14319,-14.24742,5
1561914446.210074,34,0,0,1561914445.999755,4.634668040093626,-74.15105047642639,2553.017,1.34,283.7109375,4,50,-9999,1561914446.206535,-22.77325439453125,18.34462738037109,4.62322998046875,6.645987987518311,14.13945579528809,15,197161.366421375,-0.917938232421875,-0.3607940673828125,-0.0714111328125,197161.3491937917,0.1768280374268632,0.01910684924077349,-0.05569841630235322,197161.3501397917,-98.51670837402344,-11.06181335449219,-558.8533935546875,197161.3491937917,0.9779653288808943,-1.490900391210517,0.3667577473995183,0.1741034686565399,0.01245917566120625,-0.05893377214670181,0.01244145631790161,0.01459652185440063,0.001245617866516113,1,-0.4315631687641144,0.5258342623710632,-0.2301656454801559,-0.6958988904953003,-0.9305170178413391,-0.358590692281723,-0.07450311630964279,0,0,0,-1,197157.357678,1,2,1561914442.195215,1561913957.287787,32,0.8918345,0,0,26.32609,0,0,1561914413.669193,197158.402166,0,1.506104,75.29097,3232235528,177845136,1,1,0.53,-12.14319,-14.24742,5
1561914446.232909,35,0,0,1561914445.999755,4.634668040093626,-74.15105047642639,2553.017,1.34,283.7109375,4,50,-9999,1561914446.231311,-22.88443756103516,18.36651229858398,4.62176513671875,6.428849697113037,13.92231750488281,15,197161.386685375,-0.9466094970703125,-0.3583221435546875,-0.075439453125,197161.369473375,0.1584474322153543,0.04212055580069323,-0.1069373693593688,197161.370266375,-98.85162353515625,-11.00489807128906,-558.9313354492188,197161.369473375,0.9815615389553506,-1.491934961574567,0.3688050619434933,0.1557228565216064,0.03547288477420807,-0.110172726213932,0.01192152500152588,-0.0002929568290710449,0.002071261405944824,1,-0.4332196414470673,0.5249567031860352,-0.2305256128311157,-0.6954128742218018,-0.9298597574234009,-0.3605011105537415,-0.07348240166902542,0,0,0,-1,197157.357678,1,2,1561914442.195215,1561913957.287787,32,0.8918345,0,0,26.32609,0,0,1561914413.669193,197158.402166,0,1.506104,75.29097,3232235528,177845136,1,1,0.53,-12.14319,-14.9535,5
1561914446.250616,36,0,0,1561914445.999755,4.634668040093626,-74.15105047642639,2553.017,1.34,283.7109375,4,50,-9999,1561914446.231311,-22.88443756103516,18.36651229858398,4.62176513671875,6.428849697113037,13.92231750488281,15,197161.406948375,-0.9440155029296875,-0.36572265625,-0.086029052734375,197161.389736375,0.1342542116086385,0.1581539518632276,-0.1133681044435831,197161.390347375,-98.85908508300781,-11.24751281738281,-559.0372314453125,197161.389736375,0.9844227979718239,-1.49104227105587,0.3712506757897363,0.1315296441316605,0.1515062749385834,-0.1166034564375877,-0.01769733428955078,0.004459023475646973,-0.001197457313537598,1,-0.4345729947090149,0.5234742760658264,-0.2309172749519348,-0.6955559849739075,-0.9289121627807617,-0.3627811968326569,-0.07424198836088181,0,0,0,-1,197157.357678,1,2,1561914442.195215,1561913957.287787,32,0.8918345,0,0,26.32609,0,0,1561914413.669193,197158.402166,0,1.506104,75.29097,3232235528,177845136,1,1,0.53,-12.14319,-15.83459,5
1561914446.274714,37,0,0,1561914445.999755,4.634668040093626,-74.15105047642639,2553.017,1.34,283.7109375,4,50,-9999,1561914446.25767,-23.10284423828125,18.30642318725586,4.4033203125,6.251074314117432,13.74454212188721,15,197161.427212375,-0.9618072509765625,-0.3681640625,-0.079254150390625,197161.410000375,0.1449047254400834,0.2287748587016218,-0.1588801958924922,197161.410458375,-98.85324096679688,-11.33941650390625,-559.2386474609375,197161.410000375,0.9868233003878011,-1.488180484124714,0.3744319834273646,0.1421801447868347,0.2221271842718124,-0.1621155440807343,-0.01647454500198364,2.124905586242676e-05,-0.009224653244018555,1,-0.435787171125412,0.5212363600730896,-0.2313392907381058,-0.6963362693786621,-0.9275409579277039,-0.3657439351081848,-0.07680439949035645,0,0,0,-1,197157.357678,1,2,1561914442.195215,1561913957.287787,32,0.8918345,0,0,26.32609,0,0,1561914413.669193,197158.402166,0,1.506104,75.29097,3232235528,177845136,1,1,0.53,-12.14319,-16.77919,5
1561914446.291126,38,0,0,1561914445.999755,4.634668040093626,-74.15105047642639,2553.017,1.34,283.7109375,4,50,-9999,1561914446.281758,-23.22657775878906,18.16751480102539,4.3729248046875,6.014609813690186,13.50807762145996,15,197161.447476375,-0.961151123046875,-0.373077392578125,-0.0885772705078125,197161.430233375,0.170501431941271,0.2527624832721835,-0.1677578433862714,197161.430569375,-98.89775085449219,-11.15211486816406,-559.2456665039062,197161.430233375,0.990023842963099,-1.48456509710525,0.3779210236730569,0.1677768528461456,0.2461147904396057,-0.1709931939840317,-0.0358269214630127,0.0008249580860137939,0.0007927417755126953,1,-0.437206357717514,0.518485426902771,-0.2321086525917053,-0.697243869304657,-0.9259803295135498,-0.3689889907836914,-0.08004692941904068,0,0,0,-1,197157.357678,1,2,1561914442.195215,1561913957.287787,32,0.8918345,0,0,26.32609,0,0,1561914413.669193,197158.402166,0,1.506104,75.29097,3232235528,177845136,1,1,0.53,-12.14319,-17.73644,5
1561914446.311355,39,0,0,1561914445.999755,4.634668040093626,-74.15105047642639,2553.017,1.34,283.7109375,4,50,-9999,1561914446.307772,-23.35403442382812,17.9758186340332,4.17987060546875,5.738337993621826,13.2318058013916,15,197161.467739375,-0.9581146240234375,-0.3838958740234375,-0.1097259521484375,197161.450497375,0.1976017591939173,0.2134739329746806,-0.2041496733660952,197161.450680375,-99.20602416992188,-11.76246643066406,-559.580322265625,197161.450497375,0.9936064317867287,-1.481213321922571,0.381924649922038,0.1948771774768829,0.2068262547254562,-0.2073850333690643,-0.03692305088043213,-0.0003702640533447266,-0.005559921264648438,1,-0.4388966262340546,0.5156171917915344,-0.2327921837568283,-0.6980805993080139,-0.9242281317710876,-0.3727071285247803,-0.08301732689142227,0,0,0,-1,197157.357678,1,2,1561914442.195215,1561913957.287787,32,0.8918345,0,0,26.32609,0,0,1561914413.669193,197158.402166,0,1.506104,75.29097,3232235528,177845136,1,1,0.53,-12.14319,-18.77639,5
1561914446.333323,40,0,0,1561914445.999755,4.634668040093626,-74.15105047642639,2553.017,1.34,283.7109375,4,50,-9999,1561914446.307772,-23.35403442382812,17.9758186340332,4.17987060546875,5.738337993621826,13.2318058013916,15,197161.488003375,-0.971893310546875,-0.37109375,-0.11474609375,197161.470761375,0.2359352999245179,0.1283917951010471,-0.2623064536707005,197161.470791375,-99.56787109375,-11.26214599609375,-559.6193237304688,197161.470761375,0.997736979237473,-1.479643433386434,0.3870485919546814,0.2332107275724411,0.1217441186308861,-0.2655417919158936,-0.03593194484710693,-0.006438910961151123,-0.02543270587921143,1,-0.4412497282028198,0.512983500957489,-0.2329169809818268,-0.6984957456588745,-0.9221826791763306,-0.3774569928646088,-0.08429320901632309,0,0,0,-1,197157.357678,1,2,1561914442.195215,1561913957.287787,32,0.8918345,0,0,26.32609,0,0,1561914413.669193,197158.402166,0,1.506104,75.29097,3232235528,177845136,1,1,0.53,-12.14319,-19.77464,5
1561914446.354542,41,0,0,1561914445.999755,4.634668040093626,-74.15105047642639,2553.017,1.34,283.7109375,4,50,-9999,1561914446.332164,-23.66500091552734,17.81317138671875,3.83380126953125,5.3749098777771,12.86837768554688,15,197161.508267375,-0.960418701171875,-0.3592376708984375,-0.122802734375,197161.491024375,0.3251229669346175,0.1814672640457813,-0.2641520243061254,197161.490872375,-99.58465576171875,-11.63937377929688,-559.8096923828125,197161.491024375,1.003218693920632,-1.478808188868185,0.392959040008161,0.3223983645439148,0.1748195886611938,-0.2673873603343964,-0.05201888084411621,0.01182982325553894,-0.02988904714584351,1,-0.4442486763000488,0.5101123452186584,-0.233099028468132,-0.6986368298530579,-0.9198744297027588,-0.3829236030578613,-0.08485701680183411,0,0,0,-1,197157.357678,1,2,1561914442.195215,1561913957.287787,32,0.8918345,0,0,26.32609,0,0,1561914413.669193,197158.402166,0,1.506104,75.29097,3232235528,177845136,1,1,0.53,-12.14319,-20.75207,5
1561914446.372187,42,0,0,1561914445.999755,4.634668040093626,-74.15105047642639,2553.017,1.34,283.7109375,4,50,-9999,1561914446.358494,-23.79084777832031,17.72341918945312,3.78643798828125,4.815670490264893,12.30913829803467,15,197161.528530375,-0.95550537109375,-0.3599853515625,-0.117156982421875,197161.511288375,0.4412823305167127,0.2169472276683619,-0.2561135388718302,197161.510983375,-99.49014282226562,-11.56492614746094,-560.0879516601562,197161.511288375,1.010934654154277,-1.477825546168798,0.3989116830902408,0.4385577440261841,0.210299551486969,-0.2593488693237305,-0.04291403293609619,0.02917802333831787,-0.0372549295425415,1,-0.4477939605712891,0.5066623091697693,-0.2340826988220215,-0.698555052280426,-0.9175046682357788,-0.3884156942367554,-0.08554774522781372,0,0,0,-1,197157.357678,1,2,1561914442.195215,1561913957.287787,32,0.8918345,0,0,26.32609,0,0,1561914413.669193,197158.402166,0,1.506104,75.29097,3232235528,177845136,1,1,0.53,-12.14319,-20.75207,5
1561914446.392415,43,0,0,1561914445.999755,4.634668040093626,-74.15105047642639,2553.017,1.34,283.7109375,4,50,-9999,1561914446.383182,-23.72838592529297,17.85041046142578,3.3480224609375,4.017144680023193,11.51061248779297,15,197161.548763375,-0.9458770751953125,-0.3663330078125,-0.1013336181640625,197161.531552375,0.5641848179788884,0.2231987320112139,-0.2696208256046032,197161.531094375,-99.56497192382812,-11.57389831542969,-560.3677368164062,197161.531552375,1.021489928801051,-1.477762362496559,0.4051382285102749,0.5614601969718933,0.2165510505437851,-0.2728561758995056,-0.04043209552764893,0.03416043519973755,-0.03177762031555176,1,-0.4522168636322021,0.5028023719787598,-0.2357634603977203,-0.6979291439056396,-0.9150732755661011,-0.3941458165645599,-0.08537936955690384,0,0,0,-1,197157.357678,1,2,1561914442.195215,1561913957.287787,32,0.8918345,0,0,26.32609,0,0,1561914413.669193,197158.402166,0,1.506104,75.29097,3232235528,177845136,1,1,0.53,-12.14319,-21.74509,5
1561914446.415607,44,0,0,1561914445.999755,4.634668040093626,-74.15105047642639,2553.017,1.34,283.7109375,4,50,-9999,1561914446.409061,-23.95365142822266,17.65988159179688,2.87921142578125,3.058982372283936,10.55245018005371,15,197161.569027375,-0.938140869140625,-0.35711669921875,-0.0871429443359375,197161.551815375,0.6408186099264636,0.2788172534808648,-0.3428076881532887,197161.551205375,-99.76824951171875,-11.75009155273438,-560.5675048828125,197161.551815375,1.03391783159131,-1.477881234301119,0.4124929506284717,0.6380940079689026,0.2721695601940155,-0.3460430204868317,-0.03370463848114014,0.03456145524978638,-0.01633429527282715,1,-0.4574121236801147,0.4982714951038361,-0.2376877665519714,-0.6971399188041687,-0.9121724367141724,-0.400894433259964,-0.08499933034181595,0,0,0,-1,197157.357678,1,2,1561914442.195215,1561913957.287787,32,0.8918345,0,0,26.32609,0,0,1561914413.669193,197158.402166,0,1.506104,75.29097,3232235528,177845136,1,1,0.53,-12.14319,-22.69616,5
1561914446.437372,45,0,0,1561914445.999755,4.634668040093626,-74.15105047642639,2553.017,1.34,283.7109375,4,50,-9999,1561914446.433376,-24.23229217529297,17.54193115234375,2.4156494140625,1.828220844268799,9.321688652038574,15,197161.589291375,-0.8985748291015625,-0.310089111328125,-0.1116485595703125,197161.572079375,0.7516053123254328,0.2626606540956811,-0.4827136602272934,197161.571285375,-100.2035827636719,-11.68556213378906,-561.0214233398438,197161.572079375,1.048288992344725,-1.477905119868677,0.4219413430312597,0.7488807439804077,0.2560129761695862,-0.4859490096569061,-0.02977854013442993,0.05241557955741882,-0.002520561218261719,1,-0.4636114239692688,0.4926999509334564,-0.2396285682916641,-0.6963399052619934,-0.9083623290061951,-0.4095323085784912,-0.08462241291999817,0,0,0,-1,197157.357678,1,2,1561914442.195215,1561913957.287787,32,0.8918345,0,0,26.32609,0,0,1561914413.669193,197158.402166,0,1.506104,75.29097,3232235528,177845136,1,1,0.53,-12.14319,-23.46501,5
1561914446.453272,46,0,0,1561914445.999755,4.634668040093626,-74.15105047642639,2553.017,1.34,283.7109375,4,50,-9999,1561914446.433376,-24.23229217529297,17.54193115234375,2.4156494140625,1.828220844268799,9.321688652038574,15,197161.609554375,-0.8630218505859375,-0.236175537109375,-0.124298095703125,197161.592343375,1.09237062223874,0.2228775547837504,-0.7900435152868736,197161.591396375,-100.2788543701172,-12.099853515625,-561.4564208984375,197161.592343375,1.066731205237879,-1.481070716560497,0.4361237131773082,1.089646100997925,0.2162298709154129,-0.7932788729667664,0.00417482852935791,0.1123400926589966,-0.03043073415756226,1,-0.4724096655845642,0.4860248863697052,-0.240706205368042,-0.6947440505027771,-0.9027496576309204,-0.4224292039871216,-0.08121783286333084,0,0,0,-1,197157.357678,1,2,1561914442.195215,1561913957.287787,32,0.8918345,0,0,26.32609,0,0,1561914413.669193,197158.402166,0,1.506104,75.29097,3232235528,177845136,1,1,0.53,-12.14319,-24.38434,5
1561914446.473562,47,0,0,1561914445.999755,4.634668040093626,-74.15105047642639,2553.017,1.34,283.7109375,4,50,-9999,1561914446.460197,-24.53204345703125,17.20185661315918,1.9813232421875,359.8017578125,7.295212268829346,15,197161.629818375,-0.799530029296875,-0.1414947509765625,-0.1157073974609375,197161.612576375,1.572669327989549,0.2968945246442136,-1.144809595682945,197161.611508375,-100.641357421875,-12.39140319824219,-562.2958984375,197161.612576375,1.094783763236508,-1.488205823351576,0.4580647441987086,1.569944739341736,0.290246844291687,-1.148044943809509,0.030830979347229,0.2060376405715942,-0.05030602216720581,1,-0.4859332144260406,0.4763117432594299,-0.2415977567434311,-0.6918284893035889,-0.8938528299331665,-0.4422131776809692,-0.07399206608533859,0,0,0,-1,197157.357678,1,2,1561914442.195215,1561913957.287787,32,0.8918345,0,0,26.32609,0,0,1561914413.669193,197158.402166,0,1.506104,75.29097,3232235528,177845136,1,1,0.53,-12.14319,-25.20323,5
1561914446.493868,48,0,0,1561914445.999755,4.634668040093626,-74.15105047642639,2553.017,1.34,283.7109375,4,50,-9999,1561914446.484113,-25.08544921875,16.84320449829102,1.26593017578125,356.9348449707031,4.428301334381104,15,197161.650082375,-0.7440185546875,-0.0243072509765625,-0.0666046142578125,197161.632839375,1.938502440611554,0.4695168980776238,-1.342418811727915,197161.631619375,-101.2985076904297,-13.25436401367188,-562.8331298828125,197161.632839375,1.132518566966372,-1.497728220391038,0.4863835745977212,1.935777902603149,0.4628692269325256,-1.345654129981995,0.08214032649993896,0.3259371817111969,-0.0511704683303833,1,-0.5033393502235413,0.4630130231380463,-0.2430371791124344,-0.6878964304924011,-0.881670355796814,-0.4674319326877594,-0.06453687697649002,0,0,0,-1,197157.357678,1,2,1561914442.195215,1561913957.287787,32,0.8918345,0,0,26.32609,0,0,1561914413.669193,197158.402166,0,1.506104,75.29097,3232235528,177845136,1,1,0.53,-12.14319,-26.09311,5
1561914446.518789,49,0,0,1561914445.999755,4.634668040093626,-74.15105047642639,2553.017,1.34,283.7109375,4,50,-9999,1561914446.510477,-25.99639129638672,15.70034122467041,-0.3857421875,353.3527221679688,0.8462045192718506,15,197161.670345375,-0.664093017578125,0.0850067138671875,-0.0478057861328125,197161.653103375,2.217898931629511,0.511336250359029,-1.337987045357914,197161.651699375,-101.6746978759766,-13.68943786621094,-563.7171020507812,197161.653103375,1.178329336823878,-1.509533453097108,0.5166112215972081,2.215174198150635,0.5046886205673218,-1.341222405433655,0.1238481998443604,0.469629168510437,-0.01336997747421265,1,-0.5227693915367126,0.4473196268081665,-0.2458335906267166,-0.6827760338783264,-0.8678668141365051,-0.4939364492893219,-0.05323462933301926,0,0,0,-1,197157.357678,1,2,1561914442.195215,1561913957.287787,32,0.8918345,0,0,26.32609,0,0,1561914413.669193,197158.402166,0,1.506104,75.29097,3232235528,177845136,1,1,0.53,-12.14319,-27.07518,5
1561914446.53454,50,0,0,1561914445.999755,4.634668040093626,-74.15105047642639,2553.017,1.34,283.7109375,4,50,-9999,1561914446.510477,-25.99639129638672,15.70034122467041,-0.3857421875,353.3527221679688,0.8462045192718506,15,197161.690609375,-0.5767974853515625,0.163543701171875,-0.0156707763671875,197161.673367375,2.568585581867799,0.3879586549583831,-1.267848170676824,197161.671810375,-102.3070983886719,-14.26939392089844,-564.7512817382812,197161.673367375,1.232692671937214,-1.528258508309513,0.5457488788061854,2.565860986709595,0.3813109695911407,-1.271083474159241,0.189872682094574,0.6040650606155396,-0.01145803928375244,1,-0.5439372658729553,0.431228905916214,-0.2497486025094986,-0.6751292943954468,-0.853965699672699,-0.5190583467483521,-0.03634776175022125,0,0,0,-1,197157.357678,1,2,1561914442.195215,1561913957.287787,32,0.8918345,0,0,26.32609,0,0,1561914413.669193,197158.402166,0,1.506104,75.29097,3232235528,177845136,1,1,0.53,-12.14319,-27.07518,5
1561914446.554593,51,0,0,1561914445.999755,4.634668040093626,-74.15105047642639,2553.017,1.34,283.7109375,4,50,-9999,1561914446.534648,-26.21864318847656,14.74961948394775,-1.424072265625,348.9923095703125,356.4857788085938,15,197161.710873375,-0.5092620849609375,0.3070526123046875,-0.02740478515625,197161.693630375,2.637647207887952,0.4821048616021013,-1.079911023078804,197161.691921375,-102.1901397705078,-15.25447082519531,-565.8510131835938,197161.693630375,1.294958367095316,-1.553083372468487,0.5714716948986327,2.634922504425049,0.4754571914672852,-1.083146333694458,0.2641764283180237,0.7044141888618469,-0.0007730722427368164,1,-0.565948486328125,0.415034294128418,-0.2552710771560669,-0.6650454998016357,-0.8409739136695862,-0.5408704876899719,-0.01489769108593464,0,0,0,-1,197157.357678,1,2,1561914442.195215,1561913957.287787,32,0.8918345,0,0,26.32609,0,0,1561914413.669193,197158.402166,0,1.506104,75.29097,3232235528,177845136,1,1,0.53,-12.14319,-28.03156,5
1561914446.575582,52,0,0,1561914445.999755,4.634668040093626,-74.15105047642639,2553.017,1.34,283.7109375,4,50,-9999,1561914446.561275,-26.4820556640625,14.07988357543945,-2.6104736328125,344.6397094726562,352.1331787109375,15,197161.731106375,-0.4522857666015625,0.4183197021484375,0.0191650390625,197161.713894375,2.402183287476378,1.099781933236321,-0.5971102774838651,197161.712032375,-102.2068176269531,-15.57125854492188,-566.9740600585938,197161.713894375,1.355941170586551,-1.57167802252757,0.5894178688690496,2.399458646774292,1.093134164810181,-0.6003456115722656,0.3220020532608032,0.8629298210144043,-0.0281376838684082,1,-0.5844677686691284,0.3984518647193909,-0.2641631662845612,-0.6556305289268494,-0.8312641382217407,-0.5558772087097168,0.0007329222280532122,0,0,0,-1,197157.357678,1,2,1561914442.195215,1561913957.287787,32,0.8918345,0,0,26.32609,0,0,1561914413.669193,197158.402166,0,1.506104,75.29097,3232235528,177845136,1,1,0.53,-12.14319,-28.78515,5
1561914446.595224,53,0,0,1561914445.999755,4.634668040093626,-74.15105047642639,2553.017,1.34,283.7109375,4,50,-9999,1561914446.585838,-26.58503723144531,13.65157699584961,-3.737060546875,340.6854553222656,348.1789245605469,15,197161.751370375,-0.3482666015625,0.4338226318359375,0.1447296142578125,197161.734158375,2.238526978484938,2.289099076004998,0.2333355220683825,197161.732113375,-102.3698120117188,-15.883544921875,-568.5260009765625,197161.734158375,1.412354240702368,-1.56969739728632,0.5937991400245453,2.235802412033081,2.282451391220093,0.2301001697778702,0.376534640789032,0.9778335094451904,0.02007579803466797,1,-0.5960277915000916,0.3798624277114868,-0.2817182838916779,-0.6489145755767822,-0.8288204073905945,-0.5595138669013977,-0.0009108155500143766,0,0,0,-1,197157.357678,1,2,1561914442.195215,1561913957.287787,32,0.8918345,0,0,26.32609,0,0,1561914413.669193,197158.402166,0,1.506104,75.29097,3232235528,177845136,1,1,0.53,-12.14319,-29.50863,5
1561914446.616017,54,0,0,1561914445.999755,4.634668040093626,-74.15105047642639,2553.017,1.34,283.7109375,4,50,-9999,1561914446.611702,-25.63597106933594,13.700608253479,-7.6998291015625,337.3302307128906,344.8236999511719,15,197161.771633375,-0.2839508056640625,0.420806884765625,0.3470001220703125,197161.754421375,1.917455744832767,3.592348380736136,1.2144477960791,197161.752224375,-101.8780517578125,-15.84426879882812,-570.7376098632812,197161.754421375,1.463695891766067,-1.538483591048051,0.5797187568201242,1.91473114490509,3.585700750350952,1.211212396621704,0.4879133701324463,0.9816113114356995,0.1717582941055298,1,-0.5981972217559814,0.3586722016334534,-0.3121612966060638,-0.6450346112251282,-0.8361800312995911,-0.547788679599762,-0.02702867053449154,0,0,0,-1,197157.357678,1,2,1561914442.195215,1561913957.287787,32,0.8918345,0,0,26.32609,0,0,1561914413.669193,197159.347616,0,1.543213,75.29061,3232235528,177845136,1,1,0.53,-12.14319,-30.38183,5
1561914446.635757,55,0,0,1561914445.999755,4.634668040093626,-74.15105047642639,2553.017,1.34,283.7109375,4,50,-9999,1561914446.611702,-25.63597106933594,13.700608253479,-7.6998291015625,337.3302307128906,344.8236999511719,15,197161.791897375,-0.155059814453125,0.364715576171875,0.5491790771484375,197161.774685375,1.355663777093315,4.094963311157374,2.120099666918531,197161.772335375,-100.5449371337891,-14.88143920898438,-573.0054321289062,197161.774685375,1.505886396604921,-1.481438629177308,0.547700236304253,1.352939248085022,4.088315486907959,2.116864204406738,0.566367506980896,0.9415321350097656,0.4231854677200317,1,-0.5898690819740295,0.3375822603702545,-0.3526560962200165,-0.6432157158851624,-0.8503183126449585,-0.5207252502441406,-0.07618536800146103,0,0,0,-1,197157.357678,1,2,1561914442.195215,1561913957.287787,32,0.8918345,0,0,26.32609,0,0,1561914413.669193,197159.347616,0,1.543213,75.29061,3232235528,177845136,1,1,0.53,-12.14319,-31.19659,5
1561914446.65585,56,0,0,1561914445.999755,4.634668040093626,-74.15105047642639,2553.017,1.34,283.7109375,4,50,-9999,1561914446.635927,-24.00301361083984,14.7520637512207,-9.977294921875,334.9967651367188,342.490234375,15,197161.812161375,-0.1845703125,0.5166168212890625,0.7066650390625,197161.794918375,0.5657086787546318,3.77542019933869,3.140319928904844,197161.792446375,-98.77491760253906,-13.93382263183594,-574.8818359375,197161.794918375,1.535482324108725,-1.415976129745945,0.4988252965883241,0.5629841089248657,3.768772602081299,3.137084484100342,0.7125821113586426,0.8431099057197571,0.6845911741256714,1,-0.5725830793380737,0.3231757283210754,-0.3957858383655548,-0.6411393284797668,-0.8676418662071228,-0.4783942997455597,-0.1354121267795563,0,0,0,-1,197157.357678,1,2,1561914442.195215,1561913957.287787,32,0.8918345,0,0,26.32609,0,0,1561914413.669193,197159.347616,0,1.543213,75.29061,3232235528,177845136,1,1,0.53,-12.14319,-31.90876,5
1561914446.682685,57,0,0,1561914445.999755,4.634668040093626,-74.15105047642639,2553.017,1.34,283.7109375,4,50,-9999,1561914446.675434,-22.2117919921875,16.02766799926758,-11.9307861328125,333.595947265625,341.0894165039062,15,197161.832424375,0.03900146484375,0.584808349609375,0.59112548828125,197161.815182375,-0.5437309418587528,3.113669143244203,5.451929107707628,197161.812557375,-96.39231872558594,-12.37321472167969,-576.8922119140625,197161.815182375,1.555555437175415,-1.353622324602357,0.4142129684844099,-0.5464555025100708,3.107021570205688,5.448693752288818,0.7093597650527954,0.9190863966941833,0.9039142727851868,1,-0.5443007349967957,0.3242099583148956,-0.4435774683952332,-0.6339271664619446,-0.8939300775527954,-0.4024695754051208,-0.1972492188215256,0,0,0,-1,197157.357678,1,2,1561914442.195215,1561913957.287787,32,0.8918345,0,0,26.32609,0,0,1561914413.669193,197159.347616,0,1.543213,75.29061,3232235528,177845136,1,1,0.53,-12.14319,-32.4762,5
1561914446.699667,58,0,0,1561914445.999755,4.634668040093626,-74.15105047642639,2553.017,1.34,283.7109375,4,50,-9999,1561914446.675434,-22.2117919921875,16.02766799926758,-11.9307861328125,333.595947265625,341.0894165039062,15,197161.852688375,0.0804901123046875,0.6557769775390625,0.5833587646484375,197161.835446375,-1.984771136126155,1.313965332325399,7.122480524718059,197161.832638375,-93.19392395019531,-9.243728637695312,-576.62646484375,197161.835446375,1.561138083335258,-1.309344196531858,0.2830038246572507,-1.98749566078186,1.307317614555359,7.119245052337646,0.9665899872779846,0.8640495538711548,0.8393268585205078,1,-0.5036764740943909,0.3495844900608063,-0.4916025400161743,-0.6184073686599731,-0.9275885224342346,-0.2792412340641022,-0.248201385140419,0,0,0,-1,197157.357678,1,2,1561914442.195215,1561913957.287787,32,0.8918345,0,0,26.32609,0,0,1561914413.669193,197159.347616,0,1.543213,75.29061,3232235528,177845136,1,1,0.53,-12.14319,-32.97592,5
1561914446.716783,59,0,0,1561914445.999755,4.634668040093626,-74.15105047642639,2553.017,1.34,283.7109375,4,50,-9999,1561914446.71468,-12.93614196777344,23.90810966491699,-11.45867919921875,334.2572021484375,341.7506713867188,15,197161.872952375,0.0731201171875,0.9847564697265625,0.3860321044921875,197161.855709375,-2.790215445680848,-1.909698222893475,8.283461100856073,197161.852749375,-89.660400390625,-6.313446044921875,-575.9055786132812,197161.855709375,1.553959856153067,-1.311281201380524,0.1186122098241877,-2.792940139770508,-1.916345953941345,8.280224800109863,1.040213584899902,0.774111270904541,0.838167667388916,1,-0.4602036476135254,0.4010089039802551,-0.5290122032165527,-0.5895341038703918,-0.9597235321998596,-0.1183342859148979,-0.2548089325428009,0,0,0,-1,197157.357678,1,2,1561914442.195215,1561913957.287787,32,0.8918345,0,0,26.32609,0,0,1561914413.669193,197159.347616,0,1.543213,75.29061,3232235528,177845136,1,1,0.53,-12.14319,-32.97592,5
1561914446.75242,60,0,0,1561914445.999755,4.634668040093626,-74.15105047642639,2553.017,1.34,283.7109375,4,50,-9999,1561914446.737286,-8.733985900878906,26.2662353515625,-9.27142333984375,334.9685668945312,342.4620361328125,15,197161.893215375,-0.05096435546875,1.661529541015625,0.1039276123046875,197161.875973375,-2.451638455235259,-5.999192200120152,10.00513509078388,197161.872860375,-85.90840148925781,-3.879806518554688,-573.610595703125,197161.875973375,1.541231031275351,-1.391161943577962,-0.07211104344134016,-2.454363107681274,-6.005839824676514,10.00189876556396,1.054472088813782,0.9127079248428345,0.5642375946044922,1,-0.4262434244155884,0.4787627756595612,-0.5509759187698364,-0.5343483686447144,-0.981351912021637,0.07204855978488922,-0.1782054901123047,0,0,0,-1,197157.357678,1,2,1561914442.195215,1561913957.287787,32,0.8918345,0,0,26.32609,0,0,1561914413.669193,197159.347616,0,1.543213,75.29061,3232235528,177845136,1,1,0.53,-12.14319,-33.80272,5
1561914446.757128,61,0,0,1561914445.999755,4.634668040093626,-74.15105047642639,2553.017,1.34,283.7109375,4,50,-9999,1561914446.737286,-8.733985900878906,26.2662353515625,-9.27142333984375,334.9685668945312,342.4620361328125,15,197161.913448375,-0.4656219482421875,2.14190673828125,0.003631591796875,197161.896237375,-0.5033345165477769,-9.038969009442908,12.3881263078646,197161.892971375,-80.76179504394531,-1.71600341796875,-571.6136474609375,197161.896237375,1.532673294005188,-1.547889576398556,-0.3016142105120073,-0.5060591101646423,-9.04561710357666,12.38489055633545,0.9036432504653931,1.364467620849609,0.1257983446121216,1,-0.401821106672287,0.5723673701286316,-0.5659886598587036,-0.4365685880184174,-0.9546076059341431,0.297061949968338,-0.02187078446149826,0,0,0,-1,197157.357678,1,2,1561914442.195215,1561913957.287787,32,0.8918345,0,0,26.32609,0,0,1561914413.669193,197159.347616,0,1.543213,75.29061,3232235528,177845136,1,1,0.53,-12.14319,-33.80272,5
1561914446.777629,62,0,0,1561914445.999755,4.634668040093626,-74.15105047642639,2553.017,1.34,283.7109375,4,50,-9999,1561914446.766408,-3.033592224121094,27.84454917907715,-8.014404296875,336.0997619628906,343.5932312011719,15,197161.933712375,-0.9427642822265625,2.647323608398438,0.1612091064453125,197161.916500375,1.30035231809735,-10.73500208439543,14.06973783288213,197161.913082375,-74.21781921386719,-1.340774536132812,-571.3766479492188,197161.916500375,1.51826732719584,-1.755101787635872,-0.5712180164679331,1.297627806663513,-10.74164962768555,14.06650161743164,0.3613737821578979,1.601249694824219,-0.1505378484725952,1,-0.3773626983165741,0.6593042612075806,-0.5792346000671387,-0.2956394255161285,-0.8269957304000854,0.540657103061676,0.154169425368309,0,0,0,-1,197157.357678,1,2,1561914442.195215,1561913957.287787,32,0.8918345,0,0,26.32609,0,0,1561914413.669193,197159.347616,0,1.543213,75.29061,3232235528,177845136,1,1,0.53,-12.14319,-25.97167,5
1561914446.8001,63,0,0,1561914445.999755,4.634668040093626,-74.15105047642639,2553.017,1.34,283.7109375,4,50,-9999,1561914446.788036,9.166717529296875,25.42978096008301,-11.661376953125,341.12158203125,348.6150512695312,15,197161.953976375,-1.580291748046875,3.2305908203125,0.3792724609375,197161.936764375,4.043349385018875,-12.36208378819694,14.28428954714997,197161.933193375,-68.05317687988281,-2.866806030273438,-574.0140991210938,197161.936764375,1.463272555811239,-2.02666878041143,-0.8630164269417864,4.040624618530273,-12.36873149871826,14.28105354309082,-0.3590104579925537,1.887516498565674,-0.1250162124633789,1,-0.3503333330154419,0.7213731408119202,-0.5851330161094666,-0.1204443499445915,-0.5837538242340088,0.7598071694374084,0.2862253189086914,0,0,0,-1,197157.357678,1,2,1561914442.195215,1561913957.287787,32,0.8918345,0,0,26.32609,0,0,1561914413.669193,197159.347616,0,1.543213,75.29061,3232235528,177845136,1,1,0.53,-12.14319,-26.61312,5
1561914446.818896,64,0,0,1561914445.999755,4.634668040093626,-74.15105047642639,2553.017,1.34,283.7109375,4,50,-9999,1561914446.815529,11.76555633544922,20.40561485290527,-17.3924560546875,22.80460357666016,30.29807090759277,15,197161.974240375,-2.169387817382812,3.328384399414062,0.867889404296875,197161.957028375,8.103989609731197,-11.84208667165686,12.67092951454899,197161.953274375,-64.3536376953125,-7.007736206054688,-579.0452880859375,197161.957028375,1.339184084297752,-2.385757994941792,-1.159041682498355,8.101264953613281,-11.84873485565186,12.66769313812256,-1.305783867835999,2.314170837402344,0.08803427219390869,1,-0.3242466747760773,0.735175609588623,-0.5907027125358582,0.07383196800947189,-0.2745078504085541,0.9164199829101562,0.2912381589412689,0,0,0,-1,197157.357678,1,2,1561914442.195215,1561913957.287787,32,0.8918345,0,0,26.32609,0,0,1561914413.669193,197159.347616,0,1.543213,75.29061,3232235528,177845136,1,1,0.53,-12.14319,-26.64404,5
1561914446.845064,65,0,0,1561914445.999755,4.634668040093626,-74.15105047642639,2553.017,1.34,283.7109375,4,50,-9999,1561914446.838891,12.67494964599609,14.62688159942627,-21.772216796875,19.69941329956055,27.19288063049316,15,197161.994503375,-2.38641357421875,2.844253540039062,1.2325439453125,197161.977261375,9.090572549253157,-5.163750044046807,8.970397937695548,197161.973385375,-63.5345458984375,-12.95869445800781,-584.5427856445312,197161.977261375,0.8810925254812888,-3.012781646453178,-1.425721118968682,9.087862968444824,-5.170382022857666,8.967160224914551,-2.150817394256592,2.338889360427856,0.7245205640792847,1,-0.2838526368141174,0.7007939219474792,-0.6110917925834656,0.2342698127031326,-0.01857031136751175,0.9894950389862061,0.1433688849210739,0,0,0,-1,197157.357678,1,2,1561914442.195215,1561913957.287787,32,0.8918345,0,0,26.32609,0,0,1561914413.669193,197159.347616,0,1.543213,75.29061,3232235528,177845136,1,1,0.53,-12.14319,-23.84801,5
1561914446.858677,66,0,0,1561914445.999755,4.634668040093626,-74.15105047642639,2553.017,1.34,283.7109375,4,50,-9999,1561914446.838891,12.67494964599609,14.62688159942627,-21.772216796875,19.69941329956055,27.19288063049316,15,197162.014767375,-2.144271850585938,2.244903564453125,1.391921997070312,197161.997524375,5.345698274985457,5.220966462170506,3.751416595801587,197161.993496375,-61.76893615722656,-18.15390014648438,-586.7941284179688,197161.997524375,-0.8646886044588554,1.534388092157264,-1.457440956568956,5.342989444732666,5.214334487915039,3.74817943572998,-2.499450445175171,1.850671410560608,1.236661195755005,1,-0.2182866781949997,0.6710382103919983,-0.6447116136550903,0.2939480841159821,0.1130368784070015,0.9935821294784546,-0.004117292817682028,0,0,0,-1,197157.357678,1,2,1561914442.195215,1561913957.287787,32,0.8918345,0,0,26.32609,0,0,1561914413.669193,197159.347616,0,1.543213,75.29061,3232235528,177845136,1,1,0.53,-12.14319,-23.84801,5
1561914446.879471,67,0,0,1561914445.999755,4.634668040093626,-74.15105047642639,2553.017,1.34,283.7109375,4,50,-9999,1561914446.865727,15.41399765014648,10.60005760192871,-22.748291015625,32.9755859375,40.46905517578125,15,197162.035031375,-1.894088745117188,2.159103393554688,1.181472778320312,197162.017788375,1.691631668618953,11.27175687577873,-0.4725867238661581,197162.013607375,-57.41561889648438,-20.44610595703125,-584.926513671875,197162.017788375,-1.317999657851101,1.263743948245094,-1.414426980966133,1.688922524452209,11.2651252746582,-0.4758240282535553,-2.292720317840576,1.257104396820068,1.438992142677307,1,-0.1395563632249832,0.6760095953941345,-0.6790056824684143,0.2499724477529526,0.1484484225511551,0.9877992272377014,-0.04707009717822075,0,0,0,-1,197157.357678,1,2,1561914442.195215,1561913957.287787,32,0.8918345,0,0,26.32609,0,0,1561914413.669193,197159.347616,0,1.543213,75.29061,3232235528,177845136,1,1,0.53,-12.14319,-15.12544,5
1561914446.917408,68,0,0,1561914445.999755,4.634668040093626,-74.15105047642639,2553.017,1.34,283.7109375,4,50,-9999,1561914446.915671,25.56599807739258,10.58157920837402,-12.12298583984375,59.02881622314453,66.52228546142578,15,197162.055294375,-1.7698974609375,2.290985107421875,0.991973876953125,197162.038052375,0.3913113084546839,10.85033080803353,-2.235234778745382,197162.033688375,-52.7457275390625,-20.21563720703125,-580.75634765625,197162.038052375,-1.487125973293464,1.329393355172175,-1.439427262699303,0.38860222697258,10.84369850158691,-2.238471984863281,-2.021281003952026,1.167719841003418,1.212788105010986,1,-0.06790995597839355,0.692625880241394,-0.6999390125274658,0.16044582426548,0.1271921992301941,0.9913834929466248,-0.03131525591015816,0,0,0,-1,197157.357678,1,2,1561914442.195215,1561913957.287787,32,0.8918345,0,0,26.32609,0,0,1561914413.669193,197159.347616,0,1.543213,75.29061,3232235528,177845136,1,1,0.53,-10.72587,-15.99646,5
1561914446.92208,69,0,0,1561914445.999755,4.634668040093626,-74.15105047642639,2553.017,1.34,283.7109375,4,50,-9999,1561914446.915671,25.56599807739258,10.58157920837402,-12.12298583984375,59.02881622314453,66.52228546142578,15,197162.075558375,-1.780715942382812,1.943771362304688,0.906402587890625,197162.058315375,0.5610715826645858,6.971717377512019,-2.672843012222221,197162.053799375,-50.260009765625,-19.19061279296875,-576.4815673828125,197162.058315375,-1.672584279259666,1.327658997231849,-1.486436928086309,0.5583624839782715,6.965085506439209,-2.676080226898193,-1.851678133010864,1.294541239738464,1.012259125709534,1,-0.02051402628421783,0.6995974183082581,-0.7098309993743896,0.07926250994205475,0.08178070932626724,0.9964438676834106,-0.02028525434434414,0,0,0,-1,197157.357678,1,2,1561914442.195215,1561913957.287787,32,0.8918345,0,0,26.32609,0,0,1561914413.669193,197159.347616,0,1.543213,75.29061,3232235528,177845136,1,1,0.53,-10.72587,-15.99646,5
1561914446.939657,70,0,0,1561914445.999755,4.634668040093626,-74.15105047642639,2553.017,1.34,283.7109375,4,50,-9999,1561914446.915671,25.56599807739258,10.58157920837402,-12.12298583984375,59.02881622314453,66.52228546142578,15,197162.095791375,-1.809356689453125,1.62481689453125,0.733123779296875,197162.078579375,0.3726811650490345,2.983425918553333,-3.316082435579567,197162.073910375,-49.82705688476562,-17.88613891601562,-574.3114013671875,197162.078579375,-2.345365524497983,0.7550560542088007,-1.535673886919599,0.3699720799922943,2.976793766021729,-3.319319725036621,-1.804784536361694,0.9443880915641785,0.9319779872894287,1,-0.005859974306076765,0.6979813575744629,-0.7157145142555237,0.02325043641030788,0.02406860515475273,0.999383270740509,-0.02557536959648132,0,0,0,-1,197157.357678,1,2,1561914442.195215,1561913957.287787,32,0.8918345,0,0,26.32609,0,0,1561914413.669193,197159.347616,0,1.543213,75.29061,3232235528,177845136,1,1,0.53,-10.72587,-17.07775,5
1561914446.959769,71,0,0,1561914445.999755,4.634668040093626,-74.15105047642639,2553.017,1.34,283.7109375,4,50,-9999,1561914446.939843,25.78926086425781,12.00673484802246,-10.298583984375,62.18989562988281,69.68336486816406,15,197162.116055375,-1.824661254882812,1.629562377929688,0.4953155517578125,197162.098843375,-0.5133988686232954,0.3797356124605454,-4.465231652258796,197162.094021375,-50.26170349121094,-16.17976379394531,-573.460205078125,197162.098843375,2.004753024329479,-1.146639976590781,-1.51186020725737,-0.516107976436615,0.3731035888195038,-4.46846866607666,-1.75567364692688,0.6265531182289124,0.7573652267456055,1,-0.02240886725485325,0.6981239914894104,-0.7154586315155029,-0.01548274606466293,-0.05368298664689064,0.9982637763023376,-0.02424146980047226,0,0,0,-1,197157.357678,1,2,1561914442.195215,1561913957.287787,32,0.8918345,0,0,26.32609,0,0,1561914413.669193,197159.347616,0,1.543213,75.29061,3232235528,177845136,1,1,0.53,-10.72587,-18.15042,5
1561914446.994083,72,0,0,1561914445.999755,4.634668040093626,-74.15105047642639,2553.017,1.34,283.7109375,4,50,-9999,1561914446.990542,21.18682098388672,19.59370422363281,-8.79705810546875,63.40019226074219,70.89366149902344,15,197162.136318375,-1.7908935546875,1.7779541015625,0.1785430908203125,197162.119106375,-1.207104928321534,-0.1327718961459004,-5.672280654197438,197162.114102375,-51.93598937988281,-13.65867614746094,-573.2390747070312,197162.119106375,1.618687986431071,-1.531257422684804,-1.414113375218149,-1.209814071655273,-0.1394039243459702,-5.675518035888672,-1.668740391731262,0.6418120861053467,0.5014837384223938,1,-0.05823028087615967,0.7025134563446045,-0.7073502540588379,-0.05234240740537643,-0.1559208929538727,0.9877502918243408,-0.006168155930936337,0,0,0,-1,197157.357678,1,2,1561914442.195215,1561913957.287787,32,0.8918345,0,0,26.32609,0,0,1561914413.669193,197159.347616,0,1.543213,75.29061,3232235528,177845136,1,1,0.53,-10.72587,-19.15719,5
1561914447.000329,73,0,0,1561914445.999755,4.634668040093626,-74.15105047642639,2553.017,1.34,283.7109375,4,50,-9999,1561914446.990542,21.18682098388672,19.59370422363281,-8.79705810546875,63.40019226074219,70.89366149902344,15,197162.156582375,-1.683685302734375,1.77703857421875,-0.012237548828125,197162.139370375,-1.313465456988791,0.6212771327957891,-6.778119947333145,197162.134213375,-54.04437255859375,-10.61843872070312,-572.5587158203125,197162.139370375,1.505094328804042,-1.638644825760067,-1.287184771870931,-1.316174626350403,0.6146451234817505,-6.781357288360596,-1.511712670326233,0.8179030418395996,0.1595720052719116,1,-0.1004646793007851,0.7066770195960999,-0.6933404207229614,-0.09896206855773926,-0.2791808843612671,0.9600511193275452,0.01897112280130386,0,0,0,-1,197157.357678,1,2,1561914442.195215,1561913957.287787,32,0.8918345,0,0,26.32609,0,0,1561914413.669193,197159.347616,0,1.543213,75.29061,3232235528,177845136,1,1,0.53,-10.72587,-19.15719,5
1561914447.020593,74,0,0,1561914445.999755,4.634668040093626,-74.15105047642639,2553.017,1.34,283.7109375,4,50,-9999,1561914447.016946,17.79898071289062,22.60015487670898,-7.98773193359375,65.66300964355469,73.15647888183594,15,197162.176846375,-1.570892333984375,1.623977661132812,-0.0917510986328125,197162.159603375,-1.038651733574642,1.277586818151026,-7.897041753007756,197162.154324375,-56.97761535644531,-7.410430908203125,-571.8349609375,197162.159603375,1.468688330973481,-1.6531243836523,-1.137344268323428,-1.041360855102539,1.270954847335815,-7.90027904510498,-1.265101909637451,0.8695173263549805,-0.04677677154541016,1,-0.1445759981870651,0.7045334577560425,-0.6765294075012207,-0.1582348793745041,-0.4185833632946014,0.9075212478637695,0.03453922644257545,0,0,0,-1,197157.357678,1,2,1561914442.195215,1561913957.287787,32,0.8918345,0,0,26.32609,0,0,1561914413.669193,197159.347616,0,1.543213,75.29061,3232235528,177845136,1,1,0.53,-10.72587,-20.09849,5
1561914447.04093,75,0,0,1561914446.999794,4.634676924910988,-74.15106615058532,2553.023,1.35,281.25,4,50,-9999,1561914447.016946,17.79898071289062,22.60015487670898,-7.98773193359375,65.66300964355469,73.15647888183594,15,197162.197109375,-1.463912963867188,1.533645629882812,-0.133392333984375,197162.179867375,-1.018056177284515,1.401190515928219,-9.231456966711656,197162.174435375,-60.81376647949219,-4.663330078125,-570.8889770507812,197162.179867375,1.454809078634941,-1.637428641202527,-0.9629774495797538,-1.02076530456543,1.394558548927307,-9.234694480895996,-1.001081228256226,0.8030820488929749,-0.1297752857208252,1,-0.1940738558769226,0.6937920451164246,-0.6552027463912964,-0.2273705154657364,-0.5698111653327942,0.8208955526351929,0.03802412748336792,0,0,0,-1,197157.357678,1,2,1561914442.195215,1561913957.287787,32,0.8918345,0,0,26.32609,0,0,1561914413.669193,197159.347616,0,1.543213,75.29061,3232235528,177845136,1,1,0.53,-10.72587,-20.62801,5
1561914447.075629,76,0,0,1561914446.999794,4.634676924910988,-74.15106615058532,2553.023,1.35,281.25,4,50,-9999,1561914447.049971,13.61187744140625,25.47578620910645,-7.08074951171875,68.26994323730469,75.76341247558594,15,197162.217373375,-1.421920776367188,1.713165283203125,-0.228973388671875,197162.200131375,-1.407303535894387,1.520187211335685,-10.14970106213331,197162.194515375,-65.77220153808594,-2.265731811523438,-570.0594482421875,197162.200131375,1.435444629734879,-1.62364155531518,-0.7641993572430894,-1.410012722015381,1.513555288314819,-10.15293884277344,-0.7429842948913574,0.8416864275932312,-0.1715254783630371,1,-0.2494569420814514,0.6758977770805359,-0.6237488389015198,-0.3031018078327179,-0.7209286093711853,0.6919592022895813,0.03813314065337181,0,0,0,-1,197157.357678,1,2,1561914442.195215,1561913957.287787,32,0.8918345,0,0,26.32609,0,0,1561914413.669193,197159.347616,0,1.543213,75.29061,3232235528,177845136,1,1,0.53,-10.72587,-22.49372,5
1561914447.082557,77,0,0,1561914446.999794,4.634676924910988,-74.15106615058532,2553.023,1.35,281.25,4,50,-9999,1561914447.049971,13.61187744140625,25.47578620910645,-7.08074951171875,68.26994323730469,75.76341247558594,15,197162.237637375,-1.083984375,1.83160400390625,-0.3139801025390625,197162.220394375,-1.38280458439453,2.130121408416608,-9.852600941452941,197162.214626375,-71.63096618652344,-0.9173736572265625,-568.8756103515625,197162.220394375,1.40892669516169,-1.602413480654275,-0.5586485470162604,-1.385513782501221,2.123489379882812,-9.855838775634766,-0.5743722319602966,1.183124542236328,-0.2557793855667114,1,-0.3009146451950073,0.6502717733383179,-0.5840541124343872,-0.3814156651496887,-0.8475485444068909,0.5300406813621521,0.02680600620806217,0,0,0,-1,197157.357678,1,2,1561914442.195215,1561913957.287787,32,0.8918345,0,0,26.32609,0,0,1561914413.669193,197159.347616,0,1.543213,75.29061,3232235528,177845136,1,1,0.53,-10.72587,-22.49372,5
1561914447.101608,78,0,0,1561914446.999794,4.634676924910988,-74.15106615058532,2553.023,1.35,281.25,4,50,-9999,1561914447.09239,-2.978286743164062,28.61660003662109,-4.67535400390625,343.0747985839844,350.5682678222656,15,197162.257900375,-0.6996917724609375,1.612457275390625,-0.3100738525390625,197162.240658375,-0.2253367177343295,1.996744442071042,-8.897539709225379,197162.234738375,-77.15997314453125,-0.6244964599609375,-568.4781494140625,197162.240658375,1.392185443541069,-1.566506449033242,-0.3681220817698909,-0.2280458062887192,1.99011242389679,-8.900777816772461,-0.1509881615638733,1.471740007400513,-0.309977650642395,1,-0.3452765941619873,0.6154533624649048,-0.545805811882019,-0.4517712593078613,-0.9329962134361267,0.3598639667034149,-0.004002464469522238,0,0,0,-1,197157.357678,1,2,1561914442.195215,1561913957.287787,32,0.8918345,0,0,26.32609,0,0,1561914413.669193,197159.347616,0,1.543213,75.29061,3232235528,177845136,1,1,0.53,-10.72587,-22.60958,5
1561914447.121825,79,0,0,1561914446.999794,4.634676924910988,-74.15106615058532,2553.023,1.35,281.25,4,50,-9999,1561914447.118271,-8.15301513671875,27.51567649841309,-5.17962646484375,342.1832580566406,349.6767272949219,15,197162.278134375,-0.4549102783203125,1.272537231445312,-0.250274658203125,197162.260922375,0.9468562992251373,0.8867285133977643,-8.148635907509721,197162.254849375,-82.39945983886719,-1.518951416015625,-568.5637817382812,197162.260922375,1.397054576242051,-1.535847755241076,-0.1957275135454438,0.9441472291946411,0.8800964951515198,-8.151873588562012,0.2806158065795898,1.417977094650269,-0.275799572467804,1,-0.3907564282417297,0.57460618019104,-0.5123721957206726,-0.5045908689498901,-0.9803075194358826,0.1944802105426788,-0.03427430242300034,0,0,0,-1,197157.357678,1,2,1561914442.195215,1561913957.287787,32,0.8918345,0,0,26.32609,0,0,1561914413.669193,197159.347616,0,1.543213,75.29061,3232235528,177845136,1,1,0.53,-5.344956,-5.344956,5
1561914447.152947,80,0,0,1561914446.999794,4.634676924910988,-74.15106615058532,2553.023,1.35,281.25,4,50,-9999,1561914447.142503,-12.6712646484375,25.83328628540039,-5.80804443359375,341.1285400390625,348.6220092773438,15,197162.298397375,-0.3225555419921875,1.003753662109375,-0.1709747314453125,197162.281185375,1.166808105235327,0.00448183379849435,-7.720651006631884,197162.274960375,-87.02836608886719,-2.980453491210938,-569.166015625,197162.281185375,1.413398930398091,-1.526354094453015,-0.03459355852834201,1.164098978042603,-0.002150192391127348,-7.723888397216797,0.5435047149658203,1.237950563430786,-0.2058736085891724,1,-0.4392558932304382,0.5337169170379639,-0.478254109621048,-0.5417320132255554,-0.998414933681488,0.03458666056394577,-0.04440102726221085,0,0,0,-1,197157.357678,1,2,1561914442.195215,1561913957.287787,32,0.8918345,0,0,26.32609,0,0,1561914413.669193,197159.347616,0,1.543213,75.29061,3232235528,177845136,1,1,0.53,-4.901523,-6.006766,5
1561914447.166043,81,0,0,1561914446.999794,4.634676924910988,-74.15106615058532,2553.023,1.35,281.25,4,50,-9999,1561914447.142503,-12.6712646484375,25.83328628540039,-5.80804443359375,341.1285400390625,348.6220092773438,15,197162.318661375,-0.2908477783203125,0.93988037109375,-0.109954833984375,197162.301449375,0.8165936334583095,-0.4205474909015737,-7.426754136110663,197162.295040375,-90.86717224121094,-5.23065185546875,-569.58349609375,197162.301449375,1.427127516623448,-1.531796452120618,0.1199377145632538,0.8138845562934875,-0.4271795153617859,-7.429991245269775,0.6695056557655334,1.123404026031494,-0.1322648525238037,1,-0.4855547249317169,0.4948551952838898,-0.4395035207271576,-0.5711318850517273,-0.9920611977577209,-0.1196503713726997,-0.03870989009737968,0,0,0,-1,197157.357678,1,2,1561914442.195215,1561913957.287787,32,0.8918345,0,0,26.32609,0,0,1561914413.669193,197159.347616,0,1.543213,75.29061,3232235528,177845136,1,1,0.53,-4.901523,-7.057113,5
1561914447.182703,82,0,0,1561914446.999794,4.634676924910988,-74.15106615058532,2553.023,1.35,281.25,4,50,-9999,1561914447.169348,-19.68674468994141,20.82156372070312,-6.484619140625,340.449462890625,347.9429321289062,15,197162.338925375,-0.183013916015625,0.9019775390625,-0.07818603515625,197162.321713375,0.6633715896177996,0.1947183546816885,-6.563486207703734,197162.315151375,-94.41328430175781,-7.818939208984375,-569.9642333984375,197162.321713375,1.436573801891948,-1.537810501621033,0.2633319586558598,0.6606624722480774,0.1880863159894943,-6.566723346710205,0.6741551160812378,1.20017945766449,-0.07811188697814941,1,-0.5246858596801758,0.4569280743598938,-0.4001266360282898,-0.5965067148208618,-0.9650028944015503,-0.2602990865707397,-0.03184296563267708,0,0,0,-1,197157.357678,1,2,1561914442.195215,1561913957.287787,32,0.8918345,0,0,26.32609,0,0,1561914413.669193,197159.347616,0,1.543213,75.29061,3232235528,177845136,1,1,0.53,-4.901523,-7.057113,5
1561914447.202944,83,0,0,1561914446.999794,4.634676924910988,-74.15106615058532,2553.023,1.35,281.25,4,50,-9999,1561914447.193106,-21.9981689453125,18.36022758483887,-7.22186279296875,339.4651184082031,346.9585876464844,15,197162.359188375,-0.0078277587890625,0.80010986328125,0.007080078125,197162.341976375,0.9568332996169011,1.610612182988235,-5.259596146414323,197162.335262375,-97.25263977050781,-10.26412963867188,-570.5013427734375,197162.341976375,1.448544572140932,-1.52433429521889,0.3842182785184757,0.9541242122650146,1.603980183601379,-5.262833118438721,0.7430774569511414,1.276812076568604,-0.03512692451477051,1,-0.5525358915328979,0.416142463684082,-0.3717201054096222,-0.6191557645797729,-0.9260914325714111,-0.3748345375061035,-0.04305907711386681,0,0,0,-1,197157.357678,1,2,1561914442.195215,1561913957.287787,32,0.8918345,0,0,26.32609,0,0,1561914413.669193,197159.347616,0,1.543213,75.29061,3232235528,177845136,1,1,0.53,-4.901523,-7.963231,5
1561914447.235048,84,0,0,1561914446.999794,4.634676924910988,-74.15106615058532,2553.023,1.35,281.25,4,50,-9999,1561914447.228575,-23.36772918701172,16.18180274963379,-8.63800048828125,337.9737243652344,345.4671936035156,15,197162.379463125,0.138153076171875,0.6416473388671875,0.1342010498046875,197162.362220125,1.273579825974892,3.11266326730048,-3.886697189694343,197162.355385125,-98.94084167480469,-12.65415954589844,-571.8126220703125,197162.362220125,1.467266172354303,-1.484220322844394,0.4778019064114999,1.270870685577393,3.106031179428101,-3.889934301376343,0.8768540620803833,1.25993824005127,0.08386421203613281,1,-0.5692173838615417,0.3709440529346466,-0.3607018887996674,-0.6389727592468262,-0.8846818804740906,-0.4598283767700195,-0.0767841562628746,0,0,0,-1,197157.357678,1,2,1561914442.195215,1561913957.287787,32,0.8918345,0,0,26.32609,0,0,1561914413.669193,197159.347616,0,1.543213,75.29061,3232235528,177845136,1,1,0.53,-4.901523,-10.03484,5
1561914447.243647,85,0,0,1561914446.999794,4.634676924910988,-74.15106615058532,2553.023,1.35,281.25,4,50,-9999,1561914447.228575,-23.36772918701172,16.18180274963379,-8.63800048828125,337.9737243652344,345.4671936035156,15,197162.399727125,0.22869873046875,0.4723358154296875,0.27606201171875,197162.382484125,1.357985787247755,4.043100379456952,-2.802519516233123,197162.375465125,-99.51092529296875,-14.41171264648438,-573.7303466796875,197162.382484125,1.489155872657117,-1.421565017750267,0.547846481550235,1.355276584625244,4.036468505859375,-2.805756807327271,0.9823135137557983,1.162497401237488,0.2611197233200073,1,-0.5763975977897644,0.3229650855064392,-0.3646346032619476,-0.6561257243156433,-0.8441604375839233,-0.5208500623703003,-0.1269187182188034,0,0,0,-1,197157.357678,1,2,1561914442.195215,1561913957.287787,32,0.8918345,0,0,26.32609,0,0,1561914413.669193,197159.347616,0,1.543213,75.29061,3232235528,177845136,1,1,0.53,-4.901523,-10.03484,5
1561914447.266139,86,0,0,1561914446.999794,4.634676924910988,-74.15106615058532,2553.023,1.35,281.25,4,50,-9999,1561914447.228575,-23.36772918701172,16.18180274963379,-8.63800048828125,337.9737243652344,345.4671936035156,15,197162.419990125,0.2142333984375,0.4080810546875,0.3715972900390625,197162.402748125,1.063958954465339,4.534979841207972,-1.816222600212239,197162.395576125,-99.305419921875,-16.2032470703125,-575.7244873046875,197162.402748125,1.508404704704211,-1.344650217630367,0.5988720978579792,1.061249852180481,4.528347969055176,-1.819459795951843,1.033639550209045,1.036046981811523,0.4612642526626587,1,-0.5756663680076599,0.2756938636302948,-0.3779657185077667,-0.6706287860870361,-0.8049407601356506,-0.5637112259864807,-0.1852022558450699,0,0,0,-1,197157.357678,1,2,1561914442.195215,1561913957.287787,32,0.8918345,0,0,26.32609,0,0,1561914413.669193,197159.347616,0,1.543213,75.29061,3232235528,177845136,1,1,0.53,-4.901523,-11.11435,5
1561914447.284043,87,0,0,1561914446.999794,4.634676924910988,-74.15106615058532,2553.023,1.35,281.25,4,50,-9999,1561914447.27017,-22.11525726318359,12.34980583190918,-15.2388916015625,335.8097839355469,343.3032531738281,15,197162.440254125,0.217529296875,0.4140777587890625,0.39801025390625,197162.423012125,0.4030028519562407,4.816075429001399,-0.5427498333131677,197162.415687125,-98.2413330078125,-16.93670654296875,-578.2235717773438,197162.423012125,1.51868729958986,-1.255920063067324,0.6265090759349987,0.40029376745224,4.809443473815918,-0.5459871292114258,0.9844847917556763,0.9944014549255371,0.6224778294563293,1,-0.5656399130821228,0.2336904108524323,-0.3986913859844208,-0.6829973459243774,-0.7702513933181763,-0.5863204002380371,-0.2508805692195892,0,0,0,-1,197157.357678,1,2,1561914442.195215,1561913957.287787,32,0.8918345,0,0,26.32609,0,0,1561914413.669193,197159.347616,0,1.543213,75.29061,3232235528,177845136,1,1,0.53,-4.901523,-12.03399,5
1561914447.316005,88,0,0,1561914446.999794,4.634676924910988,-74.15106615058532,2553.023,1.35,281.25,4,50,-9999,1561914447.294919,-20.40969848632812,12.55880737304688,-17.31890869140625,335.8120727539062,343.3055419921875,15,197162.460487125,0.240997314453125,0.3672637939453125,0.4376220703125,197162.443275125,-0.453931546746262,4.775501637161824,0.916636078755463,197162.435798125,-96.80354309082031,-17.11221313476562,-580.291015625,197162.443275125,1.520091720371766,-1.158294997131008,0.6224701434279785,-0.4566406309604645,4.768869876861572,0.9133987426757812,0.9618232250213623,0.9971215128898621,0.7237194180488586,1,-0.544721245765686,0.2010576128959656,-0.4274229109287262,-0.6929388642311096,-0.7442939281463623,-0.5830437541007996,-0.325709193944931,0,0,0,-1,197157.357678,1,2,1561914442.195215,1561913957.287787,32,0.8918345,0,0,26.32609,0,0,1561914413.669193,197159.347616,0,1.543213,75.29061,3232235528,177845136,1,1,0.53,-4.901523,-12.98262,5
1561914447.324586,89,0,0,1561914446.999794,4.634676924910988,-74.15106615058532,2553.023,1.35,281.25,4,50,-9999,1561914447.320839,-18.49150085449219,13.27142333984375,-18.478271484375,336.1992492675781,343.6927185058594,15,197162.480751125,0.2642669677734375,0.353973388671875,0.4434814453125,197162.463539125,-1.245842470589499,3.706012628692936,1.864278010502174,197162.455879125,-94.84674072265625,-16.68609619140625,-581.84130859375,197162.463539125,1.517136045566158,-1.069108686908584,0.5886667810887086,-1.248551607131958,3.699380397796631,1.861040711402893,0.9701927900314331,0.9225164651870728,0.8375827074050903,1,-0.5165643692016602,0.1821563094854355,-0.4591925740242004,-0.6993730068206787,-0.7291954755783081,-0.555252730846405,-0.3999606668949127,0,0,0,-1,197157.357678,1,2,1561914442.195215,1561913957.287787,32,0.8918345,0,0,26.32609,0,0,1561914413.669193,197159.347616,0,1.543213,75.29061,3232235528,177845136,1,1,0.53,-4.901523,-12.98262,5
1561914447.344887,90,0,0,1561914446.999794,4.634676924910988,-74.15106615058532,2553.023,1.35,281.25,4,50,-9999,1561914447.320839,-18.49150085449219,13.27142333984375,-18.478271484375,336.1992492675781,343.6927185058594,15,197162.501014125,0.2347564697265625,0.450714111328125,0.4385986328125,197162.483803125,-2.093244084170063,1.94435819921642,2.3035030490768,197162.475990125,-92.96650695800781,-14.74861145019531,-582.6731567382812,197162.483803125,1.508615068166159,-1.006882081907677,0.5350140866350175,-2.095953226089478,1.937726259231567,2.300265789031982,0.9913336634635925,0.8638265132904053,0.9032899141311646,1,-0.4873468279838562,0.1805237978696823,-0.4855555891990662,-0.7029509544372559,-0.727066695690155,-0.509853184223175,-0.4598084688186646,0,0,0,-1,197157.357678,1,2,1561914442.195215,1561913957.287787,32,0.8918345,0,0,26.32609,0,0,1561914413.669193,197159.347616,0,1.543213,75.29061,3232235528,177845136,1,1,0.53,-4.901523,-13.94857,5
1561914447.366342,91,0,0,1561914446.999794,4.634676924910988,-74.15106615058532,2553.023,1.35,281.25,4,50,-9999,1561914447.345109,-16.78032684326172,14.8345422744751,-19.12835693359375,337.3376159667969,344.8310852050781,15,197162.521278125,0.1967926025390625,0.72137451171875,0.383819580078125,197162.504066125,-3.331225702169975,0.03255874222287274,3.044370762203143,197162.496101125,-91.38114929199219,-13.49736022949219,-582.428955078125,197162.504066125,1.490189637037276,-0.9785819323362767,0.4607338934344047,-3.333934783935547,0.02592671662569046,3.041133403778076,0.9779466390609741,0.8953197002410889,0.9385928511619568,1,-0.4584001302719116,0.1996802538633347,-0.5037932395935059,-0.7044072151184082,-0.7431901693344116,-0.4446055889129639,-0.4999942481517792,0,0,0,-1,197157.357678,1,2,1561914442.195215,1561913957.287787,32,0.8918345,0,0,26.32609,0,0,1561914413.669193,197159.347616,0,1.543213,75.29061,3232235528,177845136,1,1,0.53,-4.901523,-14.14945,5
1561914447.391123,92,0,0,1561914446.999794,4.634676924910988,-74.15106615058532,2553.023,1.35,281.25,4,50,-9999,1561914447.37149,-14.26168823242188,19.40669250488281,-16.42559814453125,339.43408203125,346.9275512695312,15,197162.541542125,0.1851043701171875,1.095565795898438,0.2574615478515625,197162.524330125,-4.900091237174564,-1.806932695381716,4.496115266156009,197162.516212125,-90.52168273925781,-10.70100402832031,-581.1126708984375,197162.524330125,1.461117083279888,-0.9846899504527961,0.3517555400663976,-4.9028000831604,-1.813564658164978,4.492877960205078,0.9788818359375,1.065920948982239,0.9030730128288269,1,-0.425397127866745,0.2437428534030914,-0.5173574090003967,-0.7014042735099792,-0.7820892930030823,-0.344546377658844,-0.5192534327507019,0,0,0,-1,197157.357678,1,2,1561914442.195215,1561913957.287787,32,0.8918345,0,0,26.32609,0,0,1561914413.669193,197159.347616,0,1.543213,75.29061,3232235528,177845136,1,1,0.53,-4.901523,-15.13413,5
1561914447.405575,93,0,0,1561914446.999794,4.634676924910988,-74.15106615058532,2553.023,1.35,281.25,4,50,-9999,1561914447.398706,-12.75495910644531,22.6952075958252,-13.37884521484375,341.892822265625,349.3862915039062,15,197162.561805125,0.180877685546875,1.599884033203125,0.058074951171875,197162.544563125,-5.777886709327876,-4.21125929490339,6.548242806256339,197162.536323125,-89.03462219238281,-7.936782836914062,-578.15869140625,197162.544563125,1.424996549893258,-1.034357733502326,0.1995234298399756,-5.780595779418945,-4.217891216278076,6.545005321502686,1.027586460113525,1.293768048286438,0.7584004402160645,1,-0.3871256113052368,0.3156965374946594,-0.5281410813331604,-0.6866852045059204,-0.8424821496009827,-0.1982022374868393,-0.500938892364502,0,0,0,-1,197157.357678,1,2,1561914442.195215,1561913957.287787,32,0.8918345,0,0,26.32609,0,0,1561914413.669193,197159.347616,0,1.543213,75.29061,3232235528,177845136,1,1,0.53,-4.901523,-15.94482,5
1561914447.425764,94,0,0,1561914446.999794,4.634676924910988,-74.15106615058532,2553.023,1.35,281.25,4,50,-9999,1561914447.422149,-9.920173645019531,25.81580543518066,-9.45294189453125,342.424560546875,349.9180297851562,15,197162.582069125,0.1335296630859375,2.056503295898438,-0.088165283203125,197162.564827125,-4.621165060405116,-7.17458207565215,9.021312251415683,197162.556404125,-86.85952758789062,-4.498184204101562,-574.2901611328125,197162.564827125,1.401049553735039,-1.146294774114739,0.007921077602968986,-4.623873710632324,-7.181213855743408,9.018074035644531,1.092093229293823,1.607805013656616,0.4699286818504333,1,-0.352104663848877,0.4124262928962708,-0.5399616360664368,-0.6437144875526428,-0.911215603351593,-0.00792099442332983,-0.4118537306785583,0,0,0,-1,197157.357678,1,2,1561914442.195215,1561913957.287787,32,0.8918345,0,0,26.32609,0,0,1561914413.669193,197159.347616,0,1.543213,75.29061,3232235528,177845136,1,1,0.53,-4.901523,-16.52056,5
1561914447.450449,95,0,0,1561914446.999794,4.634676924910988,-74.15106615058532,2553.023,1.35,281.25,4,50,-9999,1561914447.422149,-9.920173645019531,25.81580543518066,-9.45294189453125,342.424560546875,349.9180297851562,15,197162.602333125,-0.2509765625,2.56024169921875,-0.2447662353515625,197162.585090125,-1.30379631801904,-10.04521886098288,11.29909262647173,197162.576515125,-82.75480651855469,-1.9951171875,-570.9494018554688,197162.585090125,1.411852815325088,-1.321590191541873,-0.2069174720635146,-1.306505441665649,-10.05185031890869,11.29585456848145,1.081966042518616,1.851059198379517,0.1532084345817566,1,-0.333981841802597,0.517464280128479,-0.5576797127723694,-0.5564891695976257,-0.9484363198280334,0.2054441124200821,-0.2413737028837204,0,0,0,-1,197157.357678,1,2,1561914442.195215,1561913957.287787,32,0.8918345,0,0,26.32609,0,0,1561914413.669193,197159.347616,0,1.543213,75.29061,3232235528,177845136,1,1,0.53,-4.901523,-17.49491,5
1561914447.476785,96,0,0,1561914446.999794,4.634676924910988,-74.15106615058532,2553.023,1.35,281.25,4,50,-9999,1561914447.473166,7.716796875,26.80425453186035,-8.68804931640625,335.8222351074219,343.3157043457031,15,197162.622596125,-0.7125396728515625,2.989700317382812,-0.27142333984375,197162.605354125,1.565968548370801,-10.82218865216245,13.66854433257049,197162.596626125,-77.04751586914062,-0.7670745849609375,-569.6529541015625,197162.605354125,1.455641351615803,-1.521892639227448,-0.4576576425267355,1.563259363174438,-10.82882022857666,13.66530609130859,0.6450406312942505,2.118393659591675,-0.2009127140045166,1,-0.3241490125656128,0.6107378005981445,-0.5859943032264709,-0.4225367307662964,-0.8960172533988953,0.4418480098247528,-0.0438535138964653,0,0,0,-1,197157.357678,1,2,1561914442.195215,1561913957.287787,32,0.8918345,0,0,26.32609,0,0,1561914413.669193,197159.347616,0,1.543213,75.29061,3232235528,177845136,1,1,0.53,-4.901523,-8.895792,5
1561914447.486773,97,0,0,1561914446.999794,4.634676924910988,-74.15106615058532,2553.023,1.35,281.25,4,50,-9999,1561914447.473166,7.716796875,26.80425453186035,-8.68804931640625,335.8222351074219,343.3157043457031,15,197162.642830125,-1.232147216796875,3.383407592773438,-0.1078338623046875,197162.625618125,4.233999494819358,-10.82821059201934,14.57874994255785,197162.616707125,-70.11314392089844,-1.6309814453125,-571.1600341796875,197162.625618125,1.508337679944798,-1.711607511894766,-0.7500719354247875,4.231290340423584,-10.83484268188477,14.57551193237305,0.01185870170593262,2.308008909225464,-0.3741062879562378,1,-0.3060339391231537,0.6765239834785461,-0.6192814111709595,-0.2552430331707001,-0.7243983149528503,0.6816914081573486,0.1026829406619072,0,0,0,-1,197157.357678,1,2,1561914442.195215,1561913957.287787,32,0.8918345,0,0,26.32609,0,0,1561914413.669193,197159.347616,0,1.543213,75.29061,3232235528,177845136,1,1,0.53,-4.901523,-8.895792,5
1561914447.507027,98,0,0,1561914446.999794,4.634676924910988,-74.15106615058532,2553.023,1.35,281.25,4,50,-9999,1561914447.498306,12.68082427978516,22.75483322143555,-13.709228515625,41.54436111450195,49.0378303527832,15,197162.663093125,-1.745574951171875,3.497238159179688,-0.0599822998046875,197162.645881125,7.501223577040331,-9.904218329700857,13.10952977553189,197162.636818125,-64.18048095703125,-4.887359619140625,-575.46435546875,197162.645881125,1.599229993459623,-1.854440954056967,-1.053859218079786,7.498514652252197,-9.910850524902344,13.10629177093506,-0.7576756477355957,2.514070510864258,-0.2461444139480591,1,-0.2855061292648315,0.6983133554458618,-0.6523124575614929,-0.07302821427583694,-0.4744715690612793,0.8693370223045349,0.138310581445694,0,0,0,-1,197157.357678,1,2,1561914442.195215,1561913957.287787,32,0.8918345,0,0,26.32609,0,0,1561914413.669193,197159.347616,0,1.543213,75.29061,3232235528,177845136,1,1,0.53,-4.901523,-9.403964,5
1561914447.527306,99,0,0,1561914446.999794,4.634676924910988,-74.15106615058532,2553.023,1.35,281.25,4,50,-9999,1561914447.523482,15.05987548828125,16.76395416259766,-18.74658203125,32.50264358520508,39.99611282348633,15,197162.683357125,-2.05950927734375,3.341415405273438,-0.0941314697265625,197162.666145125,8.777960047855295,-4.640704140690809,10.10825588398506,197162.656929125,-61.08839416503906,-10.58073425292969,-580.9833984375,197162.666145125,1.904756343792422,-1.722041831121343,-1.326162350961202,8.775250434875488,-4.647336006164551,10.10501766204834,-1.506138801574707,2.52701210975647,-0.09647464752197266,1,-0.2545150220394135,0.6734005212783813,-0.6891424059867859,0.08268339186906815,-0.2394361048936844,0.9702260494232178,0.03649231791496277,0,0,0,-1,197157.357678,1,2,1561914442.195215,1561913957.287787,32,0.8918345,0,0,26.32609,0,0,1561914413.669193,197159.347616,0,1.543213,75.29061,3232235528,177845136,1,1,0.53,-4.901523,-10.33431,5
1561914447.556504,100,0,0,1561914446.999794,4.634676924910988,-74.15106615058532,2553.023,1.35,281.25,4,50,-9999,1561914447.548359,17.0394287109375,10.96608352661133,-21.07330322265625,38.05033874511719,45.54380798339844,15,197162.703621125,-2.252838134765625,3.2921142578125,0.247100830078125,197162.686409125,7.346309626959294,2.603318795120722,6.238786150750221,197162.677009125,-59.43359375,-16.869384765625,-584.6029663085938,197162.686409125,3.110100787176438,-0.552046298911954,-1.427397511507865,7.343600749969482,2.596686601638794,6.235548973083496,-1.984564185142517,2.35167932510376,0.02754771709442139,1,-0.1960762739181519,0.6330201625823975,-0.7300496101379395,0.1669344007968903,-0.07494512945413589,0.989736020565033,-0.1216791346669197,0,0,0,-1,197157.357678,1,2,1561914442.195215,1561913957.287787,32,0.8918345,0,0,26.32609,0,0,1561914413.669193,197159.347616,0,1.543213,75.29061,3232235528,177845136,1,1,0.53,-4.901523,-11.4162,5
1561914447.568,101,0,0,1561914446.999794,4.634676924910988,-74.15106615058532,2553.023,1.35,281.25,4,50,-9999,1561914447.548359,17.0394287109375,10.96608352661133,-21.07330322265625,38.05033874511719,45.54380798339844,15,197162.723884125,-2.111892700195312,2.729293823242188,0.4893951416015625,197162.706672125,5.451887562394623,7.582287004829035,3.349509368317805,197162.697120125,-56.47135925292969,-22.05947875976562,-584.7551879882812,197162.706672125,-2.563206127898991,0.1562993488415192,-1.314958443568235,5.449178695678711,7.575654983520508,3.346271991729736,-2.292229652404785,2.324662685394287,0.4970721006393433,1,-0.114518515765667,0.6015811562538147,-0.7699565887451172,0.1793109774589539,0.03939164057374001,0.9674516320228577,-0.2499712407588959,0,0,0,-1,197157.357678,1,2,1561914442.195215,1561913957.287787,32,0.8918345,0,0,26.32609,0,0,1561914413.669193,197160.293123,0,1.56958,75.29035,3232235528,177845136,1,1,0.53,-4.901523,-12.25465,5
1561914447.588088,102,0,0,1561914446.999794,4.634676924910988,-74.15106615058532,2553.023,1.35,281.25,4,50,-9999,1561914447.574206,23.98050308227539,3.518135070800781,-17.52880859375,51.08557891845703,58.57904815673828,15,197162.744148125,-1.927291870117188,2.145126342773438,0.5196533203125,197162.726906125,3.27223695034083,8.422643225745794,1.627375450469739,197162.717231125,-52.722412109375,-25.26754760742188,-582.3497924804688,197162.726906125,-2.483643876209588,0.4011000245050789,-1.217421398528976,3.269527673721313,8.416010856628418,1.624138236045837,-2.247007608413696,1.791083693504333,0.807994544506073,1,-0.0263697262853384,0.5830994248390198,-0.7976318597793579,0.1519308984279633,0.1351149678230286,0.938210129737854,-0.3185994029045105,0,0,0,-1,197157.357678,1,2,1561914442.195215,1561913957.287787,32,0.8918345,0,0,26.32609,0,0,1561914413.669193,197160.293123,0,1.56958,75.29035,3232235528,177845136,1,1,0.53,-4.901523,-13.23281,5
1561914447.608129,103,0,0,1561914446.999794,4.634676924910988,-74.15106615058532,2553.023,1.35,281.25,4,50,-9999,1561914447.598535,26.74362945556641,1.983970642089844,-14.40093994140625,62.19660186767578,69.69007110595703,15,197162.764412125,-1.802963256835938,1.819015502929688,0.6392822265625,197162.747169125,2.380630591090476,6.319829871146859,0.2130113418933338,197162.737343125,-49.8997802734375,-26.96165466308594,-579.0758056640625,197162.747169125,-2.50412549561878,0.5335489096924659,-1.160862668022743,2.377921342849731,6.313198089599609,0.2097740322351456,-2.129990577697754,1.227979063987732,0.8628068566322327,1,0.04357841610908508,0.5714229345321655,-0.8113193511962891,0.1154895573854446,0.2026987820863724,0.9171472787857056,-0.3431535065174103,0,0,0,-1,197157.357678,1,2,1561914442.195215,1561913957.287787,32,0.8918345,0,0,26.32609,0,0,1561914413.669193,197160.293123,0,1.56958,75.29035,3232235528,177845136,1,1,0.53,-4.901523,-14.20252,5
1561914447.635353,104,0,0,1561914446.999794,4.634676924910988,-74.15106615058532,2553.023,1.35,281.25,4,50,-9999,1561914447.624901,27.9945068359375,1.58183479309082,-11.96697998046875,69.38002014160156,76.87348937988281,15,197162.784675125,-1.740341186523438,1.573715209960938,0.6926422119140625,197162.767433125,2.470950900512186,4.084912008571196,-1.321151872526978,197162.757454125,-48.20402526855469,-27.68862915039062,-576.0572509765625,197162.767433125,-2.589306681881633,0.5599211235814128,-1.124624667827577,2.468241691589355,4.078279972076416,-1.324389100074768,-2.032149314880371,0.9169098138809204,1.004903793334961,1,0.08521438390016556,0.5567115545272827,-0.822446882724762,0.07994934916496277,0.2291860580444336,0.9021056890487671,-0.3656215071678162,0,0,0,-1,197157.357678,1,2,1561914442.195215,1561913957.287787,32,0.8918345,0,0,26.32609,0,0,1561914413.669193,197160.293123,0,1.56958,75.29035,3232235528,177845136,1,1,0.53,-4.901523,-15.22524,5
1561914447.649766,105,0,0,1561914446.999794,4.634676924910988,-74.15106615058532,2553.023,1.35,281.25,4,50,-9999,1561914447.624901,27.9945068359375,1.58183479309082,-11.96697998046875,69.38002014160156,76.87348937988281,15,197162.804939125,-1.554489135742188,1.2733154296875,0.6529083251953125,197162.787697125,1.535005039640886,3.190609465033246,-2.840366763748674,197162.777565125,-47.12858581542969,-27.69117736816406,-573.966796875,197162.787697125,-2.72116091940402,0.5133475281814543,-1.109786811075391,1.532295823097229,3.183977365493774,-2.84360408782959,-1.95880651473999,0.6781113147735596,1.080155611038208,1,0.1046866327524185,0.5434004068374634,-0.8319233655929565,0.04074599593877792,0.2184652984142303,0.8956038951873779,-0.3875133991241455,0,0,0,-1,197157.357678,1,2,1561914442.195215,1561913957.287787,32,0.8918345,0,0,26.32609,0,0,1561914413.669193,197160.293123,0,1.56958,75.29035,3232235528,177845136,1,1,0.53,-4.901523,-15.22524,5
1561914447.668888,106,0,0,1561914446.999794,4.634676924910988,-74.15106615058532,2553.023,1.35,281.25,4,50,-9999,1561914447.649364,28.78974151611328,2.127279281616211,-9.88665771484375,74.40263366699219,81.89610290527344,15,197162.825172125,-1.423629760742188,1.251388549804688,0.5283355712890625,197162.807960125,0.08061361988058953,2.476417038649574,-4.64310631199406,197162.797645125,-46.50679016113281,-25.98098754882812,-572.2410278320312,197162.807960125,-2.891675757818029,0.4180850356832613,-1.129551701912018,0.07790452241897583,2.46978497505188,-4.64634370803833,-1.727882385253906,0.3690946102142334,1.043189525604248,1,0.1086750105023384,0.5413401126861572,-0.8337196707725525,-0.007218893617391586,0.1733932346105576,0.9042208194732666,-0.3902812600135803,0,0,0,-1,197157.357678,1,2,1561914442.195215,1561913957.287787,32,0.8918345,0,0,26.32609,0,0,1561914413.669193,197160.293123,0,1.56958,75.29035,3232235528,177845136,1,1,0.53,-4.901523,-16.32247,5
1561914447.689152,107,0,0,1561914446.999794,4.634676924910988,-74.15106615058532,2553.023,1.35,281.25,4,50,-9999,1561914447.675365,28.78217315673828,7.211584091186523,-7.2281494140625,77.37912750244141,84.87259674072266,15,197162.845436125,-1.539825439453125,1.583755493164062,0.2931671142578125,197162.828224125,-1.10134733932507,1.5456664724328,-6.336397396288242,197162.817756125,-46.52755737304688,-23.123779296875,-571.3450317382812,197162.828224125,3.137082660373642,0.2260377781812471,-1.176076415481446,-1.104056477546692,1.539034485816956,-6.339634418487549,-1.509814143180847,0.3282842636108398,0.9031029939651489,1,0.09507780522108078,0.5509777665138245,-0.8265790939331055,-0.06442566961050034,0.08618442714214325,0.9231042861938477,-0.3747674226760864,0,0,0,-1,197157.357678,1,2,1561914442.195215,1561913957.287787,32,0.8918345,0,0,26.32609,0,0,1561914413.669193,197160.293123,0,1.56958,75.29035,3232235528,177845136,1,1,0.53,-4.901523,-17.39573,5
1561914447.715467,108,0,0,1561914446.999794,4.634676924910988,-74.15106615058532,2553.023,1.35,281.25,4,50,-9999,1561914447.701043,27.74360275268555,11.08951187133789,-6.31463623046875,79.15654754638672,86.65001678466797,15,197162.865699125,-1.53729248046875,1.901763916015625,-0.0576324462890625,197162.848488125,-2.067438053207195,1.019748882473369,-6.990852189944238,197162.837867125,-47.53285217285156,-19.59776306152344,-570.2168579101562,197162.848488125,2.767140787097651,-0.09341084360603208,-1.218222800852083,-2.070147275924683,1.013116955757141,-6.994089603424072,-1.507616281509399,0.6452683210372925,0.636975884437561,1,0.06875572353601456,0.5686547756195068,-0.8099173307418823,-0.1262471675872803,-0.03220920637249947,0.93848717212677,-0.3438087999820709,0,0,0,-1,197157.357678,1,2,1561914442.195215,1561913957.287787,32,0.8918345,0,0,26.32609,0,0,1561914413.669193,197160.293123,0,1.56958,75.29035,3232235528,177845136,1,1,0.53,-4.901523,-18.33758,5
1561914447.733277,109,0,0,1561914446.999794,4.634676924910988,-74.15106615058532,2553.023,1.35,281.25,4,50,-9999,1561914447.701043,27.74360275268555,11.08951187133789,-6.31463623046875,79.15654754638672,86.65001678466797,15,197162.885963125,-1.410736083984375,2.006118774414062,-0.3487396240234375,197162.868751125,-2.460830888369885,0.7631597030308507,-6.987983965450223,197162.857979125,-49.11891174316406,-15.47882080078125,-568.9291381835938,197162.868751125,2.32808909662239,-0.4887635092320679,-1.223351405745833,-2.463540077209473,0.7565276622772217,-6.991220951080322,-1.37741756439209,0.9615181088447571,0.2429968118667603,1,0.03851041197776794,0.5900866985321045,-0.7845190763473511,-0.1866668313741684,-0.1598749160766602,0.9402457475662231,-0.3006292581558228,0,0,0,-1,197157.357678,1,2,1561914442.195215,1561913957.287787,32,0.8918345,0,0,26.32609,0,0,1561914413.669193,197160.293123,0,1.56958,75.29035,3232235528,177845136,1,1,0.53,-4.901523,-19.20518,5
1561914447.750098,110,0,0,1561914446.999794,4.634676924910988,-74.15106615058532,2553.023,1.35,281.25,4,50,-9999,1561914447.728757,26.08876037597656,15.04050540924072,-5.08526611328125,80.84843444824219,88.34190368652344,15,197162.906227125,-1.39776611328125,1.947723388671875,-0.5521240234375,197162.889015125,-1.593611361537496,0.2202199863319603,-7.253694471626263,197162.878059125,-51.33468627929688,-11.83357238769531,-568.0538330078125,197162.889015125,1.944330907207277,-0.836009899588074,-1.16807707515554,-1.596320509910583,0.2135879546403885,-7.256931781768799,-1.119940519332886,1.086120128631592,-0.08598411083221436,1,0.004204344935715199,0.6071281433105469,-0.7559696435928345,-0.244719609618187,-0.290795624256134,0.9199986457824707,-0.2627554833889008,0,0,0,-1,197157.357678,1,2,1561914442.195215,1561913957.287787,32,0.8918345,0,0,26.32609,0,0,1561914413.669193,197160.293123,0,1.56958,75.29035,3232235528,177845136,1,1,0.53,-4.901523,-19.65309,5
1561914447.770424,111,0,0,1561914446.999794,4.634676924910988,-74.15106615058532,2553.023,1.35,281.25,4,50,-9999,1561914447.751161,23.59201049804688,18.67459487915039,-4.302978515625,81.39394378662109,88.88741302490234,15,197162.926491125,-1.513931274414062,1.946075439453125,-0.6907501220703125,197162.909248125,-0.5204756865879629,-0.7058767058799003,-7.659202292903831,197162.898170125,-54.40626525878906,-8.637893676757812,-567.5511474609375,197162.909248125,1.706718979467366,-1.055108600640377,-1.057024996067061,-0.5231847763061523,-0.7125087380409241,-7.662439346313477,-0.9702140092849731,1.076826095581055,-0.3097661137580872,1,-0.04112088680267334,0.614109218120575,-0.7291138172149658,-0.2992859184741974,-0.4275521039962769,0.8708972334861755,-0.2423578798770905,0,0,0,-1,197157.357678,1,2,1561914442.195215,1561913957.287787,32,0.8918345,0,0,26.32609,0,0,1561914413.669193,197160.293123,0,1.56958,75.29035,3232235528,177845136,1,1,0.53,-4.901523,-20.40805,5
1561914447.792645,112,0,0,1561914446.999794,4.634676924910988,-74.15106615058532,2553.023,1.35,281.25,4,50,-9999,1561914447.776673,16.49531936645508,24.70044326782227,-4.0101318359375,80.43222808837891,87.92569732666016,15,197162.946754125,-1.519439697265625,1.878555297851562,-0.7223052978515625,197162.929512125,-0.3257264392376295,-1.156964795530285,-7.952301280362464,197162.918281125,-58.00440979003906,-5.6309814453125,-567.5748291015625,197162.929512125,1.569323216761151,-1.190246086949382,-0.9173629150359797,-0.3284355401992798,-1.163596749305725,-7.955538272857666,-0.9495053291320801,1.152074098587036,-0.4649510383605957,1,-0.09572695195674896,0.6147656440734863,-0.7002775073051453,-0.3500155806541443,-0.5644259452819824,0.7940012812614441,-0.2257991135120392,0,0,0,-1,197157.357678,1,2,1561914442.195215,1561913957.287787,32,0.8918345,0,0,26.32609,0,0,1561914413.669193,197160.293123,0,1.56958,75.29035,3232235528,177845136,1,1,0.53,-4.901523,-20.92697,5
1561914447.811303,113,0,0,1561914446.999794,4.634676924910988,-74.15106615058532,2553.023,1.35,281.25,4,50,-9999,1561914447.800952,11.98678970336914,26.70420455932617,-4.2667236328125,79.36037445068359,86.85384368896484,15,197162.967018125,-1.432937622070312,1.771499633789062,-0.67498779296875,197162.949775125,-0.309577296703498,-1.301898283110141,-8.375199543558251,197162.938392125,-62.46511840820312,-2.835525512695312,-567.8896484375,197162.949775125,1.478868249717801,-1.282818169079992,-0.7632928867643566,-0.312286376953125,-1.308530211448669,-8.378437042236328,-0.8266314268112183,1.187250852584839,-0.5170870423316956,1,-0.1536925882101059,0.611366868019104,-0.6657427549362183,-0.3992437720298767,-0.6928082704544067,0.6913045048713684,-0.2052182853221893,0,0,0,-1,197157.357678,1,2,1561914442.195215,1561913957.287787,32,0.8918345,0,0,26.32609,0,0,1561914413.669193,197160.293123,0,1.56958,75.29035,3232235528,177845136,1,1,0.53,-4.901523,-20.92697,5
1561914447.832587,114,0,0,1561914446.999794,4.634676924910988,-74.15106615058532,2553.023,1.35,281.25,4,50,-9999,1561914447.827411,6.91925048828125,27.94854354858398,-4.359619140625,343.3398742675781,350.8333435058594,15,197162.987282125,-1.361526489257812,1.641769409179688,-0.5826873779296875,197162.970039125,-0.1884170492264521,-1.638952211728314,-8.777506777837763,197162.958473125,-67.47431945800781,-1.530029296875,-567.8348999023438,197162.970039125,1.416119034197093,-1.352188364510834,-0.596086171515422,-0.1911261379718781,-1.645584225654602,-8.780744552612305,-0.6250936388969421,1.210091710090637,-0.4955186247825623,1,-0.2150272578001022,0.6033478975296021,-0.6245137453079224,-0.4468972384929657,-0.8078439831733704,0.5614079236984253,-0.1794691830873489,0,0,0,-1,197157.357678,1,2,1561914442.195215,1561913957.287787,32,0.8918345,0,0,26.32609,0,0,1561914413.669193,197160.293123,0,1.56958,75.29035,3232235528,177845136,1,1,0.53,-4.901523,-6.575543,5
1561914447.851355,115,0,0,1561914446.999794,4.634676924910988,-74.15106615058532,2553.023,1.35,281.25,4,50,-9999,1561914447.827411,6.91925048828125,27.94854354858398,-4.359619140625,343.3398742675781,350.8333435058594,15,197163.007515125,-1.305450439453125,1.455734252929688,-0.5308837890625,197162.990303125,-0.06479177984442878,-2.191550947384812,-9.067236866517446,197162.978584125,-72.74737548828125,-0.8010101318359375,-567.98095703125,197162.990303125,1.374491083013663,-1.41129235178802,-0.4189128538679618,-0.06749492883682251,-2.198177099227905,-9.070474624633789,-0.4595910310745239,1.235001802444458,-0.4375925064086914,1,-0.2800945341587067,0.5907618999481201,-0.5765902400016785,-0.4899908900260925,-0.9019354581832886,0.4067675471305847,-0.1450948566198349,0,0,0,-1,197157.357678,1,2,1561914442.195215,1561913957.287787,32,0.8918345,0,0,26.32609,0,0,1561914413.669193,197160.293123,0,1.56958,75.29035,3232235528,177845136,1,1,0.53,-4.901523,-7.159033,5
1561914447.873006,116,0,0,1561914446.999794,4.634676924910988,-74.15106615058532,2553.023,1.35,281.25,4,50,-9999,1561914447.851776,1.073699951171875,28.8499813079834,-4.40472412109375,345.5285339355469,353.0220031738281,15,197163.027778125,-1.247528076171875,1.269271850585938,-0.48443603515625,197163.010566125,-0.1756322780974177,-2.671257099793079,-9.132737846160163,197162.998695125,-78.89408874511719,-0.5658111572265625,-567.8077392578125,197163.010566125,1.346745993337279,-1.470557190141168,-0.2355985693414872,-0.1783354431390762,-2.677883148193359,-9.13597583770752,-0.3379568457603455,1.222309112548828,-0.4335769414901733,1,-0.3472881019115448,0.5750978589057922,-0.5209314823150635,-0.526577353477478,-0.9674936532974243,0.2334250658750534,-0.09730685502290726,0,0,0,-1,197157.357678,1,2,1561914442.195215,1561913957.287787,32,0.8918345,0,0,26.32609,0,0,1561914413.669193,197160.293123,0,1.56958,75.29035,3232235528,177845136,1,1,0.53,-4.901523,-7.420015,5
1561914447.891753,117,0,0,1561914446.999794,4.634676924910988,-74.15106615058532,2553.023,1.35,281.25,4,50,-9999,1561914447.878056,-10.42909240722656,26.81212615966797,-3.74176025390625,346.8036499023438,354.297119140625,15,197163.048042125,-1.159255981445312,1.07257080078125,-0.3769989013671875,197163.030830125,-0.2338812037757398,-2.615259876816419,-8.821805266777924,197163.018806125,-84.81425476074219,-2.00732421875,-567.6260986328125,197163.030830125,1.328727517960302,-1.527532775139299,-0.05410499782754583,-0.2365843653678894,-2.621886014938354,-8.825042724609375,-0.2499256134033203,1.215193271636963,-0.4412492513656616,1,-0.4109036028385162,0.5563855171203613,-0.4598671495914459,-0.5568802952766418,-0.9976024031639099,0.0540786050260067,-0.04318677261471748,0,0,0,-1,197157.357678,1,2,1561914442.195215,1561913957.287787,32,0.8918345,0,0,26.32609,0,0,1561914413.669193,197160.293123,0,1.56958,75.29035,3232235528,177845136,1,1,0.53,-4.901523,-6.718618,5
1561914447.911887,118,0,0,1561914446.999794,4.634676924910988,-74.15106615058532,2553.023,1.35,281.25,4,50,-9999,1561914447.902822,-15.37905120849609,24.45154762268066,-2.9888916015625,346.6390686035156,354.1325378417969,15,197163.068306125,-1.089828491210938,0.6831817626953125,-0.2772674560546875,197163.051094125,0.2752110670487884,-2.625568174447789,-8.619585586253809,197163.058998125,-94.21951293945312,-6.865463256835938,-566.02685546875,197163.051094125,1.325105464429025,-1.580257614378734,0.1216661523804233,0.272507905960083,-2.63219428062439,-8.622823715209961,-0.1666926145553589,1.193937063217163,-0.3863900899887085,1,-0.4699409008026123,0.5327768325805664,-0.3980468511581421,-0.5803990364074707,-0.9925633072853088,-0.1213662102818489,0.009391207247972488,0,0,0,-1,197157.357678,1,2,1561914442.195215,1561913957.287787,32,0.8918345,0,0,26.32609,0,0,1561914413.669193,197160.293123,0,1.56958,75.29035,3232235528,177845136,1,1,0.53,-4.901523,-6.887921,5
1561914447.933033,119,0,0,1561914446.999794,4.634676924910988,-74.15106615058532,2553.023,1.35,281.25,4,50,-9999,1561914447.928656,-19.73760986328125,21.15500450134277,-2.2977294921875,344.5612182617188,352.0546875,15,197163.088569125,-1.061203002929688,0.3070220947265625,-0.1936187744140625,197163.071357125,0.8300093074495837,-3.02615207718591,-8.837483828747438,197163.079109125,-98.4737548828125,-10.83090209960938,-565.1407470703125,197163.071357125,1.344905194271712,-1.642697845233996,0.2981319224856002,0.8273061513900757,-3.032778263092041,-8.840721130371094,-0.1364115476608276,0.9769167900085449,-0.345937967300415,1,-0.5300987362861633,0.5033195614814758,-0.3345862925052643,-0.5947408080101013,-0.9534168839454651,-0.2937350571155548,0.06867050379514694,0,0,0,-1,197157.357678,1,2,1561914442.195215,1561913957.287787,32,0.8918345,0,0,26.32609,0,0,1561914413.669193,197160.293123,0,1.56958,75.29035,3232235528,177845136,1,1,0.53,-4.901523,-7.794097,5
1561914447.95399,120,0,0,1561914446.999794,4.634676924910988,-74.15106615058532,2553.023,1.35,281.25,4,50,-9999,1561914447.953108,-26.2645263671875,13.28914070129395,0.1209716796875,342.7947998046875,350.2882690429688,15,197163.108833125,-0.9609527587890625,0.2248077392578125,-0.203155517578125,197163.091591125,0.08179340024349463,-2.617495334235432,-8.478213277683606,197163.099220125,-101.1956634521484,-14.88560485839844,-563.9017333984375,197163.091591125,1.377472410528548,-1.71375251433061,0.4724188938226612,0.07909023761749268,-2.624121427536011,-8.481451034545898,-0.1798163652420044,0.7620636820793152,-0.3204838037490845,1,-0.5853255391120911,0.4699218571186066,-0.2680570483207703,-0.6039146184921265,-0.8813866376876831,-0.4550415575504303,0.1268650740385056,0,0,0,-1,197157.357678,1,2,1561914442.195215,1561913957.287787,32,0.8918345,0,0,26.32609,0,0,1561914413.669193,197160.293123,0,1.56958,75.29035,3232235528,177845136,1,1,0.53,-4.901523,-8.886848,5
1561914447.972831,121,0,0,1561914446.999794,4.634676924910988,-74.15106615058532,2553.023,1.35,281.25,4,50,-9999,1561914447.953108,-26.2645263671875,13.28914070129395,0.1209716796875,342.7947998046875,350.2882690429688,15,197163.129097125,-0.80615234375,0.1710968017578125,-0.1905364990234375,197163.111854125,-0.8588382925658004,-1.613270550388352,-7.484425422148547,197163.119331125,-103.6587371826172,-19.07278442382812,-562.7646484375,197163.111854125,1.399081412532373,-1.767893854699588,0.6344152116618342,-0.8615413904190063,-1.619896531105042,-7.487663745880127,-0.1711278557777405,0.8175143599510193,-0.3608757257461548,1,-0.6243634223937988,0.4347762763500214,-0.2033677995204926,-0.6162641644477844,-0.789824903011322,-0.5927066206932068,0.1577201932668686,0,0,0,-1,197157.357678,1,2,1561914442.195215,1561913957.287787,32,0.8918345,0,0,26.32609,0,0,1561914413.669193,197160.293123,0,1.56958,75.29035,3232235528,177845136,1,1,0.53,-4.901523,-8.886848,5
