loggingTime,loggingSample,identifierForVendor,deviceID,locationTimestamp_since1970,locationLatitude,locationLongitude,locationAltitude,locationSpeed,locationCourse,locationVerticalAccuracy,locationHorizontalAccuracy,locationFloor,locationHeadingTimestamp_since1970,locationHeadingX,locationHeadingY,locationHeadingZ,locationTrueHeading,locationMagneticHeading,locationHeadingAccuracy,accelerometerTimestamp_sinceReboot,accelerometerAccelerationX,accelerometerAccelerationY,accelerometerAccelerationZ,gyroTimestamp_sinceReboot,gyroRotationX,gyroRotationY,gyroRotationZ,magnetometerTimestamp_sinceReboot,magnetometerX,magnetometerY,magnetometerZ,motionTimestamp_sinceReboot,motionYaw,motionRoll,motionPitch,motionRotationRateX,motionRotationRateY,motionRotationRateZ,motionUserAccelerationX,motionUserAccelerationY,motionUserAccelerationZ,motionAttitudeReferenceFrame,motionQuaternionX,motionQuaternionY,motionQuaternionZ,motionQuaternionW,motionGravityX,motionGravityY,motionGravityZ,motionMagneticFieldX,motionMagneticFieldY,motionMagneticFieldZ,motionMagneticFieldCalibrationAccuracy,activityTimestamp_sinceReboot,activity,activityActivityConfidence,activityActivityStartDate,pedometerStartDate,pedometerNumberofSteps,pedometerAverageActivePace,pedometerCurrentPace,pedometerCurrentCadence,pedometerDistance,pedometerFloorAscended,pedometerFloorDescended,pedometerEndDate,altimeterTimestamp_sinceReboot,altimeterReset,altimeterRelativeAltitude,altimeterPressure,IP_en0,IP_pdp_ip0,deviceOrientation,batteryState,batteryLevel,avAudioRecorderPeakPower,avAudioRecorderAveragePower,label
1561240727.053965,1,0,0,1561240724.192677,4.603120233649292,-74.06474902378001,2651.555,-1,-1,10,65,-9999,1561240727.05184,-3.268051147460938,19.95504379272461,17.8326416015625,152.9932403564453,160.5369262695312,15,63187.40964241667,-0.4150848388671875,0.8895721435546875,-0.135894775390625,63187.39850341667,0.03131105125217061,-0.09143564128623552,0.006475742506636676,63187.38507541667,35.39646911621094,20.14254760742188,-515.098388671875,63187.40356941667,-1.952556045465083,-1.272207816665851,-1.100883154770297,0.04611527174711227,-0.1116273775696754,-0.005899060517549515,0.02963578701019287,0.0007264018058776855,-0.005132794380187988,1,0.6551159620285034,-0.06497224420309067,0.3939173817634583,-0.6414285898208618,-0.4327730238437653,0.8916075825691223,-0.1332033723592758,0,0,0,-1,63185.97771387501,3,1,1561240725.640629,1561239991.781823,76,5.095047,0,0,66.78877,0,0,1561240724.675671,63184.827902,0,-0.7424316,74.42217,2650659446,177292352,1,1,0.31,-16.81449,-31.83978,1
1561240727.074224,2,0,0,1561240724.192677,4.603120233649292,-74.06474902378001,2651.555,-1,-1,10,65,-9999,1561240727.05184,-3.268051147460938,19.95504379272461,17.8326416015625,152.9932403564453,160.5369262695312,15,63187.42990541667,-0.4393768310546875,0.893890380859375,-0.126129150390625,63187.41876641667,0.08756447032569635,-0.09482664430223342,-0.03380190581972172,63187.40521741667,35.61630249023438,20.20301818847656,-515.1406860351562,63187.42383241667,-1.950039589085353,-1.272180429680103,-1.100232610692102,0.08430180698633194,-0.08815054595470428,-0.03795206546783447,0.00653529167175293,-0.001542329788208008,0.002007663249969482,1,0.655150294303894,-0.06391540169715881,0.3933246433734894,-0.6418632864952087,-0.4333236217498779,0.891312837600708,-0.1333858221769333,0,0,0,-1,63185.97771387501,3,1,1561240725.640629,1561239991.781823,76,5.095047,0,0,66.78877,0,0,1561240724.675671,63184.827902,0,-0.7424316,74.42217,2650659446,177292352,1,1,0.31,-17.37177,-32.66108,1
1561240727.098779,3,0,0,1561240724.192677,4.603120233649292,-74.06474902378001,2651.555,-1,-1,10,65,-9999,1561240727.0845,-3.201694488525391,19.96323013305664,17.724853515625,152.6343841552734,160.1780700683594,15,63187.45016941667,-0.4417877197265625,0.902496337890625,-0.1016693115234375,63187.43903041667,0.09981208186286175,-0.03282239517079058,-0.03958096538519367,63187.42532841667,35.34872436523438,20.33122253417969,-515.04638671875,63187.44406641667,-1.946773364666486,-1.270404579087292,-1.099176436711237,0.09964880347251892,-0.02926725894212723,-0.04664276167750359,-0.01180011034011841,0.006429076194763184,0.01982492208480835,1,0.6548367142677307,-0.06302396953105927,0.3931916356086731,-0.6423528790473938,-0.4339853823184967,0.8908334970474243,-0.1344337165355682,0,0,0,-1,63185.97771387501,3,1,1561240725.640629,1561239991.781823,76,5.095047,0,0,66.78877,0,0,1561240724.675671,63184.827902,0,-0.7424316,74.42217,2650659446,177292352,1,1,0.31,-17.92904,-33.46356,1
1561240727.114737,4,0,0,1561240724.192677,4.603120233649292,-74.06474902378001,2651.555,-1,-1,10,65,-9999,1561240727.108855,-3.16412353515625,20.0209789276123,17.870849609375,152.5309600830078,160.0746459960938,15,63187.47043341667,-0.4187774658203125,0.9046173095703125,-0.0898895263671875,63187.45929441667,0.1210121757204375,-0.02278201154508284,-0.04958912476171145,63187.44546941667,35.6685791015625,20.472900390625,-515.044921875,63187.46432941667,-1.942707328042969,-1.267391867136901,-1.097791851903338,0.115958534181118,-0.0374000184237957,-0.05148705095052719,0.002702444791793823,0.01270473003387451,0.04425108432769775,1,0.6542806625366211,-0.06214768812060356,0.3933087885379791,-0.6429328918457031,-0.4347550868988037,0.890203595161438,-0.1361089646816254,0,0,0,-1,63185.97771387501,3,1,1561240725.640629,1561239991.781823,76,5.095047,0,0,66.78877,0,0,1561240724.675671,63184.827902,0,-0.7424316,74.42217,2650659446,177292352,1,1,0.31,-18.48632,-34.36328,1
1561240727.134964,5,0,0,1561240724.192677,4.603120233649292,-74.06474902378001,2651.555,-1,-1,10,65,-9999,1561240727.108855,-3.16412353515625,20.0209789276123,17.870849609375,152.5309600830078,160.0746459960938,15,63187.49066641667,-0.401947021484375,0.90118408203125,-0.1018218994140625,63187.47955841667,0.08963241491214287,-0.03248390739624151,-0.03305542176617252,63187.46561141667,35.58056640625,20.34332275390625,-515.5352172851562,63187.48459341667,-1.939052243230998,-1.264897255913601,-1.096569304526511,0.08229590952396393,-0.02936898916959763,-0.02849544957280159,0.03097164630889893,0.01603943109512329,0.04045957326889038,1,0.6538209319114685,-0.06130114197731018,0.3933354914188385,-0.6434652805328369,-0.4354516565799713,0.8896459937095642,-0.1375207155942917,0,0,0,-1,63185.97771387501,3,1,1561240725.640629,1561239991.781823,76,5.095047,0,0,66.78877,0,0,1561240724.675671,63184.827902,0,-0.7424316,74.42217,2650659446,177292352,1,1,0.31,-19.0436,-35.12163,1
1561240727.155353,6,0,0,1561240724.192677,4.603120233649292,-74.06474902378001,2651.555,-1,-1,10,65,-9999,1561240727.136234,-3.532482147216797,19.96499633789062,17.82037353515625,152.4291534423828,159.9728393554688,15,63187.51093041667,-0.404632568359375,0.8975982666015625,-0.11541748046875,63187.49979141667,0.09430626262523194,0.008524246017125625,-0.01811668594748203,63187.48575341667,35.41731262207031,20.23867797851562,-515.4256591796875,63187.50485741667,-1.935706032413753,-1.262070605143033,-1.095672666253372,0.0924108624458313,0.01106791477650404,-0.02159706316888332,0.03341645002365112,0.01026946306228638,0.03248709440231323,1,0.6533058285713196,-0.0607847236096859,0.3934656381607056,-0.643957793712616,-0.4358212053775787,0.8892361521720886,-0.138993427157402,0,0,0,-1,63185.97771387501,3,1,1561240725.640629,1561239991.781823,76,5.095047,0,0,66.78877,0,0,1561240724.675671,63184.827902,0,-0.7424316,74.42217,2650659446,177292352,1,1,0.31,-19.60088,-35.84215,1
1561240727.184018,7,0,0,1561240724.192677,4.603120233649292,-74.06474902378001,2651.555,-1,-1,10,65,-9999,1561240727.159592,-3.160743713378906,19.73698043823242,17.48883056640625,152.3875579833984,159.9312438964844,15,63187.53119341667,-0.403289794921875,0.9014739990234375,-0.1362457275390625,63187.52005441667,0.08134199443872621,0.07287181059172919,-0.0354783657259266,63187.50586441667,35.55833435058594,20.29158020019531,-515.6353149414062,63187.52512041667,-1.93282861488847,-1.258624079676997,-1.094534016582375,0.06277920305728912,0.09738922119140625,-0.04570452868938446,0.0314258337020874,0.007830679416656494,0.01434063911437988,1,0.6526354551315308,-0.06053296849131584,0.3940237462520599,-0.6443197727203369,-0.4363025426864624,0.8887147307395935,-0.1408054381608963,0,0,0,-1,63185.97771387501,3,1,1561240725.640629,1561239991.781823,76,5.095047,0,0,66.78877,0,0,1561240724.675671,63184.827902,0,-0.7424316,74.42217,2650659446,177292352,1,1,0.31,-20.15816,-36.4702,1
1561240727.195977,8,0,0,1561240724.192677,4.603120233649292,-74.06474902378001,2651.555,-1,-1,10,65,-9999,1561240727.18583,-3.342182159423828,19.94217109680176,17.70855712890625,152.5037231445312,160.0474090576172,15,63187.55145741667,-0.4108428955078125,0.9112396240234375,-0.1348876953125,63187.54031841667,0.008626777719093676,0.1645913448501672,-0.03378353000820018,63187.52600541667,35.40199279785156,20.31967163085938,-515.4791870117188,63187.54538441667,-1.932781105500142,-1.25585446106414,-1.093663203050322,-0.001539066201075912,0.1665749549865723,-0.02349829487502575,0.03389102220535278,0.01953703165054321,0.00280296802520752,1,0.6520290970802307,-0.06108639016747475,0.3951868712902069,-0.6441691517829895,-0.4366467297077179,0.8883151412010193,-0.1422530263662338,0,0,0,-1,63185.97771387501,3,1,1561240725.640629,1561239991.781823,76,5.095047,0,0,66.78877,0,0,1561240724.675671,63184.827902,0,-0.7424316,74.42217,2650659446,177292352,1,1,0.31,-20.71544,-36.71455,1
1561240727.216191,9,0,0,1561240724.192677,4.603120233649292,-74.06474902378001,2651.555,-1,-1,10,65,-9999,1561240727.210525,-3.338451385498047,20.01869773864746,17.63360595703125,152.7062835693359,160.2499694824219,15,63187.57172141667,-0.416656494140625,0.9046173095703125,-0.1240692138671875,63187.56058241667,0.01437441198370269,0.1433379877707898,0.000422909981104583,63187.54614741667,35.66790771484375,20.44198608398438,-515.5164184570312,63187.56564841667,-1.933103646410483,-1.2532182381162,-1.093690141852972,0.02039925567805767,0.1273007839918137,0.003922144882380962,0.02337494492530823,0.02172189950942993,0.01506966352462769,1,0.6514995694160461,-0.06205058470368385,0.3961412310600281,-0.6440264582633972,-0.4362472593784332,0.8883275389671326,-0.1433960646390915,0,0,0,-1,63185.97771387501,3,1,1561240725.640629,1561239991.781823,76,5.095047,0,0,66.78877,0,0,1561240724.675671,63184.827902,0,-0.7424316,74.42217,2650659446,177292352,1,1,0.31,-20.71544,-36.71455,1
1561240727.236648,10,0,0,1561240724.192677,4.603120233649292,-74.06474902378001,2651.555,-1,-1,10,65,-9999,1561240727.210525,-3.338451385498047,20.01869773864746,17.63360595703125,152.7062835693359,160.2499694824219,15,63187.59198441667,-0.419647216796875,0.8843841552734375,-0.120697021484375,63187.58084541667,0.02840607513511218,0.1307220610548664,0.01277225427191102,63187.56625841667,35.56986999511719,20.33287048339844,-515.6192016601562,63187.58591141667,-1.932237934538495,-1.249997794333136,-1.093969937323808,0.01155143603682518,0.133981853723526,0.002844629809260368,0.01533541083335876,0.00598376989364624,0.0245741605758667,1,0.6509081721305847,-0.06290974467992783,0.3968226909637451,-0.644121527671814,-0.4355472326278687,0.8884559869766235,-0.1447218358516693,0,0,0,-1,63185.97771387501,3,1,1561240725.640629,1561239991.781823,76,5.095047,0,0,66.78877,0,0,1561240724.675671,63184.827902,0,-0.7424316,74.42217,2650659446,177292352,1,1,0.31,-21.27272,-37.09169,1
1561240727.276491,11,0,0,1561240724.192677,4.603120233649292,-74.06474902378001,2651.555,-1,-1,10,65,-9999,1561240727.23954,-3.294296264648438,19.86182022094727,17.60748291015625,152.8667907714844,160.4104766845703,15,63187.61224841667,-0.4265289306640625,0.8810272216796875,-0.1100006103515625,63187.60110941667,-0.03115712054116403,0.1934080794253696,-0.01175519305160976,63187.58640041667,35.27725219726562,20.51583862304688,-515.5892944335938,63187.60617541667,-1.933317468148988,-1.247571716094273,-1.094126645970075,-0.04314536601305008,0.2131374031305313,-0.01821884326636791,0.009556680917739868,-0.009896278381347656,0.02787506580352783,1,0.6504030823707581,-0.06410016864538193,0.3979103267192841,-0.6438435316085815,-0.4350632429122925,0.8885278701782227,-0.1457339972257614,0,0,0,-1,63185.97771387501,3,1,1561240725.640629,1561239991.781823,76,5.095047,0,0,66.78877,0,0,1561240727.269731,63184.827902,0,-0.7424316,74.42217,2650659446,177292352,1,1,0.31,-22.38728,-37.59842,1
1561240727.279751,12,0,0,1561240724.192677,4.603120233649292,-74.06474902378001,2651.555,-1,-1,10,65,-9999,1561240727.23954,-3.294296264648438,19.86182022094727,17.60748291015625,152.8667907714844,160.4104766845703,15,63187.63251241667,-0.4210968017578125,0.8830413818359375,-0.0983428955078125,63187.62137341667,-0.03461763206161299,0.2510471412140635,-0.01354776678134209,63187.60654141667,35.47613525390625,20.39236450195312,-515.630126953125,63187.62643941667,-1.935262724855269,-1.244514493185235,-1.09426051511942,-0.03262987360358238,0.2392630130052567,-0.01290743425488472,0.01029336452484131,-0.005166411399841309,0.04434883594512939,1,0.6497400999069214,-0.06576603651046753,0.3994877934455872,-0.6433678865432739,-0.4345029592514038,0.8885892629623413,-0.1470252573490143,0,0,0,-1,63187.60666341667,3,1,1561240727.269578,1561239991.781823,76,5.095047,0,0,66.78877,0,0,1561240727.269731,63184.827902,0,-0.7424316,74.42217,2650659446,177292352,1,1,0.31,-22.38728,-37.59842,1
1561240727.297236,13,0,0,1561240724.192677,4.603120233649292,-74.06474902378001,2651.555,-1,-1,10,65,-9999,1561240727.274031,-3.318096160888672,20.03142929077148,17.52294921875,153.1563262939453,160.7000122070312,15,63187.65277541667,-0.416046142578125,0.8721923828125,-0.1019439697265625,63187.64163641667,-0.02384567808446049,0.1820411752606934,-0.003691940219176848,63187.62665241667,35.18673706054688,20.54490661621094,-515.2760009765625,63187.64670241667,-1.936699573582959,-1.241781001162074,-1.094474215910548,-0.02933421172201633,0.1455588936805725,-0.00599280372262001,0.01831606030464172,-0.01042193174362183,0.04919779300689697,1,0.6491608619689941,-0.06719117611646652,0.4007701277732849,-0.6430076956748962,-0.4339196681976318,0.8886873126029968,-0.1481510400772095,0,0,0,-1,63187.60666341667,3,1,1561240727.269578,1561239991.781823,76,5.095047,0,0,66.78877,0,0,1561240727.269731,63184.827902,0,-0.7424316,74.42217,2650659446,177292352,1,1,0.31,-22.94455,-38.25922,1
1561240727.317412,14,0,0,1561240724.192677,4.603120233649292,-74.06474902378001,2651.555,-1,-1,10,65,-9999,1561240727.311773,-3.655120849609375,20.04363822937012,17.52532958984375,153.6581878662109,161.2018737792969,15,63187.67303941667,-0.4272918701171875,0.8776397705078125,-0.11114501953125,63187.66190041667,-0.02775945962244094,0.08807313409390148,-0.01640507231488811,63187.64679441667,35.3138427734375,20.42903137207031,-515.402587890625,63187.66696641667,-1.938397960461364,-1.241269810998086,-1.094535711537696,-0.03177473321557045,0.0804230198264122,-0.02353051863610744,0.01336655020713806,-0.01696562767028809,0.04340511560440063,1,0.6490054130554199,-0.06792964041233063,0.4014624357223511,-0.6426549553871155,-0.4337919354438782,0.8887155055999756,-0.1483550816774368,0,0,0,-1,63187.60666341667,3,1,1561240727.269578,1561239991.781823,76,5.095047,0,0,66.78877,0,0,1561240727.269731,63184.827902,0,-0.7424316,74.42217,2650659446,177292352,1,1,0.31,-23.50183,-38.04279,1
1561240727.357101,15,0,0,1561240724.192677,4.603120233649292,-74.06474902378001,2651.555,-1,-1,10,65,-9999,1561240727.337996,-3.852397918701172,20.15615844726562,17.43115234375,153.8377685546875,161.3814544677734,15,63187.69330341667,-0.4330596923828125,0.88763427734375,-0.123260498046875,63187.68216441667,-0.03276034351739173,0.1262479504235333,-0.02144350678120902,63187.66693541667,34.99137878417969,20.48228454589844,-515.7561645507812,63187.68723041667,-1.940455346357892,-1.241040281978879,-1.094373631347184,-0.04087795317173004,0.1445862948894501,-0.02262131497263908,0.001536399126052856,-0.005660831928253174,0.02897918224334717,1,0.6488774418830872,-0.06861060857772827,0.4022488594055176,-0.6422199606895447,-0.4338942170143127,0.8886411786079407,-0.1485013067722321,0,0,0,-1,63187.60666341667,3,1,1561240727.269578,1561239991.781823,76,5.095047,0,0,66.78877,0,0,1561240727.269731,63184.827902,0,-0.7424316,74.42217,2650659446,177292352,1,1,0.31,-24.05911,-34.61084,1
1561240727.359559,16,0,0,1561240724.192677,4.603120233649292,-74.06474902378001,2651.555,-1,-1,10,65,-9999,1561240727.337996,-3.852397918701172,20.15615844726562,17.43115234375,153.8377685546875,161.3814544677734,15,63187.71356641667,-0.42578125,0.8811798095703125,-0.11492919921875,63187.70242741667,-0.0606684075286591,0.203303587087777,-0.01962936144664704,63187.68707741667,35.08851623535156,20.40664672851562,-515.3799438476562,63187.70746341667,-1.943472810362964,-1.240145052444756,-1.094379103771672,-0.07263987511396408,0.2020770162343979,-0.02066841907799244,0.00466427206993103,-0.00395435094833374,0.02907615900039673,1,0.648593008518219,-0.06987866014242172,0.4035060703754425,-0.641581654548645,-0.4337567090988159,0.8886436820030212,-0.1488881707191467,0,0,0,-1,63187.60666341667,3,1,1561240727.269578,1561239991.781823,76,5.095047,0,0,66.78877,0,0,1561240727.269731,63184.827902,0,-0.7424316,74.42217,2650659446,177292352,1,1,0.31,-24.61639,-34.62768,1
1561240727.37828,17,0,0,1561240724.192677,4.603120233649292,-74.06474902378001,2651.555,-1,-1,10,65,-9999,1561240727.36222,-3.863849639892578,20.05095672607422,17.6094970703125,154.1445770263672,161.6882629394531,15,63187.73383041667,-0.4300994873046875,0.882232666015625,-0.1009368896484375,63187.72269141667,-0.07091518613884797,0.1981570282811989,-0.01205000498428153,63187.70718841667,35.00151062011719,20.59506225585938,-515.548583984375,63187.72772641667,-1.947280655717542,-1.23966201445418,-1.094685252162435,-0.06459420174360275,0.1818471252918243,-0.01716716028749943,0.005372434854507446,-0.008962273597717285,0.04230445623397827,1,0.6483826041221619,-0.07138224691152573,0.4047870635986328,-0.6408213376998901,-0.4334272444248199,0.8887840509414673,-0.1490091532468796,0,0,0,-1,63187.60666341667,3,1,1561240727.269578,1561239991.781823,76,5.095047,0,0,66.78877,0,0,1561240727.269731,63184.827902,0,-0.7424316,74.42217,2650659446,177292352,1,1,0.31,-24.61639,-34.62768,1
1561240727.398547,18,0,0,1561240724.192677,4.603120233649292,-74.06474902378001,2651.555,-1,-1,10,65,-9999,1561240727.388648,-3.913520812988281,19.9314022064209,17.48388671875,154.4223327636719,161.9660186767578,15,63187.75406341667,-0.43707275390625,0.8852691650390625,-0.1169891357421875,63187.74295541667,-0.04887379969291616,0.1549339237892128,-0.02115934749289757,63187.72733041667,34.55735778808594,20.38079833984375,-515.4608764648438,63187.74799041667,-1.950260880478931,-1.239138523451164,-1.094728700118464,-0.05523371696472168,0.1414072811603546,-0.03170083090662956,0.000970304012298584,-0.002985477447509766,0.04288500547409058,1,0.6481723189353943,-0.07253202795982361,0.4058975875377655,-0.6402022838592529,-0.4333128333091736,0.8888039588928223,-0.1492235064506531,0,0,0,-1,63187.60666341667,3,1,1561240727.269578,1561239991.781823,76,5.095047,0,0,66.78877,0,0,1561240727.269731,63184.827902,0,-0.7424316,74.42217,2650659446,177292352,1,1,0.31,-25.17367,-30.90775,1
1561240727.437799,19,0,0,1561240724.192677,4.603120233649292,-74.06474902378001,2651.555,-1,-1,10,65,-9999,1561240727.412881,-3.921924591064453,19.91809463500977,17.61083984375,154.6586303710938,162.2023162841797,15,63187.774336,-0.44635009765625,0.881439208984375,-0.1276092529296875,63187.76318841667,-0.08727551734742274,0.1444732933434906,-0.04672702553820329,63187.74747141667,34.90592956542969,20.18194580078125,-515.5980224609375,63187.76825441667,-1.954507133366967,-1.240176384688544,-1.094455475726931,-0.1034388020634651,0.1493999660015106,-0.0525408647954464,-0.008106023073196411,-0.00566786527633667,0.02345573902130127,1,0.648209273815155,-0.07347448915243149,0.4070053696632385,-0.6393534541130066,-0.433696985244751,0.8886786699295044,-0.1488524675369263,0,0,0,-1,63187.60666341667,3,1,1561240727.269578,1561239991.781823,76,5.095047,0,0,66.78877,0,0,1561240727.269731,63184.827902,0,-0.7424316,74.42217,2650659446,177292352,1,1,0.31,-26.28823,-32.22828,1
1561240727.4407,20,0,0,1561240724.192677,4.603120233649292,-74.06474902378001,2651.555,-1,-1,10,65,-9999,1561240727.439217,-3.917510986328125,19.78445816040039,17.4173583984375,154.9556884765625,162.4993743896484,15,63187.794599,-0.4417572021484375,0.8914947509765625,-0.1279449462890625,63187.78346100001,-0.1091603099212579,0.1765683792205805,-0.05674290808188229,63187.767591,34.70782470703125,20.05255126953125,-515.53076171875,63187.788526,-1.960215340181818,-1.241956667974603,-1.094113786017928,-0.1092825755476952,0.1775807291269302,-0.06045178323984146,-0.01100251078605652,-0.004031002521514893,0.0215456485748291,1,0.6483374238014221,-0.07462865114212036,0.4083589911460876,-0.6382258534431458,-0.4342489540576935,0.8885219693183899,-0.148178294301033,0,0,0,-1,63187.60666341667,3,1,1561240727.269578,1561239991.781823,76,5.095047,0,0,66.78877,0,0,1561240727.269731,63184.827902,0,-0.7424316,74.42217,2650659446,177292352,1,1,0.31,-26.28823,-32.22828,1
1561240727.459305,21,0,0,1561240724.192677,4.603120233649292,-74.06474902378001,2651.555,-1,-1,10,65,-9999,1561240727.439217,-3.917510986328125,19.78445816040039,17.4173583984375,154.9556884765625,162.4993743896484,15,63187.81486300001,-0.4269866943359375,0.914703369140625,-0.1378326416015625,63187.803724,-0.07532431563958315,0.2102440512046325,-0.03157976420615961,63187.787733,34.60044860839844,20.06605529785156,-515.5721435546875,63187.80879,-1.964932580034261,-1.242297636173068,-1.093927904684797,-0.07001959532499313,0.2062608450651169,-0.02046948112547398,-0.001320421695709229,0.01378500461578369,0.01775801181793213,1,0.6482170820236206,-0.07597983628511429,0.4098108112812042,-0.6372571587562561,-0.4344553351402283,0.8884366750717163,-0.148083359003067,0,0,0,-1,63187.60666341667,3,1,1561240727.269578,1561239991.781823,76,5.095047,0,0,66.78877,0,0,1561240727.269731,63184.827902,0,-0.7424316,74.42217,2650659446,177292352,1,1,0.31,-26.84551,-32.82938,1
1561240727.479604,22,0,0,1561240724.192677,4.603120233649292,-74.06474902378001,2651.555,-1,-1,10,65,-9999,1561240727.463561,-4.213905334472656,19.7141227722168,17.580078125,155.2732543945312,162.8169403076172,15,63187.83512700001,-0.4170074462890625,0.913604736328125,-0.1415863037109375,63187.823988,-0.02955416388104534,0.1620714618267342,0.05205574456334284,63187.80787500001,34.38523864746094,20.22366333007812,-515.6051635742188,63187.829054,-1.966932170889625,-1.240602753802079,-1.094767254436327,-0.02245713025331497,0.1277210265398026,0.06783934682607651,0.01243209838867188,0.03131389617919922,0.006457388401031494,1,0.6478486657142639,-0.07748055458068848,0.4107336103916168,-0.6368569731712341,-0.4334983825683594,0.8888216018676758,-0.1485777348279953,0,0,0,-1,63187.60666341667,3,1,1561240727.269578,1561239991.781823,76,5.095047,0,0,66.78877,0,0,1561240727.269731,63184.827902,0,-0.7424316,74.42217,2650659446,177292352,1,1,0.31,-27.40278,-33.05503,1
1561240727.519144,23,0,0,1561240724.192677,4.603120233649292,-74.06474902378001,2651.555,-1,-1,10,65,-9999,1561240727.514238,-4.189582824707031,19.78436279296875,17.5782470703125,155.3765106201172,162.9201965332031,15,63187.85539,-0.4134368896484375,0.8964385986328125,-0.1402587890625,63187.844252,0.02011059465562436,0.03121198165961966,0.08789124019144906,63187.827986,34.71951293945312,20.16340637207031,-515.5460815429688,63187.84931700001,-1.965933159498102,-1.238576786891328,-1.096318968229935,0.02897357009351254,-0.003571215784177184,0.08395732939243317,0.01985901594161987,0.01613855361938477,0.007480382919311523,1,0.6475751399993896,-0.07838112860918045,0.4105845093727112,-0.6371210217475891,-0.4318921267986298,0.8895316123962402,-0.1490056663751602,0,0,0,-1,63187.60666341667,3,1,1561240727.269578,1561239991.781823,76,5.095047,0,0,66.78877,0,0,1561240727.269731,63184.827902,0,-0.7424316,74.42217,2650659446,177292352,1,1,0.31,-27.96006,-33.20542,1
1561240727.523209,24,0,0,1561240724.192677,4.603120233649292,-74.06474902378001,2651.555,-1,-1,10,65,-9999,1561240727.514238,-4.189582824707031,19.78436279296875,17.5782470703125,155.3765106201172,162.9201965332031,15,63187.875654,-0.4218597412109375,0.8841705322265625,-0.13531494140625,63187.864515,0.06362185317755698,-0.03231213350593139,0.06447699420358141,63187.848127,34.44808959960938,20.02119445800781,-515.34326171875,63187.86958100001,-1.963114018445586,-1.236723850777523,-1.097261583860731,0.06085586547851562,-0.02943050861358643,0.04992425814270973,0.01232022047042847,-0.002297103404998779,0.01246100664138794,1,0.647368848323822,-0.07841061800718307,0.4099899232387543,-0.6377096772193909,-0.4308229982852936,0.8899618983268738,-0.1495306938886642,0,0,0,-1,63187.60666341667,3,1,1561240727.269578,1561239991.781823,76,5.095047,0,0,66.78877,0,0,1561240727.269731,63184.827902,0,-0.7424316,74.42217,2650659446,177292352,1,1,0.31,-28.51734,-33.88425,1
1561240727.541039,25,0,0,1561240724.192677,4.603120233649292,-74.06474902378001,2651.555,-1,-1,10,65,-9999,1561240727.514238,-4.189582824707031,19.78436279296875,17.5782470703125,155.3765106201172,162.9201965332031,15,63187.895918,-0.4284820556640625,0.8848876953125,-0.1276397705078125,63187.88477900001,0.04098951128573658,0.04648627577566013,0.03319577035561969,63187.86826900001,34.62490844726562,20.20359802246094,-515.467041015625,63187.88984500001,-1.960889684616942,-1.234479440285955,-1.097654138079634,0.02384165860712528,0.06657884269952774,0.02871005050837994,0.0052909255027771,-0.006367027759552002,0.01795101165771484,1,0.6470227241516113,-0.07855305075645447,0.4098835289478302,-0.6381117701530457,-0.4301566481590271,0.8901408314704895,-0.1503820270299911,0,0,0,-1,63187.60666341667,3,1,1561240727.269578,1561239991.781823,76,5.095047,0,0,66.78877,0,0,1561240727.269731,63184.827902,0,-0.7424316,74.42217,2650659446,177292352,1,1,0.31,-28.51734,-33.88425,1
1561240727.560525,26,0,0,1561240724.192677,4.603120233649292,-74.06474902378001,2651.555,-1,-1,10,65,-9999,1561240727.541061,-4.180015563964844,19.83217239379883,17.59234619140625,155.3924865722656,162.9361724853516,15,63187.916181,-0.4180145263671875,0.887664794921875,-0.131744384765625,63187.90504300001,-0.02293807278496149,0.1306352420033298,0.01796967945530966,63187.88838,34.53742980957031,20.45494079589844,-515.4136962890625,63187.910108,-1.961056537309668,-1.232453308470528,-1.098184898298584,-0.03876765817403793,0.1402855664491653,0.007459355052560568,0.004417270421981812,-0.003389120101928711,0.02220535278320312,1,0.6466369032859802,-0.0794515386223793,0.4104251861572266,-0.6380433440208435,-0.4294050931930542,0.8903825879096985,-0.1510963439941406,0,0,0,-1,63187.60666341667,3,1,1561240727.269578,1561239991.781823,76,5.095047,0,0,66.78877,0,0,1561240727.269731,63184.827902,0,-0.7424316,74.42217,2650659446,177292352,1,1,0.31,-29.07462,-34.33858,1
1561240727.599477,27,0,0,1561240724.192677,4.603120233649292,-74.06474902378001,2651.555,-1,-1,10,65,-9999,1561240727.591879,-4.181484222412109,20.03083419799805,17.43597412109375,155.8372039794922,163.3808898925781,15,63187.93644500001,-0.409881591796875,0.8947601318359375,-0.1292724609375,63187.925306,-0.04634006823181477,0.1697568121004848,-0.0003137203764113343,63187.90852200001,34.51431274414062,20.43605041503906,-515.467529296875,63187.930372,-1.963151757482587,-1.231135061209135,-1.098647788020563,-0.04567883163690567,0.167102262377739,-0.00183800607919693,0.01565462350845337,0.001939177513122559,0.01888024806976318,1,0.6463137865066528,-0.08072195947170258,0.4113740622997284,-0.6376000046730042,-0.4288168251514435,0.8905931711196899,-0.1515249162912369,0,0,0,-1,63187.60666341667,3,1,1561240727.269578,1561239991.781823,76,5.095047,0,0,66.78877,0,0,1561240727.269731,63184.827902,0,-0.7424316,74.42217,2650659446,177292352,1,1,0.31,-27.57552,-32.85416,1
1561240727.602205,28,0,0,1561240724.192677,4.603120233649292,-74.06474902378001,2651.555,-1,-1,10,65,-9999,1561240727.591879,-4.181484222412109,20.03083419799805,17.43597412109375,155.8372039794922,163.3808898925781,15,63187.95670900001,-0.40362548828125,0.8918304443359375,-0.12750244140625,63187.94557,-0.03523548543451138,0.1452860901081827,-0.005528722423004498,63187.92866300001,34.34309387207031,20.34126281738281,-515.6080322265625,63187.950636,-1.965033926777002,-1.229790293454325,-1.098887211094866,-0.0440596267580986,0.1289239823818207,-0.01204510405659676,0.02240586280822754,0.003340959548950195,0.02535164356231689,1,0.6459766626358032,-0.08184797316789627,0.4123331904411316,-0.6371784210205078,-0.4284117221832275,0.8907020688056946,-0.1520301252603531,0,0,0,-1,63187.60666341667,3,1,1561240727.269578,1561239991.781823,76,5.095047,0,0,66.78877,0,0,1561240727.269731,63184.827902,0,-0.7424316,74.42217,2650659446,177292352,1,1,0.31,-27.57552,-32.85416,1
1561240727.621396,29,0,0,1561240724.192677,4.603120233649292,-74.06474902378001,2651.555,-1,-1,10,65,-9999,1561240727.615603,-4.56103515625,19.86136054992676,17.6156005859375,156.0236358642578,163.5673217773438,15,63187.976973,-0.4116668701171875,0.8923492431640625,-0.1341552734375,63187.965834,-0.056094428356448,0.1042747409015075,-0.02162007436148127,63187.94880500001,34.25396728515625,20.22010803222656,-515.59619140625,63187.970869,-1.967763237977209,-1.230089091527478,-1.098899258615098,-0.06833966821432114,0.08969880640506744,-0.03009148314595222,0.02131214737892151,-0.000952303409576416,0.02198523283004761,1,0.6459268927574158,-0.08263877034187317,0.4131021201610565,-0.6366285681724548,-0.4284471273422241,0.8907075524330139,-0.1518985629081726,0,0,0,-1,63187.60666341667,3,1,1561240727.269578,1561239991.781823,76,5.095047,0,0,66.78877,0,0,1561240727.269731,63184.827902,0,-0.7424316,74.42217,2650659446,177292352,1,1,0.31,-27.57552,-33.13182,1
1561240727.641772,30,0,0,1561240724.192677,4.603120233649292,-74.06474902378001,2651.555,-1,-1,10,65,-9999,1561240727.615603,-4.56103515625,19.86136054992676,17.6156005859375,156.0236358642578,163.5673217773438,15,63187.997236,-0.424285888671875,0.8990478515625,-0.1414031982421875,63187.986097,-0.07557198962096053,0.07329418794061575,-0.03185327085011074,63187.96891600001,34.28741455078125,20.09684753417969,-515.3402099609375,63187.991133,-1.971713883275672,-1.232123906828157,-1.098833244216826,-0.07798431068658829,0.06120698153972626,-0.03672488033771515,0.009590744972229004,0.006142556667327881,0.01034462451934814,1,0.6461792588233948,-0.0832429826259613,0.4137223064899445,-0.6358905434608459,-0.4288106858730316,0.8906775116920471,-0.151045948266983,0,0,0,-1,63187.60666341667,3,1,1561240727.269578,1561239991.781823,76,5.095047,0,0,66.78877,0,0,1561240727.269731,63184.827902,0,-0.7424316,74.42217,2650659446,177292352,1,1,0.31,-27.57552,-33.67475,1
1561240727.683034,31,0,0,1561240724.192677,4.603120233649292,-74.06474902378001,2651.555,-1,-1,10,65,-9999,1561240727.666277,-4.306537628173828,19.64853096008301,17.48590087890625,156.2856903076172,163.8293762207031,15,63188.01746900001,-0.42529296875,0.9040069580078125,-0.1351165771484375,63188.00636100001,-0.04438930273333173,0.06267350151337975,-0.05063707865065763,63187.98905700001,34.20526123046875,20.28459167480469,-515.44677734375,63188.011396,-1.975048864685859,-1.23395365381978,-1.098402671058435,-0.0378616526722908,0.0569126307964325,-0.06048746779561043,0.002720952033996582,0.01212149858474731,0.01215845346450806,1,0.6463905572891235,-0.08357840031385422,0.4143258631229401,-0.6352384686470032,-0.4294482171535492,0.89048171043396,-0.1503877937793732,0,0,0,-1,63187.60666341667,3,1,1561240727.269578,1561239991.781823,76,5.095047,0,0,66.78877,0,0,1561240727.269731,63184.827902,0,-0.7424316,74.42217,2650659446,177292352,1,1,0.31,-27.57552,-33.84445,1
1561240727.68687,32,0,0,1561240724.192677,4.603120233649292,-74.06474902378001,2651.555,-1,-1,10,65,-9999,1561240727.666277,-4.306537628173828,19.64853096008301,17.48590087890625,156.2856903076172,163.8293762207031,15,63188.037733,-0.4283447265625,0.8948822021484375,-0.1205291748046875,63188.026594,-0.01989407965900092,0.05793307477303871,-0.06200451544755185,63188.00919900001,34.58955383300781,20.31666564941406,-515.62451171875,63188.03166,-1.977254780976371,-1.23486921458054,-1.097491254026737,-0.02562655881047249,0.04523493722081184,-0.06403134018182755,0.003472208976745605,0.008752346038818359,0.02288174629211426,1,0.6464285850524902,-0.08366011083126068,0.4150162041187286,-0.6347383260726929,-0.430352121591568,0.8900666236877441,-0.1502621471881866,0,0,0,-1,63187.60666341667,3,1,1561240727.269578,1561239991.781823,76,5.095047,0,0,66.78877,0,0,1561240727.269731,63184.827902,0,-0.7424316,74.42217,2650659446,177292352,1,1,0.31,-27.57552,-33.84445,1
1561240727.702412,33,0,0,1561240724.192677,4.603120233649292,-74.06474902378001,2651.555,-1,-1,10,65,-9999,1561240727.693079,-4.594707489013672,19.65462112426758,17.72601318359375,156.3610992431641,163.90478515625,15,63188.057997,-0.4272613525390625,0.8897247314453125,-0.1094818115234375,63188.046858,-0.03694550117045126,0.0138977061485785,-0.06440668675080333,63188.02931000001,34.49717712402344,20.18402099609375,-515.4328002929688,63188.05192400001,-1.979828403242982,-1.236729399373216,-1.096618589111634,-0.0406515821814537,-0.009496749378740788,-0.07085222750902176,0.003416359424591064,0.001124382019042969,0.03496980667114258,1,0.6466506719589233,-0.08357604593038559,0.415504664182663,-0.634203314781189,-0.4313643276691437,0.8896684646606445,-0.1497159004211426,0,0,0,-1,63187.60666341667,3,1,1561240727.269578,1561239991.781823,76,5.095047,0,0,66.78877,0,0,1561240727.269731,63184.827902,0,-0.7424316,74.42217,2650659446,177292352,1,1,0.31,-27.57552,-33.84445,1
1561240727.723174,34,0,0,1561240724.192677,4.603120233649292,-74.06474902378001,2651.555,-1,-1,10,65,-9999,1561240727.716845,-4.678211212158203,19.75594520568848,17.54364013671875,156.3451385498047,163.8888244628906,15,63188.07826,-0.4232940673828125,0.8908843994140625,-0.109893798828125,63188.06712100001,-0.03145619353157993,-0.05579029535996095,-0.0892768829066173,63188.04945200001,34.26399230957031,20.20262145996094,-515.494384765625,63188.07218700001,-1.982700808887969,-1.24018078920253,-1.095351694955502,-0.03481526300311089,-0.05618196353316307,-0.106034979224205,0.005331844091415405,-0.001058280467987061,0.03882020711898804,1,0.6471671462059021,-0.08293796330690384,0.4156954884529114,-0.6336349248886108,-0.4329441487789154,0.8890892863273621,-0.1485919654369354,0,0,0,-1,63187.60666341667,3,1,1561240727.269578,1561239991.781823,76,5.095047,0,0,66.78877,0,0,1561240727.269731,63184.827902,0,-0.7424316,74.42217,2650659446,177292352,1,1,0.31,-27.57552,-34.6235,1
1561240727.75872,35,0,0,1561240724.192677,4.603120233649292,-74.06474902378001,2651.555,-1,-1,10,65,-9999,1561240727.74415,-4.589633941650391,19.78444671630859,17.5567626953125,156.3824462890625,163.9261322021484,15,63188.098524,-0.42608642578125,0.907470703125,-0.135406494140625,63188.08738500001,-0.08701000018674185,-0.003171824858284373,-0.1329758942854005,63188.06959300001,34.21832275390625,20.22428894042969,-515.533447265625,63188.092451,-1.987443702622498,-1.244906139585781,-1.093426492824584,-0.1163173168897629,0.01186313387006521,-0.130506232380867,0.01683580875396729,0.0143357515335083,0.02848571538925171,1,0.6478328704833984,-0.08225841075181961,0.4162697494029999,-0.6326655149459839,-0.4352623224258423,0.888206422328949,-0.1470922529697418,0,0,0,-1,63187.60666341667,3,1,1561240727.269578,1561239991.781823,76,5.095047,0,0,66.78877,0,0,1561240727.269731,63184.827902,0,-0.7424316,74.42217,2650659446,177292352,1,1,0.31,-27.57552,-34.23641,1
1561240727.763251,36,0,0,1561240724.192677,4.603120233649292,-74.06474902378001,2651.555,-1,-1,10,65,-9999,1561240727.74415,-4.589633941650391,19.78444671630859,17.5567626953125,156.3824462890625,163.9261322021484,15,63188.11878800001,-0.442596435546875,0.9107208251953125,-0.1490631103515625,63188.10764900001,-0.1520451929548039,0.088594847351448,-0.1036733991273676,63188.08970400001,34.27420043945312,20.14631652832031,-515.1752319335938,63188.112715,-1.995230024329252,-1.250644121787811,-1.092260415907448,-0.1517840474843979,0.101509116590023,-0.1052943468093872,0.001504719257354736,0.02195215225219727,-0.001672983169555664,1,0.6486363410949707,-0.08253353089094162,0.4172348380088806,-0.6311690211296082,-0.4370821416378021,0.8876700401306152,-0.1449182331562042,0,0,0,-1,63187.60666341667,3,1,1561240727.269578,1561239991.781823,76,5.095047,0,0,66.78877,0,0,1561240727.269731,63184.827902,0,-0.7424316,74.42217,2650659446,177292352,1,1,0.31,-27.57552,-34.23641,1
1561240727.784126,37,0,0,1561240724.192677,4.603120233649292,-74.06474902378001,2651.555,-1,-1,10,65,-9999,1561240727.768166,-4.863803863525391,19.60397529602051,17.82733154296875,156.6020660400391,164.145751953125,15,63188.13905100001,-0.4482421875,0.890838623046875,-0.1362457275390625,63188.127912,-0.1049109700859275,0.1308312506595597,-0.1354169477405671,63188.10984600001,34.10476684570312,19.97344970703125,-515.339111328125,63188.132978,-2.002362189929323,-1.254609862662415,-1.090703083715493,-0.09609947353601456,0.1292664408683777,-0.1609639972448349,-0.007566750049591064,0.01821476221084595,-0.001085758209228516,1,0.6490775942802429,-0.08301575481891632,0.4186826944351196,-0.6296915411949158,-0.4389664828777313,0.8869518637657166,-0.1436133235692978,0,0,0,-1,63187.60666341667,3,1,1561240727.269578,1561239991.781823,76,5.095047,0,0,66.78877,0,0,1561240727.269731,63184.827902,0,-0.7424316,74.42217,2650659446,177292352,1,1,0.31,-27.57552,-35.07371,1
1561240727.803723,38,0,0,1561240724.192677,4.603120233649292,-74.06474902378001,2651.555,-1,-1,10,65,-9999,1561240727.796582,-5.0377197265625,19.66473579406738,17.890869140625,156.8702545166016,164.4139404296875,15,63188.159315,-0.4334869384765625,0.878814697265625,-0.116912841796875,63188.148176,-0.116860840213222,0.2103883945357148,-0.2538072413678216,63188.129988,33.93124389648438,19.93751525878906,-515.3548583984375,63188.153242,-2.010232302175563,-1.258035222627169,-1.087177495598454,-0.150939017534256,0.240716814994812,-0.2782778441905975,0.004165470600128174,-0.00480961799621582,0.01907718181610107,1,0.649266242980957,-0.08317621052265167,0.421144425868988,-0.6278315186500549,-0.4424284398555756,0.8853180408477783,-0.1430701315402985,0,0,0,-1,63187.60666341667,3,1,1561240727.269578,1561239991.781823,76,5.095047,0,0,66.78877,0,0,1561240727.269731,63184.827902,0,-0.7424316,74.42217,2650659446,177292352,1,1,0.31,-27.57552,-35.89861,1
1561240727.831108,39,0,0,1561240724.192677,4.603120233649292,-74.06474902378001,2651.555,-1,-1,10,65,-9999,1561240727.818386,-5.063606262207031,19.57521438598633,17.70843505859375,157.3856658935547,164.9293518066406,15,63188.179579,-0.4443206787109375,0.891937255859375,-0.0982666015625,63188.16844,-0.2563082159475151,0.3376896251703744,-0.2646729386153449,63188.15009900001,33.73690795898438,20.04829406738281,-515.3295288085938,63188.17350600001,-2.023272647559824,-1.263515253132964,-1.083432602659602,-0.2834227383136749,0.348060816526413,-0.2564742863178253,0.006177186965942383,-0.002253353595733643,0.03388774394989014,1,0.6496704816818237,-0.08429490774869919,0.4246137142181396,-0.6249206066131592,-0.4463627338409424,0.8835704922676086,-0.1416452676057816,0,0,0,-1,63187.60666341667,3,1,1561240727.269578,1561239991.781823,76,5.095047,0,0,66.78877,0,0,1561240727.269731,63184.827902,0,-0.7424316,74.42217,2650659446,177292352,1,1,0.31,-27.57552,-36.40501,1
1561240727.845226,40,0,0,1561240724.192677,4.603120233649292,-74.06474902378001,2651.555,-1,-1,10,65,-9999,1561240727.818386,-5.063606262207031,19.57521438598633,17.70843505859375,157.3856658935547,164.9293518066406,15,63188.199842,-0.448974609375,0.90643310546875,-0.0792236328125,63188.18870300001,-0.2984977476204413,0.3455518093405063,-0.232176248045871,63188.17024000001,33.68339538574219,19.94891357421875,-515.1497802734375,63188.193769,-2.038680850650235,-1.270110943443528,-1.080699538283985,-0.2979210019111633,0.3248125016689301,-0.2380350679159164,0.002631902694702148,0.02030056715011597,0.05237680673599243,1,0.6502759456634521,-0.08622492104768753,0.4281196594238281,-0.6216269731521606,-0.4495923519134521,0.882287323474884,-0.13941290974617,0,0,0,-1,63187.60666341667,3,1,1561240727.269578,1561239991.781823,76,5.095047,0,0,66.78877,0,0,1561240727.269731,63184.827902,0,-0.7424316,74.42217,2650659446,177292352,1,1,0.31,-27.57552,-36.58956,1
1561240727.864725,41,0,0,1561240724.192677,4.603120233649292,-74.06474902378001,2651.555,-1,-1,10,65,-9999,1561240727.846501,-5.270565032958984,19.5296516418457,17.8470458984375,158.0333404541016,165.5770263671875,15,63188.220106,-0.4492645263671875,0.91412353515625,-0.079925537109375,63188.20896700001,-0.2816604442606334,0.3009609053126556,-0.2651618949914835,63188.190351,33.264404296875,19.87678527832031,-514.9523315429688,63188.214033,-2.053659057113276,-1.277127874858943,-1.077499553519603,-0.2916260957717896,0.2962191998958588,-0.271026074886322,0.004757881164550781,0.03180587291717529,0.06268465518951416,1,0.6509751081466675,-0.08772561699151993,0.4314693510532379,-0.6183605790138245,-0.4532594978809357,0.8807765245437622,-0.1370712518692017,0,0,0,-1,63187.60666341667,3,1,1561240727.269578,1561239991.781823,76,5.095047,0,0,66.78877,0,0,1561240727.269731,63185.776672,0,-0.8535156,74.42322,2650659446,177292352,1,1,0.31,-27.57552,-36.58956,1
1561240727.884944,42,0,0,1561240724.192677,4.603120233649292,-74.06474902378001,2651.555,-1,-1,10,65,-9999,1561240727.868842,-5.833465576171875,19.0262451171875,18.1385498046875,158.6307220458984,166.1744079589844,15,63188.24037000001,-0.4513702392578125,0.89898681640625,-0.0841827392578125,63188.229231,-0.3051902714398105,0.3065002803800204,-0.2276472762960823,63188.21049300001,33.03591918945312,19.60589599609375,-515.0253295898438,63188.23426600001,-2.069133629245693,-1.284674025356924,-1.074527947780268,-0.304561585187912,0.2910939455032349,-0.2048651427030563,0.006167352199554443,0.03047031164169312,0.05183511972427368,1,0.6517883539199829,-0.08932735025882721,0.434698760509491,-0.6150037050247192,-0.4567898809909821,0.8793655037879944,-0.1343851387500763,0,0,0,-1,63187.60666341667,3,1,1561240727.269578,1561239991.781823,76,5.095047,0,0,66.78877,0,0,1561240727.269731,63185.776672,0,-0.8535156,74.42322,2650659446,177292352,1,1,0.31,-27.57552,-37.02559,1
1561240727.920446,43,0,0,1561240724.192677,4.603120233649292,-74.06474902378001,2651.555,-1,-1,10,65,-9999,1561240727.895416,-5.982032775878906,19.11712455749512,17.8607177734375,159.2049560546875,166.7486419677734,15,63188.26063300001,-0.4303741455078125,0.86627197265625,-0.0905303955078125,63188.249494,-0.2422198274648869,0.2477317719730239,-0.1260394249101801,63188.23063500001,32.88458251953125,19.53671264648438,-515.2413940429688,63188.25453000001,-2.08190076899949,-1.290513091693221,-1.073237789283647,-0.2275214195251465,0.2176426500082016,-0.1150593608617783,0.01560214161872864,0.01137101650238037,0.05039471387863159,1,0.6524300575256348,-0.09121613949537277,0.4371085166931152,-0.6123321056365967,-0.4586563408374786,0.8787504434585571,-0.132029265165329,0,0,0,-1,63187.60666341667,3,1,1561240727.269578,1561239991.781823,76,5.095047,0,0,66.78877,0,0,1561240727.269731,63185.776672,0,-0.8535156,74.42322,2650659446,177292352,1,1,0.31,-27.57552,-33.08149,1
1561240727.925374,44,0,0,1561240724.192677,4.603120233649292,-74.06474902378001,2651.555,-1,-1,10,65,-9999,1561240727.920916,-6.013877868652344,18.90646362304688,18.2532958984375,159.6018524169922,167.1455383300781,15,63188.280867,-0.4092864990234375,0.8448944091796875,-0.109771728515625,63188.269758,-0.1795162322311892,0.171745128170338,-0.08506669153931103,63188.250776,33.0040283203125,19.37985229492188,-514.9306030273438,63188.274794,-2.091315028690522,-1.295084654071452,-1.07265277316542,-0.1786436289548874,0.1686402261257172,-0.0841808021068573,0.0422694981098175,-0.02121704816818237,0.03499358892440796,1,0.6529749631881714,-0.0926722064614296,0.4386738538742065,-0.6104103326797485,-0.4597499370574951,0.8784710764884949,-0.1300711184740067,0,0,0,-1,63187.60666341667,3,1,1561240727.269578,1561239991.781823,76,5.095047,0,0,66.78877,0,0,1561240727.269731,63185.776672,0,-0.8535156,74.42322,2650659446,177292352,1,1,0.31,-27.57552,-33.08149,1
1561240727.945775,45,0,0,1561240724.192677,4.603120233649292,-74.06474902378001,2651.555,-1,-1,10,65,-9999,1561240727.920916,-6.013877868652344,18.90646362304688,18.2532958984375,159.6018524169922,167.1455383300781,15,63188.30113000001,-0.3955841064453125,0.8347015380859375,-0.12554931640625,63188.28999100001,-0.1890223857422271,0.2244381671825368,-0.06290253336712656,63188.27088700001,32.63880920410156,19.10464477539062,-514.8563842773438,63188.295057,-2.100163720208821,-1.298879985780157,-1.072422164280389,-0.2013465315103531,0.2356783747673035,-0.05474754795432091,0.05793899297714233,-0.03976833820343018,0.0115126371383667,1,0.6533865928649902,-0.09431926161050797,0.4402015805244446,-0.6086151003837585,-0.4604353606700897,0.8783608675003052,-0.1283796727657318,0,0,0,-1,63187.60666341667,3,1,1561240727.269578,1561239991.781823,76,5.095047,0,0,66.78877,0,0,1561240727.269731,63185.776672,0,-0.8535156,74.42322,2650659446,177292352,1,1,0.31,-27.57552,-33.99163,1
1561240727.966032,46,0,0,1561240724.192677,4.603120233649292,-74.06474902378001,2651.555,-1,-1,10,65,-9999,1561240727.945815,-6.024200439453125,18.67809677124023,18.063232421875,160.0059967041016,167.5496826171875,15,63188.32139400001,-0.387420654296875,0.823028564453125,-0.1400604248046875,63188.310255,-0.1931138001249158,0.2310944720110809,-0.01643703024796906,63188.311171,32.66273498535156,19.082763671875,-514.961181640625,63188.315321,-2.108989562787542,-1.302091641513544,-1.073049468733309,-0.1892185062170029,0.2125517427921295,-0.004320327658206224,0.06782734394073486,-0.05355679988861084,-0.007508158683776855,1,0.6536957621574402,-0.09646182507276535,0.4416423738002777,-0.6069010496139526,-0.4603139162063599,0.8786605596542358,-0.1267539262771606,0,0,0,-1,63187.60666341667,3,1,1561240727.269578,1561239991.781823,76,5.095047,0,0,66.78877,0,0,1561240727.269731,63185.776672,0,-0.8535156,74.42322,2650659446,177292352,1,1,0.31,-27.57552,-34.71807,1
1561240728.001226,47,0,0,1561240724.192677,4.603120233649292,-74.06474902378001,2651.555,-1,-1,10,65,-9999,1561240727.996951,-6.221096038818359,18.43918991088867,18.1904296875,160.6118469238281,168.1555328369141,15,63188.341658,-0.3776397705078125,0.8306121826171875,-0.1510467529296875,63188.330519,-0.1420562083381346,0.1390356510297668,0.04151868139433532,63188.33128200001,32.60743713378906,18.95436096191406,-514.8236694335938,63188.335585,-2.115573273743185,-1.304655264294911,-1.074499547273259,-0.1270022690296173,0.09619904309511185,0.04992293566465378,0.07883816957473755,-0.04846513271331787,-0.02202433347702026,1,0.6539896726608276,-0.09837887436151505,0.4423575699329376,-0.6057547330856323,-0.45940762758255,0.8793519735336304,-0.1252382099628448,0,0,0,-1,63187.60666341667,3,1,1561240727.269578,1561239991.781823,76,5.095047,0,0,66.78877,0,0,1561240727.269731,63185.776672,0,-0.8535156,74.42322,2650659446,177292352,1,1,0.31,-27.57552,-34.98566,1
1561240728.006414,48,0,0,1561240724.192677,4.603120233649292,-74.06474902378001,2651.555,-1,-1,10,65,-9999,1561240727.996951,-6.221096038818359,18.43918991088867,18.1904296875,160.6118469238281,168.1555328369141,15,63188.361921,-0.391845703125,0.832489013671875,-0.15411376953125,63188.350782,-0.06042712513389791,0.01782933086586248,0.08967262864460307,63188.35142300001,32.27156066894531,19.0211181640625,-514.572265625,63188.35584800001,-2.118310138731902,-1.306271973246946,-1.076472019039907,-0.04394306242465973,-0.006789125502109528,0.1002114042639732,0.08015760779380798,-0.04735797643661499,-0.02673041820526123,1,0.6542741656303406,-0.09952128678560257,0.4420557022094727,-0.6054813265800476,-0.4579346776008606,0.8802894949913025,-0.1240416616201401,0,0,0,-1,63187.60666341667,3,1,1561240727.269578,1561239991.781823,76,5.095047,0,0,66.78877,0,0,1561240727.269731,63185.776672,0,-0.8535156,74.42322,2650659446,177292352,1,1,0.31,-27.57552,-34.98566,1
1561240728.026967,49,0,0,1561240724.192677,4.603120233649292,-74.06474902378001,2651.555,-1,-1,10,65,-9999,1561240728.020818,-6.304332733154297,18.50647163391113,18.26458740234375,160.6216125488281,168.1652984619141,15,63188.382185,-0.425506591796875,0.816253662109375,-0.1565399169921875,63188.371046,-0.01128674301586482,-0.0110675648581513,0.1205940594292951,63188.371565,32.38067626953125,18.80804443359375,-514.7283935546875,63188.37611200001,-2.118042739479731,-1.306357682972543,-1.078884060434121,-0.02644396387040615,-0.003452717326581478,0.1035004109144211,0.05068188905715942,-0.05576300621032715,-0.03057515621185303,1,0.6543810963630676,-0.1003088429570198,0.4412100315093994,-0.6058524250984192,-0.4558942914009094,0.8814312815666199,-0.1234470307826996,0,0,0,-1,63187.60666341667,3,1,1561240727.269578,1561239991.781823,76,5.095047,0,0,66.78877,0,0,1561240727.269731,63185.776672,0,-0.8535156,74.42322,2650659446,177292352,1,1,0.31,-27.57552,-35.69162,1
1561240728.046938,50,0,0,1561240724.192677,4.603120233649292,-74.06474902378001,2651.555,-1,-1,10,65,-9999,1561240728.020818,-6.304332733154297,18.50647163391113,18.26458740234375,160.6216125488281,168.1652984619141,15,63188.402449,-0.47320556640625,0.8047332763671875,-0.161590576171875,63188.39131000001,-0.08495909983127183,0.09158397935895293,0.07473682230311168,63188.391706,32.60626220703125,18.7352294921875,-514.654296875,63188.396376,-2.119806975635963,-1.30679958929394,-1.080917740246033,-0.1147061809897423,0.1148416996002197,0.05870763957500458,0.006234526634216309,-0.07219403982162476,-0.03724139928817749,1,0.6544513702392578,-0.1015117764472961,0.4409783482551575,-0.6057447791099548,-0.4542173147201538,0.8823899626731873,-0.1227775290608406,0,0,0,-1,63187.60666341667,3,1,1561240727.269578,1561239991.781823,76,5.095047,0,0,66.78877,0,0,1561240727.269731,63185.776672,0,-0.8535156,74.42322,2650659446,177292352,1,1,0.31,-27.57552,-32.8816,1
1561240728.074761,51,0,0,1561240724.192677,4.603120233649292,-74.06474902378001,2651.555,-1,-1,10,65,-9999,1561240728.071579,-6.531284332275391,18.35528182983398,18.34820556640625,161.1598815917969,168.7035675048828,15,63188.42271200001,-0.5199432373046875,0.7988128662109375,-0.1486358642578125,63188.411573,-0.1299121937673733,0.21846176738029,0.01335575286674738,63188.41181700001,32.44575500488281,18.73381042480469,-514.4755249023438,63188.416639,-2.124903193968416,-1.307659556995694,-1.082128423573564,-0.1279135942459106,0.2434196472167969,-0.01167810894548893,-0.04585453867912292,-0.08246767520904541,-0.03691816329956055,1,0.6544157266616821,-0.1033711507916451,0.4418694078922272,-0.6048188209533691,-0.4532909393310547,0.8829590082168579,-0.1221089214086533,0,0,0,-1,63187.60666341667,3,1,1561240727.269578,1561239991.781823,76,5.095047,0,0,66.78877,0,0,1561240727.269731,63185.776672,0,-0.8535156,74.42322,2650659446,177292352,1,1,0.31,-26.65723,-32.92538,1
1561240728.087292,52,0,0,1561240724.192677,4.603120233649292,-74.06474902378001,2651.555,-1,-1,10,65,-9999,1561240728.071579,-6.531284332275391,18.35528182983398,18.34820556640625,161.1598815917969,168.7035675048828,15,63188.44297600001,-0.5312652587890625,0.8176422119140625,-0.1261749267578125,63188.431837,-0.1067962218215946,0.3611720480821481,-0.1452424142663055,63188.431959,32.36781311035156,18.7738037109375,-514.5443725585938,63188.436903,-2.130882688933979,-1.306511094920113,-1.080803574802455,-0.108709804713726,0.4240514636039734,-0.217496246099472,-0.07510912418365479,-0.07838118076324463,-0.01553857326507568,1,0.6538118720054626,-0.1051787585020065,0.4444553256034851,-0.6032635569572449,-0.4542793035507202,0.8823362588882446,-0.1229349300265312,0,0,0,-1,63187.60666341667,3,1,1561240727.269578,1561239991.781823,76,5.095047,0,0,66.78877,0,0,1561240727.269731,63185.776672,0,-0.8535156,74.42322,2650659446,177292352,1,1,0.31,-26.65723,-33.5688,1
1561240728.107633,53,0,0,1561240724.192677,4.603120233649292,-74.06474902378001,2651.555,-1,-1,10,65,-9999,1561240728.097794,-6.369068145751953,18.38619232177734,18.470703125,161.8689117431641,169.41259765625,15,63188.46324,-0.5449066162109375,0.846954345703125,-0.1032867431640625,63188.452101,-0.150672599728977,0.7083470541070578,-0.4035040588733936,63188.45207000001,31.97492980957031,18.56861877441406,-514.74365234375,63188.457167,-2.140322675122007,-1.302487904219616,-1.074775440824652,-0.1916036307811737,0.7948963642120361,-0.4343127310276031,-0.07553780078887939,-0.04177576303482056,0.01798450946807861,1,0.6522420644760132,-0.1072176471352577,0.4504429399967194,-0.6001548171043396,-0.4589012861251831,0.8794832825660706,-0.1261693239212036,0,0,0,-1,63187.60666341667,3,1,1561240727.269578,1561239991.781823,76,5.095047,0,0,66.78877,0,0,1561240727.269731,63185.776672,0,-0.8535156,74.42322,2650659446,177292352,1,1,0.31,-26.65723,-34.19871,1
1561240728.127938,54,0,0,1561240724.192677,4.603120233649292,-74.06474902378001,2651.555,-1,-1,10,65,-9999,1561240728.122064,-6.969354629516602,18.1666088104248,18.18792724609375,163.1582794189453,170.7019653320312,15,63188.483503,-0.5242462158203125,0.8479156494140625,-0.0686187744140625,63188.472364,-0.2924808677696253,0.9339652679686087,-0.4445918408033541,63188.472212,31.57916259765625,18.71609497070312,-514.8043212890625,63188.47743000001,-2.155985456571828,-1.298163918291352,-1.067532433216326,-0.3146568238735199,0.9097273349761963,-0.4401311874389648,-0.0750003457069397,-0.03183585405349731,0.03728926181793213,1,0.6502073407173157,-0.110897533595562,0.4587240815162659,-0.5954026579856873,-0.4644741714000702,0.8760131001472473,-0.1298643052577972,0,0,0,-1,63187.60666341667,3,1,1561240727.269578,1561239991.781823,76,5.095047,0,0,66.78877,0,0,1561240727.269731,63185.776672,0,-0.8535156,74.42322,2650659446,177292352,1,1,0.31,-26.65723,-30.9371,1
1561240728.159728,55,0,0,1561240724.192677,4.603120233649292,-74.06474902378001,2651.555,-1,-1,10,65,-9999,1561240728.122064,-6.969354629516602,18.1666088104248,18.18792724609375,163.1582794189453,170.7019653320312,15,63188.503767,-0.4841766357421875,0.864501953125,-0.02239990234375,63188.49262800001,-0.2836865772179656,0.6946621345295766,-0.4180760774099802,63188.49232300001,30.79776000976562,18.28512573242188,-514.9248046875,63188.497663,-2.172779822059045,-1.297175621779405,-1.060840301680004,-0.2637145519256592,0.5788623690605164,-0.4148748517036438,-0.03171440958976746,-0.01943343877792358,0.09152966737747192,1,0.6488613486289978,-0.1141347140073776,0.4660365879535675,-0.5905607342720032,-0.4699792861938477,0.8727659583091736,-0.1319044381380081,0,0,0,-1,63187.60666341667,3,1,1561240727.269578,1561239991.781823,76,5.095047,0,0,66.78877,0,0,1561240727.269731,63185.776672,0,-0.8535156,74.42322,2650659446,177292352,1,1,0.31,-26.65723,-31.79737,1
1561240728.16836,56,0,0,1561240724.192677,4.603120233649292,-74.06474902378001,2651.555,-1,-1,10,65,-9999,1561240728.122064,-6.969354629516602,18.1666088104248,18.18792724609375,163.1582794189453,170.7019653320312,15,63188.524031,-0.46026611328125,0.9092254638671875,0.0048980712890625,63188.51289200001,-0.1604709020115966,0.3433656204016603,-0.3969361709930402,63188.51246400001,30.62184143066406,18.26766967773438,-514.6112670898438,63188.517927,-2.185198743825286,-1.299628082638422,-1.054045632306493,-0.1395694613456726,0.2886113524436951,-0.3856804668903351,0.005911171436309814,0.01286458969116211,0.1272861957550049,1,0.6485613584518433,-0.1148901209235191,0.4709276854991913,-0.5868521332740784,-0.4760039746761322,0.8694291114807129,-0.1323368549346924,0,0,0,-1,63187.60666341667,3,1,1561240727.269578,1561239991.781823,76,5.095047,0,0,66.78877,0,0,1561240727.269731,63185.776672,0,-0.8535156,74.42322,2650659446,177292352,1,1,0.31,-26.65723,-31.79737,1
1561240728.188613,57,0,0,1561240724.192677,4.603120233649292,-74.06474902378001,2651.555,-1,-1,10,65,-9999,1561240728.175525,-7.983322143554688,17.9169864654541,18.38067626953125,164.3031616210938,171.8468475341797,15,63188.544264,-0.4583740234375,0.9491119384765625,-0.006072998046875,63188.533155,-0.112290056834319,0.1882625858832274,-0.2730200844199803,63188.532606,30.36137390136719,18.244873046875,-514.44775390625,63188.53819100001,-2.193418998875734,-1.302378235679486,-1.048538027704588,-0.1199850961565971,0.1559633016586304,-0.2258415222167969,0.0227544903755188,0.0661054253578186,0.1356063485145569,1,0.6486141681671143,-0.1146823987364769,0.4740810990333557,-0.5842898488044739,-0.4809759259223938,0.8666948676109314,-0.1322952210903168,0,0,0,-1,63187.60666341667,3,1,1561240727.269578,1561239991.781823,76,5.095047,0,0,66.78877,0,0,1561240727.269731,63185.776672,0,-0.8535156,74.42322,2650659446,177292352,1,1,0.31,-26.65723,-32.66803,1
1561240728.209874,58,0,0,1561240724.192677,4.603120233649292,-74.06474902378001,2651.555,-1,-1,10,65,-9999,1561240728.198911,-8.422283172607422,17.81943130493164,18.54412841796875,165.1054992675781,172.6491851806641,15,63188.564527,-0.47906494140625,0.9607696533203125,-0.0498046875,63188.553389,-0.1540766522343163,0.04047126013760716,-0.04124118000874907,63188.55271700001,30.41810607910156,18.0496826171875,-514.5343627929688,63188.55845400001,-2.200128117920919,-1.306596408042727,-1.047216787374898,-0.168947845697403,-0.023801663890481,0.02279038541018963,0.02287229895591736,0.09014171361923218,0.1068673133850098,1,0.6492013931274414,-0.1151323467493057,0.4750619530677795,-0.5827506184577942,-0.4826348721981049,0.8660350441932678,-0.1305641829967499,0,0,0,-1,63187.60666341667,3,1,1561240727.269578,1561239991.781823,76,5.095047,0,0,66.78877,0,0,1561240727.269731,63185.776672,0,-0.8535156,74.42322,2650659446,177292352,1,1,0.31,-26.65723,-33.36752,1
1561240728.229082,59,0,0,1561240724.192677,4.603120233649292,-74.06474902378001,2651.555,-1,-1,10,65,-9999,1561240728.223324,-8.497955322265625,17.77981185913086,18.52154541015625,165.0657501220703,172.6094360351562,15,63188.584791,-0.5088043212890625,0.9462432861328125,-0.1014251708984375,63188.57365200001,-0.1575430227091635,-0.2330191385308811,0.1521429309668098,63188.57285900001,30.33027648925781,18.01205444335938,-514.53564453125,63188.578718,-2.205445488594473,-1.314422931882581,-1.050217041079214,-0.1370362639427185,-0.3106004297733307,0.1637166142463684,-0.008833587169647217,0.0862041711807251,0.05089753866195679,1,0.6508074998855591,-0.115706168115139,0.473177969455719,-0.5823780298233032,-0.481126070022583,0.8675311803817749,-0.1261233687400818,0,0,0,-1,63187.60666341667,3,1,1561240727.269578,1561239991.781823,76,5.095047,0,0,66.78877,0,0,1561240727.269731,63185.776672,0,-0.8535156,74.42322,2650659446,177292352,1,1,0.31,-26.65723,-33.97047,1
1561240728.249978,60,0,0,1561240724.192677,4.603120233649292,-74.06474902378001,2651.555,-1,-1,10,65,-9999,1561240728.223324,-8.497955322265625,17.77981185913086,18.52154541015625,165.0657501220703,172.6094360351562,15,63188.60505500001,-0.52655029296875,0.9450836181640625,-0.140106201171875,63188.59391600001,-0.04188007235425908,-0.5114776642129122,0.1391030290053458,63188.59297000001,30.53672790527344,17.91758728027344,-514.45166015625,63188.598982,-2.207633399110574,-1.325618535021645,-1.053609665830979,-0.01071107294410467,-0.5696181654930115,0.1071816980838776,-0.03876721858978271,0.07490873336791992,-0.001156032085418701,1,0.6533753275871277,-0.1144275665283203,0.4691592752933502,-0.5830065011978149,-0.4796501696109772,0.8692136406898499,-0.120014026761055,0,0,0,-1,63187.60666341667,3,1,1561240727.269578,1561239991.781823,76,5.095047,0,0,66.78877,0,0,1561240727.269731,63185.776672,0,-0.8535156,74.42322,2650659446,177292352,1,1,0.31,-26.65723,-34.72469,1
1561240728.269631,61,0,0,1561240724.192677,4.603120233649292,-74.06474902378001,2651.555,-1,-1,10,65,-9999,1561240728.249998,-8.009140014648438,17.58953857421875,18.57379150390625,164.5066680908203,172.0503540039062,15,63188.62531800001,-0.54949951171875,0.934295654296875,-0.1384735107421875,63188.61418,0.1103366281747459,-0.5921871578927446,0.006056827267167212,63188.61311100001,30.5928955078125,18.0198974609375,-514.47705078125,63188.619245,-2.205077961912616,-1.335597920456485,-1.054232136173697,0.1312689632177353,-0.5521309971809387,-0.02865309827029705,-0.0564759373664856,0.06959617137908936,-0.03120589256286621,1,0.6558589339256287,-0.110911451280117,0.4649624526500702,-0.5842581987380981,-0.480297714471817,0.8695212602615356,-0.1150954142212868,0,0,0,-1,63187.60666341667,3,1,1561240727.269578,1561239991.781823,76,5.095047,0,0,66.78877,0,0,1561240727.269731,63185.776672,0,-0.8535156,74.42322,2650659446,177292352,1,1,0.31,-26.65723,-35.30942,1
1561240728.305656,62,0,0,1561240724.192677,4.603120233649292,-74.06474902378001,2651.555,-1,-1,10,65,-9999,1561240728.30033,-7.757162094116211,17.5967960357666,18.3907470703125,163.4849090576172,171.0285949707031,15,63188.645582,-0.5506591796875,0.9235382080078125,-0.150909423828125,63188.634443,0.08098646243320062,-0.3238829991310767,-0.07602765648347308,63188.63325300001,31.08413696289062,17.99517822265625,-514.4493408203125,63188.639509,-2.201922805957063,-1.341184246981448,-1.052650099294318,0.03334160521626472,-0.2345623672008514,-0.08524154126644135,-0.07298007607460022,0.05965173244476318,-0.03109061717987061,1,0.6573044657707214,-0.1076527088880539,0.462676078081131,-0.5850577354431152,-0.4822719991207123,0.8687387704849243,-0.1127234697341919,0,0,0,-1,63187.60666341667,3,1,1561240727.269578,1561239991.781823,76,5.095047,0,0,66.78877,0,0,1561240727.269731,63185.776672,0,-0.8535156,74.42322,2650659446,177292352,1,1,0.31,-26.65723,-36.25596,1
1561240728.310913,63,0,0,1561240724.192677,4.603120233649292,-74.06474902378001,2651.555,-1,-1,10,65,-9999,1561240728.30033,-7.757162094116211,17.5967960357666,18.3907470703125,163.4849090576172,171.0285949707031,15,63188.665846,-0.5364227294921875,0.9127197265625,-0.13958740234375,63188.654707,-0.06521708667051443,0.0341036419712277,-0.07050772249206584,63188.65336400001,30.90057373046875,17.85554504394531,-514.4749755859375,63188.65977300001,-2.204197834055698,-1.344348449301971,-1.051317264106583,-0.076388880610466,0.09526214003562927,-0.0733710378408432,-0.06275469064712524,0.04928046464920044,-0.03763687610626221,1,0.6578959822654724,-0.1069789975881577,0.4626966118812561,-0.5844998955726624,-0.4837540686130524,0.8680779337882996,-0.1114567443728447,0,0,0,-1,63187.60666341667,3,1,1561240727.269578,1561239991.781823,76,5.095047,0,0,66.78877,0,0,1561240727.269731,63185.776672,0,-0.8535156,74.42322,2650659446,177292352,1,1,0.31,-26.65723,-36.66218,1
1561240728.330526,64,0,0,1561240724.192677,4.603120233649292,-74.06474902378001,2651.555,-1,-1,10,65,-9999,1561240728.324695,-7.758464813232422,17.3861141204834,18.59722900390625,163.7125244140625,171.2562103271484,15,63188.686109,-0.4886627197265625,0.9201507568359375,-0.1181182861328125,63188.674971,-0.02950835751029597,0.1955681693855328,-0.07058468784756913,63188.67350600001,30.92218017578125,17.73866271972656,-514.4935302734375,63188.68003600001,-2.206885196437964,-1.343351910573335,-1.050100461313123,-0.004476878792047501,0.1870812773704529,-0.06966710835695267,-0.02730625867843628,0.04703181982040405,-0.01778215169906616,1,0.6575044989585876,-0.107700303196907,0.4641702771186829,-0.5836390852928162,-0.4846718907356262,0.8674731850624084,-0.1121769547462463,0,0,0,-1,63187.60666341667,3,1,1561240727.269578,1561239991.781823,76,5.095047,0,0,66.78877,0,0,1561240727.269731,63185.776672,0,-0.8535156,74.42322,2650659446,177292352,1,1,0.31,-26.65723,-36.66218,1
1561240728.350941,65,0,0,1561240724.192677,4.603120233649292,-74.06474902378001,2651.555,-1,-1,10,65,-9999,1561240728.324695,-7.758464813232422,17.3861141204834,18.59722900390625,163.7125244140625,171.2562103271484,15,63188.706373,-0.447540283203125,0.934906005859375,-0.093048095703125,63188.69523400001,0.07416504161707166,0.1315087588408758,-0.02974058515735089,63188.69364700001,30.86488342285156,17.97898864746094,-514.506591796875,63188.7003,-2.205472749009824,-1.339123046252415,-1.04897930943465,0.08409586548805237,0.0885792076587677,-0.001130659598857164,0.0197613537311554,0.05929356813430786,0.01047533750534058,1,0.6565822958946228,-0.1080524101853371,0.4654795825481415,-0.5835692882537842,-0.4851391613483429,0.8669149279594421,-0.1144487336277962,0,0,0,-1,63187.60666341667,3,1,1561240727.269578,1561239991.781823,76,5.095047,0,0,66.78877,0,0,1561240727.269731,63185.776672,0,-0.8535156,74.42322,2650659446,177292352,1,1,0.31,-26.65723,-36.78265,1
1561240728.388693,66,0,0,1561240724.192677,4.603120233649292,-74.06474902378001,2651.555,-1,-1,10,65,-9999,1561240728.355874,-7.853424072265625,17.60524749755859,18.67401123046875,163.8497009277344,171.3933868408203,15,63188.72663700001,-0.442169189453125,0.9388580322265625,-0.08502197265625,63188.71549800001,0.132690936048762,-0.08796181396033617,0.1342046768123631,63188.71375800001,30.85984802246094,18.19468688964844,-514.440185546875,63188.720564,-2.200122114643838,-1.335048710164705,-1.050155662986096,0.1526059508323669,-0.1553354561328888,0.1730512678623199,0.04161456227302551,0.0724560022354126,0.02612876892089844,1,0.6559413075447083,-0.1079256236553192,0.4649046957492828,-0.5847706198692322,-0.4836769104003906,0.8675006628036499,-0.1161861196160316,0,0,0,-1,63187.60666341667,3,1,1561240727.269578,1561239991.781823,76,5.095047,0,0,66.78877,0,0,1561240727.269731,63185.776672,0,-0.8535156,74.42322,2650659446,177292352,1,1,0.31,-26.65723,-37.67379,1
1561240728.391161,67,0,0,1561240724.192677,4.603120233649292,-74.06474902378001,2651.555,-1,-1,10,65,-9999,1561240728.355874,-7.853424072265625,17.60524749755859,18.67401123046875,163.8497009277344,171.3933868408203,15,63188.74690000001,-0.452789306640625,0.930816650390625,-0.0765838623046875,63188.735762,0.2424022539995573,-0.3266343108532375,0.2549414816760864,63188.73390000001,31.02532958984375,18.25015258789062,-514.4940795898438,63188.740827,-2.189663023770606,-1.331475008482507,-1.05364923861496,0.2647229135036469,-0.3746217489242554,0.2690816521644592,0.03525811433792114,0.06921285390853882,0.0393902063369751,1,0.6557334065437317,-0.1068472191691399,0.4619719684123993,-0.5875195264816284,-0.480311244726181,0.8692331910133362,-0.1171947419643402,0,0,0,-1,63187.60666341667,3,1,1561240727.269578,1561239991.781823,76,5.095047,0,0,66.78877,0,0,1561240727.269731,63185.776672,0,-0.8535156,74.42322,2650659446,177292352,1,1,0.31,-26.65723,-37.67379,1
1561240728.411467,68,0,0,1561240724.192677,4.603120233649292,-74.06474902378001,2651.555,-1,-1,10,65,-9999,1561240728.355874,-7.853424072265625,17.60524749755859,18.67401123046875,163.8497009277344,171.3933868408203,15,63188.767164,-0.471893310546875,0.8951568603515625,-0.0802154541015625,63188.756025,0.3147664660875174,-0.4484936381164292,0.3127307457502608,63188.754011,31.15443420410156,18.26075744628906,-514.4683837890625,63188.761061,-2.174943041785286,-1.327342484761368,-1.058025516746207,0.3105122447013855,-0.4606993794441223,0.3195432126522064,0.01650142669677734,0.04658025503158569,0.04195135831832886,1,0.6556457877159119,-0.1048728376626968,0.4576810598373413,-0.59131920337677,-0.4761266708374023,0.8713884949684143,-0.1182605773210526,0,0,0,-1,63187.60666341667,3,1,1561240727.269578,1561239991.781823,76,5.095047,0,0,66.78877,0,0,1561240727.269731,63185.776672,0,-0.8535156,74.42322,2650659446,177292352,1,1,0.31,-26.65723,-37.49129,1
1561240728.432225,69,0,0,1561240724.192677,4.603120233649292,-74.06474902378001,2651.555,-1,-1,10,65,-9999,1561240728.414162,-7.660253524780273,17.98586463928223,18.62322998046875,162.9192810058594,170.4629669189453,15,63188.787425875,-0.4910125732421875,0.8521728515625,-0.08770751953125,63188.77628687501,0.2843640853992818,-0.4161729824950096,0.3282825412518875,63188.774150875,31.57905578613281,18.58135986328125,-514.2928466796875,63188.781321875,-2.159915876444267,-1.323041026992203,-1.062984572909045,0.2640480697154999,-0.4003233909606934,0.3166286647319794,-0.01107972860336304,-3.141164779663086e-05,0.03918349742889404,1,0.6555551290512085,-0.1030742600560188,0.4531438946723938,-0.5952174663543701,-0.4714184105396271,0.8738106489181519,-0.1192463412880898,0,0,0,-1,63187.60666341667,3,1,1561240727.269578,1561239991.781823,76,5.095047,0,0,66.78877,0,0,1561240727.269731,63185.776672,0,-0.8535156,74.42322,2650659446,177292352,1,1,0.31,-26.65723,-38.33172,1
1561240728.467099,70,0,0,1561240724.192677,4.603120233649292,-74.06474902378001,2651.555,-1,-1,10,65,-9999,1561240728.465112,-6.90519905090332,18.27290534973145,18.412109375,161.5780944824219,169.1217803955078,15,63188.807658875,-0.4969329833984375,0.8179168701171875,-0.1016082763671875,63188.79655087501,0.2256411170469256,-0.3147097407562987,0.277076078760171,63188.79429187501,31.90951538085938,18.78462219238281,-514.5978393554688,63188.801585875,-2.147469317272974,-1.319211686915425,-1.067612725648299,0.2135345488786697,-0.2859267592430115,0.2452056258916855,-0.02989670634269714,-0.04371541738510132,0.02424788475036621,1,0.6554403901100159,-0.1018655672669411,0.449287623167038,-0.5984662771224976,-0.4670363068580627,0.8760518431663513,-0.1200425997376442,0,0,0,-1,63187.60666341667,3,1,1561240727.269578,1561239991.781823,76,5.095047,0,0,66.78877,0,0,1561240727.269731,63185.776672,0,-0.8535156,74.42322,2650659446,177292352,1,1,0.31,-26.65723,-38.62618,1
1561240728.472233,71,0,0,1561240724.192677,4.603120233649292,-74.06474902378001,2651.555,-1,-1,10,65,-9999,1561240728.465112,-6.90519905090332,18.27290534973145,18.412109375,161.5780944824219,169.1217803955078,15,63188.827922875,-0.473663330078125,0.8133697509765625,-0.1122894287109375,63188.816783875,0.2118344910076278,-0.1534350967277162,0.1340523439980105,63188.814402875,32.02046203613281,18.95585632324219,-514.7736206054688,63188.82184987501,-2.137369686173368,-1.314489525720195,-1.070110968459828,0.2072920948266983,-0.1216227635741234,0.09920153766870499,-0.02291330695152283,-0.06359410285949707,0.01727557182312012,1,0.6549597978591919,-0.1009055748581886,0.4470496475696564,-0.6008263230323792,-0.4643456339836121,0.8772537708282471,-0.121691457927227,0,0,0,-1,63187.60666341667,3,1,1561240727.269578,1561239991.781823,76,5.095047,0,0,66.78877,0,0,1561240727.269731,63185.776672,0,-0.8535156,74.42322,2650659446,177292352,1,1,0.31,-26.65723,-39.23148,1
1561240728.493015,72,0,0,1561240724.192677,4.603120233649292,-74.06474902378001,2651.555,-1,-1,10,65,-9999,1561240728.465112,-6.90519905090332,18.27290534973145,18.412109375,161.5780944824219,169.1217803955078,15,63188.848185875,-0.45123291015625,0.814300537109375,-0.11309814453125,63188.83704687501,0.2089990233950204,0.01755662317023837,0.07086192291704639,63188.834544875,31.97018432617188,19.14155578613281,-514.675048828125,63188.84211287501,-2.128469622413319,-1.307463771344586,-1.070660282866942,0.2084945142269135,0.06686299294233322,0.07039572298526764,-0.001585602760314941,-0.06623804569244385,0.007882058620452881,1,0.6538537740707397,-0.1003122553229332,0.4465042650699615,-0.6025335192680359,-0.4630140066146851,0.8775173425674438,-0.1248253881931305,0,0,0,-1,63187.60666341667,3,1,1561240727.269578,1561239991.781823,76,5.095047,0,0,66.78877,0,0,1561240727.269731,63185.776672,0,-0.8535156,74.42322,2650659446,177292352,1,1,0.31,-26.65723,-39.23148,1
1561240728.512942,73,0,0,1561240724.192677,4.603120233649292,-74.06474902378001,2651.555,-1,-1,10,65,-9999,1561240728.502834,-6.884735107421875,18.67357635498047,18.292236328125,161.221435546875,168.7651214599609,15,63188.868449875,-0.41070556640625,0.83416748046875,-0.1113739013671875,63188.85731087501,0.2645821248221732,0.1796877398053903,0.09922964853246143,63188.85468687501,32.04508972167969,19.02267456054688,-514.8352661132812,63188.862376875,-2.118100132906183,-1.295601538792938,-1.071036274607708,0.3001126050949097,0.1818564236164093,0.1143511980772018,0.03082418441772461,-0.04833656549453735,0.01956242322921753,1,0.6517365574836731,-0.1006473079323769,0.4471330642700195,-0.6043025255203247,-0.4611830711364746,0.8776975870132446,-0.1302191615104675,0,0,0,-1,63187.60666341667,3,1,1561240727.269578,1561239991.781823,76,5.095047,0,0,66.78877,0,0,1561240727.269731,63185.776672,0,-0.8535156,74.42322,2650659446,177292352,1,1,0.31,-26.65723,-35.62015,1
1561240728.553204,74,0,0,1561240724.192677,4.603120233649292,-74.06474902378001,2651.555,-1,-1,10,65,-9999,1561240728.527516,-6.7431640625,18.64052200317383,18.22906494140625,161.1668243408203,168.7105102539062,15,63188.88871387501,-0.3753509521484375,0.8213653564453125,-0.0944061279296875,63188.877574875,0.4446826545965258,0.1283193571193969,0.188147271008027,63188.874797875,31.94453430175781,18.89883422851562,-514.8800048828125,63188.882640875,-2.100626270617339,-1.277443979035062,-1.071822507342275,0.482808917760849,0.0838417112827301,0.2092854380607605,0.06262019276618958,-0.04770606756210327,0.03773999214172363,1,0.6485840082168579,-0.1007618308067322,0.4475028812885284,-0.6073936820030212,-0.4580822288990021,0.878074049949646,-0.1383716762065887,0,0,0,-1,63187.60666341667,3,1,1561240727.269578,1561239991.781823,76,5.095047,0,0,66.78877,0,0,1561240727.269731,63185.776672,0,-0.8535156,74.42322,2650659446,177292352,1,1,0.31,-26.65723,-36.29499,1
1561240728.556116,75,0,0,1561240724.192677,4.603120233649292,-74.06474902378001,2651.555,-1,-1,10,65,-9999,1561240728.554265,-6.702896118164062,19.13753509521484,17.80023193359375,160.7392425537109,168.2829284667969,15,63188.90897687501,-0.347076416015625,0.7875518798828125,-0.094757080078125,63188.897837875,0.5709364639744573,-0.0713127960895968,0.2929674273007828,63188.894938875,31.76678466796875,19.4599609375,-514.9974975585938,63188.902903875,-2.075615103375858,-1.255990109284684,-1.073461409512741,0.5800515413284302,-0.1258009970188141,0.315310925245285,0.09218916296958923,-0.07255220413208008,0.04924070835113525,1,0.6451153159141541,-0.09982874989509583,0.4463149607181549,-0.6120975613594055,-0.4536393582820892,0.8788571357727051,-0.1477209031581879,0,0,0,-1,63187.60666341667,3,1,1561240727.269578,1561239991.781823,76,5.095047,0,0,66.78877,0,0,1561240727.269731,63185.776672,0,-0.8535156,74.42322,2650659446,177292352,1,1,0.31,-26.65723,-36.29499,1
1561240728.573645,76,0,0,1561240724.192677,4.603120233649292,-74.06474902378001,2651.555,-1,-1,10,65,-9999,1561240728.554265,-6.702896118164062,19.13753509521484,17.80023193359375,160.7392425537109,168.2829284667969,15,63188.929240875,-0.3278045654296875,0.7813568115234375,-0.0979156494140625,63188.918101875,0.5697036867058597,-0.2560996904341619,0.364730297614603,63188.91508087501,32.32505798339844,19.83692932128906,-515.6065673828125,63188.923167875,-2.047816737904556,-1.235985517493545,-1.07637150664358,0.541739821434021,-0.2993376553058624,0.3718266785144806,0.1136883795261383,-0.1033558249473572,0.06695055961608887,1,0.64219069480896,-0.09812658280134201,0.4433131814002991,-0.6176048517227173,-0.4481762945652008,0.8802418112754822,-0.1559245735406876,0,0,0,-1,63187.60666341667,3,1,1561240727.269578,1561239991.781823,76,5.095047,0,0,66.78877,0,0,1561240727.269731,63185.776672,0,-0.8535156,74.42322,2650659446,177292352,1,1,0.31,-26.65723,-36.49748,1
1561240728.593838,77,0,0,1561240724.192677,4.603120233649292,-74.06474902378001,2651.555,-1,-1,10,65,-9999,1561240728.577918,-6.392143249511719,19.20621681213379,17.56390380859375,160.0193786621094,167.5630645751953,15,63188.949504875,-0.3637237548828125,0.788665771484375,-0.1162567138671875,63188.938365875,0.3848384954252463,-0.3502080801904009,0.3886050041549453,63188.935191875,32.469970703125,19.99899291992188,-515.365234375,63188.94343187501,-2.024629380530674,-1.222468489647163,-1.080678951220055,0.2957868278026581,-0.3669494390487671,0.3837411105632782,0.1000068783760071,-0.1004782915115356,0.05643975734710693,1,0.6405866742134094,-0.09650102257728577,0.4391308724880219,-0.6224953532218933,-0.4424598813056946,0.8822776079177856,-0.1606725305318832,0,0,0,-1,63187.60666341667,3,1,1561240727.269578,1561239991.781823,76,5.095047,0,0,66.78877,0,0,1561240727.269731,63185.776672,0,-0.8535156,74.42322,2650659446,177292352,1,1,0.31,-26.65723,-37.3348,1
1561240728.638649,78,0,0,1561240724.192677,4.603120233649292,-74.06474902378001,2651.555,-1,-1,10,65,-9999,1561240728.628762,-5.928936004638672,19.62455177307129,17.37164306640625,158.8813171386719,166.4250030517578,15,63188.969767875,-0.4420928955078125,0.8359527587890625,-0.1692657470703125,63188.95862887501,0.02152180371725735,-0.4278975491940834,0.3417642616381957,63188.955333875,32.86959838867188,20.10609436035156,-515.5225830078125,63188.963694875,-2.014835239827783,-1.222077880761533,-1.086634969072629,-0.06395351886749268,-0.4549528062343597,0.2933544814586639,0.04006576538085938,-0.07929474115371704,0.01550745964050293,1,0.641337513923645,-0.09572234004735947,0.4343570470809937,-0.6251858472824097,-0.4374504387378693,0.8850656151771545,-0.159046858549118,0,0,0,-1,63187.60666341667,3,1,1561240727.269578,1561239991.781823,76,5.095047,0,0,66.78877,0,0,1561240727.269731,63185.776672,0,-0.8535156,74.42322,2650659446,177292352,1,1,0.31,-26.65723,-38.06627,1
1561240728.641317,79,0,0,1561240724.192677,4.603120233649292,-74.06474902378001,2651.555,-1,-1,10,65,-9999,1561240728.628762,-5.928936004638672,19.62455177307129,17.37164306640625,158.8813171386719,166.4250030517578,15,63188.990031875,-0.4740142822265625,0.92742919921875,-0.1868438720703125,63188.97889287501,-0.2390104520352324,-0.4272168452194592,0.05115692769544109,63188.975444875,33.10418701171875,19.98788452148438,-515.455810546875,63188.983958875,-2.020525310132433,-1.236122672542962,-1.090482281177988,-0.2868340015411377,-0.4109398126602173,-0.0577838197350502,-0.03524291515350342,-0.0003447532653808594,-0.02535617351531982,1,0.6443336606025696,-0.094605453312397,0.4304268956184387,-0.6249932646751404,-0.4364215433597565,0.8868498802185059,-0.1517678797245026,0,0,0,-1,63187.60666341667,3,1,1561240727.269578,1561239991.781823,76,5.095047,0,0,66.78877,0,0,1561240727.269731,63185.776672,0,-0.8535156,74.42322,2650659446,177292352,1,1,0.31,-26.65723,-38.06627,1
1561240728.654835,80,0,0,1561240724.192677,4.603120233649292,-74.06474902378001,2651.555,-1,-1,10,65,-9999,1561240728.628762,-5.928936004638672,19.62455177307129,17.37164306640625,158.8813171386719,166.4250030517578,15,63189.01029587501,-0.452362060546875,0.9929656982421875,-0.200592041015625,63188.999156875,-0.3822938450036756,-0.256271464324472,-0.3119698806268252,63188.995585875,33.29035949707031,19.83682250976562,-515.1451416015625,63189.004222875,-2.038423010414964,-1.258380918854126,-1.088286592834842,-0.3986145853996277,-0.1925344914197922,-0.3609695434570312,-0.02249196171760559,0.08216917514801025,-0.05503189563751221,1,0.6481609344482422,-0.09262710809707642,0.42949578166008,-0.6219653487205505,-0.4415430724620819,0.885833203792572,-0.1426152437925339,0,0,0,-1,63187.60666341667,3,1,1561240727.269578,1561239991.781823,76,5.095047,0,0,66.78877,0,0,1561240727.269731,63185.776672,0,-0.8535156,74.42322,2650659446,177292352,1,1,0.31,-26.65723,-38.06627,1
1561240728.675048,81,0,0,1561240724.192677,4.603120233649292,-74.06474902378001,2651.555,-1,-1,10,65,-9999,1561240728.654941,-5.561695098876953,19.25437545776367,17.94964599609375,158.7551116943359,166.2987976074219,15,63189.03055887501,-0.430633544921875,0.991546630859375,-0.1841888427734375,63189.019419875,-0.342683052214273,0.09626368602644017,-0.3513423204986657,63189.015727875,33.07098388671875,19.59194946289062,-515.1607666015625,63189.02445587501,-2.058369940048408,-1.276176840392635,-1.0836144986257,-0.3087337017059326,0.1949269473552704,-0.307605654001236,0.005980491638183594,0.1123465299606323,-0.05859857797622681,1,0.6508437395095825,-0.09183985739946365,0.4313464462757111,-0.6179870963096619,-0.4479665756225586,0.8836556673049927,-0.1359357386827469,0,0,0,-1,63187.60666341667,3,1,1561240727.269578,1561239991.781823,76,5.095047,0,0,66.78877,0,0,1561240727.269731,63185.776672,0,-0.8535156,74.42322,2650659446,177292352,1,1,0.31,-26.65723,-38.53166,1
1561240728.718205,82,0,0,1561240724.192677,4.603120233649292,-74.06474902378001,2651.555,-1,-1,10,65,-9999,1561240728.706381,-6.03143310546875,19.04917907714844,18.06036376953125,159.8507995605469,167.3944854736328,15,63189.050822875,-0.3899688720703125,0.959716796875,-0.1440887451171875,63189.039683875,-0.1335687139440521,0.4732684931052183,-0.1133241622855968,63189.035838875,32.83155822753906,19.40383911132812,-515.1122436523438,63189.044719875,-2.068750951605304,-1.277672674076397,-1.081301223099506,-0.07056667655706406,0.5187830328941345,-0.05277521163225174,0.03685623407363892,0.09943950176239014,-0.03257066011428833,1,0.6505817770957947,-0.09389058500528336,0.4347750842571259,-0.6155473589897156,-0.4501252770423889,0.8825703859329224,-0.1358558237552643,0,0,0,-1,63187.60666341667,3,1,1561240727.269578,1561239991.781823,76,5.095047,0,0,66.78877,0,0,1561240727.269731,63185.776672,0,-0.8535156,74.42322,2650659446,177292352,1,1,0.31,-26.65723,-35.15667,1
1561240728.720728,83,0,0,1561240724.192677,4.603120233649292,-74.06474902378001,2651.555,-1,-1,10,65,-9999,1561240728.706381,-6.03143310546875,19.04917907714844,18.06036376953125,159.8507995605469,167.3944854736328,15,63189.071086875,-0.364044189453125,0.897186279296875,-0.091156005859375,63189.059947875,0.1133135096412365,0.5250352846902876,0.1142701171047929,63189.055980875,32.62001037597656,19.42282104492188,-515.0383911132812,63189.064982875,-2.065738229508535,-1.264273746418917,-1.082039844879855,0.1509779542684555,0.4771005809307098,0.1369582414627075,0.07656452059745789,0.04683113098144531,0.0258026123046875,1,0.6478357315063477,-0.09731347858905792,0.4379695057868958,-0.6156473755836487,-0.4476430118083954,0.8829174041748047,-0.1416779011487961,0,0,0,-1,63187.60666341667,3,1,1561240727.269578,1561239991.781823,76,5.095047,0,0,66.78877,0,0,1561240727.269731,63185.776672,0,-0.8535156,74.42322,2650659446,177292352,1,1,0.31,-26.65723,-35.15667,1
1561240728.735767,84,0,0,1561240724.192677,4.603120233649292,-74.06474902378001,2651.555,-1,-1,10,65,-9999,1561240728.729997,-6.01153564453125,19.09962463378906,17.90972900390625,160.2704772949219,167.8141632080078,15,63189.09131987501,-0.3830413818359375,0.8447265625,-0.045135498046875,63189.080180875,0.1610341605821483,0.3218235766601183,0.1200505082508099,63189.076091875,32.86265563964844,19.33122253417969,-515.1521606445312,63189.085246875,-2.057210629222995,-1.249181323506889,-1.083505049306801,0.1199545338749886,0.2605003416538239,0.08955316990613937,0.07664167881011963,-0.01798856258392334,0.08442503213882446,1,0.6450148820877075,-0.09975770115852356,0.4397680461406708,-0.6169345378875732,-0.444225937128067,0.8836044073104858,-0.148008406162262,0,0,0,-1,63187.60666341667,3,1,1561240727.269578,1561239991.781823,76,5.095047,0,0,66.78877,0,0,1561240727.269731,63185.776672,0,-0.8535156,74.42322,2650659446,177292352,1,1,0.31,-26.65723,-35.98152,1
1561240728.756124,85,0,0,1561240724.192677,4.603120233649292,-74.06474902378001,2651.555,-1,-1,10,65,-9999,1561240728.729997,-6.01153564453125,19.09962463378906,17.90972900390625,160.2704772949219,167.8141632080078,15,63189.111583875,-0.4227294921875,0.836334228515625,-0.0498809814453125,63189.100444875,-0.05859753346501348,0.1365245564379311,0.02144430572953604,63189.096232875,32.49057006835938,19.39044189453125,-515.1309204101562,63189.105510875,-2.056256664536566,-1.244788269236284,-1.084445495646639,-0.1327888965606689,0.1032506078481674,0.003462004475295544,0.03676274418830872,-0.0542866587638855,0.1064946055412292,1,0.6441434621810913,-0.1011587232351303,0.4405994415283203,-0.6170235872268677,-0.4427838623523712,0.884044349193573,-0.1496922224760056,0,0,0,-1,63187.60666341667,3,1,1561240727.269578,1561239991.781823,76,5.095047,0,0,66.78877,0,0,1561240727.269731,63185.776672,0,-0.8535156,74.42322,2650659446,177292352,1,1,0.31,-26.65723,-32.36857,1
1561240728.803531,86,0,0,1561240724.192677,4.603120233649292,-74.06474902378001,2651.555,-1,-1,10,65,-9999,1561240728.782084,-6.279666900634766,18.90657424926758,18.05804443359375,160.7499847412109,168.2936706542969,15,63189.131846875,-0.429107666015625,0.8811798095703125,-0.11590576171875,63189.120707875,-0.2892701607594258,0.04430701105564828,-0.01340555397913186,63189.116343875,32.35687255859375,19.107177734375,-515.1213989257812,63189.12577387501,-2.066108073430321,-1.25223796531706,-1.086013473892023,-0.319390207529068,0.02602186426520348,-0.01561208814382553,0.01269960403442383,-0.02663713693618774,0.06798291206359863,1,0.6453602313995361,-0.1026279926300049,0.4407498240470886,-0.6154001951217651,-0.4425702393054962,0.8847761750221252,-0.1459553390741348,0,0,0,-1,63187.60666341667,3,1,1561240727.269578,1561239991.781823,76,5.095047,0,0,66.78877,0,0,1561240727.269731,63185.776672,0,-0.8535156,74.42322,2650659446,177292352,1,1,0.31,-26.65723,-33.81521,1
1561240728.806569,87,0,0,1561240724.192677,4.603120233649292,-74.06474902378001,2651.555,-1,-1,10,65,-9999,1561240728.782084,-6.279666900634766,18.90657424926758,18.05804443359375,160.7499847412109,168.2936706542969,15,63189.152110875,-0.41778564453125,0.91387939453125,-0.1837158203125,63189.14097187501,-0.295762947497039,-0.03404904716888107,0.009506952459364865,63189.136485875,32.71432495117188,19.38728332519531,-514.7445068359375,63189.14603787501,-2.078896958043829,-1.263766059179639,-1.088227189571914,-0.2662934362888336,-0.05292354896664619,0.01104428991675377,0.02011361718177795,0.01759099960327148,-0.009773075580596924,1,0.6473390460014343,-0.104050450026989,0.4402705729007721,-0.613422691822052,-0.4423548579216003,0.885805606842041,-0.1402513235807419,0,0,0,-1,63187.60666341667,3,1,1561240727.269578,1561239991.781823,76,5.095047,0,0,66.78877,0,0,1561240727.269731,63185.776672,0,-0.8535156,74.42322,2650659446,177292352,1,1,0.31,-26.65723,-33.81521,1
1561240728.816896,88,0,0,1561240724.192677,4.603120233649292,-74.06474902378001,2651.555,-1,-1,10,65,-9999,1561240728.807001,-6.078384399414062,18.79959869384766,18.13787841796875,160.8585662841797,168.4022521972656,15,63189.172374875,-0.4016265869140625,0.946807861328125,-0.20501708984375,63189.16123587501,-0.1269720639239258,-0.03597877369475249,0.006943127277945582,63189.156626875,32.53105163574219,19.11614990234375,-514.8863525390625,63189.166301875,-2.086483656853098,-1.271440512048262,-1.089821584866828,-0.09386147558689117,-0.02894631214439869,0.007577387150377035,0.03742045164108276,0.04358565807342529,-0.04959934949874878,1,0.6486976146697998,-0.1047545447945595,0.439617782831192,-0.6123349666595459,-0.4420682787895203,0.886544406414032,-0.1364357769489288,0,0,0,-1,63187.60666341667,3,1,1561240727.269578,1561239991.781823,76,5.095047,0,0,66.78877,0,0,1561240727.269731,63186.725217,0,-0.8535156,74.42322,2650659446,177292352,1,1,0.31,-26.65723,-33.81521,1
1561240728.83715,89,0,0,1561240724.192677,4.603120233649292,-74.06474902378001,2651.555,-1,-1,10,65,-9999,1561240728.807001,-6.078384399414062,18.79959869384766,18.13787841796875,160.8585662841797,168.4022521972656,15,63189.19263787501,-0.4141845703125,0.944091796875,-0.205078125,63189.181498875,0.0001605886137317781,0.04597681305912797,0.06856414752852602,63189.176738875,32.59776306152344,19.124755859375,-514.9659423828125,63189.186564875,-2.08804574994642,-1.272678903080225,-1.09106956705654,0.01711324602365494,0.0601167194545269,0.09560338407754898,0.0351426899433136,0.06537836790084839,-0.071056067943573,1,0.648937463760376,-0.1053497716784477,0.4393098950386047,-0.6121997237205505,-0.441179096698761,0.8871210813522339,-0.1355631947517395,0,0,0,-1,63187.60666341667,3,1,1561240727.269578,1561239991.781823,76,5.095047,0,0,66.78877,0,0,1561240727.269731,63186.725217,0,-0.8535156,74.42322,2650659446,177292352,1,1,0.31,-26.65723,-34.52423,1
1561240728.869957,90,0,0,1561240724.192677,4.603120233649292,-74.06474902378001,2651.555,-1,-1,10,65,-9999,1561240728.847209,-6.151626586914062,18.72503089904785,18.18157958984375,160.9037780761719,168.4474639892578,15,63189.21290187501,-0.4273223876953125,0.932098388671875,-0.1818084716796875,63189.201762875,0.05269730006994293,0.139007687838321,0.1708327291808769,63189.196879875,32.5628662109375,19.14431762695312,-514.9097900390625,63189.206828875,-2.08509217941298,-1.268040956232598,-1.093673495856635,0.05714668333530426,0.1604941785335541,0.1837079375982285,0.01802036166191101,0.04773056507110596,-0.06271213293075562,1,0.6481797099113464,-0.1067883670330048,0.4391064941883087,-0.6128986477851868,-0.4383389353752136,0.8883198499679565,-0.1369186192750931,0,0,0,-1,63187.60666341667,3,1,1561240727.269578,1561239991.781823,76,5.095047,0,0,66.78877,0,0,1561240727.269731,63186.725217,0,-0.8535156,74.42322,2650659446,177292352,1,1,0.31,-26.65723,-35.55416,1
1561240728.877642,91,0,0,1561240724.192677,4.603120233649292,-74.06474902378001,2651.555,-1,-1,10,65,-9999,1561240728.875135,-6.207111358642578,18.84111213684082,18.0985107421875,161.0396423339844,168.5833282470703,15,63189.233165875,-0.4686279296875,0.8864288330078125,-0.136749267578125,63189.222026875,0.06752711260004916,0.2161301698459256,0.251465790137424,63189.21699087501,32.42774963378906,19.34890747070312,-515.1556396484375,63189.227092875,-2.079476359292383,-1.259156801944094,-1.097694103466778,0.05939545482397079,0.2301238626241684,0.2624203264713287,-0.01273930072784424,0.0208669900894165,-0.02357304096221924,1,0.6466985940933228,-0.1092031076550484,0.4390186369419098,-0.6140995621681213,-0.4337023198604584,0.8901590704917908,-0.1397112160921097,0,0,0,-1,63187.60666341667,3,1,1561240727.269578,1561239991.781823,76,5.095047,0,0,66.78877,0,0,1561240727.269731,63186.725217,0,-0.8535156,74.42322,2650659446,177292352,1,1,0.31,-26.65723,-35.55416,1
1561240728.897782,92,0,0,1561240724.192677,4.603120233649292,-74.06474902378001,2651.555,-1,-1,10,65,-9999,1561240728.875135,-6.207111358642578,18.84111213684082,18.0985107421875,161.0396423339844,168.5833282470703,15,63189.253428875,-0.478515625,0.87066650390625,-0.105865478515625,63189.242289875,0.04265292170260007,0.2527664780138187,0.2563910402574165,63189.237132875,32.73577880859375,19.460693359375,-515.1090087890625,63189.24735587501,-2.073527509158837,-1.248789385414885,-1.10248802487788,0.03443178534507751,0.2319476008415222,0.2532265782356262,-0.04690486192703247,-0.007231831550598145,0.02987176179885864,1,0.6449589729309082,-0.1122675687074661,0.4390550851821899,-0.6153491139411926,-0.428177535533905,0.8923331499099731,-0.1428478360176086,0,0,0,-1,63187.60666341667,3,1,1561240727.269578,1561239991.781823,76,5.095047,0,0,66.78877,0,0,1561240727.269731,63186.725217,0,-0.8535156,74.42322,2650659446,177292352,1,1,0.31,-26.42976,-28.97021,1
1561240728.918099,93,0,0,1561240724.192677,4.603120233649292,-74.06474902378001,2651.555,-1,-1,10,65,-9999,1561240728.908171,-6.024921417236328,18.8292407989502,17.885498046875,161.5665130615234,169.1101989746094,15,63189.273692875,-0.483795166015625,0.8412017822265625,-0.1007232666015625,63189.26255387501,0.04715978921534117,0.1662646089630639,0.255164388259326,63189.257273875,32.73283386230469,19.62715148925781,-514.9893798828125,63189.26761987501,-2.067539274476806,-1.239498716471438,-1.107184991857005,0.04424926266074181,0.1289248019456863,0.2468546777963638,-0.05765059590339661,-0.04465091228485107,0.04787486791610718,1,0.6434717774391174,-0.1149638444185257,0.4387475848197937,-0.6166262626647949,-0.4228639304637909,0.8944433927536011,-0.1454547792673111,0,0,0,-1,63187.60666341667,3,1,1561240727.269578,1561239991.781823,76,5.095047,0,0,66.78877,0,0,1561240727.269731,63186.725217,0,-0.8535156,74.42322,2650659446,177292352,1,1,0.31,-23.05714,-29.41767,1
1561240728.945975,94,0,0,1561240724.192677,4.603120233649292,-74.06474902378001,2651.555,-1,-1,10,65,-9999,1561240728.932792,-6.186676025390625,19.32562828063965,17.95013427734375,161.6420135498047,169.1856994628906,15,63189.293956875,-0.47979736328125,0.8345947265625,-0.102874755859375,63189.28281787501,0.06481734619089353,0.02011671992613154,0.1944714796486382,63189.277385875,32.76460266113281,19.57183837890625,-515.2117309570312,63189.287852875,-2.061587150991778,-1.232913983214212,-1.11089492859476,0.06688825786113739,-0.02570471353828907,0.1599735766649246,-0.06147676706314087,-0.06290531158447266,0.04633539915084839,1,0.6425463557243347,-0.1164762228727341,0.4378753900527954,-0.6179259419441223,-0.4187631011009216,0.8960962891578674,-0.1471349447965622,0,0,0,-1,63187.60666341667,3,1,1561240727.269578,1561239991.781823,76,5.095047,0,0,66.78877,0,0,1561240727.269731,63186.725217,0,-0.8535156,74.42322,2650659446,177292352,1,1,0.31,-21.75692,-27.66455,1
1561240728.95897,95,0,0,1561240724.192677,4.603120233649292,-74.06474902378001,2651.555,-1,-1,10,65,-9999,1561240728.932792,-6.186676025390625,19.32562828063965,17.95013427734375,161.6420135498047,169.1856994628906,15,63189.31421987501,-0.4768829345703125,0.85198974609375,-0.0881805419921875,63189.303080875,0.08987662678410314,-0.09567672532218671,0.04872519530408975,63189.297526875,32.58796691894531,19.37127685546875,-515.1721801757812,63189.30811687501,-2.056722953673574,-1.230075530089928,-1.111930016191417,0.07962749153375626,-0.1153019666671753,0.01119209639728069,-0.05950504541397095,-0.05838996171951294,0.05430877208709717,1,0.6422582268714905,-0.116180345416069,0.4369612336158752,-0.618927538394928,-0.4174694716930389,0.8965552449226379,-0.1480129957199097,0,0,0,-1,63187.60666341667,3,1,1561240727.269578,1561239991.781823,76,5.095047,0,0,66.78877,0,0,1561240727.269731,63186.725217,0,-0.8535156,74.42322,2650659446,177292352,1,1,0.31,-21.75692,-27.66455,1
1561240728.978874,96,0,0,1561240724.192677,4.603120233649292,-74.06474902378001,2651.555,-1,-1,10,65,-9999,1561240728.959816,-6.073383331298828,19.06207275390625,17.90765380859375,161.4840087890625,169.0276947021484,15,63189.33448387501,-0.4695587158203125,0.881072998046875,-0.0858001708984375,63189.323344875,0.04035301578520764,-0.1162824016244568,-0.03152703361657604,63189.317668875,32.82228088378906,19.48469543457031,-515.0296630859375,63189.32837987501,-2.055219455957189,-1.231258991698911,-1.110970210556594,0.018499955534935,-0.1229444444179535,-0.03804336115717888,-0.05790835618972778,-0.02668392658233643,0.06118130683898926,1,0.6425566673278809,-0.1149704456329346,0.4364144206047058,-0.6192295551300049,-0.4184558093547821,0.8961296677589417,-0.1478054523468018,0,0,0,-1,63187.60666341667,3,1,1561240727.269578,1561239991.781823,76,5.095047,0,0,66.78877,0,0,1561240727.269731,63186.725217,0,-0.8535156,74.42322,2650659446,177292352,1,1,0.31,-20.82442,-24.61153,1
1561240728.999132,97,0,0,1561240724.192677,4.603120233649292,-74.06474902378001,2651.555,-1,-1,10,65,-9999,1561240728.98307,-5.974536895751953,19.16520500183105,18.057373046875,161.3020935058594,168.8457794189453,15,63189.354716875,-0.4469146728515625,0.9061279296875,-0.0908966064453125,63189.34357787501,-0.001538508161738776,-0.1422729896508671,-0.04085315743792452,63189.337779875,32.75013732910156,19.71305847167969,-515.0446166992188,63189.348643875,-2.056400024633334,-1.235234381612122,-1.109887127502206,-0.00721100065857172,-0.1661949902772903,-0.04670316353440285,-0.03828057646751404,0.0005154609680175781,0.05943936109542847,1,0.6433034539222717,-0.1137125715613365,0.4358387589454651,-0.619091808795929,-0.4199561178684235,0.8956484794616699,-0.146460235118866,0,0,0,-1,63187.60666341667,3,1,1561240727.269578,1561239991.781823,76,5.095047,0,0,66.78877,0,0,1561240727.269731,63186.725217,0,-0.8535156,74.42322,2650659446,177292352,1,1,0.31,-20.82442,-24.89462,1
1561240729.030012,98,0,0,1561240724.192677,4.603120233649292,-74.06474902378001,2651.555,-1,-1,10,65,-9999,1561240729.009748,-5.952857971191406,19.25930976867676,17.82080078125,161.0714416503906,168.6151275634766,15,63189.37498087501,-0.422149658203125,0.911834716796875,-0.096954345703125,63189.36384187501,0.005777727984926907,-0.2146356038421731,-0.04894916715176541,63189.357920875,32.89898681640625,19.62599182128906,-514.964599609375,63189.368907875,-2.057824365397664,-1.240715542128192,-1.108627716563691,0.004892267286777496,-0.2216103076934814,-0.05946316570043564,-0.0111030638217926,0.01319175958633423,0.04990190267562866,1,0.6443560719490051,-0.1120018661022186,0.4349067509174347,-0.6189643740653992,-0.421819269657135,0.8950876593589783,-0.1445216685533524,0,0,0,-1,63187.60666341667,3,1,1561240727.269578,1561239991.781823,76,5.095047,0,0,66.78877,0,0,1561240727.269731,63186.725217,0,-0.8535156,74.42322,2650659446,177292352,1,1,0.31,-20.82442,-24.61781,1
1561240729.039721,99,0,0,1561240724.192677,4.603120233649292,-74.06474902378001,2651.555,-1,-1,10,65,-9999,1561240729.033799,-5.673336029052734,18.87292289733887,17.9930419921875,160.7933349609375,168.3370208740234,15,63189.39524387501,-0.4047393798828125,0.91314697265625,-0.1120147705078125,63189.384105875,-0.008258196224226709,-0.2038154466492902,-0.05966998843598838,63189.378062875,33.03889465332031,19.24946594238281,-515.0449829101562,63189.389170875,-2.059565590283573,-1.246696797588351,-1.107141591094815,-0.01782050170004368,-0.1933645606040955,-0.05741918832063675,0.01564198732376099,0.02035564184188843,0.03829354047775269,1,0.6454890370368958,-0.1101550087332726,0.4339788258075714,-0.6187666058540344,-0.423936665058136,0.8944240212440491,-0.1424195468425751,0,0,0,-1,63187.60666341667,3,1,1561240727.269578,1561239991.781823,76,5.095047,0,0,66.78877,0,0,1561240727.269731,63186.725217,0,-0.8535156,74.42322,2650659446,177292352,1,1,0.31,-20.82442,-24.61781,1
1561240729.060693,100,0,0,1561240724.192677,4.603120233649292,-74.06474902378001,2651.555,-1,-1,10,65,-9999,1561240729.033799,-5.673336029052734,18.87292289733887,17.9930419921875,160.7933349609375,168.3370208740234,15,63189.415507875,-0.3983917236328125,0.9058074951171875,-0.1264495849609375,63189.404368875,-0.01885118577612589,-0.173662604155195,-0.01857688018384773,63189.398173875,33.03948974609375,19.39665222167969,-515.0946655273438,63189.409434875,-2.061632478299009,-1.252392951920638,-1.106420755070163,-0.015246557071805,-0.177840992808342,-0.006481972523033619,0.02683967351913452,0.01394909620285034,0.02234542369842529,1,0.6465775370597839,-0.1087903156876564,0.4330023527145386,-0.6185557246208191,-0.4253534376621246,0.8941013813018799,-0.1402043104171753,0,0,0,-1,63187.60666341667,3,1,1561240727.269578,1561239991.781823,76,5.095047,0,0,66.78877,0,0,1561240727.269731,63186.725217,0,-0.8535156,74.42322,2650659446,177292352,1,1,0.31,-20.82442,-25.26371,1
1561240729.080657,101,0,0,1561240724.192677,4.603120233649292,-74.06474902378001,2651.555,-1,-1,10,65,-9999,1561240729.06086,-5.646804809570312,19.08433151245117,17.94793701171875,160.5659484863281,168.1096343994141,15,63189.435771875,-0.3912811279296875,0.9051361083984375,-0.135986328125,63189.424632875,0.02976268939439854,-0.147242714561064,0.008857407469494538,63189.418315875,33.04246520996094,19.368896484375,-514.890380859375,63189.42969887501,-2.061662071335902,-1.25589257832019,-1.106325340909879,0.0351223424077034,-0.1333835124969482,-0.001770840724930167,0.02798855304718018,0.0106196403503418,0.006752729415893555,1,0.6473283767700195,-0.1076816692948341,0.431909054517746,-0.6187286972999573,-0.4259224832057953,0.8940586447715759,-0.1387412548065186,0,0,0,-1,63187.60666341667,3,1,1561240727.269578,1561239991.781823,76,5.095047,0,0,66.78877,0,0,1561240727.269731,63186.725217,0,-0.8535156,74.42322,2650659446,177292352,1,1,0.31,-20.82442,-25.97665,1
1561240729.11754,102,0,0,1561240724.192677,4.603120233649292,-74.06474902378001,2651.555,-1,-1,10,65,-9999,1561240729.111241,-5.627651214599609,18.97224998474121,18.01043701171875,160.3248443603516,167.8685302734375,15,63189.456034875,-0.389892578125,0.89959716796875,-0.150421142578125,63189.444896875,0.02489389828951568,-0.05846091330109241,-0.001594700860739448,63189.43842687501,32.89035034179688,19.50341796875,-514.6983642578125,63189.44996187501,-2.06097058785811,-1.257156859030063,-1.10607943514455,0.006690699607133865,-0.04130684211850166,0.001378613524138927,0.03763502836227417,0.01111137866973877,-0.004963696002960205,1,0.6476273536682129,-0.1069744229316711,0.4313623607158661,-0.6189199686050415,-0.4263069033622742,0.893948495388031,-0.1382705718278885,0,0,0,-1,63187.60666341667,3,1,1561240727.269578,1561239991.781823,76,5.095047,0,0,66.78877,0,0,1561240727.269731,63186.725217,0,-0.8535156,74.42322,2650659446,177292352,1,1,0.31,-20.82442,-26.44484,1
1561240729.12076,103,0,0,1561240724.192677,4.603120233649292,-74.06474902378001,2651.555,-1,-1,10,65,-9999,1561240729.111241,-5.627651214599609,18.97224998474121,18.01043701171875,160.3248443603516,167.8685302734375,15,63189.476298875,-0.3883209228515625,0.8889312744140625,-0.1622467041015625,63189.46515987501,-0.01935425690604186,0.0127647974208588,0.01195546276558372,63189.458567875,32.84481811523438,19.34335327148438,-515.2139892578125,63189.470225875,-2.061740019030427,-1.258048670141308,-1.106424152119096,-0.026737030595541,0.01601743325591087,0.005582146812230349,0.03535884618759155,-0.001448512077331543,-0.01784425973892212,1,0.6477938294410706,-0.1070768907666206,0.4312042891979218,-0.6188380122184753,-0.4261364638805389,0.894102931022644,-0.1377953886985779,0,0,0,-1,63187.60666341667,3,1,1561240727.269578,1561239991.781823,76,5.095047,0,0,66.78877,0,0,1561240727.269731,63186.725217,0,-0.8535156,74.42322,2650659446,177292352,1,1,0.31,-20.82442,-26.44484,1
1561240729.140993,104,0,0,1561240724.192677,4.603120233649292,-74.06474902378001,2651.555,-1,-1,10,65,-9999,1561240729.13522,-5.680015563964844,19.07597160339355,18.07232666015625,160.3715057373047,167.9151916503906,15,63189.49656287501,-0.3856353759765625,0.8812713623046875,-0.168853759765625,63189.485423875,-0.01572303675971881,0.02365259890542975,-0.01379277760162938,63189.478709875,33.07832336425781,19.47567749023438,-514.93115234375,63189.490489875,-2.062946129873567,-1.258792557284634,-1.106538228664509,-0.01132398657500744,0.01912454329431057,-0.02411875687539577,0.04036909341812134,-0.01091426610946655,-0.0284770131111145,1,0.6478946208953857,-0.1072801426053047,0.4313010275363922,-0.6186298727989197,-0.4261418282985687,0.8941540122032166,-0.1374470591545105,0,0,0,-1,63187.60666341667,3,1,1561240727.269578,1561239991.781823,76,5.095047,0,0,66.78877,0,0,1561240727.269731,63186.725217,0,-0.8535156,74.42322,2650659446,177292352,1,1,0.31,-20.82442,-26.96408,1
1561240729.161424,105,0,0,1561240724.192677,4.603120233649292,-74.06474902378001,2651.555,-1,-1,10,65,-9999,1561240729.13522,-5.680015563964844,19.07597160339355,18.07232666015625,160.3715057373047,167.9151916503906,15,63189.51682587501,-0.3771820068359375,0.8911285400390625,-0.156036376953125,63189.505687875,0.01278130901961729,0.07888016832705695,-0.05235002386379659,63189.498851875,33.23091125488281,19.52743530273438,-515.0678100585938,63189.510752875,-2.063447934537793,-1.258172953997653,-1.10581571640622,0.007930667139589787,0.09854640066623688,-0.05650599300861359,0.04544574022293091,-0.01031583547592163,-0.02662575244903564,1,0.6477022171020508,-0.1073636412620544,0.4318815171718597,-0.6184118986129761,-0.4266713261604309,0.8938302397727966,-0.1379097700119019,0,0,0,-1,63187.60666341667,3,1,1561240727.269578,1561239991.781823,76,5.095047,0,0,66.78877,0,0,1561240727.269731,63186.725217,0,-0.8535156,74.42322,2650659446,177292352,1,1,0.31,-20.82442,-27.79486,1
1561240729.203297,106,0,0,1561240724.192677,4.603120233649292,-74.06474902378001,2651.555,-1,-1,10,65,-9999,1561240729.185947,-5.713996887207031,18.91059684753418,18.10174560546875,160.6735534667969,168.2172393798828,15,63189.537089875,-0.380126953125,0.8953399658203125,-0.146331787109375,63189.525950875,-0.02709500093046617,0.1515397249799068,-0.01814651335169092,63189.518962875,33.19790649414062,19.23420715332031,-514.9774169921875,63189.531016875,-2.064573957807136,-1.256506830174292,-1.105407185127661,-0.04389604553580284,0.1506921499967575,-0.005876902490854263,0.04808038473129272,0.001021623611450195,-0.0125422477722168,1,0.6472633481025696,-0.1080901250243187,0.4328959286212921,-0.6180354952812195,-0.4267882704734802,0.8936470150947571,-0.138733372092247,0,0,0,-1,63187.60666341667,3,1,1561240727.269578,1561239991.781823,76,5.095047,0,0,66.78877,0,0,1561240727.269731,63186.725217,0,-0.8535156,74.42322,2650659446,177292352,1,1,0.31,-20.82442,-29.29615,1
1561240729.206611,107,0,0,1561240724.192677,4.603120233649292,-74.06474902378001,2651.555,-1,-1,10,65,-9999,1561240729.185947,-5.713996887207031,18.91059684753418,18.10174560546875,160.6735534667969,168.2172393798828,15,63189.557353875,-0.389892578125,0.8979949951171875,-0.134613037109375,63189.546214875,-0.03659929022874096,0.1263262473595816,0.03223916289206322,63189.539103875,33.07521057128906,19.16911315917969,-514.7969360351562,63189.551249875,-2.065954911014436,-1.254988571150124,-1.106150516684992,-0.02913494035601616,0.101046048104763,0.03844821825623512,0.04325485229492188,0.002381980419158936,-0.001480817794799805,1,0.6468921899795532,-0.1092846468091011,0.4335827529430389,-0.6177323460578918,-0.4259452819824219,0.8939803242683411,-0.1391747146844864,0,0,0,-1,63187.60666341667,3,1,1561240727.269578,1561239991.781823,76,5.095047,0,0,66.78877,0,0,1561240727.269731,63186.725217,0,-0.8535156,74.42322,2650659446,177292352,1,1,0.31,-20.82442,-29.29615,1
1561240729.222032,108,0,0,1561240724.192677,4.603120233649292,-74.06474902378001,2651.555,-1,-1,10,65,-9999,1561240729.212463,-5.845142364501953,18.74328804016113,18.06085205078125,160.8111419677734,168.3548278808594,15,63189.577616875,-0.4037017822265625,0.9007110595703125,-0.1151123046875,63189.56647887501,0.02903724431346096,0.05743639522973893,0.05264004210650623,63189.55921487501,32.99067687988281,19.35231018066406,-515.0100708007812,63189.571513875,-2.064694687058078,-1.252437206818737,-1.107091710983088,0.03840655088424683,0.04513110965490341,0.04642811417579651,0.02627599239349365,0.004768252372741699,0.01513499021530151,1,0.6464496850967407,-0.1100180149078369,0.4337261915206909,-0.6179648041725159,-0.4247897863388062,0.8944016695022583,-0.1399976760149002,0,0,0,-1,63187.60666341667,3,1,1561240727.269578,1561239991.781823,76,5.095047,0,0,66.78877,0,0,1561240727.269731,63186.725217,0,-0.8535156,74.42322,2650659446,177292352,1,1,0.31,-20.82442,-30.04392,1
1561240729.242329,109,0,0,1561240724.192677,4.603120233649292,-74.06474902378001,2651.555,-1,-1,10,65,-9999,1561240729.23647,-5.814193725585938,18.92160606384277,17.88714599609375,160.8660736083984,168.4097595214844,15,63189.597880875,-0.4186553955078125,0.9004364013671875,-0.107452392578125,63189.58674187501,0.03561631747039271,0.06239546749557548,0.05430158831060666,63189.579356875,33.02595520019531,19.3323974609375,-514.8949584960938,63189.591777875,-2.062032013284041,-1.248928717983921,-1.107900486124605,0.01970050856471062,0.07033393532037735,0.05513185635209084,0.01194265484809875,0.00851142406463623,0.03232574462890625,1,0.6458719372749329,-0.1105455011129379,0.4337852895259857,-0.6184330582618713,-0.4236094951629639,0.8947631120681763,-0.1412582695484161,0,0,0,-1,63187.60666341667,3,1,1561240727.269578,1561239991.781823,76,5.095047,0,0,66.78877,0,0,1561240727.269731,63186.725217,0,-0.8535156,74.42322,2650659446,177292352,1,1,0.31,-20.82442,-30.859,1
1561240729.283194,110,0,0,1561240724.192677,4.603120233649292,-74.06474902378001,2651.555,-1,-1,10,65,-9999,1561240729.263706,-5.914569854736328,18.98505020141602,17.9879150390625,161.0262603759766,168.5699462890625,15,63189.618113875,-0.423431396484375,0.89703369140625,-0.10211181640625,63189.606974875,-0.01570492726430628,0.1230042202158168,0.06714734582860386,63189.599498875,32.87472534179688,19.45196533203125,-515.1394653320312,63189.61204087501,-2.061196433018056,-1.246058386822836,-1.10930324660399,-0.030388493090868,0.137411504983902,0.06406915932893753,0.001205325126647949,0.0005159378051757812,0.03703141212463379,1,0.6453595757484436,-0.1116895452141762,0.4340172708034515,-0.618599534034729,-0.4220122098922729,0.895388662815094,-0.142072930932045,0,0,0,-1,63187.60666341667,3,1,1561240727.269578,1561239991.781823,76,5.095047,0,0,66.78877,0,0,1561240727.269731,63186.725217,0,-0.8535156,74.42322,2650659446,177292352,1,1,0.31,-20.82442,-30.87559,1
1561240729.286257,111,0,0,1561240724.192677,4.603120233649292,-74.06474902378001,2651.555,-1,-1,10,65,-9999,1561240729.263706,-5.914569854736328,18.98505020141602,17.9879150390625,161.0262603759766,168.5699462890625,15,63189.638377875,-0.4297332763671875,0.8895111083984375,-0.1010284423828125,63189.627238875,-0.03540140037042332,0.1452288321447461,0.07604070597281447,63189.619639875,32.86302185058594,19.39535522460938,-515.1211547851562,63189.63230487501,-2.061656005914835,-1.243554582804898,-1.111023452141741,-0.03506100922822952,0.1285868585109711,0.07202668488025665,-0.007446616888046265,-0.001408398151397705,0.04213953018188477,1,0.6448688507080078,-0.1132573559880257,0.4344321191310883,-0.6185351014137268,-0.4201961755752563,0.8961533308029175,-0.1426338702440262,0,0,0,-1,63187.60666341667,3,1,1561240727.269578,1561239991.781823,76,5.095047,0,0,66.78877,0,0,1561240727.269731,63186.725217,0,-0.8535156,74.42322,2650659446,177292352,1,1,0.31,-20.82442,-31.49824,1
1561240729.303065,112,0,0,1561240724.192677,4.603120233649292,-74.06474902378001,2651.555,-1,-1,10,65,-9999,1561240729.287166,-5.746376037597656,18.95882797241211,17.90582275390625,161.2236022949219,168.7672882080078,15,63189.658641875,-0.429290771484375,0.8809661865234375,-0.110565185546875,63189.64750287501,-0.003956924747639732,0.06648661556215521,0.06486475045829695,63189.639750875,32.83442687988281,19.60542297363281,-515.0413818359375,63189.652568875,-2.06149909243743,-1.241726737452514,-1.112513961881263,-0.002091872738674283,0.03263795375823975,0.05541867762804031,-0.01216179132461548,-0.01134616136550903,0.03846240043640137,1,0.6445490121841431,-0.114331342279911,0.4345090091228485,-0.6186168193817139,-0.418670117855072,0.896813690662384,-0.1429698318243027,0,0,0,-1,63187.60666341667,3,1,1561240727.269578,1561239991.781823,76,5.095047,0,0,66.78877,0,0,1561240727.269731,63186.725217,0,-0.8535156,74.42322,2650659446,177292352,1,1,0.31,-20.82442,-31.49824,1
1561240729.323774,113,0,0,1561240724.192677,4.603120233649292,-74.06474902378001,2651.555,-1,-1,10,65,-9999,1561240729.313476,-5.791439056396484,19.07386779785156,17.85662841796875,161.2572784423828,168.8009643554688,15,63189.67890487501,-0.42950439453125,0.880218505859375,-0.1236419677734375,63189.667765875,0.01501117380034063,-0.01962936144664704,0.02859782273359788,63189.659892875,33.0303955078125,19.37295532226562,-515.1629638671875,63189.672831875,-2.060898033207593,-1.2413983667529,-1.11323950477951,0.009661189280450344,-0.01855439133942127,0.01176147907972336,-0.01322132349014282,-0.01865541934967041,0.02401554584503174,1,0.6445453763008118,-0.1145114451646805,0.4342030584812164,-0.6188020706176758,-0.4180073142051697,0.8971344828605652,-0.1428967714309692,0,0,0,-1,63187.60666341667,3,1,1561240727.269578,1561239991.781823,76,5.095047,0,0,66.78877,0,0,1561240727.269731,63186.725217,0,-0.8535156,74.42322,2650659446,177292352,1,1,0.31,-20.82442,-32.14143,1
1561240729.361813,114,0,0,1561240724.192677,4.603120233649292,-74.06474902378001,2651.555,-1,-1,10,65,-9999,1561240729.338111,-6.011203765869141,18.98145294189453,18.04620361328125,161.2785491943359,168.8222351074219,15,63189.69916887501,-0.4290771484375,0.8885650634765625,-0.132080078125,63189.688029875,-0.01725568596705941,0.03860278631680757,-0.006096242051300384,63189.680033875,32.82469177246094,19.55433654785156,-515.1785888671875,63189.693095875,-2.061643380891322,-1.241843091017409,-1.113267382773419,-0.03872924670577049,0.04927152767777443,-0.003875536844134331,-0.0102212131023407,-0.01018387079238892,0.01539874076843262,1,0.644600510597229,-0.1146245077252388,0.4342816770076752,-0.6186685562133789,-0.4180472195148468,0.8971467614173889,-0.1427028030157089,0,0,0,-1,63187.60666341667,3,1,1561240727.269578,1561239991.781823,76,5.095047,0,0,66.78877,0,0,1561240727.269731,63186.725217,0,-0.8535156,74.42322,2650659446,177292352,1,1,0.31,-20.82442,-33.47445,1
1561240729.365622,115,0,0,1561240724.192677,4.603120233649292,-74.06474902378001,2651.555,-1,-1,10,65,-9999,1561240729.364309,-5.826717376708984,18.89391899108887,18.091796875,161.3702392578125,168.9139251708984,15,63189.719432875,-0.423919677734375,0.891143798828125,-0.13671875,63189.708293875,-0.05003041055433758,0.05238464495796762,0.02743295607279722,63189.700145875,32.87075805664062,19.35887145996094,-514.9498291015625,63189.713359875,-2.063973876356939,-1.242983894731536,-1.113883524544943,-0.04505691677331924,0.02699551731348038,0.02876869216561317,-0.009605228900909424,-0.007663488388061523,0.0073586106300354,1,0.6447422504425049,-0.1152539551258087,0.4344430267810822,-0.6182906627655029,-0.4176866710186005,0.8974187970161438,-0.1420479118824005,0,0,0,-1,63187.60666341667,3,1,1561240727.269578,1561239991.781823,76,5.095047,0,0,66.78877,0,0,1561240727.269731,63186.725217,0,-0.8535156,74.42322,2650659446,177292352,1,1,0.31,-20.82442,-33.47445,1
1561240729.384569,116,0,0,1561240724.192677,4.603120233649292,-74.06474902378001,2651.555,-1,-1,10,65,-9999,1561240729.364309,-5.826717376708984,18.89391899108887,18.091796875,161.3702392578125,168.9139251708984,15,63189.739695875,-0.4190216064453125,0.89508056640625,-0.1390228271484375,63189.728556875,0.02463051165770684,-0.04022438510455682,0.03469406478489827,63189.720286875,32.85432434082031,19.39463806152344,-515.1810302734375,63189.73362287501,-2.064013700604526,-1.243505216652734,-1.114490403734441,0.04128782451152802,-0.06971690803766251,0.02574493922293186,-0.003501355648040771,-0.006054282188415527,0.004600465297698975,1,0.6448804140090942,-0.1153334006667137,0.4340981841087341,-0.6183738112449646,-0.4172445237636566,0.8976863622665405,-0.1416549235582352,0,0,0,-1,63187.60666341667,3,1,1561240727.269578,1561239991.781823,76,5.095047,0,0,66.78877,0,0,1561240727.269731,63186.725217,0,-0.8535156,74.42322,2650659446,177292352,1,1,0.31,-20.82442,-33.34979,1
1561240729.404503,117,0,0,1561240724.192677,4.603120233649292,-74.06474902378001,2651.555,-1,-1,10,65,-9999,1561240729.388422,-5.801548004150391,18.97446441650391,17.948974609375,161.2866973876953,168.8303833007812,15,63189.759959875,-0.4225921630859375,0.8996429443359375,-0.1340484619140625,63189.74882087501,0.08046954286561625,-0.07493416253988655,0.009652627370992199,63189.740397875,32.79153442382812,19.45602416992188,-514.899658203125,63189.75388687501,-2.061233279598826,-1.242698051014532,-1.114238418327627,0.06995861977338791,-0.06752806156873703,0.002187415491789579,-0.003447413444519043,0.0005722641944885254,0.004048824310302734,1,0.6448537707328796,-0.1145920380949974,0.4335768818855286,-0.6189049482345581,-0.4173442125320435,0.897575318813324,-0.142064556479454,0,0,0,-1,63187.60666341667,3,1,1561240727.269578,1561239991.781823,76,5.095047,0,0,66.78877,0,0,1561240727.269731,63186.725217,0,-0.8535156,74.42322,2650659446,177292352,1,1,0.31,-20.82442,-33.51043,1
1561240729.438176,118,0,0,1561240724.192677,4.603120233649292,-74.06474902378001,2651.555,-1,-1,10,65,-9999,1561240729.415856,-5.795963287353516,18.84964752197266,18.11865234375,161.1753387451172,168.7190246582031,15,63189.78024125,-0.4200286865234375,0.8980255126953125,-0.121185302734375,63189.76908487501,0.03652578698265477,-0.01741227983915607,0.008186290874794571,63189.760539875,32.90008544921875,19.59423828125,-514.892822265625,63189.774150875,-2.059357027999402,-1.241811487896902,-1.11395828434002,0.01915988698601723,-0.01173110678792,0.003168790601193905,-0.00585290789604187,0.00347292423248291,0.01232790946960449,1,0.6447560787200928,-0.1141563430428505,0.433369368314743,-0.6192326545715332,-0.4174563884735107,0.8974517583847046,-0.1425158530473709,0,0,0,-1,63187.60666341667,3,1,1561240727.269578,1561239991.781823,76,5.095047,0,0,66.78877,0,0,1561240727.269731,63186.725217,0,-0.8535156,74.42322,2650659446,177292352,1,1,0.31,-20.82442,-33.7952,1
1561240729.445494,119,0,0,1561240724.192677,4.603120233649292,-74.06474902378001,2651.555,-1,-1,10,65,-9999,1561240729.439209,-5.903671264648438,18.93119621276855,17.89935302734375,161.151611328125,168.6952972412109,15,63189.80050425,-0.4105224609375,0.896240234375,-0.1099090576171875,63189.78936525001,0.002675145314984595,-0.02003975457062825,-0.00553111926798557,63189.78069825,32.87858581542969,19.32394409179688,-515.161865234375,63189.79443125,-2.059269806029449,-1.242158801499725,-1.113791929378451,-0.002775506116449833,-0.03566573187708855,-0.0116820614784956,0.00372159481048584,-0.001153349876403809,0.02832889556884766,1,0.6448286771774292,-0.1139584481716156,0.4332819879055023,-0.619254469871521,-0.417646735906601,0.8973783850669861,-0.1424188911914825,0,0,0,-1,63187.60666341667,3,1,1561240727.269578,1561239991.781823,76,5.095047,0,0,66.78877,0,0,1561240727.269731,63186.725217,0,-0.8535156,74.42322,2650659446,177292352,1,1,0.31,-20.82442,-33.7952,1
1561240729.465404,120,0,0,1561240724.192677,4.603120233649292,-74.06474902378001,2651.555,-1,-1,10,65,-9999,1561240729.439209,-5.903671264648438,18.93119621276855,17.89935302734375,161.151611328125,168.6952972412109,15,63189.82076825001,-0.4026947021484375,0.9047088623046875,-0.1048126220703125,63189.80962925,0.006606770032268574,-0.04283588086948852,-0.01655474196815056,63189.80081025,32.981201171875,19.49954223632812,-515.1798706054688,63189.81466525001,-2.0595738250786,-1.243365261113842,-1.113459705951198,0.006505876779556274,-0.03758320957422256,-0.02145879156887531,0.009622812271118164,0.001877129077911377,0.03556549549102783,1,0.6450574398040771,-0.1135583147406578,0.4330905675888062,-0.6192236542701721,-0.4181005954742432,0.8972316980361938,-0.142010822892189,0,0,0,-1,63187.60666341667,3,1,1561240727.269578,1561239991.781823,76,5.095047,0,0,66.78877,0,0,1561240727.269731,63186.725217,0,-0.8535156,74.42322,2650659446,177292352,1,1,0.31,-20.82442,-33.91619,1
1561240729.485509,121,0,0,1561240724.192677,4.603120233649292,-74.06474902378001,2651.555,-1,-1,10,65,-9999,1561240729.465466,-5.897529602050781,18.89727020263672,17.90887451171875,161.09814453125,168.6418304443359,15,63189.84103225001,-0.3991546630859375,0.907440185546875,-0.1086578369140625,63189.82989325,0.001009870685358047,0.005993976665441342,-0.007193730736522038,63189.82095125,32.841796875,19.13400268554688,-515.3510131835938,63189.83492825001,-2.059744405937166,-1.243787384028764,-1.113152189232816,-0.008690120652318001,0.01003064773976803,0.004656698554754257,0.02001482248306274,0.01377755403518677,0.03511142730712891,1,0.6451250910758972,-0.1133673116564751,0.4331029951572418,-0.6191794872283936,-0.4184218049049377,0.8970959186553955,-0.1419229358434677,0,0,0,-1,63187.60666341667,3,1,1561240727.269578,1561239991.781823,76,5.095047,0,0,66.78877,0,0,1561240727.269731,63186.725217,0,-0.8535156,74.42322,2650659446,177292352,1,1,0.31,-20.82442,-34.22547,1
1561240729.520092,122,0,0,1561240724.192677,4.603120233649292,-74.06474902378001,2651.555,-1,-1,10,65,-9999,1561240729.51609,-5.632453918457031,18.84811782836914,18.04827880859375,161.1233673095703,168.6670532226562,15,63189.86129525,-0.4003448486328125,0.898651123046875,-0.1093597412109375,63189.85015625,-0.02487552247799413,0.0190634397150052,0.04451100919514835,63189.84109325,33.03076171875,19.20841979980469,-514.98193359375,63189.85519225,-2.060412397504286,-1.244137132594447,-1.113855309375279,-0.03412676975131035,0.0005202335305511951,0.04441636055707932,0.01829227805137634,0.005563020706176758,0.03230607509613037,1,0.645194947719574,-0.113738089799881,0.4329781532287598,-0.6191261410713196,-0.4178741872310638,0.8974063396453857,-0.1415742486715317,0,0,0,-1,63187.60666341667,3,1,1561240727.269578,1561239991.781823,76,5.095047,0,0,66.78877,0,0,1561240727.269731,63186.725217,0,-0.8535156,74.42322,2650659446,177292352,1,1,0.31,-20.82442,-34.53075,1
