loggingTime,loggingSample,identifierForVendor,deviceID,locationTimestamp_since1970,locationLatitude,locationLongitude,locationAltitude,locationSpeed,locationCourse,locationVerticalAccuracy,locationHorizontalAccuracy,locationFloor,locationHeadingTimestamp_since1970,locationHeadingX,locationHeadingY,locationHeadingZ,locationTrueHeading,locationMagneticHeading,locationHeadingAccuracy,accelerometerTimestamp_sinceReboot,accelerometerAccelerationX,accelerometerAccelerationY,accelerometerAccelerationZ,gyroTimestamp_sinceReboot,gyroRotationX,gyroRotationY,gyroRotationZ,magnetometerTimestamp_sinceReboot,magnetometerX,magnetometerY,magnetometerZ,motionTimestamp_sinceReboot,motionYaw,motionRoll,motionPitch,motionRotationRateX,motionRotationRateY,motionRotationRateZ,motionUserAccelerationX,motionUserAccelerationY,motionUserAccelerationZ,motionAttitudeReferenceFrame,motionQuaternionX,motionQuaternionY,motionQuaternionZ,motionQuaternionW,motionGravityX,motionGravityY,motionGravityZ,motionMagneticFieldX,motionMagneticFieldY,motionMagneticFieldZ,motionMagneticFieldCalibrationAccuracy,activityTimestamp_sinceReboot,activity,activityActivityConfidence,activityActivityStartDate,pedometerStartDate,pedometerNumberofSteps,pedometerAverageActivePace,pedometerCurrentPace,pedometerCurrentCadence,pedometerDistance,pedometerFloorAscended,pedometerFloorDescended,pedometerEndDate,altimeterTimestamp_sinceReboot,altimeterReset,altimeterRelativeAltitude,altimeterPressure,IP_en0,IP_pdp_ip0,deviceOrientation,batteryState,batteryLevel,avAudioRecorderPeakPower,avAudioRecorderAveragePower,label
1561240761.805985,1,0,0,1561240758.779081,4.603141158115376,-74.06474430536709,2651.532,-1,-1,10,65,-9999,1561240761.782753,-7.093473434448242,14.82993412017822,19.6473388671875,60.51407623291016,68.05776214599609,15,63222.158229,-0.8089752197265625,0.4921112060546875,0.187469482421875,63222.14709000001,-0.1681051195924177,0.1273606191269684,0.08721959096453108,63222.134914,31.81509399414062,15.4683837890625,-513.3636474609375,63222.152156,-2.191940231106067,-1.730278656270858,-0.5335302618360008,-0.1950843036174774,0.1408973336219788,0.1098864525556564,0.03163951635360718,-0.0154426097869873,0.05384659767150879,1,0.7311926484107971,0.1836440414190292,0.4646488428115845,-0.4644713699817657,-0.8500904440879822,0.5085760951042175,0.1367356479167938,0,0,0,-1,63218.72898216667,3,2,1561240758.391897,1561239991.781823,76,5.095047,0,0,66.78877,0,0,1561240729.863841,63218.988555,0,-1.270996,74.42712,2650659446,177292352,1,1,0.31,-29.69606,-41.64065,3
1561240761.828739,2,0,0,1561240758.779081,4.603141158115376,-74.06474430536709,2651.532,-1,-1,10,65,-9999,1561240761.807023,-6.905002593994141,14.77788639068604,19.92510986328125,60.85172271728516,68.39540863037109,15,63222.17849300001,-0.7764892578125,0.4958038330078125,0.180389404296875,63222.167354,-0.2866504091951148,0.18962559172913,0.2305056470940643,63222.155055,31.96826171875,15.16972351074219,-513.19677734375,63222.17242,-2.198602819128086,-1.730151468390704,-0.5365215878632699,-0.3183670938014984,0.1836892664432526,0.2594767510890961,0.05009424686431885,-0.01879405975341797,0.04508733749389648,1,0.7319275736808777,0.1802075952291489,0.4655129313468933,-0.463794082403183,-0.8486019372940063,0.5111494064331055,0.1363855004310608,0,0,0,-1,63218.72898216667,3,2,1561240758.391897,1561239991.781823,76,5.095047,0,0,66.78877,0,0,1561240729.863841,63218.988555,0,-1.270996,74.42712,2650659446,177292352,1,1,0.31,-30.25333,-40.65693,3
1561240761.842754,3,0,0,1561240758.779081,4.603141158115376,-74.06474430536709,2651.532,-1,-1,10,65,-9999,1561240761.833079,-6.989166259765625,14.54172229766846,19.76495361328125,61.46481323242188,69.00849914550781,15,63222.19875700001,-0.7493743896484375,0.492706298828125,0.1812286376953125,63222.187618,-0.3613853672854634,0.1624837191634785,0.3884795692676026,63222.175166,31.56832885742188,15.11512756347656,-513.1328735351562,63222.192684,-2.208066445716597,-1.731551231905438,-0.5422555982050403,-0.3607712984085083,0.1502088159322739,0.4107424318790436,0.07452237606048584,-0.01616084575653076,0.04394376277923584,1,0.7333855628967285,0.175204262137413,0.4658002555370331,-0.4631190896034241,-0.8455032706260681,0.5160693526268005,0.1371018290519714,0,0,0,-1,63218.72898216667,3,2,1561240758.391897,1561239991.781823,76,5.095047,0,0,66.78877,0,0,1561240729.863841,63218.988555,0,-1.270996,74.42712,2650659446,177292352,1,1,0.31,-30.81061,-41.20558,3
1561240761.863575,4,0,0,1561240758.779081,4.603141158115376,-74.06474430536709,2651.532,-1,-1,10,65,-9999,1561240761.857117,-6.909843444824219,14.52623748779297,20.03375244140625,62.16593170166016,69.70961761474609,15,63222.21902,-0.71856689453125,0.51873779296875,0.1430206298828125,63222.207881,-0.3427078196124108,0.02847824680065333,0.3834038505460206,63222.195308,31.81265258789062,15.11885070800781,-513.0514526367188,63222.21294700001,-2.217830399283709,-1.735126686961888,-0.5489746170821393,-0.3392453789710999,-0.05252311378717422,0.3739635050296783,0.1247404813766479,-0.0208667516708374,0.03268754482269287,1,0.7353820204734802,0.1702647656202316,0.4651185870170593,-0.4624803066253662,-0.8415678739547729,0.5218127965927124,0.1395536065101624,0,0,0,-1,63218.72898216667,3,2,1561240758.391897,1561239991.781823,76,5.095047,0,0,66.78877,0,0,1561240729.863841,63218.988555,0,-1.270996,74.42712,2650659446,177292352,1,1,0.31,-31.36789,-41.67101,3
1561240761.883401,5,0,0,1561240758.779081,4.603141158115376,-74.06474430536709,2651.532,-1,-1,10,65,-9999,1561240761.857117,-6.909843444824219,14.52623748779297,20.03375244140625,62.16593170166016,69.70961761474609,15,63222.239284,-0.7936248779296875,0.540069580078125,0.1537933349609375,63222.228145,-0.210965235227826,-0.2133005611877164,0.3863226751007474,63222.21545,31.75131225585938,15.15382385253906,-512.891845703125,63222.23318,-2.225522229426987,-1.742548683227475,-0.5555720918670861,-0.1510333865880966,-0.2488404214382172,0.3876290023326874,0.07246536016464233,0.0009061098098754883,-0.004014730453491211,1,0.738045334815979,0.1670066118240356,0.4625659286975861,-0.4619855582714081,-0.8370985388755798,0.527429461479187,0.1452042460441589,0,0,0,-1,63218.72898216667,3,2,1561240758.391897,1561239991.781823,76,5.095047,0,0,66.78877,0,0,1561240729.863841,63218.988555,0,-1.270996,74.42712,2650659446,177292352,1,1,0.31,-31.36789,-41.67101,3
1561240761.904178,6,0,0,1561240758.779081,4.603141158115376,-74.06474430536709,2651.532,-1,-1,10,65,-9999,1561240761.883568,-6.86566162109375,14.33463287353516,20.12530517578125,62.66734313964844,70.21102905273438,15,63222.259548,-0.8402557373046875,0.5709228515625,0.1246337890625,63222.24840900001,0.04221589696771807,-0.228613471139563,0.3816898400684456,63222.235591,32.12617492675781,14.9022216796875,-512.6991577148438,63222.253444,-2.227753103287034,-1.748765322745321,-0.5631317348576801,0.07779206335544586,-0.2150148153305054,0.3739674985408783,-0.0007762908935546875,0.031852126121521,-0.002493619918823242,1,0.7399768233299255,0.1651723086833954,0.4589537680149078,-0.4631563127040863,-0.8322315216064453,0.5338369607925415,0.1496951878070831,0,0,0,-1,63218.72898216667,3,2,1561240758.391897,1561239991.781823,76,5.095047,0,0,66.78877,0,0,1561240729.863841,63218.988555,0,-1.270996,74.42712,2650659446,177292352,1,1,0.31,-31.92517,-40.38284,3
1561240761.923666,7,0,0,1561240758.779081,4.603141158115376,-74.06474430536709,2651.532,-1,-1,10,65,-9999,1561240761.90767,-6.638786315917969,14.41802310943604,20.18695068359375,62.70693969726562,70.25062561035156,15,63222.279811,-0.8445281982421875,0.5470733642578125,0.107666015625,63222.26867200001,0.1429235999051735,-0.04917074215446,0.3613526104040555,63222.25573300001,32.40251159667969,14.890869140625,-512.825927734375,63222.273708,-2.22651634891025,-1.750319865192447,-0.5708284521187412,0.1466299891471863,0.01712041348218918,0.3442950844764709,-0.01621633768081665,0.01333582401275635,-0.03997528553009033,1,0.7405354976654053,0.1635006815195084,0.4562202394008636,-0.4655509293079376,-0.8279303312301636,0.5403293371200562,0.1502505987882614,0,0,0,-1,63218.72898216667,3,2,1561240758.391897,1561239991.781823,76,5.095047,0,0,66.78877,0,0,1561240729.863841,63218.988555,0,-1.270996,74.42712,2650659446,177292352,1,1,0.31,-32.48245,-41.21588,3
1561240761.944052,8,0,0,1561240758.779081,4.603141158115376,-74.06474430536709,2651.532,-1,-1,10,65,-9999,1561240761.934136,-6.530990600585938,14.69348907470703,20.21148681640625,62.56381225585938,70.10749816894531,15,63222.300044,-0.8731842041015625,0.5533294677734375,0.1121826171875,63222.288905,0.1527804917317747,0.1965021399798236,0.3100697151890536,63222.27587400001,32.41969299316406,14.86238098144531,-512.76318359375,63222.29397100001,-2.224373678222241,-1.746502296755943,-0.577749340470079,0.1413816958665848,0.2320436388254166,0.2879327535629272,-0.03793549537658691,0.004809141159057617,-0.04235148429870605,1,0.7397589087486267,0.1611601561307907,0.4554432034492493,-0.4683543145656586,-0.8247964382171631,0.5461399555206299,0.1464316844940186,0,0,0,-1,63222.285518,3,2,1561240761.948433,1561239991.781823,76,5.095047,0,0,66.78877,0,0,1561240729.863841,63218.988555,0,-1.270996,74.42712,2650659446,177292352,1,1,0.31,-33.03973,-34.64491,3
1561240761.964184,9,0,0,1561240758.779081,4.603141158115376,-74.06474430536709,2651.532,-1,-1,10,65,-9999,1561240761.958601,-6.370632171630859,14.80814075469971,20.1234130859375,62.40347290039062,69.94715881347656,15,63222.320308,-0.8981475830078125,0.5681304931640625,0.140228271484375,63222.30916900001,0.1395291347797585,0.2646865207369044,0.2225523828146517,63222.296016,32.63902282714844,15.29109191894531,-512.8643798828125,63222.31423500001,-2.222146391239388,-1.740308911768719,-0.5831099663036262,0.1368242204189301,0.2495115697383881,0.2057036608457565,-0.05892407894134521,0.01302176713943481,-0.01706063747406006,1,0.7383759021759033,0.1587871462106705,0.4558950960636139,-0.4709005355834961,-0.8227897882461548,0.5506226420402527,0.1408246606588364,0,0,0,-1,63222.285518,3,2,1561240761.948433,1561239991.781823,76,5.095047,0,0,66.78877,0,0,1561240729.863841,63218.988555,0,-1.270996,74.42712,2650659446,177292352,1,1,0.31,-33.59701,-35.58136,3
1561240761.996658,10,0,0,1561240758.779081,4.603141158115376,-74.06474430536709,2651.532,-1,-1,10,65,-9999,1561240761.984833,-6.381027221679688,14.78829383850098,19.79339599609375,62.251220703125,69.79490661621094,15,63222.340572,-0.910797119140625,0.5807952880859375,0.150787353515625,63222.32943300001,0.1161029045669855,0.1510731391569249,0.1783055591996392,63222.316158,32.42230224609375,15.31259155273438,-512.9267578125,63222.334499,-2.21998052020351,-1.735449182565731,-0.587207111755736,0.1051738858222961,0.09598726034164429,0.1705384850502014,-0.08234751224517822,0.01555716991424561,0.01412010192871094,1,0.7372550368309021,0.157104417681694,0.4561697542667389,-0.4729507863521576,-0.8212321996688843,0.5540381073951721,0.1364535689353943,0,0,0,-1,63222.285518,3,2,1561240761.948433,1561239991.781823,76,5.095047,0,0,66.78877,0,0,1561240729.863841,63218.988555,0,-1.270996,74.42712,2650659446,177292352,1,1,0.31,-34.15429,-35.92102,3
1561240762.00483,11,0,0,1561240758.779081,4.603141158115376,-74.06474430536709,2651.532,-1,-1,10,65,-9999,1561240761.984833,-6.381027221679688,14.78829383850098,19.79339599609375,62.251220703125,69.79490661621094,15,63222.36083500001,-0.9392547607421875,0.57806396484375,0.162506103515625,63222.349696,0.1043868599833999,0.02990889693824389,0.1343596727878057,63222.336299,32.42817687988281,15.13711547851562,-513.1038818359375,63222.354762,-2.218081549819911,-1.733463223977856,-0.5903996184075009,0.1038052886724472,0.01989862322807312,0.1113025918602943,-0.1126974821090698,0.02800852060317993,0.01931917667388916,1,0.736777126789093,0.1562916189432144,0.4556649625301361,-0.474448949098587,-0.8197518587112427,0.5566930174827576,0.1345352083444595,0,0,0,-1,63222.285518,3,2,1561240761.948433,1561239991.781823,76,5.095047,0,0,66.78877,0,0,1561240729.863841,63218.988555,0,-1.270996,74.42712,2650659446,177292352,1,1,0.31,-34.71157,-36.74218,3
1561240762.024987,12,0,0,1561240758.779081,4.603141158115376,-74.06474430536709,2651.532,-1,-1,10,65,-9999,1561240762.009005,-6.447708129882812,14.75405788421631,20.05181884765625,62.10186004638672,69.64554595947266,15,63222.38109900001,-0.92022705078125,0.559051513671875,0.1688995361328125,63222.36996,0.1214268299021629,0.02442464930544372,0.03377234473162184,63222.356441,32.61567687988281,15.19480895996094,-513.0170288085938,63222.375026,-2.215567248126426,-1.731606627248214,-0.5919216365902182,0.1203251481056213,0.02640765532851219,0.0003981804475188255,-0.1113027930259705,0.0155906081199646,0.02816402912139893,1,0.7362169623374939,0.1562792062759399,0.4553755521774292,-0.475599080324173,-0.819162905216217,0.5579567551612854,0.1328772157430649,0,0,0,-1,63222.285518,3,2,1561240761.948433,1561239991.781823,76,5.095047,0,0,66.78877,0,0,1561240729.863841,63219.937635,0,-1.308105,74.42747,2650659446,177292352,1,1,0.31,-35.26884,-37.69491,3
1561240762.045413,13,0,0,1561240758.779081,4.603141158115376,-74.06474430536709,2651.532,-1,-1,10,65,-9999,1561240762.035273,-6.506931304931641,14.79873752593994,19.96502685546875,61.90879058837891,69.45247650146484,15,63222.401363,-0.874755859375,0.5304412841796875,0.1772003173828125,63222.390224,0.08125624065162565,0.03330815575362103,-0.06355767099528606,63222.376582,32.15335083007812,15.263427734375,-513.0086669921875,63222.39529,-2.213099218469198,-1.729552100533925,-0.5912899815439832,0.05176445469260216,0.009105896577239037,-0.07837812602519989,-0.0765497088432312,-0.01736289262771606,0.04807174205780029,1,0.7355308532714844,0.1569050252437592,0.455700546503067,-0.476143091917038,-0.8197821378707886,0.5574324727058411,0.1312496513128281,0,0,0,-1,63222.285518,3,2,1561240761.948433,1561239991.781823,76,5.095047,0,0,66.78877,0,0,1561240729.863841,63219.937635,0,-1.308105,74.42747,2650659446,177292352,1,1,0.31,-35.26884,-37.69491,3
1561240762.066874,14,0,0,1561240758.779081,4.603141158115376,-74.06474430536709,2651.532,-1,-1,10,65,-9999,1561240762.059618,-6.607650756835938,14.8667631149292,20.05511474609375,61.8460693359375,69.38975524902344,15,63222.421626,-0.8472442626953125,0.5472259521484375,0.1756591796875,63222.410487,-0.001949433917938002,-0.02572613613016544,-0.08847207562519535,63222.39672400001,32.30642700195312,15.287353515625,-513.1663818359375,63222.41555300001,-2.212455756016617,-1.729591345247968,-0.5895276238075275,-0.01284409780055285,-0.04318420588970184,-0.08686455339193344,-0.03530311584472656,-0.01673805713653564,0.04707562923431396,1,0.7354186177253723,0.1577273607254028,0.4559689462184906,-0.4757875204086304,-0.8207455277442932,0.5559684634208679,0.1314369291067123,0,0,0,-1,63222.285518,3,2,1561240761.948433,1561239991.781823,76,5.095047,0,0,66.78877,0,0,1561240729.863841,63219.937635,0,-1.308105,74.42747,2650659446,177292352,1,1,0.31,-35.82612,-38.06324,3
1561240762.085958,15,0,0,1561240758.779081,4.603141158115376,-74.06474430536709,2651.532,-1,-1,10,65,-9999,1561240762.059618,-6.607650756835938,14.8667631149292,20.05511474609375,61.8460693359375,69.38975524902344,15,63222.44189,-0.8487701416015625,0.5759735107421875,0.153839111328125,63222.43075100001,0.003626959088578915,-0.04587987399544909,-0.05175587262459991,63222.41686600001,32.24252319335938,15.40298461914062,-512.849365234375,63222.43581700001,-2.212332242901654,-1.730508713891781,-0.5881754343385568,0.01518407464027405,-0.05091749131679535,-0.04870465025305748,-0.02503877878189087,0.005672335624694824,0.0339047908782959,1,0.7355634570121765,0.1584330648183823,0.4559367299079895,-0.4753600060939789,-0.8213662505149841,0.5548439621925354,0.1323092728853226,0,0,0,-1,63222.285518,3,2,1561240761.948433,1561239991.781823,76,5.095047,0,0,66.78877,0,0,1561240729.863841,63219.937635,0,-1.308105,74.42747,2650659446,177292352,1,1,0.31,-36.3834,-38.30867,3
1561240762.105993,16,0,0,1561240758.779081,4.603141158115376,-74.06474430536709,2651.532,-1,-1,10,65,-9999,1561240762.085982,-6.396060943603516,15.03579235076904,19.96002197265625,61.82865905761719,69.37234497070312,15,63222.462154,-0.83740234375,0.5829620361328125,0.1366729736328125,63222.45101500001,0.06669673897216245,-0.05838474689391614,-0.05037635517993887,63222.437007,32.14659118652344,15.33766174316406,-513.0202026367188,63222.456081,-2.211012479185103,-1.730946733420155,-0.587324760364288,0.08991929888725281,-0.07281853258609772,-0.06043720617890358,-0.02069437503814697,0.02842926979064941,0.01088666915893555,1,0.7355239391326904,0.1593005359172821,0.4556723237037659,-0.4753847718238831,-0.821773886680603,0.5541360974311829,0.1327442526817322,0,0,0,-1,63222.285518,3,2,1561240761.948433,1561239991.781823,76,5.095047,0,0,66.78877,0,0,1561240729.863841,63219.937635,0,-1.308105,74.42747,2650659446,177292352,1,1,0.31,-36.94068,-38.7417,3
1561240762.126296,17,0,0,1561240758.779081,4.603141158115376,-74.06474430536709,2651.532,-1,-1,10,65,-9999,1561240762.110269,-6.579921722412109,15.00669956207275,19.95159912109375,61.67076110839844,69.21444702148438,15,63222.48241700001,-0.8305511474609375,0.564971923828125,0.1511688232421875,63222.471279,0.1907196183049346,-0.07425132803639023,-0.08287677417493887,63222.457149,32.18583679199219,15.546142578125,-513.2905883789062,63222.476344,-2.207021523592444,-1.7303276874402,-0.5862584976198048,0.2119445502758026,-0.0825989842414856,-0.08463601768016815,-0.01076740026473999,0.02203869819641113,0.009333252906799316,1,0.7350195050239563,0.1609688550233841,0.4552145898342133,-0.4760410487651825,-0.8224387764930725,0.5532481670379639,0.1323292851448059,0,0,0,-1,63222.285518,3,2,1561240761.948433,1561239991.781823,76,5.095047,0,0,66.78877,0,0,1561240729.863841,63219.937635,0,-1.308105,74.42747,2650659446,177292352,1,1,0.31,-34.54066,-39.11594,3
1561240762.150989,18,0,0,1561240758.779081,4.603141158115376,-74.06474430536709,2651.532,-1,-1,10,65,-9999,1561240762.137137,-6.468303680419922,14.81794929504395,19.937255859375,61.29228973388672,68.83597564697266,15,63222.50268100001,-0.86163330078125,0.5914154052734375,0.1506195068359375,63222.491542,0.2293242688345052,-0.1434056320624778,-0.0978844858658624,63222.47729,32.36369323730469,15.349609375,-512.946533203125,63222.496608,-2.201373759108917,-1.729836842530724,-0.585064206880063,0.2209452241659164,-0.1694603860378265,-0.09204466640949249,-0.01482677459716797,0.02388846874237061,0.01729238033294678,1,0.7343995571136475,0.1633167266845703,0.4543455243110657,-0.4770273566246033,-0.823155403137207,0.5522528886795044,0.1320301294326782,0,0,0,-1,63222.285518,3,2,1561240761.948433,1561239991.781823,76,5.095047,0,0,66.78877,0,0,1561240729.863841,63219.937635,0,-1.308105,74.42747,2650659446,177292352,1,1,0.31,-34.54066,-39.36281,3
1561240762.166937,19,0,0,1561240758.779081,4.603141158115376,-74.06474430536709,2651.532,-1,-1,10,65,-9999,1561240762.161001,-6.360305786132812,15.17823314666748,19.71337890625,60.90930938720703,68.45299530029297,15,63222.522945,-0.8788299560546875,0.586761474609375,0.1500244140625,63222.511806,0.2035145094461113,-0.2047123993044289,-0.08017499724905348,63222.497432,32.46434020996094,15.31382751464844,-513.1428833007812,63222.516841,-2.196113648745421,-1.73094004110749,-0.5839789983300773,0.2052171379327774,-0.2074344009160995,-0.08752608299255371,-0.04682189226150513,0.03716832399368286,0.0177994966506958,1,0.7341699004173279,0.1658655554056168,0.4529548287391663,-0.4778233766555786,-0.8236004710197449,0.5513478517532349,0.1330336481332779,0,0,0,-1,63222.285518,3,2,1561240761.948433,1561239991.781823,76,5.095047,0,0,66.78877,0,0,1561240729.863841,63219.937635,0,-1.308105,74.42747,2650659446,177292352,1,1,0.31,-34.54066,-39.69756,3
1561240762.187348,20,0,0,1561240758.779081,4.603141158115376,-74.06474430536709,2651.532,-1,-1,10,65,-9999,1561240762.161001,-6.360305786132812,15.17823314666748,19.71337890625,60.90930938720703,68.45299530029297,15,63222.543208,-0.85272216796875,0.5556640625,0.148101806640625,63222.53207,0.2392871544724916,-0.1742269279901829,-0.1052385389000072,63222.517574,32.40228271484375,15.5235595703125,-513.408203125,63222.537105,-2.190369927527842,-1.731646883945799,-0.5827540596141645,0.2475768476724625,-0.1686832755804062,-0.1192046478390694,-0.0449988842010498,0.02142131328582764,0.01701772212982178,1,0.7337952852249146,0.1685419678688049,0.4516274034976959,-0.4787178933620453,-0.8241722583770752,0.5503255128860474,0.1337238252162933,0,0,0,-1,63222.285518,3,2,1561240761.948433,1561239991.781823,76,5.095047,0,0,66.78877,0,0,1561240729.863841,63219.937635,0,-1.308105,74.42747,2650659446,177292352,1,1,0.31,-33.56546,-40.30766,3
1561240762.207346,21,0,0,1561240758.779081,4.603141158115376,-74.06474430536709,2651.532,-1,-1,10,65,-9999,1561240762.187392,-6.332908630371094,15.22757816314697,19.58538818359375,60.48488616943359,68.02857208251953,15,63222.56344200001,-0.823974609375,0.5337982177734375,0.1450347900390625,63222.552303,0.279665470288055,-0.1509226705553355,-0.1727792336216158,63222.53771500001,32.72273254394531,15.49737548828125,-513.4898071289062,63222.557369,-2.183373359190516,-1.730979691148718,-0.5805094446472621,0.2790750861167908,-0.1453675627708435,-0.1935909986495972,-0.01113021373748779,-0.007342815399169922,0.01067233085632324,1,0.7329471707344055,0.171679213643074,0.4507570564746857,-0.4797216355800629,-0.8254786729812622,0.5484499931335449,0.1333706080913544,0,0,0,-1,63222.285518,3,2,1561240761.948433,1561239991.781823,76,5.095047,0,0,66.78877,0,0,1561240729.863841,63219.937635,0,-1.308105,74.42747,2650659446,177292352,1,1,0.31,-33.56546,-40.30766,3
1561240762.242146,22,0,0,1561240758.779081,4.603141158115376,-74.06474430536709,2651.532,-1,-1,10,65,-9999,1561240762.212389,-6.311080932617188,15.31493663787842,19.569580078125,59.96743774414062,67.51112365722656,15,63222.583705,-0.794952392578125,0.50408935546875,0.13922119140625,63222.572566,0.2708133891407407,-0.08783558012466641,-0.1970579416993231,63222.55785700001,32.62852478027344,15.70700073242188,-513.351806640625,63222.577632,-2.176124032135436,-1.72923930891135,-0.5774069712776729,0.25963294506073,-0.0930875837802887,-0.204080656170845,0.005120277404785156,-0.0208439826965332,0.01338255405426025,1,0.7317796349525452,0.1749267727136612,0.4504320025444031,-0.4806353747844696,-0.8273859024047852,0.5458531379699707,0.1322016268968582,0,0,0,-1,63222.285518,3,2,1561240761.948433,1561239991.781823,76,5.095047,0,0,66.78877,0,0,1561240729.863841,63219.937635,0,-1.308105,74.42747,2650659446,177292352,1,1,0.31,-33.56546,-38.67508,3
1561240762.247957,23,0,0,1561240758.779081,4.603141158115376,-74.06474430536709,2651.532,-1,-1,10,65,-9999,1561240762.238011,-6.235683441162109,15.7232666015625,19.47491455078125,59.48313903808594,67.02682495117188,15,63222.603969,-0.778961181640625,0.4984588623046875,0.1392669677734375,63222.59283,0.2255495043054269,-0.02746944137973131,-0.1568245018470601,63222.577998,32.40841674804688,15.92361450195312,-513.5715942382812,63222.59789600001,-2.169830818864965,-1.727082032457563,-0.5745586459925861,0.2104675471782684,-0.04466412588953972,-0.142366960644722,0.04027628898620605,-0.03549927473068237,0.01367497444152832,1,0.730598509311676,0.1776365488767624,0.4504229128360748,-0.4814460277557373,-0.8292014598846436,0.5434643626213074,0.1306578516960144,0,0,0,-1,63222.285518,3,2,1561240761.948433,1561239991.781823,76,5.095047,0,0,66.78877,0,0,1561240729.863841,63219.937635,0,-1.308105,74.42747,2650659446,177292352,1,1,0.31,-33.56546,-38.67508,3
1561240762.268226,24,0,0,1561240758.779081,4.603141158115376,-74.06474430536709,2651.532,-1,-1,10,65,-9999,1561240762.262498,-6.386062622070312,15.60445785522461,19.566650390625,59.10931396484375,66.65299987792969,15,63222.624233,-0.7633819580078125,0.4946441650390625,0.138275146484375,63222.613094,0.1918613154642515,-0.006869890347968403,-0.1173737650391713,63222.59814,32.20893859863281,15.91542053222656,-513.5642700195312,63222.61816000001,-2.164730593983667,-1.72492206405564,-0.5726298238425769,0.1819128692150116,0.001761431340128183,-0.1035583093762398,0.06612694263458252,-0.04535377025604248,0.006806612014770508,1,0.7295581698417664,0.1796064227819443,0.4504683613777161,-0.4822495877742767,-0.83051598072052,0.5418442487716675,0.1290271878242493,0,0,0,-1,63222.285518,3,2,1561240761.948433,1561239991.781823,76,5.095047,0,0,66.78877,0,0,1561240729.863841,63219.937635,0,-1.308105,74.42747,2650659446,177292352,1,1,0.31,-33.56546,-39.13213,3
1561240762.290499,25,0,0,1561240758.779081,4.603141158115376,-74.06474430536709,2651.532,-1,-1,10,65,-9999,1561240762.289093,-6.289299011230469,15.63290405273438,19.14068603515625,58.82759094238281,66.37127685546875,15,63222.644496,-0.7246856689453125,0.49993896484375,0.12506103515625,63222.63335700001,0.1492193127221208,0.0001587244009687226,-0.07212878864759709,63222.618282,32.37263488769531,16.09890747070312,-513.7271728515625,63222.638423,-2.160651253499728,-1.722663886955037,-0.5714113154191036,0.1301175951957703,-0.03006174601614475,-0.07696398347616196,0.08594340085983276,-0.05528503656387329,0.002006053924560547,1,0.7286180257797241,0.1809457689523697,0.4506145119667053,-0.4830331206321716,-0.8314573168754578,0.5408197045326233,0.1272511929273605,0,0,0,-1,63222.285518,3,2,1561240761.948433,1561239991.781823,76,5.095047,0,0,66.78877,0,0,1561240729.863841,63219.937635,0,-1.308105,74.42747,2650659446,177292352,1,1,0.31,-33.56546,-39.77056,3
1561240762.32106,26,0,0,1561240758.779081,4.603141158115376,-74.06474430536709,2651.532,-1,-1,10,65,-9999,1561240762.313361,-6.447849273681641,15.52729988098145,19.24151611328125,58.64219665527344,66.18588256835938,15,63222.66476000001,-0.7453155517578125,0.5134735107421875,0.125213623046875,63222.653621,0.1119710101357275,-0.04325399716063096,-0.01818353129084302,63222.638423,32.7763671875,15.89799499511719,-513.4554443359375,63222.658687,-2.157771291436161,-1.722014992222831,-0.5708717736588091,0.09965528547763824,-0.05372180044651031,0.004692527931183577,0.08945727348327637,-0.03246170282363892,4.506111145019531e-05,1,0.7281818389892578,0.1820137053728104,0.4502910971641541,-0.4835908114910126,-0.8318279385566711,0.5403658151626587,0.126755565404892,0,0,0,-1,63222.285518,3,2,1561240761.948433,1561239991.781823,76,5.095047,0,0,66.78877,0,0,1561240729.863841,63219.937635,0,-1.308105,74.42747,2650659446,177292352,1,1,0.31,-33.56546,-40.02768,3
1561240762.328982,27,0,0,1561240758.779081,4.603141158115376,-74.06474430536709,2651.532,-1,-1,10,65,-9999,1561240762.313361,-6.447849273681641,15.52729988098145,19.24151611328125,58.64219665527344,66.18588256835938,15,63222.68502400001,-0.7743072509765625,0.543182373046875,0.1174163818359375,63222.673885,0.110710802307902,-0.08018351936454174,0.04575763490141445,63222.65856500001,32.45774841308594,16.04278564453125,-513.797119140625,63222.678951,-2.155434904382989,-1.722301977966213,-0.5717924527173726,0.1148914992809296,-0.0760691910982132,0.04978889971971512,0.07298332452774048,-0.01150768995285034,-0.01342427730560303,1,0.7280827760696411,0.1826336234807968,0.4493883550167084,-0.484345406293869,-0.831299364566803,0.5411402583122253,0.1269191354513168,0,0,0,-1,63222.285518,3,2,1561240761.948433,1561239991.781823,76,5.095047,0,0,66.78877,0,0,1561240729.863841,63219.937635,0,-1.308105,74.42747,2650659446,177292352,1,1,0.31,-33.56546,-35.96522,3
1561240762.349655,28,0,0,1561240758.779081,4.603141158115376,-74.06474430536709,2651.532,-1,-1,10,65,-9999,1561240762.339341,-6.374492645263672,15.69008636474609,19.15374755859375,58.46941375732422,66.01309967041016,15,63222.705287,-0.7994842529296875,0.54791259765625,0.1196136474609375,63222.694148,0.1064055360896799,-0.03726108575962565,0.06066814121255008,63222.67870600001,32.50248718261719,16.21391296386719,-513.8922119140625,63222.699214,-2.153092594555215,-1.722129989931533,-0.5732137086096086,0.09813009202480316,-0.03389323502779007,0.05275832489132881,0.03914773464202881,0.002281844615936279,-0.00460505485534668,1,0.7279065251350403,0.1829812526702881,0.4485230147838593,-0.4852803647518158,-0.8305600881576538,0.5423348546028137,0.126660093665123,0,0,0,-1,63222.285518,3,2,1561240761.948433,1561239991.781823,76,5.095047,0,0,66.78877,0,0,1561240729.863841,63219.937635,0,-1.308105,74.42747,2650659446,177292352,1,1,0.31,-33.56546,-36.24986,3
1561240762.370283,29,0,0,1561240758.779081,4.603141158115376,-74.06474430536709,2651.532,-1,-1,10,65,-9999,1561240762.365201,-6.299530029296875,15.7281379699707,19.21832275390625,58.33963012695312,65.88331604003906,15,63222.725551,-0.82177734375,0.566558837890625,0.137969970703125,63222.714412,0.07100173887427555,-0.007656854450086818,0.0404624717060099,63222.69884800001,32.62928771972656,16.10125732421875,-513.9038696289062,63222.71947800001,-2.15138754957729,-1.721624657412212,-0.5742872332157811,0.05781462416052818,-0.0158282145857811,0.03846274316310883,0.01934844255447388,0.01525044441223145,0.001517415046691895,1,0.727695107460022,0.1831290274858475,0.4480203986167908,-0.4860054552555084,-0.8300479054450989,0.5432364940643311,0.1261528134346008,0,0,0,-1,63222.285518,3,2,1561240761.948433,1561239991.781823,76,5.095047,0,0,66.78877,0,0,1561240729.863841,63219.937635,0,-1.308105,74.42747,2650659446,177292352,1,1,0.31,-33.56546,-36.24986,3
1561240762.399175,30,0,0,1561240758.779081,4.603141158115376,-74.06474430536709,2651.532,-1,-1,10,65,-9999,1561240762.390814,-6.356193542480469,15.72325897216797,19.4208984375,58.28395843505859,65.82764434814453,15,63222.745815,-0.833343505859375,0.567840576171875,0.1504364013671875,63222.73467600001,0.03708771397266149,-0.03487702395178671,0.04376905251545228,63222.71899,32.6500244140625,16.19779968261719,-513.71826171875,63222.73974200001,-2.150552618106299,-1.721800484599111,-0.5752393609281613,0.02882957831025124,-0.0441269651055336,0.03906834498047829,0.001678943634033203,0.02497982978820801,0.0176694393157959,1,0.7277094125747681,0.183165118098259,0.4475114941596985,-0.4864391088485718,-0.8295140266418457,0.5440356731414795,0.1262208968400955,0,0,0,-1,63222.285518,3,2,1561240761.948433,1561239991.781823,76,5.095047,0,0,66.78877,0,0,1561240729.863841,63219.937635,0,-1.308105,74.42747,2650659446,177292352,1,1,0.31,-33.56546,-37.45366,3
1561240762.410492,31,0,0,1561240758.779081,4.603141158115376,-74.06474430536709,2651.532,-1,-1,10,65,-9999,1561240762.390814,-6.356193542480469,15.72325897216797,19.4208984375,58.28395843505859,65.82764434814453,15,63222.766078,-0.8515777587890625,0.566741943359375,0.155181884765625,63222.75493900001,0.02512133224660845,-0.05324591125449925,0.03481497229838786,63222.739131,32.61067199707031,16.49485778808594,-514.008544921875,63222.760005,-2.150145322751906,-1.722696949526534,-0.5760484735186299,0.01840010844171047,-0.05618948489427567,0.02340469695627689,-0.01246541738510132,0.01963198184967041,0.02752113342285156,1,0.7279161214828491,0.1832676827907562,0.4468804597854614,-0.4866713583469391,-0.8289652466773987,0.5447143912315369,0.1268978416919708,0,0,0,-1,63222.285518,3,2,1561240761.948433,1561239991.781823,76,5.095047,0,0,66.78877,0,0,1561240729.863841,63219.937635,0,-1.308105,74.42747,2650659446,177292352,1,1,0.31,-33.56546,-37.45366,3
1561240762.430225,32,0,0,1561240758.779081,4.603141158115376,-74.06474430536709,2651.532,-1,-1,10,65,-9999,1561240762.415261,-6.093074798583984,15.99710464477539,19.25628662109375,58.25283050537109,65.79651641845703,15,63222.78634200001,-0.8616485595703125,0.5636138916015625,0.1542205810546875,63222.775203,0.02729021063836898,-0.02483371084887989,-0.005753759535116194,63222.759273,32.59190368652344,16.42990112304688,-513.819580078125,63222.78023800001,-2.149644994918146,-1.72320389891026,-0.5762103880805642,0.02333308197557926,-0.01924238726496696,-0.01951640471816063,-0.02831840515136719,0.01935887336730957,0.02809083461761475,1,0.7279921770095825,0.1835203617811203,0.4465329349040985,-0.4867812693119049,-0.8288134932518005,0.5448501110076904,0.1273046731948853,0,0,0,-1,63222.285518,3,2,1561240761.948433,1561239991.781823,76,5.095047,0,0,66.78877,0,0,1561240729.863841,63219.937635,0,-1.308105,74.42747,2650659446,177292352,1,1,0.31,-33.56546,-37.73908,3
1561240762.450514,33,0,0,1561240758.779081,4.603141158115376,-74.06474430536709,2651.532,-1,-1,10,65,-9999,1561240762.440653,-6.030143737792969,16.14078521728516,19.2535400390625,58.20745849609375,65.75114440917969,15,63222.80660241667,-0.8525543212890625,0.56048583984375,0.1526947021484375,63222.795467,0.02112552534705356,0.01668896528709055,-0.04494563708504929,63222.779415,33.08439636230469,16.4349365234375,-513.667236328125,63222.80050200001,-2.14903336669425,-1.722861934268532,-0.5755517590537368,0.01355102472007275,0.01436270959675312,-0.04998509958386421,-0.03233009576797485,0.02213901281356812,0.02580225467681885,1,0.7278241515159607,0.1838743984699249,0.4466761946678162,-0.4867675602436066,-0.8292116522789001,0.5442977547645569,0.127075582742691,0,0,0,-1,63222.285518,3,2,1561240761.948433,1561239991.781823,76,5.095047,0,0,66.78877,0,0,1561240729.863841,63219.937635,0,-1.308105,74.42747,2650659446,177292352,1,1,0.31,-33.56546,-38.70926,3
1561240762.479894,34,0,0,1561240758.779081,4.603141158115376,-74.06474430536709,2651.532,-1,-1,10,65,-9999,1561240762.464907,-6.012054443359375,16.17635917663574,19.16485595703125,58.18689727783203,65.73058319091797,15,63222.82683541667,-0.82391357421875,0.5414581298828125,0.1441497802734375,63222.81572641667,0.001825863243358326,0.01124386612231454,-0.04280046082699046,63222.79955241667,32.88157653808594,16.44317626953125,-514.0335693359375,63222.82076241667,-2.148831862388723,-1.722601239223907,-0.5746796454087801,-0.004327308852225542,-0.002214135602116585,-0.0434102863073349,-0.008695900440216064,0.005857348442077637,0.02222347259521484,1,0.7277001738548279,0.1841684430837631,0.4469438791275024,-0.4865958988666534,-0.8297135233879089,0.5435659289360046,0.1269311159849167,0,0,0,-1,63222.285518,3,2,1561240761.948433,1561239991.781823,76,5.095047,0,0,66.78877,0,0,1561240729.863841,63219.937635,0,-1.308105,74.42747,2650659446,177292352,1,1,0.31,-33.56546,-36.07425,3
1561240762.491201,35,0,0,1561240758.779081,4.603141158115376,-74.06474430536709,2651.532,-1,-1,10,65,-9999,1561240762.464907,-6.012054443359375,16.17635917663574,19.16485595703125,58.18689727783203,65.73058319091797,15,63222.84709841667,-0.811279296875,0.524505615234375,0.1321258544921875,63222.83596041667,0.01837927363096385,-0.02187413992947483,-0.03849359671211432,63222.81969441667,32.75875854492188,16.74163818359375,-514.009521484375,63222.84102541667,-2.148536307117092,-1.722904455958724,-0.573894256466596,0.02669079415500164,-0.03756227344274521,-0.0424606017768383,0.01660513877868652,-0.01212954521179199,0.009944438934326172,1,0.727698028087616,0.1846057176589966,0.4469615817070007,-0.4864173233509064,-0.830096960067749,0.5429065227508545,0.1272473782300949,0,0,0,-1,63222.285518,3,2,1561240761.948433,1561239991.781823,76,5.095047,0,0,66.78877,0,0,1561240729.863841,63219.937635,0,-1.308105,74.42747,2650659446,177292352,1,1,0.31,-33.56546,-36.24081,3
1561240762.511241,36,0,0,1561240758.779081,4.603141158115376,-74.06474430536709,2651.532,-1,-1,10,65,-9999,1561240762.491228,-6.028739929199219,16.15252685546875,19.02056884765625,58.15365600585938,65.69734191894531,15,63222.86736241667,-0.822113037109375,0.5275115966796875,0.1292877197265625,63222.85622341667,0.0821148437870672,-0.05799406116200152,-0.04780720367633943,63222.83983541667,32.53346252441406,16.40193176269531,-513.8479614257812,63222.86128941667,-2.146986116109213,-1.723246769424826,-0.5731484040563448,0.09280163049697876,-0.07483240962028503,-0.05243067815899849,0.01534384489059448,-0.01806426048278809,0.000947117805480957,1,0.7275903820991516,0.1854958534240723,0.4466496706008911,-0.4865260422229767,-0.8304531574249268,0.5422800183296204,0.1275929510593414,0,0,0,-1,63222.285518,3,2,1561240761.948433,1561239991.781823,76,5.095047,0,0,66.78877,0,0,1561240729.863841,63219.937635,0,-1.308105,74.42747,2650659446,177292352,1,1,0.31,-33.56546,-37.22123,3
1561240762.561507,37,0,0,1561240758.779081,4.603141158115376,-74.06474430536709,2651.532,-1,-1,10,65,-9999,1561240762.542394,-6.159069061279297,15.98215293884277,19.289794921875,57.73673248291016,65.28041839599609,15,63222.88762641667,-0.8348541259765625,0.5368194580078125,0.1340179443359375,63222.87648741667,0.1345934983315146,-0.08597536210324606,-0.05584702069117964,63222.85997741667,32.67178344726562,16.1566162109375,-513.991455078125,63222.88155341667,-2.143940699652938,-1.723382484942745,-0.572377761585749,0.1437588334083557,-0.09324178099632263,-0.05867286026477814,2.259016036987305e-05,-0.008902251720428467,0.004600882530212402,1,0.7272947430610657,0.1868874281644821,0.4460553228855133,-0.4869804382324219,-0.8308484554290771,0.541632354259491,0.1277691125869751,0,0,0,-1,63222.285518,3,2,1561240761.948433,1561239991.781823,76,5.095047,0,0,66.78877,0,0,1561240729.863841,63219.937635,0,-1.308105,74.42747,2650659446,177292352,1,1,0.31,-33.56546,-37.38352,3
1561240762.566575,38,0,0,1561240758.779081,4.603141158115376,-74.06474430536709,2651.532,-1,-1,10,65,-9999,1561240762.542394,-6.159069061279297,15.98215293884277,19.289794921875,57.73673248291016,65.28041839599609,15,63222.90789041667,-0.835601806640625,0.537078857421875,0.1392669677734375,63222.89675141667,0.1670648888706328,-0.0935384732829621,-0.04355040698995678,63222.88011941667,32.8690185546875,16.56321716308594,-513.6343383789062,63222.90181741667,-2.140056371992622,-1.723297277952039,-0.5718425516477348,0.1713944524526596,-0.1010688096284866,-0.04089013487100601,-0.005585074424743652,-0.003966212272644043,0.008030414581298828,1,0.7268814444541931,0.1884530335664749,0.4452764093875885,-0.4877066016197205,-0.8311458826065063,0.5411823987960815,0.1277423650026321,0,0,0,-1,63222.285518,3,2,1561240761.948433,1561239991.781823,76,5.095047,0,0,66.78877,0,0,1561240729.863841,63219.937635,0,-1.308105,74.42747,2650659446,177292352,1,1,0.31,-33.56546,-37.38352,3
1561240762.572015,39,0,0,1561240758.779081,4.603141158115376,-74.06474430536709,2651.532,-1,-1,10,65,-9999,1561240762.542394,-6.159069061279297,15.98215293884277,19.289794921875,57.73673248291016,65.28041839599609,15,63222.92815341667,-0.8290252685546875,0.5342864990234375,0.141815185546875,63222.91701441667,0.2017267294063411,-0.1093802870272984,-0.02237694474328179,63222.90026041667,32.77047729492188,16.28280639648438,-513.7894287109375,63222.92208041667,-2.135462182334868,-1.72307680143794,-0.5718272767829882,0.2060514986515045,-0.1191934794187546,-0.02030709758400917,-0.001764655113220215,-0.005036711692810059,0.01625370979309082,1,0.7263967990875244,0.1900733113288879,0.4442388713359833,-0.4887448847293854,-0.8311821222305298,0.5411695241928101,0.1275603473186493,0,0,0,-1,63222.285518,3,2,1561240761.948433,1561239991.781823,76,5.095047,0,0,66.78877,0,0,1561240729.863841,63219.937635,0,-1.308105,74.42747,2650659446,177292352,1,1,0.31,-33.56546,-37.38352,3
1561240762.592398,40,0,0,1561240758.779081,4.603141158115376,-74.06474430536709,2651.532,-1,-1,10,65,-9999,1561240762.576181,-5.945468902587891,15.74891662597656,19.25445556640625,57.41440582275391,64.95809173583984,15,63222.94841741667,-0.827362060546875,0.537994384765625,0.135040283203125,63222.93727841667,0.2200476798094322,-0.133967921791455,-0.02107865371186816,63222.92037141667,32.70951843261719,16.384521484375,-513.7794189453125,63222.94234441667,-2.130306123968215,-1.723023869622614,-0.5720083709358127,0.2187310755252838,-0.1479870527982712,-0.02699056640267372,0.00400465726852417,-0.005906164646148682,0.01188755035400391,1,0.7259030938148499,0.1918735206127167,0.4429501593112946,-0.4899432361125946,-0.8310920596122742,0.5413218140602112,0.1275015026330948,0,0,0,-1,63222.285518,3,2,1561240761.948433,1561239991.781823,76,5.095047,0,0,66.78877,0,0,1561240729.863841,63219.937635,0,-1.308105,74.42747,2650659446,177292352,1,1,0.31,-33.56546,-38.40812,3
1561240762.629292,41,0,0,1561240758.779081,4.603141158115376,-74.06474430536709,2651.532,-1,-1,10,65,-9999,1561240762.616944,-5.931735992431641,16.15372085571289,19.0711669921875,56.67427062988281,64.21795654296875,15,63222.96868141667,-0.8224945068359375,0.5338592529296875,0.127899169921875,63222.95754241667,0.2152238961269717,-0.1613031398522463,-0.04331631513013881,63222.94051341667,32.91520690917969,16.35162353515625,-513.9609985351562,63222.96260841667,-2.125077281859693,-1.723486259831183,-0.5718655901547121,0.2056895792484283,-0.1759923100471497,-0.05469197034835815,0.004586637020111084,-0.004870593547821045,0.00209200382232666,1,0.7254927158355713,0.1939306259155273,0.4415367841720581,-0.4910157918930054,-0.8311094641685486,0.5412017703056335,0.1278975307941437,0,0,0,-1,63222.285518,3,2,1561240761.948433,1561239991.781823,76,5.095047,0,0,66.78877,0,0,1561240729.863841,63219.937635,0,-1.308105,74.42747,2650659446,177292352,1,1,0.31,-33.56546,-39.45877,3
1561240762.63296,42,0,0,1561240758.779081,4.603141158115376,-74.06474430536709,2651.532,-1,-1,10,65,-9999,1561240762.616944,-5.931735992431641,16.15372085571289,19.0711669921875,56.67427062988281,64.21795654296875,15,63222.98894441667,-0.8304901123046875,0.5422210693359375,0.1348419189453125,63222.97780541667,0.1966347654021096,-0.1964603283507094,-0.05604356197962749,63222.96065441667,32.89151000976562,16.5762939453125,-513.852783203125,63222.98287141667,-2.120165886969623,-1.724743907467169,-0.5712769505964366,0.1930957585573196,-0.2134877592325211,-0.06041377037763596,0.006006121635437012,-0.000469207763671875,0.002188324928283691,1,0.7252562046051025,0.1962120831012726,0.4400255382061005,-0.4918147027492523,-0.831262469291687,0.5407066941261292,0.1289914846420288,0,0,0,-1,63222.285518,3,2,1561240761.948433,1561239991.781823,76,5.095047,0,0,66.78877,0,0,1561240729.863841,63219.937635,0,-1.308105,74.42747,2650659446,177292352,1,1,0.31,-33.56546,-39.45877,3
1561240762.653162,43,0,0,1561240758.779081,4.603141158115376,-74.06474430536709,2651.532,-1,-1,10,65,-9999,1561240762.643201,-5.960308074951172,16.29215431213379,18.970947265625,56.31867218017578,63.86235809326172,15,63223.00920841667,-0.83319091796875,0.537628173828125,0.1417999267578125,63222.99806941667,0.2195739034515071,-0.2262752157024735,-0.05365177700462732,63222.98079641667,33.00152587890625,16.543212890625,-514.0590209960938,63223.00313541667,-2.115014784078416,-1.726590082366159,-0.5707553768173141,0.2284071445465088,-0.2369779050350189,-0.05755273625254631,-0.0006230473518371582,-0.0006407499313354492,0.008682131767272949,1,0.7251219153404236,0.1987033933401108,0.4382231533527374,-0.4926210939884186,-0.8313013911247253,0.5402678251266479,0.1305696666240692,0,0,0,-1,63222.285518,3,2,1561240761.948433,1561239991.781823,76,5.095047,0,0,66.78877,0,0,1561240729.863841,63219.937635,0,-1.308105,74.42747,2650659446,177292352,1,1,0.31,-33.56546,-39.85097,3
1561240762.673399,44,0,0,1561240758.779081,4.603141158115376,-74.06474430536709,2651.532,-1,-1,10,65,-9999,1561240762.667609,-6.150653839111328,16.29848480224609,19.04315185546875,55.88748168945312,63.43116760253906,15,63223.02947241667,-0.828369140625,0.5310821533203125,0.143768310546875,63223.01833341667,0.2634976856262929,-0.2705193761563959,-0.06977322266342199,63223.00093841667,32.78395080566406,16.55799865722656,-513.858642578125,63223.02339941667,-2.108851855800556,-1.728608689195157,-0.5702191951467258,0.2644977569580078,-0.288303405046463,-0.08015045523643494,0.001396715641021729,-0.006186187267303467,0.009857773780822754,1,0.724914014339447,0.2016089558601379,0.4361108839511871,-0.4936201274394989,-0.8313222527503967,0.5398165583610535,0.1322930008172989,0,0,0,-1,63222.285518,3,2,1561240761.948433,1561239991.781823,76,5.095047,0,0,66.78877,0,0,1561240729.863841,63219.937635,0,-1.308105,74.42747,2650659446,177292352,1,1,0.31,-33.56546,-39.85097,3
1561240762.722172,45,0,0,1561240758.779081,4.603141158115376,-74.06474430536709,2651.532,-1,-1,10,65,-9999,1561240762.69408,-5.909786224365234,16.41373252868652,18.9207763671875,55.39897918701172,62.94266510009766,15,63223.04973541667,-0.8328857421875,0.52947998046875,0.158233642578125,63223.03859641667,0.2836753919413873,-0.2661853477984009,-0.1022342268742888,63223.02107941667,32.58998107910156,16.76481628417969,-514.1759033203125,63223.04363241667,-2.101983760267583,-1.730620298742251,-0.5692451988193151,0.2662543654441833,-0.250945657491684,-0.116185687482357,-0.001831412315368652,-0.01323962211608887,0.01467883586883545,1,0.7245938777923584,0.2049098163843155,0.4339383244514465,-0.4946445822715759,-0.8315731883049011,0.5389963984489441,0.1340486407279968,0,0,0,-1,63222.285518,3,2,1561240761.948433,1561239991.781823,76,5.095047,0,0,66.78877,0,0,1561240729.863841,63219.937635,0,-1.308105,74.42747,2650659446,177292352,1,1,0.31,-33.56546,-39.99168,3
1561240762.72551,46,0,0,1561240758.779081,4.603141158115376,-74.06474430536709,2651.532,-1,-1,10,65,-9999,1561240762.718207,-5.647293090820312,16.41164779663086,18.77093505859375,55.01244354248047,62.55613327026367,15,63223.06999941667,-0.8469390869140625,0.5280609130859375,0.15216064453125,63223.05886041667,0.2243074059730139,-0.2192202356587445,-0.100760966159257,63223.04122141667,32.97756958007812,16.73223876953125,-514.2871704101562,63223.06389541667,-2.095968846572719,-1.732136986047629,-0.5678755687616747,0.2033734321594238,-0.2020321786403656,-0.09697844088077545,-0.00689244270324707,-0.002319812774658203,0.01360440254211426,1,0.7242162227630615,0.2079061269760132,0.4322574436664581,-0.4954184889793396,-0.8320967555046082,0.5378422737121582,0.1354281902313232,0,0,0,-1,63222.285518,3,2,1561240761.948433,1561239991.781823,76,5.095047,0,0,66.78877,0,0,1561240729.863841,63219.937635,0,-1.308105,74.42747,2650659446,177292352,1,1,0.31,-33.56546,-39.99168,3
1561240762.734307,47,0,0,1561240758.779081,4.603141158115376,-74.06474430536709,2651.532,-1,-1,10,65,-9999,1561240762.718207,-5.647293090820312,16.41164779663086,18.77093505859375,55.01244354248047,62.55613327026367,15,63223.09023241667,-0.8439178466796875,0.5296630859375,0.1488189697265625,63223.07912441667,0.1553943843416875,-0.1365874070396569,-0.07788201555049526,63223.06136241667,33.15841674804688,16.80604553222656,-513.9882202148438,63223.08415941667,-2.091640870568088,-1.733167954881875,-0.5667619878800623,0.1303775161504745,-0.1390875577926636,-0.07501854747533798,-0.01318651437759399,-0.01050543785095215,0.01683080196380615,1,0.7239161133766174,0.2100876271724701,0.4311026334762573,-0.4959426820278168,-0.832547128200531,0.5369031429290771,0.1363826990127563,0,0,0,-1,63222.285518,3,2,1561240761.948433,1561239991.781823,76,5.095047,0,0,66.78877,0,0,1561240729.863841,63219.937635,0,-1.308105,74.42747,2650659446,177292352,1,1,0.31,-33.56546,-39.99168,3
1561240762.754878,48,0,0,1561240758.779081,4.603141158115376,-74.06474430536709,2651.532,-1,-1,10,65,-9999,1561240762.744549,-5.577255249023438,16.62138175964355,18.7523193359375,54.78153991699219,62.32522583007812,15,63223.11049641667,-0.829864501953125,0.5424041748046875,0.14654541015625,63223.09935741667,0.09410066658907781,-0.1066699879859248,-0.0665297587718145,63223.08150441667,33.12930297851562,17.0762939453125,-514.2515869140625,63223.10442341667,-2.088958343551429,-1.734228312598777,-0.5656554433115335,0.08959199488162994,-0.1265486031770706,-0.0766097828745842,-0.01457703113555908,-0.002415180206298828,0.008023738861083984,1,0.7237910032272339,0.2116780132055283,0.4303432703018188,-0.4961084723472595,-0.8329876661300659,0.5359692573547363,0.1373619884252548,0,0,0,-1,63222.285518,3,2,1561240761.948433,1561239991.781823,76,5.095047,0,0,66.78877,0,0,1561240729.863841,63219.937635,0,-1.308105,74.42747,2650659446,177292352,1,1,0.31,-33.56546,-40.7005,3
1561240762.801907,49,0,0,1561240758.779081,4.603141158115376,-74.06474430536709,2651.532,-1,-1,10,65,-9999,1561240762.79549,-5.486301422119141,16.92212104797363,18.6480712890625,54.25522613525391,61.79891586303711,15,63223.13075941667,-0.8154144287109375,0.5363006591796875,0.1531524658203125,63223.11962041667,0.1350297241180696,-0.1853669308299843,-0.08310074602261454,63223.10164641667,33.32797241210938,16.9686279296875,-514.4505615234375,63223.12468641667,-2.085928968700753,-1.736077384037196,-0.5643767943297808,0.149664118885994,-0.1985367685556412,-0.09114691615104675,0.01439201831817627,0.004356205463409424,0.006249070167541504,1,0.7237840294837952,0.2136445641517639,0.429257720708847,-0.4962160587310791,-0.8334075212478638,0.5348893404006958,0.1390146464109421,0,0,0,-1,63222.285518,3,2,1561240761.948433,1561239991.781823,76,5.095047,0,0,66.78877,0,0,1561240729.863841,63219.937635,0,-1.308105,74.42747,2650659446,177292352,1,1,0.31,-33.56546,-41.11652,3
1561240762.80529,50,0,0,1561240758.779081,4.603141158115376,-74.06474430536709,2651.532,-1,-1,10,65,-9999,1561240762.79549,-5.486301422119141,16.92212104797363,18.6480712890625,54.25522613525391,61.79891586303711,15,63223.15102341667,-0.8137359619140625,0.54547119140625,0.14642333984375,63223.13988441667,0.1800065201878728,-0.1860178074003997,-0.1154019605680766,63223.12178741667,33.57798767089844,17.36050415039062,-514.3982543945312,63223.14495041667,-2.081526094985431,-1.737719485162967,-0.5627076699944679,0.1724943369626999,-0.1876250058412552,-0.1203527376055717,0.01984870433807373,0.007262647151947021,0.01286542415618896,1,0.7235544323921204,0.2161818295717239,0.4280091822147369,-0.496530681848526,-0.8340576887130737,0.533478319644928,0.1405311971902847,0,0,0,-1,63222.285518,3,2,1561240761.948433,1561239991.781823,76,5.095047,0,0,66.78877,0,0,1561240729.863841,63219.937635,0,-1.308105,74.42747,2650659446,177292352,1,1,0.31,-33.56546,-41.11652,3
1561240762.815803,51,0,0,1561240758.779081,4.603141158115376,-74.06474430536709,2651.532,-1,-1,10,65,-9999,1561240762.79549,-5.486301422119141,16.92212104797363,18.6480712890625,54.25522613525391,61.79891586303711,15,63223.17128741667,-0.81634521484375,0.552825927734375,0.1442108154296875,63223.16014841667,0.1374321617374301,-0.1509849885248433,-0.1004512405244808,63223.14192941667,33.46914672851562,17.44819641113281,-514.43994140625,63223.16521441667,-2.077594801550075,-1.73906796902027,-0.5610190768035844,0.1129692196846008,-0.1611260175704956,-0.09364788979291916,0.01665407419204712,0.01447474956512451,0.002618074417114258,1,0.7233045101165771,0.2184806317090988,0.4269891083240509,-0.496766597032547,-0.8347540497779846,0.5320493578910828,0.1418064087629318,0,0,0,-1,63222.285518,3,2,1561240761.948433,1561239991.781823,76,5.095047,0,0,66.78877,0,0,1561240729.863841,63219.937635,0,-1.308105,74.42747,2650659446,177292352,1,1,0.31,-33.56546,-41.16295,3
1561240762.835448,52,0,0,1561240758.779081,4.603141158115376,-74.06474430536709,2651.532,-1,-1,10,65,-9999,1561240762.819509,-5.275852203369141,16.98559761047363,18.77294921875,54.02079010009766,61.56447601318359,15,63223.19155041667,-0.8275909423828125,0.5676422119140625,0.146209716796875,63223.18041141667,0.05490346271696456,-0.1309209991882954,-0.04518079420930329,63223.16207041667,33.38003540039062,17.33372497558594,-514.4011840820312,63223.18547741667,-2.075656878665254,-1.740997361223842,-0.5599575497620619,0.03258809819817543,-0.1402678787708282,-0.04010157287120819,0.01109099388122559,0.026466965675354,0.0004849433898925781,1,0.723433256149292,0.2200010716915131,0.4260894656181335,-0.4966805875301361,-0.8350350856781006,0.531150221824646,0.1435122936964035,0,0,0,-1,63222.285518,3,2,1561240761.948433,1561239991.781823,76,5.095047,0,0,66.78877,0,0,1561240729.863841,63219.937635,0,-1.308105,74.42747,2650659446,177292352,1,1,0.31,-33.56546,-41.16295,3
1561240762.876966,53,0,0,1561240758.779081,4.603141158115376,-74.06474430536709,2651.532,-1,-1,10,65,-9999,1561240762.870169,-5.085235595703125,16.78896522521973,18.78961181640625,53.90145111083984,61.44514083862305,15,63223.21181441667,-0.830474853515625,0.563140869140625,0.156402587890625,63223.20067541667,0.02422118379816166,-0.1498243829217868,-0.02088584084894643,63223.18221241667,33.74041748046875,17.16801452636719,-514.5653076171875,63223.20574141667,-2.075020758366162,-1.743732543323236,-0.5594998429807282,0.02063745446503162,-0.1476141363382339,-0.02781819179654121,0.007242083549499512,0.03723078966140747,0.001028299331665039,1,0.7239148020744324,0.2210568487644196,0.4250624179840088,-0.4963901042938232,-0.8348788022994995,0.5307623744010925,0.1458375453948975,0,0,0,-1,63222.285518,3,2,1561240761.948433,1561239991.781823,76,5.095047,0,0,66.78877,0,0,1561240729.863841,63219.937635,0,-1.308105,74.42747,2650659446,177292352,1,1,0.31,-33.56546,-36.94821,3
1561240762.880622,54,0,0,1561240758.779081,4.603141158115376,-74.06474430536709,2651.532,-1,-1,10,65,-9999,1561240762.870169,-5.085235595703125,16.78896522521973,18.78961181640625,53.90145111083984,61.44514083862305,15,63223.23207841667,-0.8086090087890625,0.5643463134765625,0.1501617431640625,63223.22093941667,0.03000343915694171,-0.1310874467564253,-0.04884290702427124,63223.20232341667,33.61546325683594,17.52490234375,-514.2706909179688,63223.22600541667,-2.074310111646432,-1.746186128210135,-0.5587890467725312,0.02461595088243484,-0.1283677369356155,-0.06181424111127853,0.01611840724945068,0.03691780567169189,0.006803274154663086,1,0.7243099808692932,0.2221502214670181,0.4241850972175598,-0.4960758984088898,-0.8348897695541382,0.5301598310470581,0.1479513347148895,0,0,0,-1,63222.285518,3,2,1561240761.948433,1561239991.781823,76,5.095047,0,0,66.78877,0,0,1561240729.863841,63219.937635,0,-1.308105,74.42747,2650659446,177292352,1,1,0.31,-33.56546,-36.94821,3
1561240762.896591,55,0,0,1561240758.779081,4.603141158115376,-74.06474430536709,2651.532,-1,-1,10,65,-9999,1561240762.870169,-5.085235595703125,16.78896522521973,18.78961181640625,53.90145111083984,61.44514083862305,15,63223.25234141667,-0.8057861328125,0.5677947998046875,0.151885986328125,63223.24120241667,-0.003464239945975073,-0.055758071110771,-0.06156642544823381,63223.22246541667,33.74122619628906,17.31257629394531,-514.2550048828125,63223.24626841667,-2.073948969096357,-1.747652992861716,-0.5576197506283473,-0.02015924267470837,-0.05188227444887161,-0.05952845141291618,0.0303194522857666,0.03588020801544189,0.005424022674560547,1,0.7245034575462341,0.2230182886123657,0.4238725304603577,-0.4956709742546082,-0.8352816104888916,0.5291680097579956,0.149284839630127,0,0,0,-1,63222.285518,3,2,1561240761.948433,1561239991.781823,76,5.095047,0,0,66.78877,0,0,1561240729.863841,63219.937635,0,-1.308105,74.42747,2650659446,177292352,1,1,0.31,-33.56546,-37.88976,3
1561240762.916544,56,0,0,1561240758.779081,4.603141158115376,-74.06474430536709,2651.532,-1,-1,10,65,-9999,1561240762.896632,-5.139942169189453,16.68008804321289,18.6915283203125,53.88634490966797,61.43003082275391,15,63223.27260541667,-0.8088836669921875,0.5637664794921875,0.1593017578125,63223.26146641667,-0.06213820613427382,-0.01224894311771045,-0.03301946909145644,63223.24260641667,33.66946411132812,17.36532592773438,-514.4102172851562,63223.26653241667,-2.074948344489813,-1.748716920247959,-0.5566683635064598,-0.07838500291109085,0.002872316632419825,-0.03266115114092827,0.02909868955612183,0.03966319561004639,0.002996921539306641,1,0.7247775793075562,0.2232233732938766,0.4239851832389832,-0.4950810670852661,-0.8356172442436218,0.5283604860305786,0.1502624303102493,0,0,0,-1,63222.285518,3,2,1561240761.948433,1561239991.781823,76,5.095047,0,0,66.78877,0,0,1561240729.863841,63219.937635,0,-1.308105,74.42747,2650659446,177292352,1,1,0.31,-33.56546,-38.47446,3
1561240762.962886,57,0,0,1561240758.779081,4.603141158115376,-74.06474430536709,2651.532,-1,-1,10,65,-9999,1561240762.947179,-5.280780792236328,16.63658142089844,18.6771240234375,54.19076538085938,61.73445510864258,15,63223.29286941667,-0.807464599609375,0.5619049072265625,0.1634063720703125,63223.28173041667,-0.1152746614679708,0.04416373298900202,-0.03890691931329462,63223.26274841667,33.80160522460938,17.05316162109375,-514.3082275390625,63223.28679641667,-2.077308417766849,-1.749337522294868,-0.5556395491042357,-0.1277227252721786,0.05050588026642799,-0.05488070100545883,0.03164547681808472,0.03890424966812134,0.01156759262084961,1,0.7251046299934387,0.2228497117757797,0.4246146976947784,-0.4942302405834198,-0.8360583186149597,0.5274867415428162,0.1508774310350418,0,0,0,-1,63222.285518,3,2,1561240761.948433,1561239991.781823,76,5.095047,0,0,66.78877,0,0,1561240729.863841,63219.937635,0,-1.308105,74.42747,2650659446,177292352,1,1,0.31,-33.56546,-39.67255,3
1561240762.966251,58,0,0,1561240758.779081,4.603141158115376,-74.06474430536709,2651.532,-1,-1,10,65,-9999,1561240762.947179,-5.280780792236328,16.63658142089844,18.6771240234375,54.19076538085938,61.73445510864258,15,63223.31313241667,-0.8164825439453125,0.5708160400390625,0.1995697021484375,63223.30199441667,-0.136419894207091,0.159411496529963,-0.1186928287270875,63223.28289041667,33.63790893554688,17.11585998535156,-514.3541870117188,63223.30702941667,-2.080110268700481,-1.748464323860673,-0.5533013693497634,-0.1474716663360596,0.2001054883003235,-0.1429304033517838,0.0267784595489502,0.03745889663696289,0.03034484386444092,1,0.7250768542289734,0.2223646342754364,0.4262370765209198,-0.4930918514728546,-0.8374016284942627,0.5254988670349121,0.150364950299263,0,0,0,-1,63222.285518,3,2,1561240761.948433,1561239991.781823,76,5.095047,0,0,66.78877,0,0,1561240729.863841,63219.937635,0,-1.308105,74.42747,2650659446,177292352,1,1,0.31,-33.56546,-39.67255,3
1561240762.977288,59,0,0,1561240758.779081,4.603141158115376,-74.06474430536709,2651.532,-1,-1,10,65,-9999,1561240762.971476,-5.375953674316406,16.69414901733398,18.62469482421875,54.41477203369141,61.95845794677734,15,63223.33339641667,-0.830841064453125,0.5791778564453125,0.215789794921875,63223.32225741667,-0.1732290415297301,0.3632197526443101,-0.1735643335109711,63223.32317341667,33.1678466796875,17.10797119140625,-514.0582885742188,63223.32729341667,-2.083316119030723,-1.744003575785725,-0.5495570360996476,-0.1894633173942566,0.4030418395996094,-0.1780955791473389,0.01594531536102295,0.05500674247741699,0.06340682506561279,1,0.7242299914360046,0.2213006019592285,0.429623007774353,-0.4918749630451202,-0.8399961590766907,0.5223095417022705,0.1469660699367523,0,0,0,-1,63222.285518,3,2,1561240761.948433,1561239991.781823,76,5.095047,0,0,66.78877,0,0,1561240729.863841,63220.886849,0,-1.334473,74.42771,2650659446,177292352,1,1,0.31,-33.56546,-40.34118,3
1561240762.997655,60,0,0,1561240758.779081,4.603141158115376,-74.06474430536709,2651.532,-1,-1,10,65,-9999,1561240762.971476,-5.375953674316406,16.69414901733398,18.62469482421875,54.41477203369141,61.95845794677734,15,63223.35366041667,-0.8505859375,0.568084716796875,0.20233154296875,63223.34252141667,-0.2459463887782347,0.5323957293110486,-0.1591710130835289,63223.34331441667,33.10195922851562,17.00410461425781,-514.245361328125,63223.34755641667,-2.087978265391175,-1.73660123790303,-0.5455881056772446,-0.2722274363040924,0.5668429732322693,-0.1394344717264175,0.01003026962280273,0.0555419921875,0.07299554347991943,1,0.7228779196739197,0.2190664857625961,0.434480756521225,-0.4905954599380493,-0.8430991172790527,0.5189208984375,0.141085222363472,0,0,0,-1,63222.285518,3,2,1561240761.948433,1561239991.781823,76,5.095047,0,0,66.78877,0,0,1561240729.863841,63220.886849,0,-1.334473,74.42771,2650659446,177292352,1,1,0.31,-33.56546,-40.34118,3
1561240763.03876,61,0,0,1561240758.779081,4.603141158115376,-74.06474430536709,2651.532,-1,-1,10,65,-9999,1561240763.022105,-6.133434295654297,16.22310447692871,18.82879638671875,55.35446166992188,62.89814758300781,15,63223.37389341667,-0.85528564453125,0.5330810546875,0.1680145263671875,63223.36275441667,-0.3429363188339395,0.6342762883925749,-0.05987798131712357,63223.36345641667,32.79261779785156,16.80683898925781,-514.0704345703125,63223.36782041667,-2.095196741271746,-1.728004270014897,-0.5429103940606649,-0.3706027567386627,0.6520026326179504,-0.04887846857309341,-0.01212263107299805,0.03215229511260986,0.05219972133636475,1,0.7216005921363831,0.2152141183614731,0.4400476217269897,-0.4892173111438751,-0.8456501960754395,0.5166300535202026,0.1340490579605103,0,0,0,-1,63222.285518,3,2,1561240761.948433,1561239991.781823,76,5.095047,0,0,66.78877,0,0,1561240729.863841,63220.886849,0,-1.334473,74.42771,2650659446,177292352,1,1,0.31,-33.56546,-41.62427,3
1561240763.042189,62,0,0,1561240758.779081,4.603141158115376,-74.06474430536709,2651.532,-1,-1,10,65,-9999,1561240763.022105,-6.133434295654297,16.22310447692871,18.82879638671875,55.35446166992188,62.89814758300781,15,63223.39415741667,-0.85595703125,0.513275146484375,0.1199798583984375,63223.38301841667,-0.4225312795975738,0.7156885902840792,-0.01734649976023112,63223.38359841667,32.43458557128906,16.76841735839844,-514.3173828125,63223.38808441667,-2.10475326000311,-1.719031823667867,-0.5412068211996808,-0.4446876347064972,0.7167899012565613,-0.01877862587571144,-0.02270388603210449,0.009365439414978027,0.02096641063690186,1,0.7205134034156799,0.2101271897554398,0.4460548758506775,-0.4875878989696503,-0.8476879596710205,0.515170693397522,0.1265860050916672,0,0,0,-1,63222.285518,3,2,1561240761.948433,1561239991.781823,76,5.095047,0,0,66.78877,0,0,1561240729.863841,63220.886849,0,-1.334473,74.42771,2650659446,177292352,1,1,0.31,-33.56546,-41.62427,3
1561240763.05839,63,0,0,1561240758.779081,4.603141158115376,-74.06474430536709,2651.532,-1,-1,10,65,-9999,1561240763.048727,-6.418468475341797,16.13285064697266,18.82232666015625,56.09848785400391,63.64217376708984,15,63223.41442041667,-0.8343505859375,0.5084075927734375,0.0964202880859375,63223.40328141667,-0.4543110472015983,0.6384718323738857,-0.0600771857666615,63223.40373941667,32.32723999023438,16.35990905761719,-514.2606201171875,63223.40834741667,-2.115385759182474,-1.711246324246939,-0.5391147126013389,-0.441831648349762,0.6176366806030273,-0.0657687708735466,0.01896369457244873,-0.005289316177368164,-0.01994407176971436,1,0.7197274565696716,0.2050828635692596,0.4519794881343842,-0.48543581366539,-0.8497132062911987,0.5133764743804932,0.1201331838965416,0,0,0,-1,63222.285518,3,2,1561240761.948433,1561239991.781823,76,5.095047,0,0,66.78877,0,0,1561240729.863841,63220.886849,0,-1.334473,74.42771,2650659446,177292352,1,1,0.31,-33.56546,-34.56194,3
1561240763.078747,64,0,0,1561240758.779081,4.603141158115376,-74.06474430536709,2651.532,-1,-1,10,65,-9999,1561240763.073063,-6.686798095703125,15.83328056335449,18.86993408203125,56.79090118408203,64.33458709716797,15,63223.43468441667,-0.814605712890625,0.496490478515625,0.074188232421875,63223.42354541667,-0.3862145507604902,0.5716531206237977,-0.06817852180268255,63223.42388141667,32.08676147460938,16.21031188964844,-513.977294921875,63223.42861141667,-2.124845291719137,-1.704465749851218,-0.5367165150478094,-0.3677598237991333,0.5067415833473206,-0.06886442750692368,0.01960331201553345,-0.01140844821929932,-0.0141756534576416,1,0.7189842462539673,0.2008183300495148,0.4573180079460144,-0.4833156168460846,-0.8517261743545532,0.5113169550895691,0.1145326942205429,0,0,0,-1,63222.285518,3,2,1561240761.948433,1561239991.781823,76,5.095047,0,0,66.78877,0,0,1561240729.863841,63220.886849,0,-1.334473,74.42771,2650659446,177292352,1,1,0.31,-33.56546,-34.88849,3
1561240763.117282,65,0,0,1561240758.779081,4.603141158115376,-74.06474430536709,2651.532,-1,-1,10,65,-9999,1561240763.099608,-7.055402755737305,15.65800666809082,18.7171630859375,57.25021362304688,64.79389953613281,15,63223.45494841667,-0.8124542236328125,0.49066162109375,0.0691070556640625,63223.44380941667,-0.2523478290904582,0.3108753214188026,-0.02751657933102571,63223.44402241667,31.74134826660156,16.15933227539062,-514.0407104492188,63223.44887541667,-2.131750737183955,-1.700702766077575,-0.5351307612789072,-0.2184464931488037,0.2443501800298691,-0.01427468657493591,0.03778374195098877,-0.01279163360595703,-0.05393671989440918,1,0.7187025547027588,0.1979457437992096,0.4607364535331726,-0.4816701710224152,-0.8529540300369263,0.509953498840332,0.1114317625761032,0,0,0,-1,63222.285518,3,2,1561240761.948433,1561239991.781823,76,5.095047,0,0,66.78877,0,0,1561240729.863841,63220.886849,0,-1.334473,74.42771,2650659446,177292352,1,1,0.31,-34.12274,-36.55663,3
1561240763.119893,66,0,0,1561240758.779081,4.603141158115376,-74.06474430536709,2651.532,-1,-1,10,65,-9999,1561240763.099608,-7.055402755737305,15.65800666809082,18.7171630859375,57.25021362304688,64.79389953613281,15,63223.47521141667,-0.8198089599609375,0.48980712890625,0.0597991943359375,63223.46407241667,-0.1007993156789541,0.06379655654506616,0.05492237116070413,63223.46416441667,31.65145874023438,15.88223266601562,-514.0078125,63223.46913841667,-2.13521954078455,-1.700154924244889,-0.5353683851542697,-0.06265157461166382,-0.00207983166910708,0.07340243458747864,0.03354346752166748,-0.01876384019851685,-0.04155182838439941,1,0.7189341187477112,0.1964895278215408,0.4617083668708801,-0.4809895753860474,-0.8528946042060852,0.5101579427719116,0.1109488010406494,0,0,0,-1,63222.285518,3,2,1561240761.948433,1561239991.781823,76,5.095047,0,0,66.78877,0,0,1561240729.863841,63220.886849,0,-1.334473,74.42771,2650659446,177292352,1,1,0.31,-34.12274,-36.55663,3
1561240763.139383,67,0,0,1561240758.779081,4.603141158115376,-74.06474430536709,2651.532,-1,-1,10,65,-9999,1561240763.123375,-7.067111968994141,15.47336483001709,19.0025634765625,57.40699005126953,64.95067596435547,15,63223.49547541667,-0.8340606689453125,0.476226806640625,0.0545654296875,63223.48433641667,0.04424123097672333,-0.1069621367575065,0.1171212973678318,63223.48430641667,31.94523620605469,16.10874938964844,-514.3297119140625,63223.48940241667,-2.135380296934991,-1.701820681383249,-0.5374453694984503,0.06838979572057724,-0.1233007982373238,0.1150159239768982,0.02694928646087646,-0.03103190660476685,-0.05819928646087646,1,0.719471275806427,0.1961540877819061,0.460626095533371,-0.4813608229160309,-0.8516562581062317,0.5119431614875793,0.1122306883335114,0,0,0,-1,63222.285518,3,2,1561240761.948433,1561239991.781823,76,5.095047,0,0,66.78877,0,0,1561240729.863841,63220.886849,0,-1.334473,74.42771,2650659446,177292352,1,1,0.31,-34.68002,-37.07844,3
1561240763.160121,68,0,0,1561240758.779081,4.603141158115376,-74.06474430536709,2651.532,-1,-1,10,65,-9999,1561240763.149736,-6.880964279174805,15.71977043151855,18.87750244140625,57.30506896972656,64.8487548828125,15,63223.51573941667,-0.8530120849609375,0.47406005859375,0.0581817626953125,63223.50460041667,0.1183596672747186,-0.0848507091749056,0.09240476560691537,63223.50444741667,32.09181213378906,16.23947143554688,-513.9715576171875,63223.50966641667,-2.133316339256893,-1.7028183922677,-0.539704658549838,0.1121681705117226,-0.07316625863313675,0.07455957680940628,0.00708770751953125,-0.03707599639892578,-0.05598199367523193,1,0.7196465730667114,0.1963993608951569,0.4592011868953705,-0.4823592007160187,-0.8503952026367188,0.5138826370239258,0.1129277944564819,0,0,0,-1,63222.285518,3,2,1561240761.948433,1561239991.781823,76,5.095047,0,0,66.78877,0,0,1561240729.863841,63220.886849,0,-1.334473,74.42771,2650659446,177292352,1,1,0.31,-34.68002,-37.07844,3
1561240763.20284,69,0,0,1561240758.779081,4.603141158115376,-74.06474430536709,2651.532,-1,-1,10,65,-9999,1561240763.174288,-6.850986480712891,15.82556533813477,18.92041015625,57.16049957275391,64.70418548583984,15,63223.53600241667,-0.86407470703125,0.484832763671875,0.0719451904296875,63223.52486341667,0.07072397117258028,-0.0174535588360523,0.03436942544801761,63223.52458941667,31.9412841796875,16.39970397949219,-514.1753540039062,63223.52992941667,-2.13142608191285,-1.702548580981205,-0.5408481304384299,0.04695960506796837,-0.02011662349104881,0.0142477685585618,-0.01249265670776367,-0.03773617744445801,-0.04829001426696777,1,0.7194740176200867,0.1966409832239151,0.4585536122322083,-0.4831335842609406,-0.8498425483703613,0.5148632526397705,0.1126210764050484,0,0,0,-1,63222.285518,3,2,1561240761.948433,1561239991.781823,76,5.095047,0,0,66.78877,0,0,1561240729.863841,63220.886849,0,-1.334473,74.42771,2650659446,177292352,1,1,0.31,-22.76121,-27.53633,3
1561240763.206182,70,0,0,1561240758.779081,4.603141158115376,-74.06474430536709,2651.532,-1,-1,10,65,-9999,1561240763.200569,-6.822486877441406,15.88646697998047,19.1331787109375,57.12689208984375,64.67057800292969,15,63223.55626641667,-0.862213134765625,0.5025787353515625,0.107635498046875,63223.54512741667,0.009761550659576439,-0.05833840789094877,-0.02048343720823545,63223.54473041667,31.69422912597656,16.40362548828125,-514.1065673828125,63223.55019341667,-2.130908082671474,-1.703191786695979,-0.5406533002022259,0.003230767324566841,-0.09438712149858475,-0.02527833357453346,-0.0125267505645752,-0.02145588397979736,-0.02695345878601074,1,0.7195576429367065,0.1970463544130325,0.4582463204860687,-0.4831355512142181,-0.8498694896697998,0.5146962404251099,0.113180935382843,0,0,0,-1,63222.285518,3,2,1561240761.948433,1561239991.781823,76,5.095047,0,0,66.78877,0,0,1561240729.863841,63220.886849,0,-1.334473,74.42771,2650659446,177292352,1,1,0.31,-22.76121,-27.53633,3
1561240763.220935,71,0,0,1561240758.779081,4.603141158115376,-74.06474430536709,2651.532,-1,-1,10,65,-9999,1561240763.200569,-6.822486877441406,15.88646697998047,19.1331787109375,57.12689208984375,64.67057800292969,15,63223.57653041667,-0.8526763916015625,0.5067901611328125,0.152191162109375,63223.56539141667,0.0153392752466384,-0.176552133937931,-0.02056599520202791,63223.56487241667,32.11190795898438,16.52803039550781,-514.275146484375,63223.57042641667,-2.13062393481871,-1.706047508796401,-0.5401629602275103,0.01870293542742729,-0.2142211198806763,-0.02199838683009148,-0.007888674736022949,-0.008309602737426758,0.01476025581359863,1,0.7201510071754456,0.197998121380806,0.4572736024856567,-0.4827837347984314,-0.8497926592826843,0.5142757296562195,0.1156414598226547,0,0,0,-1,63222.285518,3,2,1561240761.948433,1561239991.781823,76,5.095047,0,0,66.78877,0,0,1561240729.863841,63220.886849,0,-1.334473,74.42771,2650659446,177292352,1,1,0.31,-22.76121,-27.83115,3
1561240763.240703,72,0,0,1561240758.779081,4.603141158115376,-74.06474430536709,2651.532,-1,-1,10,65,-9999,1561240763.224747,-6.687664031982422,16.08041191101074,18.71282958984375,57.09011077880859,64.63379669189453,15,63223.59679341667,-0.8492431640625,0.50201416015625,0.180023193359375,63223.58565441667,0.03463707313757057,-0.2514418216876133,-0.01302179246605144,63223.58501441667,32.08699035644531,16.41156005859375,-513.830322265625,63223.59069041667,-2.129849270843766,-1.710518403146576,-0.5398436186011969,0.02666818350553513,-0.251450777053833,-0.01428400725126266,-0.0004389286041259766,-0.009149551391601562,0.04995584487915039,1,0.7210734486579895,0.1994601190090179,0.4555565416812897,-0.4824283719062805,-0.8494299054145813,0.5140018463134766,0.1194625124335289,0,0,0,-1,63222.285518,3,2,1561240761.948433,1561239991.781823,76,5.095047,0,0,66.78877,0,0,1561240729.863841,63220.886849,0,-1.334473,74.42771,2650659446,177292352,1,1,0.31,-22.76121,-28.3596,3
1561240763.281668,73,0,0,1561240758.779081,4.603141158115376,-74.06474430536709,2651.532,-1,-1,10,65,-9999,1561240763.25189,-6.685245513916016,15.92287063598633,19.10986328125,57.06400299072266,64.60768890380859,15,63223.61705741667,-0.86053466796875,0.50726318359375,0.1778717041015625,63223.60591841667,-0.03620221291021014,-0.1732362320646734,0.007080546390193671,63223.60515541667,32.3892822265625,16.33380126953125,-514.0556640625,63223.61095341667,-2.130110073190624,-1.714729895866522,-0.5396563506910405,-0.07210313528776169,-0.1451307386159897,0.01082427520304918,-0.003997921943664551,-0.01117092370986938,0.05956459045410156,1,0.7220451831817627,0.2004421055316925,0.4541471898555756,-0.4818961918354034,-0.8490141630172729,0.5138412117958069,0.123052567243576,0,0,0,-1,63222.285518,3,2,1561240761.948433,1561239991.781823,76,5.095047,0,0,66.78877,0,0,1561240729.863841,63220.886849,0,-1.334473,74.42771,2650659446,177292352,1,1,0.31,-22.76121,-28.33915,3
1561240763.284961,74,0,0,1561240758.779081,4.603141158115376,-74.06474430536709,2651.532,-1,-1,10,65,-9999,1561240763.275475,-6.650241851806641,15.96749114990234,18.92254638671875,57.26361846923828,64.80730438232422,15,63223.63729041667,-0.85772705078125,0.520599365234375,0.1676177978515625,63223.62615141667,-0.1639439303891689,-0.01974361105741144,0.03323411987531683,63223.62529741667,32.16598510742188,16.32276916503906,-513.7764892578125,63223.63121741667,-2.133304488953756,-1.717582855900007,-0.5396679407910026,-0.1921429932117462,0.006235888693481684,0.03302278742194176,-0.01165199279785156,9.5367431640625e-05,0.04637110233306885,1,0.7230133414268494,0.1999710202217102,0.4538824856281281,-0.4808886647224426,-0.8486537933349609,0.5138511657714844,0.1254733949899673,0,0,0,-1,63222.285518,3,2,1561240761.948433,1561239991.781823,76,5.095047,0,0,66.78877,0,0,1561240729.863841,63220.886849,0,-1.334473,74.42771,2650659446,177292352,1,1,0.31,-22.76121,-28.33915,3
1561240763.301615,75,0,0,1561240758.779081,4.603141158115376,-74.06474430536709,2651.532,-1,-1,10,65,-9999,1561240763.275475,-6.650241851806641,15.96749114990234,18.92254638671875,57.26361846923828,64.80730438232422,15,63223.65755441667,-0.8532257080078125,0.5234375,0.1607513427734375,63223.64641541667,-0.2000079252388039,0.05302779836122176,0.02841299935394638,63223.64543841667,32.12588500976562,16.11866760253906,-514.048828125,63223.65148141667,-2.138109308581858,-1.71931536501254,-0.5396114167282707,-0.189168244600296,0.04685362428426743,0.01718869805335999,-0.006104350090026855,0.01193892955780029,0.03627538681030273,1,0.7238820195198059,0.1986674219369888,0.4544239044189453,-0.4796093106269836,-0.8484640717506409,0.5138026475906372,0.1269478499889374,0,0,0,-1,63222.285518,3,2,1561240761.948433,1561239991.781823,76,5.095047,0,0,66.78877,0,0,1561240729.863841,63220.886849,0,-1.334473,74.42771,2650659446,177292352,1,1,0.31,-22.76121,-25.31448,3
1561240763.321721,76,0,0,1561240758.779081,4.603141158115376,-74.06474430536709,2651.532,-1,-1,10,65,-9999,1561240763.301815,-6.672794342041016,15.78455352783203,19.02032470703125,57.59844207763672,65.14212799072266,15,63223.67781741667,-0.843292236328125,0.5105133056640625,0.149566650390625,63223.66667941667,-0.1158997053758124,0.04779042576147193,-0.008892028563665569,63223.66558041667,32.04182434082031,15.92930603027344,-514.0499877929688,63223.67174441667,-2.14154791279505,-1.720273280194333,-0.5391273267115674,-0.1009084209799767,0.04038400575518608,-0.02038770541548729,-0.0002435445785522461,0.00458759069442749,0.02854406833648682,1,0.7244104146957397,0.1978087872266769,0.4550224840641022,-0.4785976111888885,-0.848587691783905,0.5133873224258423,0.1277975291013718,0,0,0,-1,63222.285518,3,2,1561240761.948433,1561239991.781823,76,5.095047,0,0,66.78877,0,0,1561240729.863841,63220.886849,0,-1.334473,74.42771,2650659446,177292352,1,1,0.31,-22.76121,-25.31448,3
1561240763.363118,77,0,0,1561240758.779081,4.603141158115376,-74.06474430536709,2651.532,-1,-1,10,65,-9999,1561240763.352605,-6.787391662597656,15.80637359619141,19.24517822265625,57.95722961425781,65.50091552734375,15,63223.69808141667,-0.8408966064453125,0.5099639892578125,0.1361236572265625,63223.68694241667,-0.08319262508022227,0.0463272850585824,-0.03302612699418164,63223.68569141667,32.02780151367188,16.24079895019531,-513.9368896484375,63223.69200841667,-2.14362701612939,-1.720659901107367,-0.5382067862892349,-0.0922430232167244,0.04027774557471275,-0.03398767113685608,0.008688569068908691,-0.004754066467285156,0.0141531229019165,1,0.7246467471122742,0.1974465996026993,0.4556108415126801,-0.4778291881084442,-0.8490053415298462,0.5125970840454102,0.1281961351633072,0,0,0,-1,63222.285518,3,2,1561240761.948433,1561239991.781823,76,5.095047,0,0,66.78877,0,0,1561240729.863841,63220.886849,0,-1.334473,74.42771,2650659446,177292352,1,1,0.31,-17.23539,-19.34158,3
1561240763.366581,78,0,0,1561240758.779081,4.603141158115376,-74.06474430536709,2651.532,-1,-1,10,65,-9999,1561240763.352605,-6.787391662597656,15.80637359619141,19.24517822265625,57.95722961425781,65.50091552734375,15,63223.71834541667,-0.8485565185546875,0.5120849609375,0.1351470947265625,63223.70720641667,-0.1158355231935415,0.04888871339502061,-0.01295121869716434,63223.70583341667,32.10749816894531,15.99864196777344,-513.822509765625,63223.71227241667,-2.146191270583759,-1.721218095637555,-0.5373980124603335,-0.1213641613721848,0.04502083733677864,-0.01054945681244135,0.002861976623535156,-0.001114547252655029,0.004599094390869141,1,0.7249768376350403,0.1969127804040909,0.4562234580516815,-0.4769634902477264,-0.8493432998657227,0.5119025111198425,0.1287321150302887,0,0,0,-1,63222.285518,3,2,1561240761.948433,1561239991.781823,76,5.095047,0,0,66.78877,0,0,1561240729.863841,63220.886849,0,-1.334473,74.42771,2650659446,177292352,1,1,0.31,-17.23539,-19.34158,3
1561240763.382677,79,0,0,1561240758.779081,4.603141158115376,-74.06474430536709,2651.532,-1,-1,10,65,-9999,1561240763.376706,-6.859556198120117,15.53790283203125,19.21405029296875,58.14936065673828,65.69304656982422,15,63223.73860841667,-0.84869384765625,0.508544921875,0.1358489990234375,63223.72747041667,-0.1027333032625697,0.03720835517004208,-0.00451512331212034,63223.72597441667,31.85311889648438,16.04153442382812,-513.8518676757812,63223.73253641667,-2.148840321627278,-1.721906593652981,-0.5369094818634622,-0.09669928997755051,0.02383805252611637,-0.008705750107765198,0.0002275705337524414,-0.001900255680084229,0.005701065063476562,1,0.7253643870353699,0.1962746232748032,0.4567272067070007,-0.4761542677879333,-0.8495013117790222,0.5114827752113342,0.1293544471263885,0,0,0,-1,63222.285518,3,2,1561240761.948433,1561239991.781823,76,5.095047,0,0,66.78877,0,0,1561240729.863841,63220.886849,0,-1.334473,74.42771,2650659446,177292352,1,1,0.31,-12.36658,-20.04656,3
1561240763.402898,80,0,0,1561240758.779081,4.603141158115376,-74.06474430536709,2651.532,-1,-1,10,65,-9999,1561240763.376706,-6.859556198120117,15.53790283203125,19.21405029296875,58.14936065673828,65.69304656982422,15,63223.75887241667,-0.8451385498046875,0.5032196044921875,0.13787841796875,63223.74773341667,-0.05954348828420963,0.01235866535462171,-0.01860404442696654,63223.74611641667,31.70463562011719,15.98713684082031,-513.65234375,63223.75279941667,-2.150566363847553,-1.722592361111802,-0.5363588401005476,-0.05592603236436844,0.003329314757138491,-0.02357497811317444,0.003621578216552734,-0.004402458667755127,0.006311893463134766,1,0.7256566882133484,0.1959902048110962,0.457026869058609,-0.4755383133888245,-0.8496909141540527,0.5110095143318176,0.1299795806407928,0,0,0,-1,63222.285518,3,2,1561240761.948433,1561239991.781823,76,5.095047,0,0,66.78877,0,0,1561240729.863841,63220.886849,0,-1.334473,74.42771,2650659446,177292352,1,1,0.31,-12.06647,-20.88752,3
1561240763.437095,81,0,0,1561240758.779081,4.603141158115376,-74.06474430536709,2651.532,-1,-1,10,65,-9999,1561240763.429274,-6.852252960205078,15.60382270812988,19.25225830078125,58.33987426757812,65.88356018066406,15,63223.77913641667,-0.85321044921875,0.5059814453125,0.14239501953125,63223.76799741667,-0.04413869927475528,-0.004650145579387358,-0.0111213607121709,63223.76625741667,32.01185607910156,16.0340576171875,-514.114013671875,63223.77306341667,-2.151682659765791,-1.723324378146468,-0.5358534367121179,-0.04704651981592178,-0.01344859972596169,-0.007515050936490297,0.000577092170715332,-0.006638288497924805,0.01009106636047363,1,0.7259026169776917,0.1959228813648224,0.457152783870697,-0.475069522857666,-0.8498507738113403,0.5105750560760498,0.1306407749652863,0,0,0,-1,63222.285518,3,2,1561240761.948433,1561239991.781823,76,5.095047,0,0,66.78877,0,0,1561240729.863841,63220.886849,0,-1.334473,74.42771,2650659446,177292352,1,1,0.31,-12.06647,-21.51505,3
1561240763.443326,82,0,0,1561240758.779081,4.603141158115376,-74.06474430536709,2651.532,-1,-1,10,65,-9999,1561240763.429274,-6.852252960205078,15.60382270812988,19.25225830078125,58.33987426757812,65.88356018066406,15,63223.79940041667,-0.862335205078125,0.500030517578125,0.1511688232421875,63223.78826141667,-0.03162876637021707,-0.01802747005096438,0.01208782187176065,63223.78639941667,32.01948547363281,15.9525146484375,-513.6600341796875,63223.79332741667,-2.152666232495716,-1.724247008102991,-0.5358072716168405,-0.029526112601161,-0.02711381204426289,0.009727318771183491,-0.008752286434173584,-0.007819294929504395,0.01433885097503662,1,0.7262070178985596,0.1957997828722,0.4570628106594086,-0.4747413098812103,-0.8497529029846191,0.5105353593826294,0.1314283758401871,0,0,0,-1,63222.285518,3,2,1561240761.948433,1561239991.781823,76,5.095047,0,0,66.78877,0,0,1561240729.863841,63220.886849,0,-1.334473,74.42771,2650659446,177292352,1,1,0.31,-12.06647,-22.08896,3
1561240763.463584,83,0,0,1561240758.779081,4.603141158115376,-74.06474430536709,2651.532,-1,-1,10,65,-9999,1561240763.453732,-6.648635864257812,15.57421588897705,19.23895263671875,58.37686920166016,65.92055511474609,15,63223.819687125,-0.860076904296875,0.4996490478515625,0.1558380126953125,63223.808548125,0.007671235519973245,0.005077582934345076,-0.002368349157407466,63223.806534125,31.9564208984375,16.10159301757812,-513.6256103515625,63223.81361412501,-2.152855212518225,-1.724579899755835,-0.5357947760385458,0.008924072608351707,0.003381512593477964,-0.01426137052476406,-0.01506125926971436,-0.01017367839813232,0.02534651756286621,1,0.726300835609436,0.1958142071962357,0.4569898843765259,-0.4746620059013367,-0.8497154116630554,0.510524570941925,0.1317122131586075,0,0,0,-1,63222.285518,3,2,1561240761.948433,1561239991.781823,76,5.095047,0,0,66.78877,0,0,1561240729.863841,63220.886849,0,-1.334473,74.42771,2650659446,177292352,1,1,0.31,-12.06647,-22.21647,3
1561240763.484057,84,0,0,1561240758.779081,4.603141158115376,-74.06474430536709,2651.532,-1,-1,10,65,-9999,1561240763.478193,-6.738258361816406,15.70604705810547,19.24468994140625,58.35798645019531,65.90167236328125,15,63223.839951125,-0.8487548828125,0.4953155517578125,0.1534423828125,63223.828812125,0.00978338858051509,0.02554051380218692,-0.02263367347236543,63223.82667612501,31.97276306152344,15.9176025390625,-513.60986328125,63223.83387812501,-2.152590726780703,-1.72415472260981,-0.5353669600667632,-0.006561942398548126,0.02483008056879044,-0.01590587198734283,-0.00119394063949585,-0.01249122619628906,0.02205812931060791,1,0.7261518836021423,0.1959479004144669,0.4571882486343384,-0.4746437072753906,-0.8499870896339417,0.5101566910743713,0.1313842684030533,0,0,0,-1,63222.285518,3,2,1561240761.948433,1561239991.781823,76,5.095047,0,0,66.78877,0,0,1561240729.863841,63220.886849,0,-1.334473,74.42771,2650659446,177292352,1,1,0.31,-12.06647,-22.21647,3
1561240763.519413,85,0,0,1561240758.779081,4.603141158115376,-74.06474430536709,2651.532,-1,-1,10,65,-9999,1561240763.504648,-6.978487014770508,15.81257438659668,19.0260009765625,58.42748260498047,65.97116851806641,15,63223.860215125,-0.8596649169921875,0.5026702880859375,0.1426849365234375,63223.84907612501,-0.04894410714569426,0.01670760741472111,0.02677515528354765,63223.84681712501,31.97940063476562,16.29794311523438,-513.992919921875,63223.854111125,-2.153486447747357,-1.724221367826424,-0.53544422096094,-0.06197433546185493,-0.01209651306271553,0.02796198427677155,-0.005590081214904785,-0.009460210800170898,0.01744508743286133,1,0.7262594699859619,0.1956135332584381,0.4573574364185333,-0.4744542241096497,-0.8499396443367004,0.5102231502532959,0.1314349472522736,0,0,0,-1,63222.285518,3,2,1561240761.948433,1561239991.781823,76,5.095047,0,0,66.78877,0,0,1561240729.863841,63220.886849,0,-1.334473,74.42771,2650659446,177292352,1,1,0.31,-12.06647,-23.67452,3
1561240763.524501,86,0,0,1561240758.779081,4.603141158115376,-74.06474430536709,2651.532,-1,-1,10,65,-9999,1561240763.504648,-6.978487014770508,15.81257438659668,19.0260009765625,58.42748260498047,65.97116851806641,15,63223.88047812501,-0.8851470947265625,0.499359130859375,0.1529083251953125,63223.86933912501,-0.01907915236543667,-0.05285549183869363,0.02508857536520047,63223.86695912501,31.98284912109375,16.15045166015625,-513.9229736328125,63223.874375125,-2.154493248988356,-1.725640583883126,-0.5358063288490459,0.009012224152684212,-0.06295676529407501,0.01277823653072119,-0.02227181196212769,-0.007116556167602539,0.01652681827545166,1,0.7267041206359863,0.1954671144485474,0.4569903612136841,-0.4741872847080231,-0.8495696187019348,0.5105345249176025,0.1326125413179398,0,0,0,-1,63222.285518,3,2,1561240761.948433,1561239991.781823,76,5.095047,0,0,66.78877,0,0,1561240729.863841,63220.886849,0,-1.334473,74.42771,2650659446,177292352,1,1,0.31,-12.06647,-23.67452,3
1561240763.544656,87,0,0,1561240758.779081,4.603141158115376,-74.06474430536709,2651.532,-1,-1,10,65,-9999,1561240763.530648,-6.885940551757812,15.72253227233887,19.19122314453125,58.43225860595703,65.97594451904297,15,63223.900711125,-0.8896331787109375,0.51239013671875,0.1583099365234375,63223.889572125,0.1078899820812901,-0.0414979087378327,-0.05171805573712079,63223.887101125,32.17912292480469,16.14714050292969,-513.6871337890625,63223.89463812501,-2.152715042474506,-1.725912463758091,-0.5354033427788321,0.1204482018947601,-0.04158462956547737,-0.06969933211803436,-0.04046100378036499,-0.009150385856628418,0.02316105365753174,1,0.726567804813385,0.1963081210851669,0.4565704166889191,-0.4744532704353333,-0.8497368097305298,0.5101879835128784,0.1328753083944321,0,0,0,-1,63222.285518,3,2,1561240761.948433,1561239991.781823,76,5.095047,0,0,66.78877,0,0,1561240729.863841,63220.886849,0,-1.334473,74.42771,2650659446,177292352,1,1,0.31,-12.06647,-24.61209,3
1561240763.564655,88,0,0,1561240758.779081,4.603141158115376,-74.06474430536709,2651.532,-1,-1,10,65,-9999,1561240763.555353,-6.761043548583984,15.66963386535645,19.17523193359375,58.22212982177734,65.76581573486328,15,63223.920975125,-0.9474029541015625,0.52728271484375,0.1534423828125,63223.90983612501,0.1273358517288307,-0.06630924903355592,-0.1011846750886886,63223.907242125,32.12461853027344,16.1759033203125,-513.6376953125,63223.91490212501,-2.149547043922929,-1.725515339965347,-0.5339516386842749,0.1234714239835739,-0.03936115652322769,-0.08717818558216095,-0.05324256420135498,0.01018041372299194,0.02159929275512695,1,0.7260768413543701,0.1978340893983841,0.4563252031803131,-0.4748066663742065,-0.8505201935768127,0.5089389085769653,0.1326518058776855,0,0,0,-1,63223.915695125,1,2,1561240763.57861,1561239991.781823,76,5.095047,0,0,66.78877,0,0,1561240729.863841,63220.886849,0,-1.334473,74.42771,2650659446,177292352,1,1,0.31,-12.06647,-25.34672,3
1561240763.590874,89,0,0,1561240758.779081,4.603141158115376,-74.06474430536709,2651.532,-1,-1,10,65,-9999,1561240763.57955,-6.852516174316406,15.82844924926758,19.26153564453125,57.99674987792969,65.54043579101562,15,63223.941239125,-1.034713745117188,0.5579986572265625,0.1519775390625,63223.93010012501,0.1246109053014616,-0.08277157931188074,-0.121531758449112,63223.927384125,31.8624267578125,16.30928039550781,-513.7931518554688,63223.935166125,-2.14643055509396,-1.725337718492976,-0.5321845137554259,0.1300976276397705,-0.08106652647256851,-0.1804410368204117,-0.1187683939933777,0.02018618583679199,0.01550865173339844,1,0.7256179451942444,0.1994945853948593,0.4560913145542145,-0.4750381708145142,-0.8514311909675598,0.5074169635772705,0.1326389908790588,0,0,0,-1,63223.915695125,1,2,1561240763.57861,1561239991.781823,76,5.095047,0,0,66.78877,0,0,1561240729.863841,63220.886849,0,-1.334473,74.42771,2650659446,177292352,1,1,0.31,-12.06647,-26.22847,3
1561240763.605598,90,0,0,1561240758.779081,4.603141158115376,-74.06474430536709,2651.532,-1,-1,10,65,-9999,1561240763.57955,-6.852516174316406,15.82844924926758,19.26153564453125,57.99674987792969,65.54043579101562,15,63223.96150212501,-1.209121704101562,0.54791259765625,0.229156494140625,63223.950363125,0.29472378203969,-0.057405236244985,-0.560406857656502,63223.947495125,31.94255065917969,16.2713623046875,-513.8348999023438,63223.955429125,-2.139491518994554,-1.723266036661877,-0.5243973629902589,0.3693051636219025,-0.04099314287304878,-0.7258862257003784,-0.2736125588417053,0.07917308807373047,0.06172060966491699,1,0.7239512801170349,0.2040343433618546,0.4571417570114136,-0.4746429026126862,-0.8555836081504822,0.5006914138793945,0.1314709335565567,0,0,0,-1,63223.915695125,1,2,1561240763.57861,1561239991.781823,76,5.095047,0,0,66.78877,0,0,1561240729.863841,63220.886849,0,-1.334473,74.42771,2650659446,177292352,1,1,0.31,-12.06647,-26.9249,3
1561240763.625627,91,0,0,1561240758.779081,4.603141158115376,-74.06474430536709,2651.532,-1,-1,10,65,-9999,1561240763.605625,-6.861339569091797,15.76802062988281,19.09967041015625,57.42136383056641,64.96504974365234,15,63223.98176612501,-1.342269897460938,0.4441680908203125,0.2966766357421875,63223.970627125,0.5974216010152954,-0.01973988263188533,-1.283653499114226,63223.967636125,31.91401672363281,16.291748046875,-514.1691284179688,63223.975693125,-2.123738851489122,-1.716229262639816,-0.5039983718273214,0.6653392314910889,-0.01222620904445648,-1.491154670715332,-0.4046881198883057,0.02804046869277954,0.1314301490783691,1,0.7192930579185486,0.2146347910165787,0.4610452353954315,-0.4732725322246552,-0.8664147853851318,0.482930600643158,0.1269011944532394,0,0,0,-1,63223.915695125,1,2,1561240763.57861,1561239991.781823,76,5.095047,0,0,66.78877,0,0,1561240729.863841,63220.886849,0,-1.334473,74.42771,2650659446,177292352,1,1,0.31,-12.06647,-26.9249,3
1561240763.645916,92,0,0,1561240758.779081,4.603141158115376,-74.06474430536709,2651.532,-1,-1,10,65,-9999,1561240763.630623,-7.224418640136719,15.94541358947754,18.6441650390625,56.06661987304688,63.61030960083008,15,63224.002030125,-1.3404541015625,0.2349700927734375,0.3243865966796875,63223.990891125,0.7952638436556468,-0.0827870256462032,-2.046799886339626,63223.987778125,31.23197937011719,16.53131103515625,-514.300048828125,63223.99595712501,-2.100646891034705,-1.706551268749984,-0.4686575002819768,0.7797774076461792,-0.128127783536911,-2.203594446182251,-0.4580129981040955,-0.1306135058403015,0.2042666673660278,1,0.711727499961853,0.2319843620061874,0.4678660929203033,-0.469817578792572,-0.8839669823646545,0.4516889452934265,0.1207455545663834,0,0,0,-1,63223.915695125,1,2,1561240763.57861,1561239991.781823,76,5.095047,0,0,66.78877,0,0,1561240729.863841,63220.886849,0,-1.334473,74.42771,2650659446,177292352,1,1,0.31,-12.06647,-27.75485,3
1561240763.674788,93,0,0,1561240758.779081,4.603141158115376,-74.06474430536709,2651.532,-1,-1,10,65,-9999,1561240763.656583,-7.939172744750977,15.81060791015625,18.59033203125,54.41072082519531,61.95440673828125,15,63224.022293125,-1.520050048828125,0.1359710693359375,0.2938079833984375,63224.011154125,0.5652372992416878,-0.08534392660878827,-2.488475033117126,63224.007920125,30.59561157226562,16.47892761230469,-514.7797241210938,63224.01622012501,-2.079069637135547,-1.700135500012435,-0.422098618796895,0.4688189625740051,-0.1635677963495255,-2.499001264572144,-0.5264490842819214,-0.2132188677787781,0.2015399932861328,1,0.7034347057342529,0.2529997825622559,0.4766101241111755,-0.4626159965991974,-0.9046117067337036,0.4096757769584656,0.1176585480570793,0,0,0,-1,63223.915695125,1,2,1561240763.57861,1561239991.781823,76,5.095047,0,0,66.78877,0,0,1561240729.863841,63220.886849,0,-1.334473,74.42771,2650659446,177292352,1,1,0.31,-12.06647,-29.00966,3
1561240763.686625,94,0,0,1561240758.779081,4.603141158115376,-74.06474430536709,2651.532,-1,-1,10,65,-9999,1561240763.680979,-8.562808990478516,15.91581344604492,18.171142578125,53.36326599121094,60.90695571899414,15,63224.042557125,-1.651779174804688,0.013214111328125,0.332916259765625,63224.03141812501,0.2156308271415358,-0.008637164047344985,-2.652242395926022,63224.02806112501,29.90135192871094,15.8775634765625,-514.9403686523438,63224.036484125,-2.065325121246988,-1.697167540121068,-0.3707971342894833,0.1892528384923935,-0.1640580892562866,-2.619255065917969,-0.5669857859611511,-0.2650226652622223,0.2005845308303833,1,0.695710301399231,0.27335324883461,0.4869988858699799,-0.4517713487148285,-0.9246066212654114,0.3623585104942322,0.1174696460366249,0,0,0,-1,63223.915695125,1,2,1561240763.57861,1561239991.781823,76,5.095047,0,0,66.78877,0,0,1561240729.863841,63220.886849,0,-1.334473,74.42771,2650659446,177292352,1,1,0.31,-12.06647,-29.00966,3
1561240763.706809,95,0,0,1561240758.779081,4.603141158115376,-74.06474430536709,2651.532,-1,-1,10,65,-9999,1561240763.680979,-8.562808990478516,15.91581344604492,18.171142578125,53.36326599121094,60.90695571899414,15,63224.062821125,-1.674896240234375,-0.0352325439453125,0.37530517578125,63224.05168212501,0.07829347393891251,-0.3421701273883238,-2.742103043743585,63224.048172125,28.98777770996094,15.68939208984375,-515.0413208007812,63224.056748125,-2.055643623019332,-1.698788061606798,-0.3170709160430228,0.04937322810292244,-0.2938815951347351,-2.789756536483765,-0.5804312825202942,-0.3024464547634125,0.2714965343475342,1,0.6886954307556152,0.2938342392444611,0.4971106052398682,-0.4384529292583466,-0.9423805475234985,0.3117848336696625,0.1212799102067947,0,0,0,-1,63223.915695125,1,2,1561240763.57861,1561239991.781823,76,5.095047,0,0,66.78877,0,0,1561240729.863841,63220.886849,0,-1.334473,74.42771,2650659446,177292352,1,1,0.31,-12.06647,-29.11521,3
1561240763.726954,96,0,0,1561240758.779081,4.603141158115376,-74.06474430536709,2651.532,-1,-1,10,65,-9999,1561240763.707021,-9.851169586181641,15.11465072631836,18.04351806640625,52.69091796875,60.23460388183594,15,63224.08308412501,-1.588058471679688,-0.104644775390625,0.3082427978515625,63224.071945125,-0.07499754577383043,-0.3782674117515847,-3.098643055741758,63224.068314125,28.56698608398438,15.25794982910156,-515.1969604492188,63224.077011125,-2.048082853477508,-1.703933336457243,-0.2571663510916972,-0.1487113684415817,-0.3954228460788727,-3.350053787231445,-0.7260602712631226,-0.3632278442382812,0.2039730548858643,1,0.6814578771591187,0.315918505191803,0.507688045501709,-0.4219756126403809,-0.9585558176040649,0.2543411254882812,0.1283786743879318,0,0,0,-1,63223.915695125,1,2,1561240763.57861,1561239991.781823,76,5.095047,0,0,66.78877,0,0,1561240729.863841,63220.886849,0,-1.334473,74.42771,2650659446,177292352,1,1,0.31,-12.06647,-29.32456,3
1561240763.751171,97,0,0,1561240758.779081,4.603141158115376,-74.06474430536709,2651.532,-1,-1,10,65,-9999,1561240763.707021,-9.851169586181641,15.11465072631836,18.04351806640625,52.69091796875,60.23460388183594,15,63224.10334812501,-1.494537353515625,-0.0713958740234375,0.281707763671875,63224.092209125,-0.2731178224319862,-0.5915168402463716,-4.178849423385453,63224.08845512501,27.7972412109375,14.42416381835938,-515.0260009765625,63224.097275125,-2.04191234904031,-1.713100402689166,-0.1781905602336865,-0.2911390662193298,-0.7217434644699097,-4.455287456512451,-0.5765480995178223,-0.2687102854251862,0.1279232501983643,1,0.6721212267875671,0.3435729444026947,0.5211527347564697,-0.3982592821121216,-0.9742178320884705,0.1772490739822388,0.1395786255598068,0,0,0,-1,63223.915695125,1,2,1561240763.57861,1561239991.781823,76,5.095047,0,0,66.78877,0,0,1561240729.863841,63220.886849,0,-1.334473,74.42771,2650659446,177292352,1,1,0.31,-12.06647,-30.17241,3
1561240763.767447,98,0,0,1561240758.779081,4.603141158115376,-74.06474430536709,2651.532,-1,-1,10,65,-9999,1561240763.755082,-10.54274368286133,14.55682277679443,17.86639404296875,52.21377563476562,59.75746154785156,15,63224.123612125,-1.455062866210938,-0.012451171875,0.2992095947265625,63224.112473125,-0.2778473302118579,-1.169602293851038,-5.124158426017253,63224.10859712501,27.06304931640625,13.57585144042969,-515.1427001953125,63224.117508125,-2.032632775170479,-1.732607694510844,-0.07910559211935311,-0.2671591639518738,-1.337972283363342,-5.285974025726318,-0.487676203250885,-0.1126077175140381,0.1481897830963135,1,0.6607589721679688,0.379076212644577,0.5343195199966431,-0.3663353621959686,-0.98385089635849,0.07902311533689499,0.1606023907661438,0,0,0,-1,63223.915695125,1,2,1561240763.57861,1561239991.781823,76,5.095047,0,0,66.78877,0,0,1561240729.863841,63220.886849,0,-1.334473,74.42771,2650659446,177292352,1,1,0.31,-12.06647,-30.80782,3
1561240763.787805,99,0,0,1561240758.779081,4.603141158115376,-74.06474430536709,2651.532,-1,-1,10,65,-9999,1561240763.781918,-12.16434669494629,12.96001529693604,17.9534912109375,50.65251922607422,58.19620895385742,15,63224.143875125,-1.424057006835938,0.00225830078125,0.2427978515625,63224.132737125,-0.2086839714380641,-1.726294041786879,-5.599821367258562,63224.128739125,26.1787109375,12.51611328125,-515.02587890625,63224.137772125,-2.017561722104233,-1.76484768362,0.03149140134441611,-0.1905592083930969,-1.790848135948181,-5.670993804931641,-0.4633471369743347,0.03075376152992249,0.07587552070617676,1,0.6480795741081238,0.4199559092521667,0.5439771413803101,-0.3282055556774139,-0.9807446599006653,-0.03148619830608368,0.1927402019500732,0,0,0,-1,63223.915695125,1,2,1561240763.57861,1561239991.781823,76,5.095047,0,0,66.78877,0,0,1561240729.863841,63220.886849,0,-1.334473,74.42771,2650659446,177292352,1,1,0.31,-12.06647,-30.80782,3
1561240763.81033,100,0,0,1561240758.779081,4.603141158115376,-74.06474430536709,2651.532,-1,-1,10,65,-9999,1561240763.808422,-13.16160202026367,10.31605434417725,18.578125,49.01840209960938,56.56208801269531,15,63224.16410912501,-1.3157958984375,-0.011383056640625,0.2672882080078125,63224.15300012501,-0.09382822520956272,-1.767595675552373,-5.717189539659444,63224.148880125,25.89315795898438,11.037841796875,-514.751708984375,63224.158036125,-1.995572091530178,-1.803102719904579,0.1451520645127551,-0.07373485714197159,-1.738463282585144,-5.685087203979492,-0.4131634831428528,0.1429339051246643,0.02074885368347168,1,0.6328929662704468,0.4618953168392181,0.5507611632347107,-0.2876830101013184,-0.9629046320915222,-0.1446428894996643,0.227801576256752,0,0,0,-1,63223.915695125,1,2,1561240763.57861,1561239991.781823,76,5.095047,0,0,66.78877,0,0,1561240729.863841,63220.886849,0,-1.334473,74.42771,2650659446,177292352,1,1,0.31,-12.06647,-31.65524,3
1561240763.835869,101,0,0,1561240758.779081,4.603141158115376,-74.06474430536709,2651.532,-1,-1,10,65,-9999,1561240763.83258,-13.37488555908203,9.087288856506348,19.1728515625,46.99136352539062,54.53504943847656,15,63224.184372125,-1.155532836914062,-0.1099853515625,0.290924072265625,63224.173233125,-0.0584774248998509,-1.685019305948395,-5.547382660130466,63224.169022125,25.63999938964844,9.876922607421875,-514.142822265625,63224.17829912501,-1.968009514473885,-1.843120007757931,0.255261110516447,-0.09302972257137299,-1.719650745391846,-5.492547035217285,-0.3130398392677307,0.2040514051914215,0.02197170257568359,1,0.6152971386909485,0.5015345215797424,0.5554880499839783,-0.247599720954895,-0.9319400191307068,-0.252498060464859,0.2602548897266388,0,0,0,-1,63223.915695125,1,2,1561240763.57861,1561239991.781823,76,5.095047,0,0,66.78877,0,0,1561240729.863841,63220.886849,0,-1.334473,74.42771,2650659446,177292352,1,1,0.31,-12.06647,-33.41837,3
1561240763.848806,102,0,0,1561240758.779081,4.603141158115376,-74.06474430536709,2651.532,-1,-1,10,65,-9999,1561240763.83258,-13.37488555908203,9.087288856506348,19.1728515625,46.99136352539062,54.53504943847656,15,63224.204636125,-0.9703826904296875,-0.2662506103515625,0.2759246826171875,63224.193497125,-0.3522057173240694,-1.956388230492526,-5.281901185808173,63224.189164125,25.17420959472656,8.641021728515625,-513.569580078125,63224.19856312501,-1.940198328845699,-1.889498467497087,0.3606543675011445,-0.4945060610771179,-2.087340116500854,-5.229367256164551,-0.1724711656570435,0.1666988134384155,-0.007547140121459961,1,0.5982531309127808,0.5372907519340515,0.5576809048652649,-0.2059220373630524,-0.888548731803894,-0.3528865873813629,0.2931763231754303,0,0,0,-1,63223.915695125,1,2,1561240763.57861,1561239991.781823,76,5.095047,0,0,66.78877,0,0,1561240729.863841,63220.886849,0,-1.334473,74.42771,2650659446,177292352,1,1,0.31,-12.06647,-33.41837,3
1561240763.869353,103,0,0,1561240758.779081,4.603141158115376,-74.06474430536709,2651.532,-1,-1,10,65,-9999,1561240763.859537,-13.56948089599609,7.894591808319092,19.67681884765625,45.23802947998047,52.78171539306641,15,63224.224900125,-0.7769622802734375,-0.366241455078125,0.31005859375,63224.21376112501,-0.9396756179779566,-2.351100395659241,-5.177325774019595,63224.209275125,25.41767883300781,6.88031005859375,-513.1170654296875,63224.21882712501,-1.917778977419589,-1.944469388993279,0.4651205343676291,-1.078046083450317,-2.350644826889038,-5.206188678741455,-0.03238034248352051,0.117475837469101,-0.04940319061279297,1,0.583446204662323,0.5680843591690063,0.5581743717193604,-0.1590975522994995,-0.8320910930633545,-0.448530524969101,0.3262586295604706,0,0,0,-1,63223.915695125,1,2,1561240763.57861,1561239991.781823,76,5.095047,0,0,66.78877,0,0,1561240729.863841,63220.886849,0,-1.334473,74.42771,2650659446,177292352,1,1,0.31,-12.06647,-33.9479,3
1561240763.890331,104,0,0,1561240758.779081,4.603141158115376,-74.06474430536709,2651.532,-1,-1,10,65,-9999,1561240763.883598,-13.32585525512695,6.067718505859375,20.1429443359375,43.81001281738281,51.35369873046875,15,63224.245163125,-0.7557830810546875,-0.4308013916015625,0.394073486328125,63224.23402412501,-1.351788078758922,-2.050830580649461,-5.126846088189361,63224.229416125,25.51437377929688,5.435821533203125,-512.5564575195312,63224.239090125,-1.897940309220126,-1.998166333094375,0.5715633494329044,-1.393501162528992,-1.901505589485168,-5.004424571990967,0.02360481023788452,0.1643301844596863,0.01651239395141602,1,0.5669807195663452,0.5939973592758179,0.5600582957267761,-0.1097027808427811,-0.765410840511322,-0.5409475564956665,0.3486000001430511,0,0,0,-1,63223.915695125,1,2,1561240763.57861,1561239991.781823,76,5.095047,0,0,66.78877,0,0,1561240729.863841,63220.886849,0,-1.334473,74.42771,2650659446,177292352,1,1,0.31,-12.06647,-31.87038,3
1561240763.922185,105,0,0,1561240758.779081,4.603141158115376,-74.06474430536709,2651.532,-1,-1,10,65,-9999,1561240763.909776,-12.87337112426758,2.655268430709839,20.99639892578125,42.51776123046875,50.06144714355469,15,63224.26542712501,-0.697967529296875,-0.5232696533203125,0.39337158203125,63224.254288125,-1.411115318362617,-1.237177343350708,-4.448722184029177,63224.249558125,25.89070129394531,3.490402221679688,-512.0870971679688,63224.259354125,-1.879485249454718,-2.038768521170416,0.6687650533535372,-1.41985297203064,-1.001121520996094,-4.24094820022583,-0.05794578790664673,0.1364970207214355,0.05212640762329102,1,0.5482053756713867,0.6135355234146118,0.5644941329956055,-0.06626792997121811,-0.7002329230308533,-0.6200175285339355,0.3539099395275116,0,0,0,-1,63223.915695125,1,2,1561240763.57861,1561239991.781823,76,5.095047,0,0,66.78877,0,0,1561240729.863841,63220.886849,0,-1.334473,74.42771,2650659446,177292352,1,1,0.31,-12.06647,-32.47067,3
1561240763.930171,106,0,0,1561240758.779081,4.603141158115376,-74.06474430536709,2651.532,-1,-1,10,65,-9999,1561240763.909776,-12.87337112426758,2.655268430709839,20.99639892578125,42.51776123046875,50.06144714355469,15,63224.28569112501,-0.4650115966796875,-0.59783935546875,0.329833984375,63224.274552125,-1.479581994195247,-0.4297282061274039,-3.630943710201891,63224.269699125,25.8284912109375,1.974075317382812,-511.852783203125,63224.279618125,-1.866839146908305,-2.059555551197046,0.7513367496596776,-1.533085465431213,-0.2954027354717255,-3.460656642913818,0.05019837617874146,0.1231527328491211,0.01811432838439941,1,0.5283990502357483,0.6263829469680786,0.572181761264801,-0.03235581144690514,-0.645214855670929,-0.6826162338256836,0.3431223034858704,0,0,0,-1,63223.915695125,1,2,1561240763.57861,1561239991.781823,76,5.095047,0,0,66.78877,0,0,1561240729.863841,63221.836001,0,-1.334473,74.42771,2650659446,177292352,1,1,0.31,-12.06647,-33.29546,3
1561240763.9499,107,0,0,1561240758.779081,4.603141158115376,-74.06474430536709,2651.532,-1,-1,10,65,-9999,1561240763.933978,-13.01563453674316,1.137220621109009,21.31011962890625,41.89806365966797,49.44174957275391,15,63224.305954125,-0.2468414306640625,-0.692657470703125,0.2990570068359375,63224.294815125,-1.723230607584961,-0.0736856726208574,-3.068051590616127,63224.28984112501,26.02510070800781,0.654083251953125,-511.8389892578125,63224.29988112501,-1.865646402468962,-2.063222967528406,0.8242762014166306,-1.78672468662262,-0.0710202157497406,-2.972513198852539,0.2554634809494019,0.1004657745361328,-0.01735401153564453,1,0.5091282725334167,0.6334928870201111,0.5826308727264404,-0.004054553806781769,-0.5984047651290894,-0.7340564727783203,0.3210496604442596,0,0,0,-1,63223.915695125,1,2,1561240763.57861,1561239991.781823,76,5.095047,0,0,66.78877,0,0,1561240729.863841,63221.836001,0,-1.334473,74.42771,2650659446,177292352,1,1,0.31,-12.06647,-33.29546,3
1561240763.992791,108,0,0,1561240758.779081,4.603141158115376,-74.06474430536709,2651.532,-1,-1,10,65,-9999,1561240763.984574,-12.73984718322754,-3.149142742156982,21.33355712890625,43.48750305175781,51.03118896484375,15,63224.326218125,-0.15576171875,-0.8282470703125,0.3382720947265625,63224.315079125,-1.877607664390238,-0.1285707595263004,-2.685907148949605,63224.30998312501,25.78269958496094,-0.90032958984375,-511.9177856445312,63224.32014512501,-1.875791867102753,-2.057714016610015,0.8917499440520034,-1.875944495201111,-0.1732195466756821,-2.600428819656372,0.3749745488166809,0.007481038570404053,0.02621579170227051,1,0.4916753470897675,0.6365447640419006,0.5937623977661133,0.02263617888092995,-0.5550587773323059,-0.7781720161437988,0.2938677668571472,0,0,0,-1,63223.915695125,1,2,1561240763.57861,1561239991.781823,76,5.095047,0,0,66.78877,0,0,1561240729.863841,63221.836001,0,-1.334473,74.42771,2650659446,177292352,1,1,0.31,-12.06647,-30.9004,3
1561240763.99569,109,0,0,1561240758.779081,4.603141158115376,-74.06474430536709,2651.532,-1,-1,10,65,-9999,1561240763.984574,-12.73984718322754,-3.149142742156982,21.33355712890625,43.48750305175781,51.03118896484375,15,63224.346482125,-0.160491943359375,-0.851165771484375,0.3435211181640625,63224.33534312501,-1.813641464483734,-0.2772036441763858,-2.371044809062845,63224.33009412501,25.98130798339844,-2.232666015625,-511.7442016601562,63224.340409125,-1.892343708766179,-2.049460959402338,0.9529525338484294,-1.81013035774231,-0.312620609998703,-2.31555700302124,0.3560167551040649,-0.03701293468475342,0.08221697807312012,1,0.4767109751701355,0.6373012661933899,0.6035584807395935,0.04807129502296448,-0.5141741037368774,-0.8151293992996216,0.2668125033378601,0,0,0,-1,63223.915695125,1,2,1561240763.57861,1561239991.781823,76,5.095047,0,0,66.78877,0,0,1561240729.863841,63221.836001,0,-1.334473,74.42771,2650659446,177292352,1,1,0.31,-12.06647,-30.9004,3
1561240764.010791,110,0,0,1561240758.779081,4.603141158115376,-74.06474430536709,2651.532,-1,-1,10,65,-9999,1561240763.984574,-12.73984718322754,-3.149142742156982,21.33355712890625,43.48750305175781,51.03118896484375,15,63224.366745125,-0.142120361328125,-0.8472137451171875,0.3035430908203125,63224.35560612501,-1.806748138318173,-0.312267355720587,-2.092844343690442,63224.35023512501,25.89756774902344,-3.569900512695312,-512.0614624023438,63224.360672125,-1.91507193566612,-2.036999632737654,1.008820533874344,-1.802199006080627,-0.3246192038059235,-1.997631907463074,0.3245193362236023,-0.002215266227722168,0.09121501445770264,1,0.4635560810565948,0.6362981796264648,0.6124048829078674,0.07211610674858093,-0.4759933054447174,-0.8462039232254028,0.2395192235708237,0,0,0,-1,63223.915695125,1,2,1561240763.57861,1561239991.781823,76,5.095047,0,0,66.78877,0,0,1561240729.863841,63221.836001,0,-1.334473,74.42771,2650659446,177292352,1,1,0.31,-12.06647,-31.42232,3
1561240764.030922,111,0,0,1561240758.779081,4.603141158115376,-74.06474430536709,2651.532,-1,-1,10,65,-9999,1561240764.01083,-12.58038902282715,-4.413878440856934,20.93817138671875,45.20650482177734,52.75019454956055,15,63224.38700912501,-0.251983642578125,-0.805206298828125,0.227752685546875,63224.375870125,-1.754267619560963,-0.2494913225052392,-1.613186660814015,63224.370377125,26.55816650390625,-4.994308471679688,-511.9227905273438,63224.38090512501,-1.947571456148579,-2.014757739907966,1.056342638041175,-1.74864673614502,-0.1510931998491287,-1.467971801757812,0.279089629650116,0.03755384683609009,0.05560314655303955,1,0.4526031315326691,0.6331074833869934,0.6210237741470337,0.09303081035614014,-0.4443576037883759,-0.8705616593360901,0.2113493531942368,0,0,0,-1,63223.915695125,1,2,1561240763.57861,1561239991.781823,76,5.095047,0,0,66.78877,0,0,1561240729.863841,63221.836001,0,-1.334473,74.42771,2650659446,177292352,1,1,0.31,-12.06647,-32.28589,3
1561240764.076799,112,0,0,1561240758.779081,4.603141158115376,-74.06474430536709,2651.532,-1,-1,10,65,-9999,1561240764.063892,-12.27783966064453,-6.79973316192627,20.61248779296875,159.4957427978516,167.0394287109375,15,63224.40727312501,-0.500396728515625,-0.795654296875,0.1654205322265625,63224.396134125,-1.782012431797408,0.5522756942162721,-0.9432937886349382,63224.390518125,26.58316040039062,-6.126571655273438,-512.3362426757812,63224.40116912501,-1.996759868634955,-1.965578933904587,1.091801527207388,-1.842211604118347,0.8387435674667358,-0.7515880465507507,0.03919017314910889,0.09548169374465942,0.0224921703338623,1,0.4417648911476135,0.6272751688957214,0.6325051188468933,0.1063338741660118,-0.4254359006881714,-0.8874586820602417,0.1772607117891312,0,0,0,-1,63223.915695125,1,2,1561240763.57861,1561239991.781823,76,5.095047,0,0,66.78877,0,0,1561240729.863841,63221.836001,0,-1.334473,74.42771,2650659446,177292352,1,1,0.31,-12.06647,-27.65623,3
1561240764.079654,113,0,0,1561240758.779081,4.603141158115376,-74.06474430536709,2651.532,-1,-1,10,65,-9999,1561240764.063892,-12.27783966064453,-6.79973316192627,20.61248779296875,159.4957427978516,167.0394287109375,15,63224.427506125,-0.49029541015625,-0.8319854736328125,0.0016326904296875,63224.416397125,-2.087070077814932,1.189431925011659,-0.1552348609923918,63224.410660125,26.09320068359375,-7.063064575195312,-512.4552612304688,63224.421433125,-2.07568938369268,-1.872953319299582,1.11247866854643,-2.168261766433716,1.049383401870728,-0.002014222554862499,-0.121900200843811,0.09552854299545288,-0.04251956939697266,1,0.4301966726779938,0.6170587539672852,0.6495675444602966,0.1105952560901642,-0.4223960638046265,-0.8967980742454529,0.1316613703966141,0,0,0,-1,63223.915695125,1,2,1561240763.57861,1561239991.781823,76,5.095047,0,0,66.78877,0,0,1561240729.863841,63221.836001,0,-1.334473,74.42771,2650659446,177292352,1,1,0.31,-12.06647,-27.65623,3
1561240764.091636,114,0,0,1561240758.779081,4.603141158115376,-74.06474430536709,2651.532,-1,-1,10,65,-9999,1561240764.085813,-13.01789855957031,-8.543608665466309,20.0302734375,159.9447631835938,167.4884490966797,15,63224.44776912501,-0.1922149658203125,-0.8777008056640625,0.081634521484375,63224.43663112501,-2.133888183462417,0.2738030537804636,0.04313095911826929,63224.430771125,25.80958557128906,-7.957138061523438,-513.013916015625,63224.441696125,-2.173069897582979,-1.774438014927235,1.122457352665974,-1.995734810829163,-0.006519516929984093,-0.1189339160919189,0.0675635039806366,0.0338892936706543,-0.09556770324707031,1,0.4244230091571808,0.6030728816986084,0.6653187870979309,0.1162718683481216,-0.4245123863220215,-0.9011683464050293,0.08766358345746994,0,0,0,-1,63223.915695125,1,2,1561240763.57861,1561239991.781823,76,5.095047,0,0,66.78877,0,0,1561240729.863841,63221.836001,0,-1.334473,74.42771,2650659446,177292352,1,1,0.31,-12.06647,-28.56853,3
1561240764.112598,115,0,0,1561240758.779081,4.603141158115376,-74.06474430536709,2651.532,-1,-1,10,65,-9999,1561240764.085813,-13.01789855957031,-8.543608665466309,20.0302734375,159.9447631835938,167.4884490966797,15,63224.46803312501,-0.2154541015625,-0.81719970703125,0.160736083984375,63224.456894125,-1.298440967383,-0.5333728431149987,-0.9549467163006889,63224.450913125,25.94004821777344,-8.693099975585938,-513.1025390625,63224.461960125,-2.240172532724405,-1.721385836184083,1.141088627170519,-1.127224802970886,-0.6046819686889648,-1.216172218322754,0.3006536066532135,0.03848212957382202,0.1190342903137207,1,0.4210828244686127,0.5949277281761169,0.6722650527954102,0.1296530216932297,-0.4118901789188385,-0.9090875387191772,0.06249949336051941,0,0,0,-1,63223.915695125,1,2,1561240763.57861,1561239991.781823,76,5.095047,0,0,66.78877,0,0,1561240729.863841,63221.836001,0,-1.334473,74.42771,2650659446,177292352,1,1,0.31,-12.06647,-28.56853,3
1561240764.158447,116,0,0,1561240758.779081,4.603141158115376,-74.06474430536709,2651.532,-1,-1,10,65,-9999,1561240764.13647,-12.31026649475098,-10.09109687805176,19.7138671875,162.6940765380859,170.2377624511719,15,63224.488297125,-0.615325927734375,-0.751861572265625,-0.0303955078125,63224.477158125,-1.044143438058495,-0.6102750817004537,-1.400676525837834,63224.471054125,26.22434997558594,-9.221221923828125,-513.2926635742188,63224.482224125,-2.283222444350559,-1.69455289637328,1.171543900595468,-1.142284631729126,-0.5241740942001343,-1.321207046508789,-0.05842703580856323,0.1505693793296814,0.007785797119140625,1,0.4155870676040649,0.5926887392997742,0.6740460395812988,0.1472048461437225,-0.3857563138008118,-0.9213518500328064,0.04798510670661926,0,0,0,-1,63223.915695125,1,2,1561240763.57861,1561239991.781823,76,5.095047,0,0,66.78877,0,0,1561240729.863841,63221.836001,0,-1.334473,74.42771,2650659446,177292352,1,1,0.31,-12.06647,-30.43747,3
1561240764.161595,117,0,0,1561240758.779081,4.603141158115376,-74.06474430536709,2651.532,-1,-1,10,65,-9999,1561240764.13647,-12.31026649475098,-10.09109687805176,19.7138671875,162.6940765380859,170.2377624511719,15,63224.508560125,-0.7303009033203125,-0.6248931884765625,-0.1147918701171875,63224.497422125,-1.59378499964057,0.184079292442931,-1.008261070795203,63224.491196125,26.80570983886719,-10.20567321777344,-513.3770751953125,63224.50248712501,-2.354615709312782,-1.629968133951812,1.196744868100896,-1.771128177642822,0.5186289548873901,-0.8983996510505676,-0.3317219913005829,0.2375562787055969,-0.1033036708831787,1,0.4071921110153198,0.5873658657073975,0.6805697679519653,0.1613092720508575,-0.3647501468658447,-0.9308546185493469,0.0216081514954567,0,0,0,-1,63223.915695125,1,2,1561240763.57861,1561239991.781823,76,5.095047,0,0,66.78877,0,0,1561240729.863841,63221.836001,0,-1.334473,74.42771,2650659446,177292352,1,1,0.31,-12.06647,-30.51615,3
1561240764.172713,118,0,0,1561240758.779081,4.603141158115376,-74.06474430536709,2651.532,-1,-1,10,65,-9999,1561240764.164538,-12.13329696655273,-10.96998596191406,19.6231689453125,162.7613067626953,170.3049926757812,15,63224.528824125,-0.6034393310546875,-0.5019073486328125,-0.130340576171875,63224.51768512501,-2.255561089449303,1.362654308638664,-0.4922485758781041,63224.511338125,26.76190185546875,-11.36238098144531,-513.8502197265625,63224.52275112501,-2.473019255587471,-1.497369599835297,1.209343947889772,-2.345109939575195,1.466777920722961,-0.3778429925441742,-0.3490864038467407,0.3716482520103455,-0.1083955764770508,1,0.3923445641994476,0.5771432518959045,0.6962866187095642,0.1677988767623901,-0.3526805639266968,-0.935384213924408,-0.02594281919300556,0,0,0,-1,63223.915695125,1,2,1561240763.57861,1561239991.781823,76,5.095047,0,0,66.78877,0,0,1561240729.863841,63221.836001,0,-1.334473,74.42771,2650659446,177292352,1,1,0.31,-12.06647,-30.51615,3
1561240764.193256,119,0,0,1561240758.779081,4.603141158115376,-74.06474430536709,2651.532,-1,-1,10,65,-9999,1561240764.187388,-12.89731597900391,-12.92895030975342,18.037109375,161.9422607421875,169.4859466552734,15,63224.549088125,-0.34527587890625,-0.4520263671875,0.042236328125,63224.53794912501,-2.194821575519538,1.410433815439666,-0.1606346864186364,63224.53147912501,25.9908447265625,-12.39395141601562,-514.7281494140625,63224.543015125,-2.603049810835405,-1.346543440529427,1.20712088500899,-2.037355899810791,1.307137727737427,-0.1395276188850403,-0.1178256273269653,0.4599710702896118,0.005982279777526855,1,0.3768357336521149,0.5643081068992615,0.7146161198616028,0.1699260324239731,-0.3468044996261597,-0.9345957636833191,-0.07910238206386566,0,0,0,-1,63223.915695125,1,2,1561240763.57861,1561239991.781823,76,5.095047,0,0,66.78877,0,0,1561240729.863841,63221.836001,0,-1.334473,74.42771,2650659446,177292352,1,1,0.31,-12.06647,-31.08121,3
1561240764.237867,120,0,0,1561240758.779081,4.603141158115376,-74.06474430536709,2651.532,-1,-1,10,65,-9999,1561240764.213469,-13.34433555603027,-13.77103328704834,17.20172119140625,161.4740905761719,169.0177764892578,15,63224.56935112501,-0.1935272216796875,-0.29473876953125,0.2234649658203125,63224.558213125,-1.304933754120613,0.7993294253757618,-0.2482438978506461,63224.551590125,25.64474487304688,-13.25930786132812,-515.6390380859375,63224.563278125,-2.691363581062814,-1.244325881170983,1.202453210102669,-1.013571977615356,0.5355527997016907,-0.3272264003753662,0.09585759043693542,0.5498075485229492,0.2763179540634155,1,0.3658658564090729,0.555341899394989,0.7267985343933105,0.1717594861984253,-0.3410510718822479,-0.9329252243041992,-0.1154751032590866,0,0,0,-1,63223.915695125,1,2,1561240763.57861,1561239991.781823,76,5.095047,0,0,66.78877,0,0,1561240729.863841,63221.836001,0,-1.334473,74.42771,2650659446,177292352,1,1,0.31,-12.06647,-32.77974,3
1561240764.24051,121,0,0,1561240758.779081,4.603141158115376,-74.06474430536709,2651.532,-1,-1,10,65,-9999,1561240764.237741,-13.18799018859863,-14.13503932952881,17.2750244140625,162.4385375976562,169.9822235107422,15,63224.58961512501,-0.2220306396484375,-0.1858673095703125,0.187896728515625,63224.578476125,-0.2041036006792368,-0.4577590418649239,-0.2988016143008194,63224.571732125,25.36557006835938,-13.66775512695312,-515.8717651367188,63224.583542125,-2.722662337271505,-1.217546428914595,1.20547488382203,0.004938033409416676,-0.8528699278831482,-0.1842114627361298,0.1435402035713196,0.6980470418930054,0.3437286615371704,1,0.3640926778316498,0.5528485178947449,0.7284330129623413,0.1765796989202499,-0.3351905941963196,-0.9340089559555054,-0.1235900744795799,0,0,0,-1,63223.915695125,1,2,1561240763.57861,1561239991.781823,76,5.095047,0,0,66.78877,0,0,1561240729.863841,63221.836001,0,-1.334473,74.42771,2650659446,177292352,1,1,0.31,-12.06647,-32.77974,3
1561240764.25388,122,0,0,1561240758.779081,4.603141158115376,-74.06474430536709,2651.532,-1,-1,10,65,-9999,1561240764.237741,-13.18799018859863,-14.13503932952881,17.2750244140625,162.4385375976562,169.9822235107422,15,63224.609879125,-0.2546844482421875,-0.08331298828125,0.1931915283203125,63224.598740125,0.615188880227759,-1.938542654344014,0.3198381900674643,63224.59187312501,25.83792114257812,-13.55604553222656,-515.4456787109375,63224.60380612501,-2.697958222059601,-1.272723304917172,1.205304892542559,0.8160911202430725,-2.252409934997559,0.5025597214698792,0.102085143327713,0.8100315928459167,0.2806224226951599,1,0.3772930502891541,0.552420437335968,0.7204548120498657,0.1828291118144989,-0.3416481018066406,-0.9339482188224792,-0.1049632281064987,0,0,0,-1,63223.915695125,1,2,1561240763.57861,1561239991.781823,76,5.095047,0,0,66.78877,0,0,1561240729.863841,63221.836001,0,-1.334473,74.42771,2650659446,177292352,1,1,0.31,-12.06647,-33.14439,3
