loggingTime,loggingSample,identifierForVendor,deviceID,locationTimestamp_since1970,locationLatitude,locationLongitude,locationAltitude,locationSpeed,locationCourse,locationVerticalAccuracy,locationHorizontalAccuracy,locationFloor,locationHeadingTimestamp_since1970,locationHeadingX,locationHeadingY,locationHeadingZ,locationTrueHeading,locationMagneticHeading,locationHeadingAccuracy,accelerometerTimestamp_sinceReboot,accelerometerAccelerationX,accelerometerAccelerationY,accelerometerAccelerationZ,gyroTimestamp_sinceReboot,gyroRotationX,gyroRotationY,gyroRotationZ,magnetometerTimestamp_sinceReboot,magnetometerX,magnetometerY,magnetometerZ,motionTimestamp_sinceReboot,motionYaw,motionRoll,motionPitch,motionRotationRateX,motionRotationRateY,motionRotationRateZ,motionUserAccelerationX,motionUserAccelerationY,motionUserAccelerationZ,motionAttitudeReferenceFrame,motionQuaternionX,motionQuaternionY,motionQuaternionZ,motionQuaternionW,motionGravityX,motionGravityY,motionGravityZ,motionMagneticFieldX,motionMagneticFieldY,motionMagneticFieldZ,motionMagneticFieldCalibrationAccuracy,activityTimestamp_sinceReboot,activity,activityActivityConfidence,activityActivityStartDate,pedometerStartDate,pedometerNumberofSteps,pedometerAverageActivePace,pedometerCurrentPace,pedometerCurrentCadence,pedometerDistance,pedometerFloorAscended,pedometerFloorDescended,pedometerEndDate,altimeterTimestamp_sinceReboot,altimeterReset,altimeterRelativeAltitude,altimeterPressure,IP_en0,IP_pdp_ip0,deviceOrientation,batteryState,batteryLevel,avAudioRecorderPeakPower,avAudioRecorderAveragePower,label
1561241757.051975,1,0,0,1561241752.61429,4.60305018511949,-74.06478503319742,2651.467,-1,-1,10,65,-9999,1561241757.026317,-26.92809677124023,10.36315822601318,1.25677490234375,253.0124664306641,260.55615234375,15,64217.39535204167,-0.313507080078125,0.9598388671875,-0.0069122314453125,64217.38622704167,0.04080442158997607,-0.005449626538629145,-0.06408178109781365,64217.37408104167,11.52888488769531,10.99143981933594,-532.3562622070312,64217.37609504167,-1.971129529122088,-1.564785611740096,-1.276844001325526,0.03757747262716293,-0.03577860072255135,-0.06147901713848114,-0.01809880137443542,-0.003752291202545166,-0.004133105278015137,1,0.7053805589675903,-0.03959177061915398,0.2426874935626984,-0.6648108959197998,-0.2897320091724396,0.9571062326431274,-0.00174151745159179,0,0,0,-1,64217.32717504167,2,0,1561241756.99009,1561241546.732582,16,16.27515,0,0,14.2948,0,0,1561241691.513234,64214.838901,0,-1.112549,74.44029,2650659446,177292352,1,1,0.2,-29.12753,-36.87477,2
1561241757.054971,2,0,0,1561241752.61429,4.60305018511949,-74.06478503319742,2651.467,-1,-1,10,65,-9999,1561241757.026317,-26.92809677124023,10.36315822601318,1.25677490234375,253.0124664306641,260.55615234375,15,64217.41561504167,-0.3121490478515625,0.95892333984375,-0.0065765380859375,64217.40649104167,0.04211230000131399,0.02757729940387952,-0.06059756744366299,64217.39419204167,11.32765197753906,10.82221984863281,-531.984130859375,64217.39635904167,-1.96851480717092,-1.562552870781738,-1.275519978171581,0.03769571706652641,0.0141484783962369,-0.06357359141111374,-0.0225127637386322,0.003117084503173828,-0.004513382911682129,1,0.7051836252212524,-0.03894390910863876,0.2430459558963776,-0.6649271249771118,-0.2909943461418152,0.9567217826843262,-0.002398853423073888,0,0,0,-1,64217.32717504167,2,0,1561241756.99009,1561241546.732582,16,16.27515,0,0,14.2948,0,0,1561241691.513234,64214.838901,0,-1.112549,74.44029,2650659446,177292352,1,1,0.2,-29.12753,-36.87477,2
1561241757.078802,3,0,0,1561241752.61429,4.60305018511949,-74.06478503319742,2651.467,-1,-1,10,65,-9999,1561241757.062253,-27.22095108032227,10.40134620666504,1.33636474609375,252.9688262939453,260.5125122070312,15,64217.43587904167,-0.3163299560546875,0.9600830078125,-0.0157012939453125,64217.42675404167,0.05784732098593816,-0.01706580258133676,-0.09573744539504052,64217.41433404167,11.3505859375,10.76185607910156,-531.9393310546875,64217.41662204167,-1.965789492177715,-1.559643241364617,-1.274166742692512,0.04690439626574516,0.003902232274413109,-0.07720870524644852,-0.01986834406852722,0.002596259117126465,-0.003316521644592285,1,0.7049041986465454,-0.03847190365195274,0.2436157912015915,-0.6650424003601074,-0.2922807037830353,0.9563270807266235,-0.003259966615587473,0,0,0,-1,64217.32717504167,2,0,1561241756.99009,1561241546.732582,16,16.27515,0,0,14.2948,0,0,1561241691.513234,64214.838901,0,-1.112549,74.44029,2650659446,177292352,1,1,0.2,-29.12753,-36.9565,2
1561241757.089587,4,0,0,1561241752.61429,4.60305018511949,-74.06478503319742,2651.467,-1,-1,10,65,-9999,1561241757.08333,-27.30794143676758,10.11587333679199,1.41845703125,252.9171600341797,260.4608459472656,15,64217.45614304167,-0.33209228515625,0.9594879150390625,-0.0228729248046875,64217.44701804167,0.06201064071805903,-0.03280854673312217,-0.1222489477306703,64217.43447504167,11.3380126953125,10.96697998046875,-531.9501953125,64217.43688604167,-1.962223332435059,-1.556701922314461,-1.272179623090912,0.05800498276948929,-0.04271427169442177,-0.1132508665323257,-0.02216112613677979,0.004338681697845459,-0.01155489683151245,1,0.704642653465271,-0.0374903529882431,0.2441273331642151,-0.6651878952980042,-0.2941688001155853,0.9557443857192993,-0.004146408755332232,0,0,0,-1,64217.32717504167,2,0,1561241756.99009,1561241546.732582,16,16.27515,0,0,14.2948,0,0,1561241691.513234,64214.838901,0,-1.112549,74.44029,2650659446,177292352,1,1,0.2,-29.12753,-37.17835,2
1561241757.109811,5,0,0,1561241752.61429,4.60305018511949,-74.06478503319742,2651.467,-1,-1,10,65,-9999,1561241757.08333,-27.30794143676758,10.11587333679199,1.41845703125,252.9171600341797,260.4608459472656,15,64217.47640604167,-0.328399658203125,0.9622039794921875,-0.015716552734375,64217.46728204167,0.08729282789450826,0.02981541998398211,-0.1508560915280835,64217.45458604167,11.3726806640625,10.79119873046875,-531.9263916015625,64217.45715004167,-1.958259025162459,-1.553692775995648,-1.269588101228828,0.06476488709449768,-0.02752306684851646,-0.1400366723537445,-0.03546148538589478,0.004509210586547852,-0.01779896020889282,1,0.7043821811676025,-0.03617700189352036,0.2447314709424973,-0.6653145551681519,-0.2966307997703552,0.9549787640571594,-0.00507393479347229,0,0,0,-1,64217.32717504167,2,0,1561241756.99009,1561241546.732582,16,16.27515,0,0,14.2948,0,0,1561241691.513234,64214.838901,0,-1.112549,74.44029,2650659446,177292352,1,1,0.2,-29.12753,-37.17835,2
1561241757.130531,6,0,0,1561241752.61429,4.60305018511949,-74.06478503319742,2651.467,-1,-1,10,65,-9999,1561241757.124235,-27.20647048950195,10.1314172744751,1.1085205078125,252.9398956298828,260.4835815429688,15,64217.49667004167,-0.3142242431640625,0.9571990966796875,-0.010833740234375,64217.48754504167,0.1205312088275692,0.1280969831683753,-0.1138796976889873,64217.47472804167,11.16207885742188,10.74845886230469,-532.1228637695312,64217.47741304167,-1.952687601944262,-1.547858126123866,-1.266505063212905,0.1043913885951042,0.08904615789651871,-0.1440753638744354,-0.02886128425598145,0.00814443826675415,-0.008844494819641113,1,0.7038000226020813,-0.03506408259272575,0.2459585815668106,-0.6655377149581909,-0.2995383739471436,0.9540595412254333,-0.006872076541185379,0,0,0,-1,64217.32717504167,2,0,1561241756.99009,1561241546.732582,16,16.27515,0,0,14.2948,0,0,1561241691.513234,64214.838901,0,-1.112549,74.44029,2650659446,177292352,1,1,0.2,-29.12753,-37.83864,2
1561241757.156042,7,0,0,1561241752.61429,4.60305018511949,-74.06478503319742,2651.467,-1,-1,10,65,-9999,1561241757.150519,-27.42276000976562,10.02966785430908,1.09423828125,253.0041961669922,260.5478820800781,15,64217.51693404167,-0.290069580078125,0.943634033203125,-0.012847900390625,64217.50780904167,0.1248066476415824,0.07626947151045228,-0.09763521398783098,64217.49487004167,11.259765625,10.5648193359375,-532.1984252929688,64217.49767704167,-1.945182849276212,-1.538405107979444,-1.264010437290861,0.1217924878001213,0.1140369921922684,-0.1005923226475716,-0.01238611340522766,0.003889977931976318,-0.001053452491760254,1,0.7027849555015564,-0.03468635678291321,0.2476158887147903,-0.6660155057907104,-0.3018381297588348,0.9533091187477112,-0.009780325926840305,0,0,0,-1,64217.32717504167,2,0,1561241756.99009,1561241546.732582,16,16.27515,0,0,14.2948,0,0,1561241691.513234,64214.838901,0,-1.112549,74.44029,2650659446,177292352,1,1,0.2,-29.12753,-34.99881,2
1561241757.170547,8,0,0,1561241752.61429,4.60305018511949,-74.06478503319742,2651.467,-1,-1,10,65,-9999,1561241757.150519,-27.42276000976562,10.02966785430908,1.09423828125,253.0041961669922,260.5478820800781,15,64217.53716704167,-0.3002777099609375,0.9335784912109375,-0.01483154296875,64217.52804204167,0.1030699268243557,-0.06087959620310238,-0.1440373338730446,64217.51498104167,11.04621887207031,10.67695617675781,-532.0965576171875,64217.51794104167,-1.937396560838402,-1.529662679861194,-1.261797001655864,0.1150416359305382,-0.0003761360421776772,-0.1197271347045898,0.01377904415130615,-0.009004294872283936,-0.0003424882888793945,1,0.7018446922302246,-0.03407784923911095,0.2488301545381546,-0.6665856242179871,-0.3038486242294312,0.9526383280754089,-0.01250545680522919,0,0,0,-1,64217.32717504167,2,0,1561241756.99009,1561241546.732582,16,16.27515,0,0,14.2948,0,0,1561241691.513234,64214.838901,0,-1.112549,74.44029,2650659446,177292352,1,1,0.2,-29.12753,-35.74152,2
1561241757.190887,9,0,0,1561241752.61429,4.60305018511949,-74.06478503319742,2651.467,-1,-1,10,65,-9999,1561241757.175353,-27.50568008422852,10.00886726379395,1.05877685546875,252.8664703369141,260.41015625,15,64217.55743104167,-0.3412017822265625,0.95269775390625,-0.0260467529296875,64217.54830604167,0.04290885148335669,-0.1396082306641338,-0.1686366865459975,64217.53512204167,11.193359375,10.57289123535156,-532.136962890625,64217.53817404167,-1.931360774708159,-1.525253244562081,-1.25869620014061,0.06957322359085083,-0.1241233795881271,-0.1717810183763504,0.006462246179580688,-0.01811230182647705,-0.0008519887924194336,1,0.7014023065567017,-0.03232691437005997,0.2493998408317566,-0.6669254899024963,-0.3067399561405182,0.9516907930374146,-0.01397954951971769,0,0,0,-1,64217.32717504167,2,0,1561241756.99009,1561241546.732582,16,16.27515,0,0,14.2948,0,0,1561241691.513234,64214.838901,0,-1.112549,74.44029,2650659446,177292352,1,1,0.2,-29.12753,-35.85347,2
1561241757.211153,10,0,0,1561241752.61429,4.60305018511949,-74.06478503319742,2651.467,-1,-1,10,65,-9999,1561241757.201708,-27.34723663330078,9.720561981201172,1.13970947265625,252.6420745849609,260.1857604980469,15,64217.57769404167,-0.3529815673828125,0.9754791259765625,-0.0337982177734375,64217.56856904167,0.05237479126193433,-0.1687488056278899,-0.2213036265795136,64217.55526404167,11.35055541992188,10.35308837890625,-532.2813110351562,64217.55843804167,-1.929082128052701,-1.526066277445467,-1.255108684754617,0.02830248326063156,-0.1650899797677994,-0.1829460561275482,-0.03104203939437866,0.002114653587341309,-0.01216405630111694,1,0.7015410661697388,-0.02997953072190285,0.2495522946119308,-0.6668320894241333,-0.3101597428321838,0.9505831003189087,-0.0138827208429575,0,0,0,-1,64217.32717504167,2,0,1561241756.99009,1561241546.732582,16,16.27515,0,0,14.2948,0,0,1561241691.513234,64214.838901,0,-1.112549,74.44029,2650659446,177292352,1,1,0.2,-29.12753,-34.95356,2
1561241757.242575,11,0,0,1561241752.61429,4.60305018511949,-74.06478503319742,2651.467,-1,-1,10,65,-9999,1561241757.225577,-27.55080223083496,9.634355545043945,1.2076416015625,252.3927459716797,259.9364318847656,15,64217.59795804167,-0.360748291015625,0.9857177734375,-0.0282745361328125,64217.58883304167,0.1280716831380196,-0.1202521095453289,-0.2968601698661516,64217.57537504167,10.92231750488281,10.19316101074219,-532.0985717773438,64217.57870104167,-1.926384556384302,-1.527009135536793,-1.25050402972669,0.08358091861009598,-0.168497771024704,-0.2709715366363525,-0.03843894600868225,0.02633571624755859,-0.02001649141311646,1,0.7016949653625488,-0.02707955241203308,0.2498588413000107,-0.6666795015335083,-0.3145426213741302,0.9491434097290039,-0.01378174684941769,0,0,0,-1,64217.32717504167,2,0,1561241756.99009,1561241546.732582,16,16.27515,0,0,14.2948,0,0,1561241691.513234,64214.838901,0,-1.112549,74.44029,2650659446,177292352,1,1,0.2,-29.12753,-35.04911,2
1561241757.251865,12,0,0,1561241752.61429,4.60305018511949,-74.06478503319742,2651.467,-1,-1,10,65,-9999,1561241757.225577,-27.55080223083496,9.634355545043945,1.2076416015625,252.3927459716797,259.9364318847656,15,64217.61822204167,-0.349884033203125,0.9678497314453125,-0.017608642578125,64217.60909704167,0.1848478807335279,0.06398484203413476,-0.2866083312498916,64217.59551604167,10.88031005859375,10.26536560058594,-531.88720703125,64217.59896504167,-1.919332332819927,-1.522748377270085,-1.244449906745809,0.1677338629961014,-0.04423200711607933,-0.3070517778396606,-0.04053395986557007,0.03849780559539795,-0.01287704706192017,1,0.7012356519699097,-0.02387078478932381,0.251021683216095,-0.6668484210968018,-0.3202143311500549,0.9472199678421021,-0.01539749186486006,0,0,0,-1,64217.32717504167,2,0,1561241756.99009,1561241546.732582,16,16.27515,0,0,14.2948,0,0,1561241691.513234,64214.838901,0,-1.112549,74.44029,2650659446,177292352,1,1,0.2,-29.12753,-34.94796,2
1561241757.271917,13,0,0,1561241752.61429,4.60305018511949,-74.06478503319742,2651.467,-1,-1,10,65,-9999,1561241757.252124,-27.53969192504883,9.555947303771973,1.31744384765625,252.3431243896484,259.8868103027344,15,64217.63848504167,-0.3365325927734375,0.9603271484375,-0.0105133056640625,64217.62936004167,0.1614022094447973,0.1464160693587034,-0.2401375018085539,64217.61562804167,11.23829650878906,9.996673583984375,-532.2928466796875,64217.61922904167,-1.909326038703546,-1.512272612255927,-1.238463296059706,0.1666616797447205,0.1238805651664734,-0.2652912735939026,-0.02419298887252808,0.02256596088409424,0.001473784446716309,1,0.6999905705451965,-0.02172513492405415,0.253351628780365,-0.6673486828804016,-0.3256910145282745,0.9452837705612183,-0.01908244006335735,0,0,0,-1,64217.32717504167,2,0,1561241756.99009,1561241546.732582,16,16.27515,0,0,14.2948,0,0,1561241691.513234,64214.838901,0,-1.112549,74.44029,2650659446,177292352,1,1,0.2,-29.12753,-34.94796,2
1561241757.29236,14,0,0,1561241752.61429,4.60305018511949,-74.06478503319742,2651.467,-1,-1,10,65,-9999,1561241757.276195,-27.51113891601562,9.288084983825684,1.1158447265625,252.4351348876953,259.9788208007812,15,64217.65874904167,-0.3537750244140625,0.9898681640625,-0.014678955078125,64217.64962404167,0.1576170585874677,0.005162005140900587,-0.2913125389994076,64217.63576904167,11.02462768554688,9.842056274414062,-532.1646728515625,64217.63949204167,-1.90052493887796,-1.501391601391324,-1.23321757651819,0.1552042365074158,0.09059558063745499,-0.2523589432239532,-0.00612640380859375,0.01676779985427856,0.01245534420013428,1,0.6986410021781921,-0.02040659077465534,0.2559694051742554,-0.6678053736686707,-0.3304061889648438,0.9435593485832214,-0.02296864241361618,0,0,0,-1,64217.65133304167,3,2,1561241757.314248,1561241546.732582,16,16.27515,0,0,14.2948,0,0,1561241691.513234,64214.838901,0,-1.112549,74.44029,2650659446,177292352,1,1,0.2,-29.12753,-35.20591,2
1561241757.327309,15,0,0,1561241752.61429,4.60305018511949,-74.06478503319742,2651.467,-1,-1,10,65,-9999,1561241757.30303,-27.69044876098633,8.921294212341309,1.20501708984375,252.2942047119141,259.837890625,15,64217.67901304167,-0.392669677734375,0.995361328125,-0.019622802734375,64217.66988804167,0.170332321212051,-0.1350483662457002,-0.3935145416245064,64217.65591104167,10.91168212890625,9.624801635742188,-532.3432006835938,64217.65975604167,-1.892435589063028,-1.493786384197376,-1.226993533914292,0.1549778580665588,-0.09180112183094025,-0.3428579568862915,-0.01770389080047607,0.04838848114013672,0.01125317811965942,1,0.6976486444473267,-0.01789739914238453,0.2580001056194305,-0.6681333184242249,-0.3360711634159088,0.9414796829223633,-0.02593210339546204,0,0,0,-1,64217.65133304167,3,2,1561241757.314248,1561241546.732582,16,16.27515,0,0,14.2948,0,0,1561241691.513234,64214.838901,0,-1.112549,74.44029,2650659446,177292352,1,1,0.2,-29.12753,-36.89087,2
1561241757.333296,16,0,0,1561241752.61429,4.60305018511949,-74.06478503319742,2651.467,-1,-1,10,65,-9999,1561241757.32718,-27.66096115112305,8.622312545776367,1.13812255859375,251.9976959228516,259.5413818359375,15,64217.69927604167,-0.41265869140625,1.006500244140625,-0.032318115234375,64217.69015104167,0.2102991786391971,-0.1424964288663248,-0.5164889344361143,64217.67602204167,10.90748596191406,9.526214599609375,-532.3544921875,64217.68002004167,-1.884396629000852,-1.488981009385943,-1.218685569371728,0.1819085478782654,-0.1592326313257217,-0.4576697647571564,-0.04894328117370605,0.05671447515487671,0.008562207221984863,1,0.6969354748725891,-0.0137274544686079,0.2597617506980896,-0.6682936549186707,-0.3437264263629913,0.9386468529701233,-0.02818500250577927,0,0,0,-1,64217.65133304167,3,2,1561241757.314248,1561241546.732582,16,16.27515,0,0,14.2948,0,0,1561241691.513234,64214.838901,0,-1.112549,74.44029,2650659446,177292352,1,1,0.2,-29.12753,-36.89087,2
1561241757.353465,17,0,0,1561241752.61429,4.60305018511949,-74.06478503319742,2651.467,-1,-1,10,65,-9999,1561241757.32718,-27.66096115112305,8.622312545776367,1.13812255859375,251.9976959228516,259.5413818359375,15,64217.71956004167,-0.4120025634765625,1.011398315429688,-0.031494140625,64217.71041504167,0.3063932213041993,-0.1171519237203677,-0.615591550184579,64217.69616304167,10.87350463867188,9.287796020507812,-532.024658203125,64217.70028304167,-1.874871497412298,-1.48303885206662,-1.207852660967196,0.2495509684085846,-0.1294651478528976,-0.5779317021369934,-0.05899706482887268,0.07164448499679565,-0.00120168924331665,1,0.6959664225578308,-0.008517752401530743,0.2622600793838501,-0.6684144735336304,-0.3536616265773773,0.9348558187484741,-0.03111637383699417,0,0,0,-1,64217.65133304167,3,2,1561241757.314248,1561241546.732582,16,16.27515,0,0,14.2948,0,0,1561241691.513234,64214.838901,0,-1.112549,74.44029,2650659446,177292352,1,1,0.2,-29.12753,-37.02956,2
1561241757.373218,18,0,0,1561241752.61429,4.60305018511949,-74.06478503319742,2651.467,-1,-1,10,65,-9999,1561241757.35338,-27.6822681427002,8.231599807739258,1.3160400390625,251.6843719482422,259.2280578613281,15,64217.73982404167,-0.4174957275390625,1.028762817382812,-0.0284271240234375,64217.73069904167,0.3453568659487126,-0.1450509329839288,-0.6602453048141556,64217.71632504167,10.87916564941406,8.773040771484375,-532.11767578125,64217.72056704167,-1.861433455593461,-1.473059903182983,-1.194870592362777,0.3355329930782318,-0.1251510977745056,-0.6479800343513489,-0.04662063717842102,0.08123016357421875,0.004331111907958984,1,0.6943204998970032,-0.002531575970351696,0.2655607461929321,-0.6688723564147949,-0.3653819262981415,0.9301681518554688,-0.03582526743412018,0,0,0,-1,64217.65133304167,3,2,1561241757.314248,1561241546.732582,16,16.27515,0,0,14.2948,0,0,1561241691.513234,64214.838901,0,-1.112549,74.44029,2650659446,177292352,1,1,0.2,-29.12753,-37.84069,2
1561241757.409277,19,0,0,1561241752.61429,4.60305018511949,-74.06478503319742,2651.467,-1,-1,10,65,-9999,1561241757.403847,-28.07458686828613,7.229904174804688,1.6986083984375,250.4604949951172,258.0041809082031,15,64217.76008704167,-0.4385528564453125,1.074066162109375,-0.04302978515625,64217.75096304167,0.3268348468833205,-0.3638927334517731,-0.7207185026349119,64217.73643604167,10.772216796875,8.45355224609375,-532.125732421875,64217.74083104167,-1.846848435064377,-1.462872854703866,-1.180813997239933,0.3326208293437958,-0.2457052022218704,-0.6797044277191162,-0.0395357608795166,0.1038470268249512,0.01252275705337524,1,0.6924650073051453,0.004157065879553556,0.2688901424407959,-0.6694571971893311,-0.3779599964618683,0.9249157905578613,-0.04094986617565155,0,0,0,-1,64217.65133304167,3,2,1561241757.314248,1561241546.732582,16,16.27515,0,0,14.2948,0,0,1561241691.513234,64214.838901,0,-1.112549,74.44029,2650659446,177292352,1,1,0.2,-29.12753,-38.47955,2
1561241757.413889,20,0,0,1561241752.61429,4.60305018511949,-74.06478503319742,2651.467,-1,-1,10,65,-9999,1561241757.403847,-28.07458686828613,7.229904174804688,1.6986083984375,250.4604949951172,258.0041809082031,15,64217.78035104167,-0.485015869140625,1.130401611328125,-0.0763092041015625,64217.77122604167,0.327222070505818,-0.6856808900693934,-0.8541830869803418,64217.75657804167,10.56649780273438,8.43536376953125,-531.8145751953125,64217.76109404167,-1.834272483418021,-1.458908954437979,-1.165450211086519,0.3079511523246765,-0.5242854356765747,-0.7855701446533203,-0.04668182134628296,0.1551001667976379,0.0009995102882385254,1,0.69124835729599,0.01269081514328718,0.2711566090583801,-0.6696929931640625,-0.3918710350990295,0.9189659953117371,-0.04402930289506912,0,0,0,-1,64217.65133304167,3,2,1561241757.314248,1561241546.732582,16,16.27515,0,0,14.2948,0,0,1561241691.513234,64214.838901,0,-1.112549,74.44029,2650659446,177292352,1,1,0.2,-29.12753,-35.41968,2
1561241757.434073,21,0,0,1561241752.61429,4.60305018511949,-74.06478503319742,2651.467,-1,-1,10,65,-9999,1561241757.428266,-27.94331359863281,6.790726184844971,1.87762451171875,249.1573944091797,256.7010803222656,15,64217.80061504167,-0.5289306640625,1.136428833007812,-0.0743865966796875,64217.79149004167,0.4741148456996456,-0.8548542035750418,-1.056379065370755,64217.77671904167,10.48176574707031,7.661590576171875,-531.653076171875,64217.78135804167,-1.822491148616214,-1.462005757629523,-1.14737111307737,0.3749754726886749,-0.8249329328536987,-0.9509729743003845,-0.07655918598175049,0.218714714050293,-0.0316968560218811,1,0.6907274723052979,0.02427694201469421,0.2721401154994965,-0.6695117950439453,-0.4084567129611969,0.911686897277832,-0.04461237788200378,0,0,0,-1,64217.65133304167,3,2,1561241757.314248,1561241546.732582,16,16.27515,0,0,14.2948,0,0,1561241691.513234,64214.838901,0,-1.112549,74.44029,2650659446,177292352,1,1,0.2,-29.12753,-35.41968,2
1561241757.454489,22,0,0,1561241752.61429,4.60305018511949,-74.06478503319742,2651.467,-1,-1,10,65,-9999,1561241757.428266,-27.94331359863281,6.790726184844971,1.87762451171875,249.1573944091797,256.7010803222656,15,64217.82087804167,-0.535980224609375,1.105789184570312,-0.07049560546875,64217.81175404167,0.5877010630365062,-0.6425544583249772,-1.220463876981589,64217.79683004167,10.28494262695312,7.336227416992188,-530.8819580078125,64217.80162204167,-1.80562737666956,-1.463865752002292,-1.125066231371093,0.5455645322799683,-0.8110668659210205,-1.153186559677124,-0.1002761423587799,0.234132707118988,-0.02837485074996948,1,0.6895625591278076,0.0386987030506134,0.2732385993003845,-0.6695868968963623,-0.4286544919013977,0.9022961258888245,-0.04601177573204041,0,0,0,-1,64217.65133304167,3,2,1561241757.314248,1561241546.732582,16,16.27515,0,0,14.2948,0,0,1561241691.513234,64214.838901,0,-1.112549,74.44029,2650659446,177292352,1,1,0.2,-29.12753,-35.78109,2
1561241757.493061,23,0,0,1561241752.61429,4.60305018511949,-74.06478503319742,2651.467,-1,-1,10,65,-9999,1561241757.479432,-28.18267631530762,5.836443424224854,2.3138427734375,247.1206970214844,254.6643829345703,15,64217.84111104167,-0.5089569091796875,1.057723999023438,-0.029998779296875,64217.83201704167,0.6298285430560335,-0.2936886113239762,-1.240511354719378,64217.81697204167,10.20674133300781,6.58843994140625,-530.9137573242188,64217.82188504167,-1.785189844574128,-1.458707867637763,-1.099281704460568,0.6060822010040283,-0.4816487431526184,-1.257897973060608,-0.08459463715553284,0.2149078845977783,-0.01968753337860107,1,0.6868511438369751,0.05321154370903969,0.2766875028610229,-0.6699612140655518,-0.4513855874538422,0.8908812999725342,-0.05080807581543922,0,0,0,-1,64217.65133304167,3,2,1561241757.314248,1561241546.732582,16,16.27515,0,0,14.2948,0,0,1561241691.513234,64214.838901,0,-1.112549,74.44029,2650659446,177292352,1,1,0.2,-29.12753,-36.9445,2
1561241757.495902,24,0,0,1561241752.61429,4.60305018511949,-74.06478503319742,2651.467,-1,-1,10,65,-9999,1561241757.479432,-28.18267631530762,5.836443424224854,2.3138427734375,247.1206970214844,254.6643829345703,15,64217.86137504167,-0.480743408203125,1.038619995117188,-0.017333984375,64217.85225004167,0.5620393754047206,-0.04595337724153527,-1.213282929418299,64217.83708304167,10.53900146484375,5.965377807617188,-530.4840087890625,64217.84211904167,-1.764828490833131,-1.446760276277581,-1.072793731208855,0.6092985272407532,-0.1156095191836357,-1.235160708427429,-0.03495484590530396,0.1791855692863464,0.02909791469573975,1,0.6827483177185059,0.0656229630112648,0.2826771140098572,-0.6705535650253296,-0.4740020632743835,0.8785384297370911,-0.05909672379493713,0,0,0,-1,64217.65133304167,3,2,1561241757.314248,1561241546.732582,16,16.27515,0,0,14.2948,0,0,1561241691.513234,64214.838901,0,-1.112549,74.44029,2650659446,177292352,1,1,0.2,-29.12753,-36.9445,2
1561241757.515104,25,0,0,1561241752.61429,4.60305018511949,-74.06478503319742,2651.467,-1,-1,10,65,-9999,1561241757.505262,-28.34418296813965,4.448479652404785,2.50531005859375,246.6783599853516,254.2220458984375,15,64217.88163904167,-0.5060882568359375,1.02001953125,-0.024993896484375,64217.87251404167,0.3974730642688002,-0.1165660282805502,-1.156148004023957,64217.85722504167,10.47862243652344,5.444320678710938,-530.606201171875,64217.86238204167,-1.748519678855948,-1.433882986210879,-1.046928727726757,0.4932589530944824,-0.06216192245483398,-1.188806772232056,0.01480835676193237,0.1727290749549866,0.05094081163406372,1,0.6782898306846619,0.07606253772974014,0.2900703549385071,-0.6708179116249084,-0.4955517649650574,0.8658909797668457,-0.06827478855848312,0,0,0,-1,64217.65133304167,3,2,1561241757.314248,1561241546.732582,16,16.27515,0,0,14.2948,0,0,1561241691.513234,64214.838901,0,-1.112549,74.44029,2650659446,177292352,1,1,0.2,-29.12753,-37.63063,2
1561241757.535341,26,0,0,1561241752.61429,4.60305018511949,-74.06478503319742,2651.467,-1,-1,10,65,-9999,1561241757.529633,-28.38439178466797,3.878337383270264,2.6873779296875,246.1567535400391,253.700439453125,15,64217.90190204167,-0.53564453125,1.003204345703125,-0.0622100830078125,64217.89277804167,0.2356066658460021,-0.3309805897522468,-1.206049783897644,64217.87733604167,10.10111999511719,4.629959106445312,-530.3580322265625,64217.88264604167,-1.739596834024488,-1.428935314327364,-1.022530515718059,0.2788273394107819,-0.2412975877523422,-1.144279479980469,0.009884059429168701,0.1665898561477661,0.04869747161865234,1,0.6750865578651428,0.08609564602375031,0.296714723110199,-0.6699299216270447,-0.5159723162651062,0.8534296751022339,-0.07369136065244675,0,0,0,-1,64217.65133304167,3,2,1561241757.314248,1561241546.732582,16,16.27515,0,0,14.2948,0,0,1561241691.513234,64214.838901,0,-1.112549,74.44029,2650659446,177292352,1,1,0.2,-29.12753,-38.27774,2
1561241757.568363,27,0,0,1561241752.61429,4.60305018511949,-74.06478503319742,2651.467,-1,-1,10,65,-9999,1561241757.555804,-28.34393310546875,3.12363862991333,2.831787109375,245.5454559326172,253.0891418457031,15,64217.92216604167,-0.5589141845703125,0.963287353515625,-0.0836334228515625,64217.91304104167,0.2596182588663745,-0.3478088383643485,-1.376176242757432,64217.89747704167,10.25550842285156,4.259536743164062,-530.6925048828125,64217.90291004167,-1.736916697464298,-1.433233866723936,-0.9974614751805856,0.2366862893104553,-0.3677806854248047,-1.310284733772278,0.001667559146881104,0.1631076335906982,0.01217371225357056,1,0.6733018755912781,0.09732779860496521,0.3025103509426117,-0.6675921082496643,-0.5373120903968811,0.8400967121124268,-0.07438376545906067,0,0,0,-1,64217.65133304167,3,2,1561241757.314248,1561241546.732582,16,16.27515,0,0,14.2948,0,0,1561241691.513234,64214.838901,0,-1.112549,74.44029,2650659446,177292352,1,1,0.2,-29.12753,-38.82609,2
1561241757.577408,28,0,0,1561241752.61429,4.60305018511949,-74.06478503319742,2651.467,-1,-1,10,65,-9999,1561241757.555804,-28.34393310546875,3.12363862991333,2.831787109375,245.5454559326172,253.0891418457031,15,64217.94243004167,-0.6106109619140625,0.936614990234375,-0.0954437255859375,64217.93330504167,0.2198705795969419,-0.0854925309976147,-1.349842905898728,64217.91761904167,10.28115844726562,3.407821655273438,-530.1356811523438,64217.92317304167,-1.734578158257346,-1.438064696564119,-0.9692124740432663,0.2464883178472519,-0.2367174923419952,-1.410524487495422,0.002056658267974854,0.1388471126556396,-0.008734524250030518,1,0.6712029576301575,0.1097138077020645,0.3092341125011444,-0.6646981835365295,-0.5609708428382874,0.8244402408599854,-0.07489894330501556,0,0,0,-1,64217.65133304167,3,2,1561241757.314248,1561241546.732582,16,16.27515,0,0,14.2948,0,0,1561241691.513234,64214.838901,0,-1.112549,74.44029,2650659446,177292352,1,1,0.2,-29.12753,-38.87055,2
1561241757.596051,29,0,0,1561241752.61429,4.60305018511949,-74.06478503319742,2651.467,-1,-1,10,65,-9999,1561241757.583662,-28.36844253540039,2.505764961242676,3.2210693359375,245.2909088134766,252.8345947265625,15,64217.96269304167,-0.5591583251953125,0.8650054931640625,-0.064300537109375,64217.95356904167,0.2403143357049352,0.2506460691538976,-1.185720543716524,64217.93773004167,10.47019958496094,2.721923828125,-530.1336669921875,64217.94343704167,-1.733228190906466,-1.43878546424474,-0.9416003786534819,0.1973820179700851,0.06655611097812653,-1.258117437362671,-0.02723652124404907,0.1281140446662903,-0.01798146963119507,1,0.6684568524360657,0.120142862200737,0.3174124956130981,-0.6618008613586426,-0.5833744406700134,0.8085009455680847,-0.07746225595474243,0,0,0,-1,64217.65133304167,3,2,1561241757.314248,1561241546.732582,16,16.27515,0,0,14.2948,0,0,1561241691.513234,64214.838901,0,-1.112549,74.44029,2650659446,177292352,1,1,0.2,-29.12753,-38.87055,2
1561241757.616388,30,0,0,1561241752.61429,4.60305018511949,-74.06478503319742,2651.467,-1,-1,10,65,-9999,1561241757.60638,-28.37963485717773,0.9651889801025391,2.9949951171875,245.3994293212891,252.943115234375,15,64217.98295704167,-0.541656494140625,0.8430633544921875,-0.078033447265625,64217.97383204167,0.3009089736713991,0.3778301207005937,-1.066039415908908,64217.95787204167,10.25047302246094,1.880157470703125,-530.2752075195312,64217.96370104167,-1.730583259704986,-1.432099651848636,-0.9170122146510802,0.2956449389457703,0.3321276009082794,-1.135855078697205,0.04319560527801514,0.07121747732162476,0.01978379487991333,1,0.6646122336387634,0.1274692267179489,0.3266111314296722,-0.6598236560821533,-0.6023539304733276,0.7937880158424377,-0.08408434689044952,0,0,0,-1,64217.65133304167,3,2,1561241757.314248,1561241546.732582,16,16.27515,0,0,14.2948,0,0,1561241691.513234,64214.838901,0,-1.112549,74.44029,2650659446,177292352,1,1,0.2,-29.12753,-35.30552,2
1561241757.641917,31,0,0,1561241752.61429,4.60305018511949,-74.06478503319742,2651.467,-1,-1,10,65,-9999,1561241757.630983,-28.35843086242676,0.6010035276412964,2.91943359375,245.6795196533203,253.2232055664062,15,64218.00322104167,-0.539154052734375,0.80291748046875,-0.091766357421875,64217.99409604167,0.1868175546757505,0.4785620584039689,-0.9447393524746333,64217.97798304167,10.11920166015625,1.543594360351562,-530.68896484375,64217.98396404167,-1.726216782770523,-1.421084692085848,-0.8946992322845397,0.2577250003814697,0.4282626509666443,-1.009849786758423,0.07709759473800659,0.06304246187210083,0.01529955863952637,1,0.6600078344345093,0.13312828540802,0.3358892500400543,-0.6586691737174988,-0.6187540888786316,0.7800208926200867,-0.09333303570747375,0,0,0,-1,64217.65133304167,3,2,1561241757.314248,1561241546.732582,16,16.27515,0,0,14.2948,0,0,1561241691.513234,64214.838901,0,-1.112549,74.44029,2650659446,177292352,1,1,0.2,-28.51665,-31.75446,2
1561241757.65719,32,0,0,1561241752.61429,4.60305018511949,-74.06478503319742,2651.467,-1,-1,10,65,-9999,1561241757.630983,-28.35843086242676,0.6010035276412964,2.91943359375,245.6795196533203,253.2232055664062,15,64218.02348404167,-0.5313568115234375,0.7972412109375,-0.142578125,64218.01436004167,0.005544967705653982,0.3507175429069331,-0.8880939160886479,64217.99812404167,10.34219360351562,0.8565826416015625,-530.6156005859375,64218.00422804167,-1.725288108272302,-1.411104860323521,-0.8751136679220741,0.08316916972398758,0.4402322471141815,-0.900245726108551,0.09360092878341675,0.0353010892868042,0.01014697551727295,1,0.6559464931488037,0.1370310932397842,0.3450291752815247,-0.6571998000144958,-0.6327549815177917,0.767616331577301,-0.1019133552908897,0,0,0,-1,64217.65133304167,3,2,1561241757.314248,1561241546.732582,16,16.27515,0,0,14.2948,0,0,1561241691.513234,64214.838901,0,-1.112549,74.44029,2650659446,177292352,1,1,0.2,-24.30404,-24.70087,2
1561241757.677107,33,0,0,1561241752.61429,4.60305018511949,-74.06478503319742,2651.467,-1,-1,10,65,-9999,1561241757.657257,-28.27475357055664,0.178579568862915,2.6356201171875,246.0656585693359,253.6093444824219,15,64218.04374804167,-0.534271240234375,0.777740478515625,-0.162353515625,64218.03462304167,-0.08705767077025427,0.07629903259855216,-0.9192949787877982,64218.01823504167,10.50119018554688,0.397491455078125,-530.7523193359375,64218.02449204167,-1.729589753246516,-1.407582867617266,-0.8571914595054694,-0.05212180688977242,0.2080394625663757,-0.9058634042739868,0.1145076155662537,0.04123401641845703,-0.03621828556060791,1,0.6534571647644043,0.1407614797353745,0.3531937003135681,-0.6545488834381104,-0.6458644270896912,0.756007194519043,-0.1063598766922951,0,0,0,-1,64217.65133304167,3,2,1561241757.314248,1561241546.732582,16,16.27515,0,0,14.2948,0,0,1561241691.513234,64214.838901,0,-1.112549,74.44029,2650659446,177292352,1,1,0.2,-22.03369,-25.08223,2
1561241757.697366,34,0,0,1561241752.61429,4.60305018511949,-74.06478503319742,2651.467,-1,-1,10,65,-9999,1561241757.681139,-28.32392311096191,-0.9481372237205505,2.4918212890625,246.21826171875,253.7619476318359,15,64218.06401204167,-0.580291748046875,0.7767333984375,-0.1417694091796875,64218.05488704167,-0.05297986146160033,-0.027929635616097,-0.9321732268710944,64218.03837704167,10.42422485351562,-0.0783538818359375,-530.7247924804688,64218.04475504167,-1.736511163347059,-1.411213226255314,-0.8390135803544482,-0.07242973893880844,-0.02677862904965878,-0.9351973533630371,0.1254354119300842,0.03375613689422607,-0.05617260932922363,1,0.6523608565330505,0.1460645347833633,0.3599129617214203,-0.6508095860481262,-0.6597066521644592,0.7439843416213989,-0.1061809286475182,0,0,0,-1,64217.65133304167,3,2,1561241757.314248,1561241546.732582,16,16.27515,0,0,14.2948,0,0,1561241691.513234,64214.838901,0,-1.112549,74.44029,2650659446,177292352,1,1,0.2,-19.76873,-22.85334,2
1561241757.722342,35,0,0,1561241752.61429,4.60305018511949,-74.06478503319742,2651.467,-1,-1,10,65,-9999,1561241757.712113,-28.25454711914062,-1.461203694343567,2.5491943359375,246.3242340087891,253.867919921875,15,64218.08427604167,-0.6117401123046875,0.76300048828125,-0.160858154296875,64218.07515104167,-0.1617651983013751,0.157158994879974,-0.84205265453114,64218.05851904167,10.26332092285156,-0.5704345703125,-530.63720703125,64218.06501904167,-1.742871403460868,-1.41639065310239,-0.8206802709825536,-0.09940303862094879,0.01984985917806625,-0.8889169096946716,0.09332144260406494,0.0451236367225647,-0.03692513704299927,1,0.6514947414398193,0.1520936787128448,0.3659499883651733,-0.6469178199768066,-0.6736131906509399,0.7316097617149353,-0.1048442274332047,0,0,0,-1,64217.65133304167,3,2,1561241757.314248,1561241546.732582,16,16.27515,0,0,14.2948,0,0,1561241691.513234,64214.838901,0,-1.112549,74.44029,2650659446,177292352,1,1,0.2,-16.63125,-20.71314,2
1561241757.738047,36,0,0,1561241752.61429,4.60305018511949,-74.06478503319742,2651.467,-1,-1,10,65,-9999,1561241757.73218,-28.28070831298828,-1.754608035087585,2.4432373046875,246.8634490966797,254.4071350097656,15,64218.10453904167,-0.5925445556640625,0.6962890625,-0.1326904296875,64218.09541404167,-0.1435190827249152,0.503539313635604,-0.7810769182126858,64218.07863004167,10.4158935546875,-1.002243041992188,-530.499755859375,64218.10554604167,-1.758829860451338,-1.414840718659598,-0.7890793857396649,-0.1195048466324806,0.6093783974647522,-0.7073764204978943,0.1005355715751648,0.03323018550872803,-0.03364074230194092,1,0.6484528183937073,0.1574677228927612,0.3812532424926758,-0.6398115158081055,-0.6959487795829773,0.7097049951553345,-0.1094257161021233,0,0,0,-1,64217.65133304167,3,2,1561241757.314248,1561241546.732582,16,16.27515,0,0,14.2948,0,0,1561241691.513234,64214.838901,0,-1.112549,74.44029,2650659446,177292352,1,1,0.2,-15.23612,-20.97786,2
1561241757.758634,37,0,0,1561241752.61429,4.60305018511949,-74.06478503319742,2651.467,-1,-1,10,65,-9999,1561241757.73218,-28.28070831298828,-1.754608035087585,2.4432373046875,246.8634490966797,254.4071350097656,15,64218.12480304167,-0.6010589599609375,0.682464599609375,-0.168670654296875,64218.11567804167,-0.1466325843553268,0.6161020781655472,-0.6016744029600429,64218.09877104167,10.2138671875,-1.37939453125,-531.0777587890625,64218.10554604167,-1.758829860451338,-1.414840718659598,-0.7890793857396649,-0.1195048466324806,0.6093783974647522,-0.7073764204978943,0.1005355715751648,0.03323018550872803,-0.03364074230194092,1,0.6484528183937073,0.1574677228927612,0.3812532424926758,-0.6398115158081055,-0.6959487795829773,0.7097049951553345,-0.1094257161021233,0,0,0,-1,64217.65133304167,3,2,1561241757.314248,1561241546.732582,16,16.27515,0,0,14.2948,0,0,1561241691.513234,64214.838901,0,-1.112549,74.44029,2650659446,177292352,1,1,0.2,-15.23612,-20.97786,2
1561241757.778504,38,0,0,1561241752.61429,4.60305018511949,-74.06478503319742,2651.467,-1,-1,10,65,-9999,1561241757.758712,-28.28096199035645,-2.017409801483154,2.2384033203125,247.6321563720703,255.1758422851562,15,64218.14506704167,-0.6032562255859375,0.701812744140625,-0.201171875,64218.13594204167,-0.1961655164180376,0.4691429902605766,-0.5731860361472473,64218.11888204167,10.32777404785156,-1.754287719726562,-531.3809814453125,64218.12581004167,-1.765801519784336,-1.40767741599408,-0.7774453504133997,-0.1847568303346634,0.5304654836654663,-0.558185875415802,0.1021882295608521,-0.01899635791778564,-0.05292940139770508,1,0.6461277604103088,0.1569976955652237,0.3893201947212219,-0.6374170780181885,-0.7032471895217896,0.7014610171318054,-0.1157412827014923,0,0,0,-1,64217.65133304167,3,2,1561241757.314248,1561241546.732582,16,16.27515,0,0,14.2948,0,0,1561241691.513234,64214.838901,0,-1.112549,74.44029,2650659446,177292352,1,1,0.2,-15.23612,-21.06502,2
1561241757.810459,39,0,0,1561241752.61429,4.60305018511949,-74.06478503319742,2651.467,-1,-1,10,65,-9999,1561241757.782671,-28.16889190673828,-2.742874145507812,1.79443359375,248.3039703369141,255.84765625,15,64218.16530004167,-0.6153717041015625,0.7377777099609375,-0.20001220703125,64218.15620504167,-0.1567965386556142,0.3098745054811508,-0.6131917757263086,64218.13902404167,10.29765319824219,-2.011199951171875,-531.54931640625,64218.14607404167,-1.773987456544326,-1.404068658352807,-0.7667534866937668,-0.2073761224746704,0.3781182765960693,-0.5866222977638245,0.1069241762161255,0.008011877536773682,-0.08165568113327026,1,0.6446754932403564,0.156956672668457,0.3963039815425873,-0.6345874667167664,-0.710180401802063,0.6938008666038513,-0.1195162236690521,0,0,0,-1,64217.65133304167,3,2,1561241757.314248,1561241546.732582,16,16.27515,0,0,14.2948,0,0,1561241691.513234,64214.838901,0,-1.112549,74.44029,2650659446,177292352,1,1,0.2,-15.23612,-22.43644,2
1561241757.818988,40,0,0,1561241752.61429,4.60305018511949,-74.06478503319742,2651.467,-1,-1,10,65,-9999,1561241757.809534,-28.07260131835938,-3.099728584289551,1.60455322265625,248.6622161865234,256.2059020996094,15,64218.18556304167,-0.6450347900390625,0.743621826171875,-0.18670654296875,64218.17643904167,0.03799265611107041,0.1560958609728144,-0.6016040955072648,64218.15916604167,10.3778076171875,-2.386642456054688,-531.7217407226562,64218.16630704167,-1.780900546020883,-1.402676767129456,-0.7551377972415367,-0.05753308534622192,0.227984681725502,-0.6286723017692566,0.1025390028953552,0.05238866806030273,-0.07816725969314575,1,0.6434268951416016,0.1583646386861801,0.4024137258529663,-0.6316531300544739,-0.7179106473922729,0.6853890419006348,-0.1218449473381042,0,0,0,-1,64217.65133304167,3,2,1561241757.314248,1561241546.732582,16,16.27515,0,0,14.2948,0,0,1561241691.513234,64214.838901,0,-1.112549,74.44029,2650659446,177292352,1,1,0.2,-15.23612,-22.43644,2
1561241757.839262,41,0,0,1561241752.61429,4.60305018511949,-74.06478503319742,2651.467,-1,-1,10,65,-9999,1561241757.833533,-28.25740814208984,-3.305931568145752,1.8123779296875,248.6270599365234,256.1707458496094,15,64218.20582704167,-0.667999267578125,0.750396728515625,-0.16595458984375,64218.19670204167,0.1333482042057936,0.02267681668202471,-0.48921896382203,64218.17927704167,10.26112365722656,-2.523513793945312,-531.5748291015625,64218.18657004167,-1.782783067082637,-1.400899515478913,-0.7432447293617875,0.1090186089277267,0.07357753813266754,-0.5389218926429749,0.08064115047454834,0.06694132089614868,-0.06221640110015869,1,0.6416497826576233,0.1613706648349762,0.4071152210235596,-0.6296841502189636,-0.7256758809089661,0.6766805052757263,-0.1244901269674301,0,0,0,-1,64217.65133304167,3,2,1561241757.314248,1561241546.732582,16,16.27515,0,0,14.2948,0,0,1561241691.513234,64214.838901,0,-1.112549,74.44029,2650659446,177292352,1,1,0.2,-15.23612,-23.11794,2
1561241757.859909,42,0,0,1561241752.61429,4.60305018511949,-74.06478503319742,2651.467,-1,-1,10,65,-9999,1561241757.833533,-28.25740814208984,-3.305931568145752,1.8123779296875,248.6270599365234,256.1707458496094,15,64218.22609104167,-0.6446685791015625,0.7390899658203125,-0.1507568359375,64218.21696604167,0.2007781114260548,-0.01585459691756873,-0.5777919732525393,64218.19941804167,10.51657104492188,-2.926986694335938,-531.6849365234375,64218.20683404167,-1.781495565787611,-1.399552605197048,-0.7327004105425021,0.1664257049560547,-0.01060844864696264,-0.5366805791854858,0.0644986629486084,0.08151721954345703,-0.03927826881408691,1,0.6398584842681885,0.1650543957948685,0.4102642834186554,-0.6285071969032288,-0.7324979305267334,0.6688794493675232,-0.1266763359308243,0,0,0,-1,64217.65133304167,3,2,1561241757.314248,1561241546.732582,16,16.27515,0,0,14.2948,0,0,1561241691.513234,64215.787987,0,-1.112549,74.44029,2650659446,177292352,1,1,0.2,-15.23612,-24.0108,2
1561241757.893304,43,0,0,1561241752.61429,4.60305018511949,-74.06478503319742,2651.467,-1,-1,10,65,-9999,1561241757.887032,-28.05033874511719,-4.044782161712646,1.71429443359375,248.5224761962891,256.066162109375,15,64218.24635404167,-0.6230316162109375,0.749664306640625,-0.1489105224609375,64218.23723004167,0.07420552166564087,0.08467893528459548,-0.4765447138782338,64218.21952904167,10.61552429199219,-3.223220825195312,-531.7105712890625,64218.22709804167,-1.779004235551208,-1.3981603376076,-0.7207999626803934,0.179124191403389,-0.001841322518885136,-0.5708452463150024,0.09544205665588379,0.07910406589508057,-0.02170246839523315,1,0.6377431750297546,0.1695773154497147,0.4134377837181091,-0.6273726224899292,-0.7401105761528015,0.6599858999252319,-0.1290543526411057,0,0,0,-1,64217.65133304167,3,2,1561241757.314248,1561241546.732582,16,16.27515,0,0,14.2948,0,0,1561241691.513234,64215.787987,0,-1.112549,74.44029,2650659446,177292352,1,1,0.2,-15.23612,-24.93937,2
1561241757.90004,44,0,0,1561241752.61429,4.60305018511949,-74.06478503319742,2651.467,-1,-1,10,65,-9999,1561241757.887032,-28.05033874511719,-4.044782161712646,1.71429443359375,248.5224761962891,256.066162109375,15,64218.26661804167,-0.6359710693359375,0.873260498046875,-0.19354248046875,64218.25749304167,-0.1907126940861004,0.4258764762428223,-0.2487693395337187,64218.23967104167,10.69918823242188,-3.21923828125,-531.65478515625,64218.24736104167,-1.779551890890964,-1.396312876883392,-0.7112874842749605,-0.1051056608557701,0.2825469970703125,-0.3616659045219421,0.1229884624481201,0.09685468673706055,-0.01740515232086182,1,0.6360912322998047,0.1721488833427429,0.416993260383606,-0.6259946823120117,-0.7460200786590576,0.6528096199035645,-0.1315054148435593,0,0,0,-1,64217.65133304167,3,2,1561241757.314248,1561241546.732582,16,16.27515,0,0,14.2948,0,0,1561241691.513234,64215.787987,0,-1.112549,74.44029,2650659446,177292352,1,1,0.2,-15.23612,-25.83569,2
1561241757.920414,45,0,0,1561241752.61429,4.60305018511949,-74.06478503319742,2651.467,-1,-1,10,65,-9999,1561241757.91071,-27.94638252258301,-4.11810827255249,1.531982421875,249.0775299072266,256.6212158203125,15,64218.28688204167,-0.650482177734375,0.8556060791015625,-0.099151611328125,64218.27775704167,0.1755198926994163,0.5281993863814107,0.1877738958231979,64218.25981304167,10.55398559570312,-3.457595825195312,-531.5416259765625,64218.26762504167,-1.784687192259426,-1.391311686720293,-0.707320004352613,-0.08948995172977448,0.4991389513015747,-0.0740455761551857,0.1119243502616882,0.2234615087509155,-0.05784642696380615,1,0.6349299550056458,0.1703406572341919,0.4213494956493378,-0.6247499585151672,-0.7478954792022705,0.6497990489006042,-0.1356960237026215,0,0,0,-1,64217.65133304167,3,2,1561241757.314248,1561241546.732582,16,16.27515,0,0,14.2948,0,0,1561241691.513234,64215.787987,0,-1.112549,74.44029,2650659446,177292352,1,1,0.2,-15.23612,-25.83569,2
1561241757.940612,46,0,0,1561241752.61429,4.60305018511949,-74.06478503319742,2651.467,-1,-1,10,65,-9999,1561241757.934856,-27.89867782592773,-3.974018573760986,1.3953857421875,248.9230499267578,256.4667358398438,15,64218.30714504167,-0.627777099609375,0.6943206787109375,-0.0538787841796875,64218.29802104167,0.7103958239336557,0.2812862701274773,0.6223415982834938,64218.27992404167,10.71620178222656,-3.490890502929688,-531.9952392578125,64218.28788904167,-1.778983147715731,-1.377415481151969,-0.7105584879239373,0.4713296890258789,0.4288823902606964,0.4417890310287476,0.09338659048080444,0.2033488750457764,0.04651874303817749,1,0.6319720149040222,0.1666619181632996,0.4230191707611084,-0.6276065707206726,-0.7438687682151794,0.6522572040557861,-0.1456703543663025,0,0,0,-1,64217.65133304167,3,2,1561241757.314248,1561241546.732582,16,16.27515,0,0,14.2948,0,0,1561241691.513234,64215.787987,0,-1.112549,74.44029,2650659446,177292352,1,1,0.2,-15.23612,-26.78018,2
1561241757.974319,47,0,0,1561241752.61429,4.60305018511949,-74.06478503319742,2651.467,-1,-1,10,65,-9999,1561241757.934856,-27.89867782592773,-3.974018573760986,1.3953857421875,248.9230499267578,256.4667358398438,15,64218.32740904167,-0.642822265625,0.4755401611328125,0.00390625,64218.31828404167,0.8850161008168432,0.08481608808073457,0.6647087628011283,64218.30006504167,10.73628234863281,-3.198760986328125,-532.0252685546875,64218.30815204167,-1.757618734183763,-1.357667564759268,-0.7199504947399665,0.8365441560745239,0.1516219973564148,0.7049314379692078,0.1070501208305359,0.03497326374053955,0.1051492691040039,1,0.6274043917655945,0.1638588160276413,0.4197452068328857,-0.6350811123847961,-0.7348272800445557,0.6593474745750427,-0.1590280383825302,0,0,0,-1,64217.65133304167,3,2,1561241757.314248,1561241546.732582,16,16.27515,0,0,14.2948,0,0,1561241691.513234,64215.787987,0,-1.112549,74.44029,2650659446,177292352,1,1,0.2,-15.23612,-28.49372,2
1561241757.981774,48,0,0,1561241752.61429,4.60305018511949,-74.06478503319742,2651.467,-1,-1,10,65,-9999,1561241757.934856,-27.89867782592773,-3.974018573760986,1.3953857421875,248.9230499267578,256.4667358398438,15,64218.34767304167,-0.667022705078125,0.2695465087890625,0.029449462890625,64218.33854804167,0.6444101489725444,0.1670174846032293,0.4637261206033554,64218.32020704167,10.55870056152344,-2.8245849609375,-531.9345092773438,64218.32841604167,-1.730998837248101,-1.338087936562405,-0.7290599493112284,0.8228967785835266,0.08936075866222382,0.5402189493179321,0.08287590742111206,-0.1906286478042603,0.1758981943130493,1,0.6225154399871826,0.1627223044633865,0.4146792888641357,-0.6434571146965027,-0.7256981730461121,0.6661688685417175,-0.1719919592142105,0,0,0,-1,64217.65133304167,3,2,1561241757.314248,1561241546.732582,16,16.27515,0,0,14.2948,0,0,1561241691.513234,64215.787987,0,-1.112549,74.44029,2650659446,177292352,1,1,0.2,-15.23612,-28.49372,2
1561241758.001423,49,0,0,1561241752.61429,4.60305018511949,-74.06478503319742,2651.467,-1,-1,10,65,-9999,1561241757.988911,-27.98127365112305,-3.564417362213135,1.119140625,248.1175231933594,255.6612091064453,15,64218.36793604167,-0.698333740234375,0.2061309814453125,0.0178985595703125,64218.35881204167,0.09321276868164539,0.5360772832019741,0.5373920858321463,64218.34034904167,10.45785522460938,-2.311782836914062,-532.2274169921875,64218.34868004167,-1.711351796163148,-1.32131085783062,-0.7354318871979295,0.3789797723293304,0.3301427662372589,0.4671345949172974,0.05156010389328003,-0.4013609886169434,0.2125399708747864,1,0.6184514760971069,0.1611598879098892,0.4116554260253906,-0.6496808528900146,-0.718582808971405,0.6709074974060059,-0.1830905228853226,0,0,0,-1,64217.65133304167,3,2,1561241757.314248,1561241546.732582,16,16.27515,0,0,14.2948,0,0,1561241691.513234,64215.787987,0,-1.112549,74.44029,2650659446,177292352,1,1,0.2,-15.23612,-29.35394,2
1561241758.021924,50,0,0,1561241752.61429,4.60305018511949,-74.06478503319742,2651.467,-1,-1,10,65,-9999,1561241758.011653,-28.06891059875488,-2.457711219787598,0.90313720703125,248.4174652099609,255.9611511230469,15,64218.38820004167,-0.66668701171875,0.2604827880859375,-0.0621185302734375,64218.37907504167,-0.3893355092419541,0.7204612412736102,0.5496018804818326,64218.36046004167,10.44833374023438,-1.919265747070312,-532.31005859375,64218.36894304167,-1.705277912801135,-1.306665001663305,-0.7453445829688607,-0.195581778883934,0.6883254051208496,0.572661280632019,0.0110355019569397,-0.4720940589904785,0.2097475528717041,1,0.6165360808372498,0.1547861993312836,0.4112744033336639,-0.6532823443412781,-0.7093691825866699,0.678225040435791,-0.1918489933013916,0,0,0,-1,64217.65133304167,3,2,1561241757.314248,1561241546.732582,16,16.27515,0,0,14.2948,0,0,1561241691.513234,64215.787987,0,-1.112549,74.44029,2650659446,177292352,1,1,0.2,-15.23612,-29.49698,2
1561241758.043592,51,0,0,1561241752.61429,4.60305018511949,-74.06478503319742,2651.467,-1,-1,10,65,-9999,1561241758.03622,-28.05577087402344,-2.045642137527466,0.6395263671875,249.4197540283203,256.9634399414062,15,64218.40846404167,-0.697540283203125,0.3735809326171875,-0.177520751953125,64218.39933904167,-0.5621048891675365,0.2257822645846998,0.4632574042515015,64218.38060104167,10.47769165039062,-1.47900390625,-532.6117553710938,64218.38920704167,-1.711282018010418,-1.297097743153635,-0.7579734971732035,-0.4993192851543427,0.5314090251922607,0.5002054572105408,0.03251165151596069,-0.4269683361053467,0.1341773867607117,1,0.6170268058776855,0.14536152780056,0.4124594330787659,-0.6542362570762634,-0.6991986036300659,0.6874511241912842,-0.1962958872318268,0,0,0,-1,64217.65133304167,3,2,1561241757.314248,1561241546.732582,16,16.27515,0,0,14.2948,0,0,1561241691.513234,64215.787987,0,-1.112549,74.44029,2650659446,177292352,1,1,0.2,-15.23612,-30.35977,2
1561241758.062955,52,0,0,1561241752.61429,4.60305018511949,-74.06478503319742,2651.467,-1,-1,10,65,-9999,1561241758.03622,-28.05577087402344,-2.045642137527466,0.6395263671875,249.4197540283203,256.9634399414062,15,64218.42872704167,-0.7396392822265625,0.4930267333984375,-0.2154998779296875,64218.41960304167,-0.4779905440340378,-0.2927485154591783,0.3624061569312909,64218.40074304167,10.47332763671875,-1.161117553710938,-532.8942260742188,64218.40947104167,-1.722727207876342,-1.300583066598704,-0.7699822180374771,-0.5633158683776855,-0.0906715914607048,0.4192379117012024,-0.00566786527633667,-0.3225415349006653,0.01411944627761841,1,0.6204333901405334,0.1387166827917099,0.4115703701972961,-0.6530159711837769,-0.6918724179267883,0.6961224675178528,-0.1916401833295822,0,0,0,-1,64217.65133304167,3,2,1561241757.314248,1561241546.732582,16,16.27515,0,0,14.2948,0,0,1561241691.513234,64215.787987,0,-1.112549,74.44029,2650659446,177292352,1,1,0.2,-15.23612,-30.82188,2
1561241758.082467,53,0,0,1561241752.61429,4.60305018511949,-74.06478503319742,2651.467,-1,-1,10,65,-9999,1561241758.063098,-28.17470932006836,-1.992568016052246,0.49798583984375,249.7254180908203,257.2691040039062,15,64218.44899104167,-0.7617340087890625,0.5366363525390625,-0.1793975830078125,64218.43986604167,-0.2674175924347806,-0.3967545434066968,0.2741221004790551,64218.42088404167,10.38319396972656,-1.018661499023438,-532.7388305664062,64218.42973404167,-1.733080316558123,-1.313473132740319,-0.7795618249212124,-0.3693285286426544,-0.4016648828983307,0.3064953684806824,-0.05183494091033936,-0.2099410891532898,-0.03449910879135132,1,0.6252368092536926,0.1363031715154648,0.4080880880355835,-0.6511254906654358,-0.6878043413162231,0.7029678225517273,-0.181000754237175,0,0,0,-1,64217.65133304167,3,2,1561241757.314248,1561241546.732582,16,16.27515,0,0,14.2948,0,0,1561241691.513234,64215.787987,0,-1.112549,74.44029,2650659446,177292352,1,1,0.2,-15.23612,-30.82188,2
1561241758.103536,54,0,0,1561241752.61429,4.60305018511949,-74.06478503319742,2651.467,-1,-1,10,65,-9999,1561241758.086731,-28.24797821044922,-1.516924142837524,0.6649169921875,249.6027374267578,257.1464233398438,15,64218.46925504167,-0.7527923583984375,0.5364532470703125,-0.1274871826171875,64218.46013004167,-0.1319423214663407,-0.2640995600326509,0.1916900742061594,64218.44099504167,10.28996276855469,-1.153778076171875,-532.7622680664062,64218.44999804167,-1.73883476735468,-1.325462589299917,-0.7863394395413377,-0.2051337361335754,-0.3398326635360718,0.2459308356046677,-0.07644659280776978,-0.1711356639862061,-0.007817208766937256,1,0.6290583610534668,0.1359976977109909,0.404179722070694,-0.6499453186988831,-0.6852874159812927,0.7077720761299133,-0.1715804040431976,0,0,0,-1,64217.65133304167,3,2,1561241757.314248,1561241546.732582,16,16.27515,0,0,14.2948,0,0,1561241691.513234,64215.787987,0,-1.112549,74.44029,2650659446,177292352,1,1,0.2,-15.23612,-31.60152,2
1561241758.132049,55,0,0,1561241752.61429,4.60305018511949,-74.06478503319742,2651.467,-1,-1,10,65,-9999,1561241758.113368,-28.38556289672852,-1.365789771080017,0.82391357421875,249.4688262939453,257.0125122070312,15,64218.48948804167,-0.70947265625,0.525726318359375,-0.089447021484375,64218.48039404167,-0.02405580149446774,-0.07501512263702496,0.03964195177415648,64218.46113704167,10.04400634765625,-0.7700653076171875,-532.489501953125,64218.47026204167,-1.741293133522538,-1.332659291557045,-0.7906365057857319,-0.05887478590011597,-0.1914136558771133,0.1122678369283676,-0.06924968957901001,-0.1743478775024414,0.03843808174133301,1,0.6312928795814514,0.1360392421483994,0.4014253914356232,-0.649476945400238,-0.6835426688194275,0.7108011245727539,-0.1659252494573593,0,0,0,-1,64217.65133304167,3,2,1561241757.314248,1561241546.732582,16,16.27515,0,0,14.2948,0,0,1561241691.513234,64215.787987,0,-1.112549,74.44029,2650659446,177292352,1,1,0.2,-15.23612,-33.40526,2
1561241758.143275,56,0,0,1561241752.61429,4.60305018511949,-74.06478503319742,2651.467,-1,-1,10,65,-9999,1561241758.137435,-28.50555419921875,-1.498008847236633,0.802001953125,249.6031951904297,257.1468811035156,15,64218.50975204167,-0.6370849609375,0.5172882080078125,-0.1033782958984375,64218.50062704167,-0.1462448281006113,0.1231608140879135,-0.03934074825486852,64218.48127904167,10.27908325195312,-1.017807006835938,-532.4482421875,64218.49049504167,-1.742191820682273,-1.334930114589552,-0.7916168013907241,-0.06613003462553024,0.03834684193134308,-0.02067183144390583,-0.02623295783996582,-0.1857640147209167,0.07476264238357544,1,0.6319490075111389,0.1361455768346786,0.4007062315940857,-0.6492605209350586,-0.6832396984100342,0.7114903330802917,-0.1642096638679504,0,0,0,-1,64217.65133304167,3,2,1561241757.314248,1561241546.732582,16,16.27515,0,0,14.2948,0,0,1561241691.513234,64215.787987,0,-1.112549,74.44029,2650659446,177292352,1,1,0.2,-15.23612,-33.40526,2
1561241758.163389,57,0,0,1561241752.61429,4.60305018511949,-74.06478503319742,2651.467,-1,-1,10,65,-9999,1561241758.137435,-28.50555419921875,-1.498008847236633,0.802001953125,249.6031951904297,257.1468811035156,15,64218.53001504167,-0.621978759765625,0.5635986328125,-0.129791259765625,64218.52089004167,-0.2958809255333295,0.08163520847474393,-0.04458584402177958,64218.50142004167,10.26353454589844,-0.9575042724609375,-532.4398193359375,64218.51075904167,-1.746718838883503,-1.336073153602044,-0.7916510062343499,-0.2486247569322586,0.1241206005215645,-0.03058198653161526,0.04631853103637695,-0.1942261457443237,0.06004464626312256,1,0.6324900984764099,0.1350732743740082,0.4018032252788544,-0.6482790112495422,-0.6834034323692322,0.7115143537521362,-0.1634229719638824,0,0,0,-1,64217.65133304167,3,2,1561241757.314248,1561241546.732582,16,16.27515,0,0,14.2948,0,0,1561241691.513234,64215.787987,0,-1.112549,74.44029,2650659446,177292352,1,1,0.2,-15.23612,-34.30377,2
1561241758.209172,58,0,0,1561241752.61429,4.60305018511949,-74.06478503319742,2651.467,-1,-1,10,65,-9999,1561241758.188061,-28.12288093566895,-1.576120615005493,0.9205322265625,250.2891387939453,257.8328247070312,15,64218.55027904167,-0.626617431640625,0.616455078125,-0.197540283203125,64218.54115404167,-0.3983585653312515,-0.07303825815985913,-0.1153247288964643,64218.52153104167,10.38558959960938,-0.8675537109375,-532.405029296875,64218.53102204167,-1.755539450654372,-1.340944698239131,-0.7920512229863005,-0.3575315177440643,0.003915099892765284,-0.08628173917531967,0.06193530559539795,-0.1481968760490417,0.0302356481552124,1,0.6341189742088318,0.133714884519577,0.4029953479766846,-0.6462261080741882,-0.6839140653610229,0.7117955088615417,-0.1600269079208374,0,0,0,-1,64217.65133304167,3,2,1561241757.314248,1561241546.732582,16,16.27515,0,0,14.2948,0,0,1561241691.513234,64215.787987,0,-1.112549,74.44029,2650659446,177292352,1,1,0.2,-15.23612,-35.68321,2
1561241758.212557,59,0,0,1561241752.61429,4.60305018511949,-74.06478503319742,2651.467,-1,-1,10,65,-9999,1561241758.188061,-28.12288093566895,-1.576120615005493,0.9205322265625,250.2891387939453,257.8328247070312,15,64218.57054304167,-0.675689697265625,0.6714935302734375,-0.2180633544921875,64218.56141804167,-0.3177263033230314,-0.1981892525303888,-0.1339554049343316,64218.54167304167,10.25289916992188,-0.90509033203125,-532.3624877929688,64218.55128604167,-1.767286467751982,-1.350853899865291,-0.7915453041260886,-0.3912319540977478,-0.1515349447727203,-0.1336873322725296,0.05920016765594482,-0.09498500823974609,-0.04421961307525635,1,0.6368326544761658,0.1333560198545456,0.4037848114967346,-0.6431315541267395,-0.6858176589012146,0.7114400863647461,-0.1533206850290298,0,0,0,-1,64217.65133304167,3,2,1561241757.314248,1561241546.732582,16,16.27515,0,0,14.2948,0,0,1561241691.513234,64215.787987,0,-1.112549,74.44029,2650659446,177292352,1,1,0.2,-15.23612,-35.68321,2
1561241758.224328,60,0,0,1561241752.61429,4.60305018511949,-74.06478503319742,2651.467,-1,-1,10,65,-9999,1561241758.214349,-28.11809921264648,-1.763514041900635,1.097900390625,250.3384246826172,257.8821105957031,15,64218.59080604167,-0.7231597900390625,0.682342529296875,-0.20941162109375,64218.58168204167,-0.1323247513988761,-0.2209305177107934,-0.1763129820720419,64218.56181504167,10.44293212890625,-0.91180419921875,-532.1215209960938,64218.57155004167,-1.77716201071183,-1.361906833794358,-0.7902557186406942,-0.2468468248844147,-0.2215920686721802,-0.1349930763244629,0.01267755031585693,-0.0390397310256958,-0.07214206457138062,1,0.6395525336265564,0.1342084556818008,0.4038122296333313,-0.6402314305305481,-0.6883671879768372,0.7105332612991333,-0.1459212899208069,0,0,0,-1,64217.65133304167,3,2,1561241757.314248,1561241546.732582,16,16.27515,0,0,14.2948,0,0,1561241691.513234,64215.787987,0,-1.112549,74.44029,2650659446,177292352,1,1,0.2,-15.23612,-36.05088,2
1561241758.24469,61,0,0,1561241752.61429,4.60305018511949,-74.06478503319742,2651.467,-1,-1,10,65,-9999,1561241758.2388,-28.09675979614258,-1.824566841125488,1.06402587890625,250.2338409423828,257.7775268554688,15,64218.61107004167,-0.7400970458984375,0.6173553466796875,-0.187103271484375,64218.60194504167,-0.02557247173526787,-0.09054641179825806,-0.2139285345727571,64218.58195604167,10.26644897460938,-1.253448486328125,-532.1390380859375,64218.59181304167,-1.782151401460988,-1.369825827965975,-0.7872999697817264,-0.04602609947323799,-0.1736652851104736,-0.219378262758255,-0.03160369396209717,-0.02610772848129272,-0.06852740049362183,1,0.6411007046699524,0.136190190911293,0.4037559926509857,-0.6382971405982971,-0.6915560960769653,0.7084502577781677,-0.1408842355012894,0,0,0,-1,64217.65133304167,3,2,1561241757.314248,1561241546.732582,16,16.27515,0,0,14.2948,0,0,1561241691.513234,64215.787987,0,-1.112549,74.44029,2650659446,177292352,1,1,0.2,-15.23612,-36.05088,2
1561241758.287531,62,0,0,1561241752.61429,4.60305018511949,-74.06478503319742,2651.467,-1,-1,10,65,-9999,1561241758.265762,-27.93402290344238,-1.885006189346313,1.15081787109375,250.2791595458984,257.8228454589844,15,64218.63133404167,-0.7168121337890625,0.585540771484375,-0.1766815185546875,64218.62220904167,-0.06261943934325115,0.008106928674310209,-0.1862439097769474,64218.60206704167,10.45564270019531,-1.19403076171875,-531.9861450195312,64218.61207704167,-1.784328185135692,-1.373375430743548,-0.783170858517066,-0.03990322351455688,-0.0301978625357151,-0.2008812725543976,-0.04518252611160278,-0.08817470073699951,-0.04810208082199097,1,0.6414291858673096,0.1380869001150131,0.4045464396476746,-0.6370580196380615,-0.6949145197868347,0.7055301070213318,-0.1390012204647064,0,0,0,-1,64217.65133304167,3,2,1561241757.314248,1561241546.732582,16,16.27515,0,0,14.2948,0,0,1561241691.513234,64215.787987,0,-1.112549,74.44029,2650659446,177292352,1,1,0.2,-15.23612,-37.82074,2
1561241758.290249,63,0,0,1561241752.61429,4.60305018511949,-74.06478503319742,2651.467,-1,-1,10,65,-9999,1561241758.289402,-28.01802444458008,-1.978305339813232,1.015625,250.4664764404297,258.0101623535156,15,64218.65159704167,-0.7102203369140625,0.6046295166015625,-0.22186279296875,64218.64247304167,-0.1827895235270056,-0.01075890448781111,-0.1700585482519908,64218.64235004167,10.68798828125,-1.407958984375,-532.2656860351562,64218.63234104167,-1.787323907874396,-1.375612925523113,-0.7796764242630487,-0.1141556203365326,-0.002703121397644281,-0.1801906526088715,-0.01917409896850586,-0.117508590221405,-0.03875827789306641,1,0.6416357159614563,0.1390753835439682,0.4058253765106201,-0.6358202695846558,-0.6976380348205566,0.70304936170578,-0.1379232853651047,0,0,0,-1,64217.65133304167,3,2,1561241757.314248,1561241546.732582,16,16.27515,0,0,14.2948,0,0,1561241691.513234,64215.787987,0,-1.112549,74.44029,2650659446,177292352,1,1,0.2,-15.23612,-37.82074,2
1561241758.305102,64,0,0,1561241752.61429,4.60305018511949,-74.06478503319742,2651.467,-1,-1,10,65,-9999,1561241758.289402,-28.01802444458008,-1.978305339813232,1.015625,250.4664764404297,258.0101623535156,15,64218.67186104167,-0.7216644287109375,0.680938720703125,-0.22930908203125,64218.66273604167,-0.1973612757474832,0.002080461443569901,-0.1577712556145832,64218.66249204167,10.50167846679688,-1.478622436523438,-532.0410766601562,64218.65260404167,-1.793353169862488,-1.380097278620271,-0.7769912955082905,-0.2389521449804306,-0.00752663891762495,-0.1550315022468567,-0.01011985540390015,-0.09650778770446777,-0.08671200275421143,1,0.6426200270652771,0.1395138204097748,0.4071001708507538,-0.6339123249053955,-0.7001004815101624,0.7011373043060303,-0.1351507902145386,0,0,0,-1,64217.65133304167,3,2,1561241757.314248,1561241546.732582,16,16.27515,0,0,14.2948,0,0,1561241691.513234,64215.787987,0,-1.112549,74.44029,2650659446,177292352,1,1,0.2,-15.23612,-32.62023,2
1561241758.32557,65,0,0,1561241752.61429,4.60305018511949,-74.06478503319742,2651.467,-1,-1,10,65,-9999,1561241758.315667,-27.93723297119141,-2.039544820785522,1.10089111328125,250.5771636962891,258.120849609375,15,64218.69212504167,-0.7480621337890625,0.7244720458984375,-0.1900634765625,64218.68300004167,0.06397472202199246,-0.03678331466006543,-0.1943495068707126,64218.68263404167,10.482666015625,-1.579681396484375,-532.0673217773438,64218.67286804167,-1.799421288377917,-1.384494863086943,-0.7744520439073577,-0.08869846165180206,-0.01512783300131559,-0.1779922097921371,-0.01922893524169922,-0.01838576793670654,-0.09690892696380615,1,0.6436155438423157,0.1398534178733826,0.4083627462387085,-0.632012665271759,-0.7024354934692383,0.6993244886398315,-0.1324001103639603,0,0,0,-1,64217.65133304167,3,2,1561241757.314248,1561241546.732582,16,16.27515,0,0,14.2948,0,0,1561241691.513234,64215.787987,0,-1.112549,74.44029,2650659446,177292352,1,1,0.2,-15.23612,-33.49487,2
1561241758.368521,66,0,0,1561241752.61429,4.60305018511949,-74.06478503319742,2651.467,-1,-1,10,65,-9999,1561241758.34002,-28.1263542175293,-2.109094858169556,1.06402587890625,250.2796783447266,257.8233642578125,15,64218.71238804167,-0.779937744140625,0.6693572998046875,-0.0986175537109375,64218.70326404167,0.3201409914834063,-0.06983474168460282,-0.2148137693190995,64218.70274504167,10.52792358398438,-1.70074462890625,-532.2648315429688,64218.69313204167,-1.798691587359359,-1.38483503495242,-0.7702019032968591,0.2121958583593369,-0.07660450786352158,-0.2119200825691223,-0.0426669716835022,0.02819192409515381,-0.05735397338867188,1,0.6430912613868713,0.141699954867363,0.4092868566513062,-0.631537139415741,-0.7053951621055603,0.6962801814079285,-0.1327095031738281,0,0,0,-1,64217.65133304167,3,2,1561241757.314248,1561241546.732582,16,16.27515,0,0,14.2948,0,0,1561241691.513234,64215.787987,0,-1.112549,74.44029,2650659446,177292352,1,1,0.2,-15.23612,-34.89997,2
1561241758.37129,67,0,0,1561241752.61429,4.60305018511949,-74.06478503319742,2651.467,-1,-1,10,65,-9999,1561241758.366971,-27.92184066772461,-2.605243682861328,1.27099609375,249.9602813720703,257.5039672851562,15,64218.732644875,-0.755523681640625,0.5836944580078125,-0.0734100341796875,64218.72351987501,0.2803600227003477,-0.004543086503566172,-0.2904936169642082,64218.72287887501,10.68305969238281,-1.8291015625,-532.0304565429688,64218.71339504167,-1.791417207615494,-1.381202487219,-0.7644788764427199,0.3387884199619293,-0.05307707935571671,-0.2378009408712387,-0.07112753391265869,-0.02280372381210327,0.03740215301513672,1,0.641085684299469,0.1449112594127655,0.4098544418811798,-0.632478654384613,-0.7088102102279663,0.692160964012146,-0.1360197514295578,0,0,0,-1,64217.65133304167,3,2,1561241757.314248,1561241546.732582,16,16.27515,0,0,14.2948,0,0,1561241691.513234,64215.787987,0,-1.112549,74.44029,2650659446,177292352,1,1,0.2,-15.23612,-34.89997,2
1561241758.38634,68,0,0,1561241752.61429,4.60305018511949,-74.06478503319742,2651.467,-1,-1,10,65,-9999,1561241758.366971,-27.92184066772461,-2.605243682861328,1.27099609375,249.9602813720703,257.5039672851562,15,64218.752908875,-0.709503173828125,0.579345703125,-0.073638916015625,64218.743783875,-0.001649029346977064,0.1411813599200436,-0.3940261348699106,64218.743020875,10.7008056640625,-2.292999267578125,-532.1153564453125,64218.733651875,-1.785642502310486,-1.377241552572714,-0.757425524105249,0.1447020322084427,0.06014774367213249,-0.360067218542099,-0.04248464107513428,-0.1033586263656616,0.06635177135467529,1,0.6389176845550537,0.1479976028203964,0.4113872647285461,-0.6329624056816101,-0.7130390405654907,0.6870530843734741,-0.1397618055343628,0,0,0,-1,64217.65133304167,3,2,1561241757.314248,1561241546.732582,16,16.27515,0,0,14.2948,0,0,1561241691.513234,64215.787987,0,-1.112549,74.44029,2650659446,177292352,1,1,0.2,-15.23612,-34.89997,2
1561241758.406627,69,0,0,1561241752.61429,4.60305018511949,-74.06478503319742,2651.467,-1,-1,10,65,-9999,1561241758.390615,-27.87730407714844,-2.796919345855713,1.2100830078125,250.1159820556641,257.65966796875,15,64218.77317187501,-0.664520263671875,0.62664794921875,-0.0875701904296875,64218.764047875,-0.2065161583107396,0.1979221374730539,-0.3424412371872938,64218.763162875,10.72933959960938,-2.263259887695312,-532.1831665039062,64218.753915875,-1.787573506644613,-1.375843622978831,-0.7496241542319638,-0.1275651752948761,0.1797774732112885,-0.3892607688903809,0.008576571941375732,-0.1020180583000183,0.06815356016159058,1,0.637726902961731,0.1496935039758682,0.4147517383098602,-0.6315673589706421,-0.7180797457695007,0.6813637018203735,-0.141792505979538,0,0,0,-1,64217.65133304167,3,2,1561241757.314248,1561241546.732582,16,16.27515,0,0,14.2948,0,0,1561241691.513234,64215.787987,0,-1.112549,74.44029,2650659446,177292352,1,1,0.2,-15.23612,-35.2763,2
1561241758.449398,70,0,0,1561241752.61429,4.60305018511949,-74.06478503319742,2651.467,-1,-1,10,65,-9999,1561241758.441993,-27.92482566833496,-3.028563022613525,0.99853515625,250.6570587158203,258.2007446289062,15,64218.79343587501,-0.6552734375,0.6767578125,-0.132720947265625,64218.784310875,-0.2294715416427866,0.07314425197124429,-0.2369419748165678,64218.783273875,10.689697265625,-2.2667236328125,-532.302490234375,64218.77417887501,-1.794726445801869,-1.376949097424636,-0.7435883785388727,-0.2400610893964767,0.1564606875181198,-0.2940365076065063,0.05773800611495972,-0.05028551816940308,0.05421805381774902,1,0.6376819014549255,0.1498922556638718,0.4184327721595764,-0.6291327476501465,-0.7222582697868347,0.6769334673881531,-0.1417882144451141,0,0,0,-1,64217.65133304167,3,2,1561241757.314248,1561241546.732582,16,16.27515,0,0,14.2948,0,0,1561241691.513234,64215.787987,0,-1.112549,74.44029,2650659446,177292352,1,1,0.2,-15.23612,-36.93235,2
1561241758.453094,71,0,0,1561241752.61429,4.60305018511949,-74.06478503319742,2651.467,-1,-1,10,65,-9999,1561241758.441993,-27.92482566833496,-3.028563022613525,0.99853515625,250.6570587158203,258.2007446289062,15,64218.813668875,-0.6962738037109375,0.733978271484375,-0.1651458740234375,64218.804574875,-0.1240463151503648,-0.1343844401859434,-0.1637050448393888,64218.803414875,10.66448974609375,-2.543914794921875,-532.299072265625,64218.79444287501,-1.802223015871769,-1.380797233745974,-0.7396814715242329,-0.2062296271324158,-0.04867700487375259,-0.1886930614709854,0.07011681795120239,0.002705156803131104,0.006785333156585693,1,0.6385297775268555,0.1500886231660843,0.4207068979740143,-0.6267047524452209,-0.7253902554512024,0.6740526556968689,-0.1395062506198883,0,0,0,-1,64217.65133304167,3,2,1561241757.314248,1561241546.732582,16,16.27515,0,0,14.2948,0,0,1561241691.513234,64215.787987,0,-1.112549,74.44029,2650659446,177292352,1,1,0.2,-15.23612,-36.93235,2
1561241758.46739,72,0,0,1561241752.61429,4.60305018511949,-74.06478503319742,2651.467,-1,-1,10,65,-9999,1561241758.441993,-27.92482566833496,-3.028563022613525,0.99853515625,250.6570587158203,258.2007446289062,15,64218.833932875,-0.7458953857421875,0.7273712158203125,-0.1859283447265625,64218.824807875,0.0303192900622251,-0.1645934753790392,-0.1477322035694205,64218.823556875,10.60885620117188,-2.54840087890625,-532.2598876953125,64218.814675875,-1.806515757058474,-1.386468778284616,-0.7366734820963583,-0.03071532025933266,-0.190561443567276,-0.1588946729898453,0.03188598155975342,0.06215059757232666,-0.02938491106033325,1,0.6396490931510925,0.1515537947416306,0.4211204349994659,-0.6249305009841919,-0.7281597852706909,0.6718276739120483,-0.1357609629631042,0,0,0,-1,64217.65133304167,3,2,1561241757.314248,1561241546.732582,16,16.27515,0,0,14.2948,0,0,1561241691.513234,64215.787987,0,-1.112549,74.44029,2650659446,177292352,1,1,0.2,-15.23612,-37.49629,2
1561241758.487709,73,0,0,1561241752.61429,4.60305018511949,-74.06478503319742,2651.467,-1,-1,10,65,-9999,1561241758.467707,-27.89527320861816,-3.200573444366455,1.0965576171875,250.4923553466797,258.0360412597656,15,64218.85419587501,-0.7491607666015625,0.712127685546875,-0.170074462890625,64218.845071875,0.06467726391755538,0.08707018762737764,-0.1474557674482703,64218.843697875,10.44253540039062,-2.546401977539062,-532.2396850585938,64218.83493987501,-1.806789467559824,-1.389960279084489,-0.7334317016325981,0.05451382324099541,-0.08047168701887131,-0.1533443927764893,-0.01512742042541504,0.05794829130172729,-0.05231952667236328,1,0.6399779915809631,0.1537002772092819,0.4210395216941833,-0.6241235733032227,-0.7307679653167725,0.6694229245185852,-0.1336087882518768,0,0,0,-1,64217.65133304167,3,2,1561241757.314248,1561241546.732582,16,16.27515,0,0,14.2948,0,0,1561241691.513234,64215.787987,0,-1.112549,74.44029,2650659446,177292352,1,1,0.2,-15.23612,-32.65824,2
1561241758.5358,74,0,0,1561241752.61429,4.60305018511949,-74.06478503319742,2651.467,-1,-1,10,65,-9999,1561241758.491844,-27.80656051635742,-3.421970844268799,1.13720703125,250.5408477783203,258.0845336914062,15,64218.87445987501,-0.709228515625,0.7193756103515625,-0.151275634765625,64218.865334875,0.02674452893101174,0.3166205588384305,-0.03885791714923716,64218.863809875,10.65773010253906,-2.748016357421875,-532.12744140625,64218.85520387501,-1.806118369617872,-1.387972907194504,-0.7303914530411064,0.03122270293533802,0.2381263822317123,-0.1055583730340004,-0.0166618824005127,0.04496645927429199,-0.03464424610137939,1,0.6391054391860962,0.1543668508529663,0.4223562777042389,-0.623963475227356,-0.7324989438056946,0.6671612858772278,-0.1354302316904068,0,0,0,-1,64217.65133304167,3,2,1561241757.314248,1561241546.732582,16,16.27515,0,0,14.2948,0,0,1561241691.513234,64215.787987,0,-1.112549,74.44029,2650659446,177292352,1,1,0.2,-15.23612,-34.23037,2
1561241758.538657,75,0,0,1561241752.61429,4.60305018511949,-74.06478503319742,2651.467,-1,-1,10,65,-9999,1561241758.491844,-27.80656051635742,-3.421970844268799,1.13720703125,250.5408477783203,258.0845336914062,15,64218.894723875,-0.6685791015625,0.7374420166015625,-0.1298370361328125,64218.88559887501,0.1309375107870538,0.1224928932865216,0.0239569982180258,64218.883950875,10.68450927734375,-2.83697509765625,-532.2984619140625,64218.875466875,-1.805498213939224,-1.381755753699244,-0.729444361301429,0.0660584419965744,0.2642381489276886,-0.004901273176074028,0.02303457260131836,0.05292010307312012,-0.01117533445358276,1,0.6376155018806458,0.152958557009697,0.4244241416454315,-0.6244312524795532,-0.7322630286216736,0.6664555072784424,-0.1401003003120422,0,0,0,-1,64217.65133304167,3,2,1561241757.314248,1561241546.732582,16,16.27515,0,0,14.2948,0,0,1561241691.513234,64215.787987,0,-1.112549,74.44029,2650659446,177292352,1,1,0.2,-15.23612,-34.23037,2
1561241758.548363,76,0,0,1561241752.61429,4.60305018511949,-74.06478503319742,2651.467,-1,-1,10,65,-9999,1561241758.541177,-27.89292526245117,-3.391825675964355,0.974609375,250.7421417236328,258.2858276367188,15,64218.914986875,-0.7036285400390625,0.7054290771484375,-0.094390869140625,64218.90586287501,0.2566008973513147,-0.3000418484204693,0.06236111271751345,64218.904092875,10.65591430664062,-2.71942138671875,-532.3942260742188,64218.895730875,-1.801880106166457,-1.377287353025053,-0.7294906117164934,0.1997438073158264,-0.1133877113461494,0.0416201576590538,0.06302022933959961,0.07095205783843994,0.01352792978286743,1,0.6363967061042786,0.1526982039213181,0.4247031211853027,-0.6255475282669067,-0.7315993309020996,0.6664899587631226,-0.1433649808168411,0,0,0,-1,64217.65133304167,3,2,1561241757.314248,1561241546.732582,16,16.27515,0,0,14.2948,0,0,1561241691.513234,64215.787987,0,-1.112549,74.44029,2650659446,177292352,1,1,0.2,-15.23612,-34.23037,2
1561241758.568803,77,0,0,1561241752.61429,4.60305018511949,-74.06478503319742,2651.467,-1,-1,10,65,-9999,1561241758.541177,-27.89292526245117,-3.391825675964355,0.974609375,250.7421417236328,258.2858276367188,15,64218.935250875,-0.76483154296875,0.6504669189453125,-0.075286865234375,64218.926125875,0.2063814023595816,-0.3895200663054966,0.06528366569776642,64218.924203875,10.452880859375,-2.60357666015625,-532.085693359375,64218.915994875,-1.795000692403374,-1.378554838773969,-0.7297578507469257,0.2567767202854156,-0.4109059572219849,0.06677184998989105,0.02797722816467285,0.03873991966247559,0.04801267385482788,1,0.6361716985702515,0.1551894992589951,0.4220676720142365,-0.6269456148147583,-0.7316057682037354,0.6666891574859619,-0.1424035727977753,0,0,0,-1,64217.65133304167,3,2,1561241757.314248,1561241546.732582,16,16.27515,0,0,14.2948,0,0,1561241691.513234,64215.787987,0,-1.112549,74.44029,2650659446,177292352,1,1,0.2,-15.23612,-33.01732,2
1561241758.601547,78,0,0,1561241752.61429,4.60305018511949,-74.06478503319742,2651.467,-1,-1,10,65,-9999,1561241758.593279,-28.14286041259766,-3.161781311035156,1.25439453125,249.6105499267578,257.1542358398438,15,64218.955514875,-0.7919769287109375,0.635345458984375,-0.0784759521484375,64218.946389875,0.05618657373016474,-0.1484773560424247,-0.001957689717317248,64218.944344875,10.47962951660156,-2.739303588867188,-531.885986328125,64218.936257875,-1.789345523211556,-1.382487810617593,-0.7301993855264211,0.128866970539093,-0.3043944239616394,0.03726828470826149,-0.03296071290969849,-0.01655131578445435,0.06418311595916748,1,0.6366158723831177,0.1580672264099121,0.4189126193523407,-0.6278911232948303,-0.7318708896636963,0.6670181751251221,-0.1394699662923813,0,0,0,-1,64217.65133304167,3,2,1561241757.314248,1561241546.732582,16,16.27515,0,0,14.2948,0,0,1561241691.513234,64215.787987,0,-1.112549,74.44029,2650659446,177292352,1,1,0.2,-15.23612,-34.54064,2
1561241758.609281,79,0,0,1561241752.61429,4.60305018511949,-74.06478503319742,2651.467,-1,-1,10,65,-9999,1561241758.593279,-28.14286041259766,-3.161781311035156,1.25439453125,249.6105499267578,257.1542358398438,15,64218.97577887501,-0.7813568115234375,0.6532745361328125,-0.108734130859375,64218.966653875,-0.07358527144776142,0.1164142280984157,-0.03072675370900723,64218.964486875,10.70590209960938,-2.467788696289062,-532.0089721679688,64218.95652187501,-1.78792092546331,-1.3846185107019,-0.73004426943129,-0.02389221638441086,0.00496369507163763,-0.03161038085818291,-0.05970889329910278,-0.03155720233917236,0.05945342779159546,1,0.6369274258613586,0.1592443287372589,0.4178324937820435,-0.6279973983764648,-0.7322679758071899,0.6669026017189026,-0.1379293948411942,0,0,0,-1,64217.65133304167,3,2,1561241757.314248,1561241546.732582,16,16.27515,0,0,14.2948,0,0,1561241691.513234,64215.787987,0,-1.112549,74.44029,2650659446,177292352,1,1,0.2,-15.23612,-34.54064,2
1561241758.629379,80,0,0,1561241752.61429,4.60305018511949,-74.06478503319742,2651.467,-1,-1,10,65,-9999,1561241758.621137,-27.89628982543945,-3.341518402099609,1.26983642578125,249.7964019775391,257.340087890625,15,64218.99604187501,-0.7299346923828125,0.679718017578125,-0.137786865234375,64218.986916875,-0.04708255754372886,0.0883154817530987,-0.04695525844362308,64218.98462887501,10.70016479492188,-2.702194213867188,-532.129150390625,64218.97678587501,-1.789866152072588,-1.384062648868081,-0.7297325026003866,-0.07830619066953659,0.1226322799921036,-0.04548917710781097,-0.04896140098571777,-0.01339578628540039,0.02964085340499878,1,0.6369232535362244,0.1585599929094315,0.4187116622924805,-0.6275890469551086,-0.7323954105377197,0.6666702628135681,-0.138374999165535,0,0,0,-1,64217.65133304167,3,2,1561241757.314248,1561241546.732582,16,16.27515,0,0,14.2948,0,0,1561241691.513234,64215.787987,0,-1.112549,74.44029,2650659446,177292352,1,1,0.2,-15.23612,-34.93517,2
1561241758.649734,81,0,0,1561241752.61429,4.60305018511949,-74.06478503319742,2651.467,-1,-1,10,65,-9999,1561241758.644355,-27.91381072998047,-3.454869270324707,1.2431640625,249.8013458251953,257.3450317382812,15,64219.016305875,-0.718536376953125,0.6640777587890625,-0.144866943359375,64219.00718087501,0.01370782276285585,-0.07720930105914124,-0.02899250320714763,64219.004739875,10.60331726074219,-2.685165405273438,-532.0697021484375,64218.997048875,-1.791473852803328,-1.383687389436411,-0.7291087529850765,-0.01907881908118725,-0.003353090491145849,-0.04042943939566612,0.002817273139953613,0.01351279020309448,0.0009402632713317871,1,0.6368870139122009,0.158149778842926,0.4195185899734497,-0.6271903514862061,-0.7327519059181213,0.6662052273750305,-0.1387271583080292,0,0,0,-1,64217.65133304167,3,2,1561241757.314248,1561241546.732582,16,16.27515,0,0,14.2948,0,0,1561241691.513234,64215.787987,0,-1.112549,74.44029,2650659446,177292352,1,1,0.2,-15.23612,-35.89344,2
1561241758.686406,82,0,0,1561241752.61429,4.60305018511949,-74.06478503319742,2651.467,-1,-1,10,65,-9999,1561241758.670214,-28.08457183837891,-3.277341842651367,1.40277099609375,249.5819854736328,257.1256713867188,15,64219.036569875,-0.7195587158203125,0.656768798828125,-0.130279541015625,64219.02744487501,0.0401365007885842,-0.2052136062215818,-0.03581711981658468,64219.024880875,10.36723327636719,-2.658782958984375,-531.9014282226562,64219.017312875,-1.791533751522594,-1.385526790701927,-0.7284047722510747,0.02910628728568554,-0.160257488489151,-0.02879329025745392,0.01493042707443237,-0.001602292060852051,-0.007401466369628906,1,0.6371816992759705,0.1589551419019699,0.4191581308841705,-0.6269285082817078,-0.7334668040275574,0.6656800508499146,-0.1374654918909073,0,0,0,-1,64217.65133304167,3,2,1561241757.314248,1561241546.732582,16,16.27515,0,0,14.2948,0,0,1561241691.513234,64215.787987,0,-1.112549,74.44029,2650659446,177292352,1,1,0.2,-15.7934,-36.00846,2
1561241758.690324,83,0,0,1561241752.61429,4.60305018511949,-74.06478503319742,2651.467,-1,-1,10,65,-9999,1561241758.670214,-28.08457183837891,-3.277341842651367,1.40277099609375,249.5819854736328,257.1256713867188,15,64219.056832875,-0.732574462890625,0.645477294921875,-0.110931396484375,64219.047707875,0.03908188899691282,-0.1999506672753672,-0.04324574136125171,64219.04502287501,10.50065612792969,-2.540939331054688,-531.8504638671875,64219.037576875,-1.79090434703085,-1.389408698099004,-0.727401925051208,0.041635662317276,-0.2330062538385391,-0.04698560759425163,0.01509231328964233,-0.008162617683410645,0.004458010196685791,1,0.6378077864646912,0.1607247889041901,0.4180178642272949,-0.6266018152236938,-0.7346509695053101,0.6649313569068909,-0.1347375363111496,0,0,0,-1,64217.65133304167,3,2,1561241757.314248,1561241546.732582,16,16.27515,0,0,14.2948,0,0,1561241691.513234,64215.787987,0,-1.112549,74.44029,2650659446,177292352,1,1,0.2,-16.35068,-34.65402,2
1561241758.710626,84,0,0,1561241752.61429,4.60305018511949,-74.06478503319742,2651.467,-1,-1,10,65,-9999,1561241758.69462,-27.94003677368164,-3.297984600067139,1.5272216796875,249.3511810302734,256.8948669433594,15,64219.077096875,-0.7374114990234375,0.653228759765625,-0.1214141845703125,64219.067971875,0.02649738758185239,-0.07596880062338233,-0.05797169060884486,64219.06516387501,10.90786743164062,-2.532196044921875,-531.8589477539062,64219.057839875,-1.790230138098962,-1.393162436915222,-0.7262164025306281,0.03410637378692627,-0.1581373363733292,-0.05440597608685493,0.003352522850036621,-0.01856815814971924,0.0211867094039917,1,0.6383762955665588,0.1625319868326187,0.4169573485851288,-0.6262632608413696,-0.7359269857406616,0.6640454530715942,-0.1321181207895279,0,0,0,-1,64217.65133304167,3,2,1561241757.314248,1561241546.732582,16,16.27515,0,0,14.2948,0,0,1561241691.513234,64215.787987,0,-1.112549,74.44029,2650659446,177292352,1,1,0.2,-16.35068,-34.65402,2
1561241758.731306,85,0,0,1561241752.61429,4.60305018511949,-74.06478503319742,2651.467,-1,-1,10,65,-9999,1561241758.720799,-27.80007362365723,-3.404340267181396,1.5516357421875,249.3020172119141,256.845703125,15,64219.09736087501,-0.72601318359375,0.6631622314453125,-0.1381683349609375,64219.088235875,-0.003772900316315257,0.06015548270270983,-0.02915868445916857,64219.08530587501,10.90359497070312,-2.670974731445312,-531.6403198242188,64219.07810387501,-1.789894660790996,-1.394634044124829,-0.7249669024448985,0.009947240352630615,-0.00818859227001667,-0.0592486672103405,-0.0004745721817016602,-0.009881913661956787,0.009766101837158203,1,0.6384865641593933,0.1635382622480392,0.4167497158050537,-0.6260270476341248,-0.7369369268417358,0.6631106734275818,-0.1311802864074707,0,0,0,-1,64217.65133304167,3,2,1561241757.314248,1561241546.732582,16,16.27515,0,0,14.2948,0,0,1561241691.513234,64215.787987,0,-1.112549,74.44029,2650659446,177292352,1,1,0.2,-16.90796,-35.4491,2
1561241758.770689,86,0,0,1561241752.61429,4.60305018511949,-74.06478503319742,2651.467,-1,-1,10,65,-9999,1561241758.745277,-27.7721061706543,-3.514840126037598,1.6246337890625,249.3799896240234,256.9236755371094,15,64219.117623875,-0.696014404296875,0.6799163818359375,-0.143310546875,64219.108498875,0.009990848829432263,0.08090843181326131,0.01571691148921163,64219.10541687501,10.63999938964844,-2.711151123046875,-531.6294555664062,64219.09836787501,-1.790125991160317,-1.393807268693456,-0.7243662973968001,-0.01231492217630148,0.08460766077041626,-0.002382721519097686,0.01120704412460327,0.0005012750625610352,-0.006308674812316895,1,0.6382517218589783,0.163416400551796,0.4172624945640564,-0.6259568333625793,-0.7372202277183533,0.6626609563827515,-0.1318596452474594,0,0,0,-1,64217.65133304167,3,2,1561241757.314248,1561241546.732582,16,16.27515,0,0,14.2948,0,0,1561241691.513234,64215.787987,0,-1.112549,74.44029,2650659446,177292352,1,1,0.2,-18.02251,-31.92306,2
1561241758.773784,87,0,0,1561241752.61429,4.60305018511949,-74.06478503319742,2651.467,-1,-1,10,65,-9999,1561241758.745277,-27.7721061706543,-3.514840126037598,1.6246337890625,249.3799896240234,256.9236755371094,15,64219.137856875,-0.68695068359375,0.67852783203125,-0.1611328125,64219.12876287501,0.05308026263469632,-0.06615265516145927,0.00919829208902468,64219.12555887501,10.50497436523438,-2.824417114257812,-531.7615356445312,64219.118630875,-1.789836103551299,-1.39234632743148,-0.72451097130232,0.03718365728855133,0.008456696756184101,0.00534444022923708,0.04091793298721313,0.01714706420898438,-0.01039105653762817,1,0.6379427909851074,0.163000762462616,0.4175953269004822,-0.6261580586433411,-0.7369323372840881,0.6627693176269531,-0.1329194903373718,0,0,0,-1,64217.65133304167,3,2,1561241757.314248,1561241546.732582,16,16.27515,0,0,14.2948,0,0,1561241691.513234,64215.787987,0,-1.112549,74.44029,2650659446,177292352,1,1,0.2,-18.02251,-31.92306,2
1561241758.791887,88,0,0,1561241752.61429,4.60305018511949,-74.06478503319742,2651.467,-1,-1,10,65,-9999,1561241758.772272,-27.98241996765137,-3.480739116668701,1.61920166015625,249.2905120849609,256.8341979980469,15,64219.15812087501,-0.719573974609375,0.6755218505859375,-0.1447906494140625,64219.148995875,0.07049520563494248,-0.2063209486028368,0.05188876436299487,64219.14569987501,10.63961791992188,-2.592620849609375,-531.4527587890625,64219.13886387501,-1.788539709469444,-1.393025752164038,-0.7245284398014953,0.05684337764978409,-0.1567018926143646,0.02657036669552326,0.0500604510307312,0.01574540138244629,-0.02871608734130859,1,0.6379810571670532,0.1636209189891815,0.4169675409793854,-0.626375675201416,-0.7370111346244812,0.6627824306488037,-0.1324167251586914,0,0,0,-1,64217.65133304167,3,2,1561241757.314248,1561241546.732582,16,16.27515,0,0,14.2948,0,0,1561241691.513234,64215.787987,0,-1.112549,74.44029,2650659446,177292352,1,1,0.2,-18.57979,-32.79581,2
1561241758.811844,89,0,0,1561241752.61429,4.60305018511949,-74.06478503319742,2651.467,-1,-1,10,65,-9999,1561241758.795819,-27.88360214233398,-3.21966552734375,1.64508056640625,249.0032196044922,256.5469055175781,15,64219.17838487501,-0.7590789794921875,0.6590576171875,-0.1279144287109375,64219.169259875,0.09545275347451104,-0.2626185761504578,0.04518612053148344,64219.165841875,10.55540466308594,-2.548995971679688,-531.6032104492188,64219.15912787501,-1.786545559611753,-1.395985195319178,-0.7251676896780995,0.08284354954957962,-0.2516444027423859,0.0541205033659935,0.01740837097167969,0.01226091384887695,-0.01462936401367188,1,0.6385197639465332,0.164960190653801,0.415210485458374,-0.6266425848007202,-0.7369823455810547,0.6632609367370605,-0.1301613003015518,0,0,0,-1,64217.65133304167,3,2,1561241757.314248,1561241546.732582,16,16.27515,0,0,14.2948,0,0,1561241691.513234,64216.737259,0,-1.189209,74.44102,2650659446,177292352,1,1,0.2,-19.13707,-33.15589,2
1561241758.851774,90,0,0,1561241752.61429,4.60305018511949,-74.06478503319742,2651.467,-1,-1,10,65,-9999,1561241758.847221,-27.7337646484375,-3.27084493637085,2.01904296875,248.6651763916016,256.2088623046875,15,64219.198647875,-0.7845611572265625,0.633514404296875,-0.13372802734375,64219.189523875,0.03707386553499308,-0.1550777344880771,-0.02042484766425371,64219.185983875,10.78790283203125,-2.739242553710938,-531.2847900390625,64219.179391875,-1.783982279140117,-1.399586424895012,-0.7256042159753693,0.07934734970331192,-0.2471053004264832,0.006959381513297558,-0.02191811800003052,-0.004529953002929688,-0.0004573464393615723,1,0.6391121745109558,0.1667546033859253,0.4131283462047577,-0.6269397735595703,-0.7371609210968018,0.6635875701904297,-0.1274570673704147,0,0,0,-1,64217.65133304167,3,2,1561241757.314248,1561241546.732582,16,16.27515,0,0,14.2948,0,0,1561241691.513234,64216.737259,0,-1.189209,74.44102,2650659446,177292352,1,1,0.2,-20.25163,-34.67105,2
1561241758.855301,91,0,0,1561241752.61429,4.60305018511949,-74.06478503319742,2651.467,-1,-1,10,65,-9999,1561241758.847221,-27.7337646484375,-3.27084493637085,2.01904296875,248.6651763916016,256.2088623046875,15,64219.218911875,-0.7725067138671875,0.6402130126953125,-0.130615234375,64219.20978687501,-0.04759921079520424,0.05894560861948683,-0.03565386804176283,64219.206094875,10.59834289550781,-2.72625732421875,-531.172119140625,64219.199654875,-1.783195276750622,-1.402229829911512,-0.725146590367107,-0.02058377116918564,-0.05214380100369453,-0.04018735885620117,-0.04676657915115356,-0.02973073720932007,-0.008169114589691162,1,0.6395297050476074,0.167994886636734,0.4121716022491455,-0.6268126368522644,-0.7377945780754089,0.6632451415061951,-0.1255589425563812,0,0,0,-1,64217.65133304167,3,2,1561241757.314248,1561241546.732582,16,16.27515,0,0,14.2948,0,0,1561241691.513234,64216.737259,0,-1.189209,74.44102,2650659446,177292352,1,1,0.2,-20.25163,-34.67105,2
1561241758.872498,92,0,0,1561241752.61429,4.60305018511949,-74.06478503319742,2651.467,-1,-1,10,65,-9999,1561241758.847221,-27.7337646484375,-3.27084493637085,2.01904296875,248.6651763916016,256.2088623046875,15,64219.239175875,-0.73638916015625,0.6560211181640625,-0.1393585205078125,64219.230050875,-0.03580247243058925,0.1533978124724551,-0.008156463470585682,64219.226235875,10.65692138671875,-2.573455810546875,-531.452880859375,64219.219918875,-1.784495088736979,-1.40212867704377,-0.7246553726813021,-0.05362241342663765,0.1223166882991791,-0.02791258133947849,-0.03440368175506592,-0.02266442775726318,-0.004926919937133789,1,0.6395514607429504,0.1677194088697433,0.4127560257911682,-0.6264795660972595,-0.7381030321121216,0.6628774404525757,-0.1256882548332214,0,0,0,-1,64217.65133304167,3,2,1561241757.314248,1561241546.732582,16,16.27515,0,0,14.2948,0,0,1561241691.513234,64216.737259,0,-1.189209,74.44102,2650659446,177292352,1,1,0.2,-20.25163,-34.67105,2
1561241758.892933,93,0,0,1561241752.61429,4.60305018511949,-74.06478503319742,2651.467,-1,-1,10,65,-9999,1561241758.872908,-27.94815826416016,-3.07683277130127,1.9190673828125,248.8407440185547,256.3844299316406,15,64219.259438875,-0.7161712646484375,0.656646728515625,-0.1377410888671875,64219.250314875,0.02661722983090595,0.03917323542230254,0.01706660152966379,64219.246377875,10.56039428710938,-2.449691772460938,-531.3671264648438,64219.240182875,-1.785481576906822,-1.399987497732796,-0.7246516794957312,-0.013831059448421,0.1149250864982605,0.0120374970138073,0.001445353031158447,-0.006853580474853516,-0.01208972930908203,1,0.6391910314559937,0.1667346209287643,0.4137505888938904,-0.6264541745185852,-0.7378345131874084,0.662874698638916,-0.1272687762975693,0,0,0,-1,64217.65133304167,3,2,1561241757.314248,1561241546.732582,16,16.27515,0,0,14.2948,0,0,1561241691.513234,64216.737259,0,-1.189209,74.44102,2650659446,177292352,1,1,0.2,-20.80891,-35.36299,2
1561241758.931203,94,0,0,1561241752.61429,4.60305018511949,-74.06478503319742,2651.467,-1,-1,10,65,-9999,1561241758.927467,-27.78685760498047,-3.244720458984375,1.95458984375,248.5716094970703,256.1152954101562,15,64219.27970287501,-0.7380523681640625,0.650665283203125,-0.119842529296875,64219.270577875,0.09051365491685009,-0.1560135692951309,-0.02509683116457972,64219.266488875,10.63548278808594,-2.56396484375,-531.2609252929688,64219.26044587501,-1.78481673113738,-1.399006086448691,-0.7247893763951955,0.05712274461984634,-0.07817619293928146,0.0006466242484748363,0.02144813537597656,-0.006331026554107666,-0.009763836860656738,1,0.6389512419700623,0.1665913909673691,0.4138153493404388,-0.6266940832138062,-0.7376193404197693,0.6629777550697327,-0.1279772371053696,0,0,0,-1,64217.65133304167,3,2,1561241757.314248,1561241546.732582,16,16.27515,0,0,14.2948,0,0,1561241691.513234,64216.737259,0,-1.189209,74.44102,2650659446,177292352,1,1,0.2,-21.92347,-32.28249,2
1561241758.933953,95,0,0,1561241752.61429,4.60305018511949,-74.06478503319742,2651.467,-1,-1,10,65,-9999,1561241758.927467,-27.78685760498047,-3.244720458984375,1.95458984375,248.5716094970703,256.1152954101562,15,64219.29996687501,-0.7721405029296875,0.61865234375,-0.1127777099609375,64219.290841875,0.06103432586243598,-0.1257787014394613,-0.0760854470791278,64219.286630875,10.62651062011719,-2.593994140625,-531.4051513671875,64219.28070987501,-1.782744260339804,-1.4006826075411,-0.7238460048046625,0.09356144070625305,-0.1825835555791855,-0.05776821449398994,0.0003966093063354492,-0.01160591840744019,0.007003724575042725,1,0.6389962434768677,0.1681091040372849,0.4129081666469574,-0.6268413066864014,-0.7384489774703979,0.66227126121521,-0.1268462538719177,0,0,0,-1,64217.65133304167,3,2,1561241757.314248,1561241546.732582,16,16.27515,0,0,14.2948,0,0,1561241691.513234,64216.737259,0,-1.189209,74.44102,2650659446,177292352,1,1,0.2,-21.92347,-32.28249,2
1561241758.953579,96,0,0,1561241752.61429,4.60305018511949,-74.06478503319742,2651.467,-1,-1,10,65,-9999,1561241758.948508,-28.02574157714844,-3.380875587463379,2.0184326171875,248.5602264404297,256.1039123535156,15,64219.320229875,-0.7630157470703125,0.6374969482421875,-0.1209259033203125,64219.31110587501,-0.05452103278442919,0.0623288884683235,-0.0920327220026313,64219.306771875,10.40690612792969,-2.708847045898438,-531.1405029296875,64219.300973875,-1.781743961403099,-1.402553667267219,-0.7220353398119971,-0.01227790396660566,-0.04295429587364197,-0.08948539942502975,-0.03227466344833374,-0.04226112365722656,0.01288723945617676,1,0.6390516757965088,0.1696481555700302,0.4125303626060486,-0.6266187429428101,-0.7398658394813538,0.6609134674072266,-0.1256649196147919,0,0,0,-1,64217.65133304167,3,2,1561241757.314248,1561241546.732582,16,16.27515,0,0,14.2948,0,0,1561241691.513234,64216.737259,0,-1.189209,74.44102,2650659446,177292352,1,1,0.2,-22.48075,-33.13687,2
1561241758.974048,97,0,0,1561241752.61429,4.60305018511949,-74.06478503319742,2651.467,-1,-1,10,65,-9999,1561241758.948508,-28.02574157714844,-3.380875587463379,2.0184326171875,248.5602264404297,256.1039123535156,15,64219.340493875,-0.729339599609375,0.67010498046875,-0.1205596923828125,64219.33136887501,-0.002861566591290141,0.1178153171479064,-0.06991623441395925,64219.326882875,10.67294311523438,-3.013626098632812,-531.182373046875,64219.321236875,-1.783373965523034,-1.402663211473357,-0.7203039620144115,-0.04709473997354507,0.1116219684481621,-0.09247959405183792,-0.02200895547866821,-0.02211624383926392,0.004849255084991455,1,0.6389769911766052,0.1697669327259064,0.4135158061981201,-0.6260129809379578,-0.7410067915916443,0.6596131324768066,-0.1257751882076263,0,0,0,-1,64217.65133304167,3,2,1561241757.314248,1561241546.732582,16,16.27515,0,0,14.2948,0,0,1561241691.513234,64216.737259,0,-1.189209,74.44102,2650659446,177292352,1,1,0.2,-23.03802,-33.39012,2
1561241759.005401,98,0,0,1561241752.61429,4.60305018511949,-74.06478503319742,2651.467,-1,-1,10,65,-9999,1561241758.975781,-27.9123592376709,-3.51500129699707,1.9501953125,248.6828765869141,256.2265625,15,64219.360757875,-0.7081298828125,0.66064453125,-0.1137847900390625,64219.351632875,0.08841614924230369,0.008434497488389956,-0.01756408002129059,64219.347024875,10.66641235351562,-3.228347778320312,-531.4945068359375,64219.341500875,-1.783774787093892,-1.400848611035711,-0.7188874147818678,0.04579551890492439,0.06001203134655952,-0.04967646673321724,0.01235777139663696,0.01155710220336914,0.006717801094055176,1,0.6384422779083252,0.1695662438869476,0.4146375060081482,-0.6258708834648132,-0.741697371006012,0.6585478186607361,-0.1272774934768677,0,0,0,-1,64217.65133304167,3,2,1561241757.314248,1561241546.732582,16,16.27515,0,0,14.2948,0,0,1561241691.513234,64216.737259,0,-1.189209,74.44102,2650659446,177292352,1,1,0.2,-23.5953,-33.05495,2
1561241759.014427,99,0,0,1561241752.61429,4.60305018511949,-74.06478503319742,2651.467,-1,-1,10,65,-9999,1561241759.000518,-27.74551773071289,-3.658226013183594,1.87744140625,248.5897674560547,256.1334533691406,15,64219.38102087501,-0.7073211669921875,0.6309051513671875,-0.101654052734375,64219.371896875,0.07549395900102121,-0.1091738920428173,0.03212304906853577,64219.367165875,10.68363952636719,-2.773605346679688,-531.341796875,64219.361764875,-1.781767032249195,-1.399520477993702,-0.7182362058854442,0.09522219002246857,-0.05908879265189171,0.01179248653352261,0.03382027149200439,0.002586901187896729,0.01455074548721313,1,0.6379073858261108,0.1700188368558884,0.4146243035793304,-0.6263021230697632,-0.7419501543045044,0.6580576300621033,-0.1283355206251144,0,0,0,-1,64217.65133304167,3,2,1561241757.314248,1561241546.732582,16,16.27515,0,0,14.2948,0,0,1561241691.513234,64216.737259,0,-1.189209,74.44102,2650659446,177292352,1,1,0.2,-24.15258,-33.17165,2
1561241759.034703,100,0,0,1561241752.61429,4.60305018511949,-74.06478503319742,2651.467,-1,-1,10,65,-9999,1561241759.025322,-27.8799877166748,-3.414361000061035,2.03582763671875,248.4145050048828,255.9581909179688,15,64219.40128487501,-0.7275543212890625,0.625091552734375,-0.119842529296875,64219.392159875,-0.04435974164523186,-0.1730647244904723,0.03396036390458144,64219.387307875,10.86552429199219,-2.782455444335938,-531.0593872070312,64219.38202887501,-1.779903198072777,-1.400636229733627,-0.7184606881048082,0.02278074622154236,-0.1582135111093521,0.03163223713636398,0.03462594747543335,-0.027321457862854,0.02582848072052002,1,0.6380103826522827,0.1708843559026718,0.4136185050010681,-0.6266265511512756,-0.7419471740722656,0.6582266092300415,-0.1274825781583786,0,0,0,-1,64217.65133304167,3,2,1561241757.314248,1561241546.732582,16,16.27515,0,0,14.2948,0,0,1561241691.513234,64216.737259,0,-1.189209,74.44102,2650659446,177292352,1,1,0.2,-24.15258,-33.17165,2
1561241759.054925,101,0,0,1561241752.61429,4.60305018511949,-74.06478503319742,2651.467,-1,-1,10,65,-9999,1561241759.025322,-27.8799877166748,-3.414361000061035,2.03582763671875,248.4145050048828,255.9581909179688,15,64219.42154887501,-0.75177001953125,0.66693115234375,-0.1399078369140625,64219.412423875,-0.1240721478129386,-0.1638421976355279,0.0147344713630814,64219.407418875,10.57865905761719,-2.804534912109375,-531.271728515625,64219.40229187501,-1.781004019929354,-1.404943970508566,-0.7191285064165409,-0.1081242710351944,-0.1793869733810425,0.02011379972100258,0.01450157165527344,-0.0336376428604126,0.004370212554931641,1,0.6390855312347412,0.1716488301753998,0.4123913645744324,-0.6261307597160339,-0.7420559525489807,0.6587292551994324,-0.1242127269506454,0,0,0,-1,64217.65133304167,3,2,1561241757.314248,1561241546.732582,16,16.27515,0,0,14.2948,0,0,1561241691.513234,64216.737259,0,-1.189209,74.44102,2650659446,177292352,1,1,0.2,-24.70986,-34.11341,2
1561241759.083059,102,0,0,1561241752.61429,4.60305018511949,-74.06478503319742,2651.467,-1,-1,10,65,-9999,1561241759.07824,-27.86513519287109,-3.574007511138916,2.34259033203125,248.2789154052734,255.8226013183594,15,64219.441811875,-0.778350830078125,0.7019195556640625,-0.148590087890625,64219.43268787501,-0.003620833818071732,-0.1046569045179339,-0.006393717145062235,64219.427560875,10.51982116699219,-2.7197265625,-530.9992065429688,64219.422555875,-1.784055622271326,-1.410337963233411,-0.719761775851553,-0.08789889514446259,-0.1451245993375778,0.003363847499713302,-0.009466648101806641,0.00772559642791748,-0.01976615190505981,1,0.640544593334198,0.172138899564743,0.4114338159561157,-0.6251345276832581,-0.7423033714294434,0.6592055559158325,-0.1201416477560997,0,0,0,-1,64217.65133304167,3,2,1561241757.314248,1561241546.732582,16,16.27515,0,0,14.2948,0,0,1561241691.513234,64216.737259,0,-1.189209,74.44102,2650659446,177292352,1,1,0.2,-25.26714,-34.58948,2
1561241759.095523,103,0,0,1561241752.61429,4.60305018511949,-74.06478503319742,2651.467,-1,-1,10,65,-9999,1561241759.07824,-27.86513519287109,-3.574007511138916,2.34259033203125,248.2789154052734,255.8226013183594,15,64219.46204587501,-0.7834930419921875,0.6854248046875,-0.1356964111328125,64219.452920875,0.1418474165086724,-0.02791818402340966,0.02315458778158493,64219.447701875,10.57528686523438,-2.88543701171875,-530.9225463867188,64219.442819875,-1.784262045394723,-1.412694007738496,-0.7197588253053349,0.0730561688542366,-0.0708056315779686,0.005667481571435928,-0.03576469421386719,0.04271620512008667,-0.0301973819732666,1,0.6410462856292725,0.1728100329637527,0.4107442796230316,-0.6248884201049805,-0.7425861954689026,0.6592033505439758,-0.1183927059173584,0,0,0,-1,64217.65133304167,3,2,1561241757.314248,1561241546.732582,16,16.27515,0,0,14.2948,0,0,1561241691.513234,64216.737259,0,-1.189209,74.44102,2650659446,177292352,1,1,0.2,-25.82442,-35.37914,2
1561241759.115708,104,0,0,1561241752.61429,4.60305018511949,-74.06478503319742,2651.467,-1,-1,10,65,-9999,1561241759.099684,-27.98856544494629,-3.485751152038574,2.33880615234375,248.0909881591797,255.6346740722656,15,64219.48230887501,-0.7579498291015625,0.6369781494140625,-0.1157379150390625,64219.473184875,0.1905638233811649,-0.03861530317393094,0.005148955651559199,64219.46784387501,10.45211791992188,-2.666824340820312,-530.8026123046875,64219.46305287501,-1.780659443255131,-1.411146285337263,-0.71969944443944,0.1787887215614319,-0.02331188507378101,0.01852602325379848,-0.04105240106582642,0.02626609802246094,-0.01614832878112793,1,0.6404087543487549,0.1735009551048279,0.4101312160491943,-0.6257526874542236,-0.7424406409263611,0.6591587066650391,-0.1195480898022652,0,0,0,-1,64217.65133304167,3,2,1561241757.314248,1561241546.732582,16,16.27515,0,0,14.2948,0,0,1561241691.513234,64216.737259,0,-1.189209,74.44102,2650659446,177292352,1,1,0.2,-26.3817,-35.80855,2
1561241759.135915,105,0,0,1561241752.61429,4.60305018511949,-74.06478503319742,2651.467,-1,-1,10,65,-9999,1561241759.126099,-28.1262092590332,-3.432377338409424,2.32147216796875,247.8540191650391,255.397705078125,15,64219.502572875,-0.738922119140625,0.607025146484375,-0.1126251220703125,64219.49344787501,0.1102194490867824,-0.07124648337845382,-0.03713591718839192,64219.48798587501,10.69573974609375,-2.892257690429688,-530.6824951171875,64219.483315875,-1.77583804598729,-1.408900719945709,-0.7190867708076638,0.1631325334310532,-0.06637226790189743,-0.02234444580972195,-0.01538097858428955,-0.02171969413757324,0.005542159080505371,1,0.6394457221031189,0.1745540797710419,0.4095208048820496,-0.6268435716629028,-0.7425688505172729,0.6586978435516357,-0.1212800815701485,0,0,0,-1,64217.65133304167,3,2,1561241757.314248,1561241546.732582,16,16.27515,0,0,14.2948,0,0,1561241691.513234,64216.737259,0,-1.189209,74.44102,2650659446,177292352,1,1,0.2,-26.93898,-35.98714,2
1561241759.158865,106,0,0,1561241759.128914,4.603060031171461,-74.06478187128573,2651.456,-1,-1,10,65,-9999,1561241759.151164,-27.78442001342773,-3.405706882476807,2.51849365234375,247.7332305908203,255.2769165039062,15,64219.522836875,-0.726470947265625,0.626953125,-0.10595703125,64219.51371187501,0.01691586661196531,-0.05968090739645771,-0.04053357810711501,64219.50812687501,10.53123474121094,-2.984649658203125,-530.524169921875,64219.503579875,-1.77314481616159,-1.408646711165894,-0.7179741633256685,0.04787837713956833,-0.07332844287157059,-0.04907352849841118,0.004338622093200684,-0.05083513259887695,0.008961796760559082,1,0.6390054821968079,0.1757228821516037,0.4090861082077026,-0.6272495985031128,-0.7432607412338257,0.657860279083252,-0.1215869262814522,0,0,0,-1,64217.65133304167,3,2,1561241757.314248,1561241546.732582,16,16.27515,0,0,14.2948,0,0,1561241691.513234,64216.737259,0,-1.189209,74.44102,2650659446,177292352,1,1,0.2,-27.49626,-36.55674,2
1561241759.176532,107,0,0,1561241759.128914,4.603060031171461,-74.06478187128573,2651.456,-1,-1,10,65,-9999,1561241759.151164,-27.78442001342773,-3.405706882476807,2.51849365234375,247.7332305908203,255.2769165039062,15,64219.543099875,-0.7323760986328125,0.656341552734375,-0.11480712890625,64219.53397587501,0.01944906544084868,-0.09173391532832439,-0.007604922808830273,64219.528268875,10.69490051269531,-2.637893676757812,-530.6978759765625,64219.523843875,-1.772826698345784,-1.40983972748878,-0.717125805723496,0.003162837354466319,-0.07947342097759247,-0.02216015383601189,0.01748496294021606,-0.03026795387268066,0.01483249664306641,1,0.6391049027442932,0.1764940917491913,0.4088557064533234,-0.6270819902420044,-0.7439559102058411,0.6572211384773254,-0.1207895204424858,0,0,0,-1,64217.65133304167,3,2,1561241757.314248,1561241546.732582,16,16.27515,0,0,14.2948,0,0,1561241691.513234,64216.737259,0,-1.189209,74.44102,2650659446,177292352,1,1,0.2,-27.49626,-36.55674,2
1561241759.197291,108,0,0,1561241759.128914,4.603060031171461,-74.06478187128573,2651.456,-1,-1,10,65,-9999,1561241759.176671,-27.69735145568848,-3.486132144927979,2.5615234375,247.6299591064453,255.1736450195312,15,64219.563363875,-0.7450408935546875,0.651580810546875,-0.1063079833984375,64219.554238875,0.08983374989055286,-0.1362462561040178,-0.0196783636107045,64219.54837987501,10.67735290527344,-2.979522705078125,-530.7169799804688,64219.544106875,-1.772310841518824,-1.411498928808058,-0.7167875484164566,0.05412482470273972,-0.1225071772933006,-0.01432406902313232,0.01199853420257568,-0.0006245970726013184,0.004783093929290771,1,0.6393517851829529,0.1772968769073486,0.4082635641098022,-0.6269896030426025,-0.744374692440033,0.6569661498069763,-0.1195902228355408,0,0,0,-1,64217.65133304167,3,2,1561241757.314248,1561241546.732582,16,16.27515,0,0,14.2948,0,0,1561241691.513234,64216.737259,0,-1.189209,74.44102,2650659446,177292352,1,1,0.2,-28.05354,-31.87696,2
1561241759.217077,109,0,0,1561241759.128914,4.603060031171461,-74.06478187128573,2651.456,-1,-1,10,65,-9999,1561241759.201083,-27.86461639404297,-3.589516639709473,2.56060791015625,247.4052886962891,254.948974609375,15,64219.58362787501,-0.7515411376953125,0.630523681640625,-0.10821533203125,64219.574502875,0.07745750767273663,-0.1410002649659182,-0.02810407266749719,64219.56852087501,10.79566955566406,-2.8587646484375,-530.688232421875,64219.56437087501,-1.770262642102295,-1.413025267705477,-0.7160670291882406,0.09020052850246429,-0.1552861630916595,-0.02663053572177887,-1.740455627441406e-05,-0.004841923713684082,0.01222026348114014,1,0.6393817663192749,0.1786808222532272,0.4073463380336761,-0.6271626353263855,-0.7450234889984131,0.6564227342605591,-0.118528239428997,0,0,0,-1,64217.65133304167,3,2,1561241757.314248,1561241546.732582,16,16.27515,0,0,14.2948,0,0,1561241691.513234,64216.737259,0,-1.189209,74.44102,2650659446,177292352,1,1,0.2,-28.61081,-32.58585,2
1561241759.245231,110,0,0,1561241759.128914,4.603060031171461,-74.06478187128573,2651.456,-1,-1,10,65,-9999,1561241759.227415,-27.69627380371094,-3.628200531005859,2.64337158203125,247.2171783447266,254.7608642578125,15,64219.60389087501,-0.7545013427734375,0.629302978515625,-0.11676025390625,64219.594766875,-0.01034451662219479,-0.1219181831232825,-0.02646676122931648,64219.588662875,10.91029357910156,-2.850692749023438,-530.7694702148438,64219.58463487501,-1.768554470686653,-1.414929594966494,-0.7151987905785185,0.03674423322081566,-0.1408941745758057,-0.02891845814883709,-0.005730390548706055,-0.02524381875991821,0.008982360363006592,1,0.6394965052604675,0.180125966668129,0.4064586460590363,-0.6272082924842834,-0.7458107471466064,0.6557675004005432,-0.1171977147459984,0,0,0,-1,64217.65133304167,3,2,1561241757.314248,1561241546.732582,16,16.27515,0,0,14.2948,0,0,1561241691.513234,64216.737259,0,-1.189209,74.44102,2650659446,177292352,1,1,0.2,-29.16809,-33.24475,2
1561241759.257614,111,0,0,1561241759.128914,4.603060031171461,-74.06478187128573,2651.456,-1,-1,10,65,-9999,1561241759.251722,-27.66620063781738,-3.508167743682861,2.76873779296875,247.1721649169922,254.7158508300781,15,64219.624154875,-0.74969482421875,0.6508941650390625,-0.1212921142578125,64219.61502987501,-0.06461148383863041,-0.08073532634240616,-0.03987844047895552,64219.60877387501,10.92300415039062,-2.962860107421875,-530.2401123046875,64219.604897875,-1.768971847938807,-1.417799841171484,-0.7145706399604809,-0.05163649469614029,-0.1096116155385971,-0.03815510123968124,-0.007950305938720703,-0.02599012851715088,-0.001640915870666504,1,0.6400307416915894,0.1811104267835617,0.4058572053909302,-0.6267691850662231,-0.7465510368347168,0.6552931666374207,-0.1151193231344223,0,0,0,-1,64217.65133304167,3,2,1561241757.314248,1561241546.732582,16,16.27515,0,0,14.2948,0,0,1561241691.513234,64216.737259,0,-1.189209,74.44102,2650659446,177292352,1,1,0.2,-29.72537,-33.42674,2
1561241759.27807,112,0,0,1561241759.128914,4.603060031171461,-74.06478187128573,2651.456,-1,-1,10,65,-9999,1561241759.251722,-27.66620063781738,-3.508167743682861,2.76873779296875,247.1721649169922,254.7158508300781,15,64219.644418875,-0.752838134765625,0.67254638671875,-0.123138427734375,64219.63529387501,-0.0308066485417096,-0.03195020991378963,-0.03262558756623372,64219.628915875,10.93301391601562,-2.670074462890625,-530.4522094726562,64219.625161875,-1.77086381465061,-1.420823314939486,-0.7139488886650898,-0.06384389102458954,-0.06191547214984894,-0.03874392434954643,-0.002396523952484131,-0.003929197788238525,-0.008369624614715576,1,0.640730619430542,0.1816673874855042,0.4056656360626221,-0.6260164380073547,-0.7472983598709106,0.654823362827301,-0.1129224672913551,0,0,0,-1,64217.65133304167,3,2,1561241757.314248,1561241546.732582,16,16.27515,0,0,14.2948,0,0,1561241691.513234,64216.737259,0,-1.189209,74.44102,2650659446,177292352,1,1,0.2,-30.28265,-34.34116,2
1561241759.298693,113,0,0,1561241759.128914,4.603060031171461,-74.06478187128573,2651.456,-1,-1,10,65,-9999,1561241759.278069,-27.72764587402344,-3.449296951293945,2.76251220703125,247.1722869873047,254.7159729003906,15,64219.664681875,-0.7568511962890625,0.6656036376953125,-0.1259307861328125,64219.655557875,0.0299158211570781,-0.02095055566343535,-0.008761001038033669,64219.64902687501,10.93547058105469,-2.925262451171875,-530.5014038085938,64219.645425875,-1.771874220116372,-1.422374460300323,-0.7133662424352423,0.002825148636475205,-0.03409529104828835,-0.02754480019211769,-0.004988253116607666,0.01816350221633911,-0.0113188624382019,1,0.6410576105117798,0.1820311844348907,0.405657172203064,-0.6255813837051392,-0.7478498816490173,0.6543828845024109,-0.1118195727467537,0,0,0,-1,64217.65133304167,3,2,1561241757.314248,1561241546.732582,16,16.27515,0,0,14.2948,0,0,1561241691.513234,64216.737259,0,-1.189209,74.44102,2650659446,177292352,1,1,0.2,-30.83993,-33.00708,2
1561241759.332408,114,0,0,1561241759.128914,4.603060031171461,-74.06478187128573,2651.456,-1,-1,10,65,-9999,1561241759.314811,-27.73031997680664,-3.618669033050537,2.81732177734375,247.1182708740234,254.6619567871094,15,64219.684945875,-0.7453460693359375,0.6496429443359375,-0.1283721923828125,64219.675820875,0.04385054524480871,-0.02919836555941075,-0.01817314496259171,64219.66916787501,10.79525756835938,-2.934890747070312,-530.5835571289062,64219.665688875,-1.771294776160509,-1.422590313789122,-0.7129616302827362,0.03640574589371681,-0.02618410438299179,-0.008771112188696861,-0.008715331554412842,0.01152670383453369,-0.01423352956771851,1,0.6409934163093567,0.1824248284101486,0.4055264890193939,-0.6256172657012939,-0.7481358647346497,0.654076874256134,-0.1116972416639328,0,0,0,-1,64217.65133304167,3,2,1561241757.314248,1561241546.732582,16,16.27515,0,0,14.2948,0,0,1561241691.513234,64216.737259,0,-1.189209,74.44102,2650659446,177292352,1,1,0.2,-31.39721,-33.49453,2
1561241759.338606,115,0,0,1561241759.128914,4.603060031171461,-74.06478187128573,2651.456,-1,-1,10,65,-9999,1561241759.314811,-27.73031997680664,-3.618669033050537,2.81732177734375,247.1182708740234,254.6619567871094,15,64219.70520987501,-0.7435760498046875,0.647369384765625,-0.127288818359375,64219.696084875,0.04367664082562653,-0.06363996267296951,-0.05055452065686517,64219.689309875,10.66854858398438,-2.8408203125,-530.4658203125,64219.68595287501,-1.770335036948991,-1.422743161441292,-0.7123401994218063,0.04216882959008217,-0.05712790787220001,-0.04047631099820137,0.003208518028259277,-0.003963768482208252,-0.01672935485839844,1,0.6408519148826599,0.1829956918954849,0.4053610861301422,-0.6257025599479675,-0.7485545873641968,0.6536067128181458,-0.1116428002715111,0,0,0,-1,64217.65133304167,3,2,1561241757.314248,1561241546.732582,16,16.27515,0,0,14.2948,0,0,1561241691.513234,64216.737259,0,-1.189209,74.44102,2650659446,177292352,1,1,0.2,-31.39721,-33.49453,2
1561241759.358885,116,0,0,1561241759.128914,4.603060031171461,-74.06478187128573,2651.456,-1,-1,10,65,-9999,1561241759.337225,-27.8691291809082,-3.478392124176025,2.88311767578125,247.0269012451172,254.5705871582031,15,64219.725490625,-0.7490081787109375,0.644561767578125,-0.1240692138671875,64219.71636662501,0.03638091101935446,-0.06449190790568586,-0.02920715399100801,64219.709438625,10.95912170410156,-2.932403564453125,-530.4043579101562,64219.70621687501,-1.769478657256942,-1.423586062689589,-0.7112028021982101,0.03514367341995239,-0.07856129109859467,-0.04806285724043846,0.005807280540466309,-0.005376100540161133,-0.01616805791854858,1,0.6407886147499084,0.1839281469583511,0.4051597118377686,-0.625624418258667,-0.7493833303451538,0.6527454853057861,-0.1111207753419876,0,0,0,-1,64217.65133304167,3,2,1561241757.314248,1561241546.732582,16,16.27515,0,0,14.2948,0,0,1561241691.513234,64216.737259,0,-1.189209,74.44102,2650659446,177292352,1,1,0.2,-31.95449,-34.13777,2
1561241759.379347,117,0,0,1561241759.128914,4.603060031171461,-74.06478187128573,2651.456,-1,-1,10,65,-9999,1561241759.337225,-27.8691291809082,-3.478392124176025,2.88311767578125,247.0269012451172,254.5705871582031,15,64219.745754625,-0.7360382080078125,0.654388427734375,-0.1240081787109375,64219.736629625,0.03509620210950024,-0.03970240553090128,-0.01711959843535637,64219.729580625,10.89056396484375,-2.977325439453125,-530.5220336914062,64219.726497625,-1.768755140891118,-1.424543242708697,-0.7104542129002661,0.0264282114803791,-0.05968933552503586,-0.01975159160792828,0.0009646415710449219,-0.007616400718688965,-0.01359456777572632,1,0.6408132314682007,0.184718906879425,0.4048483967781067,-0.6255679726600647,-0.7499728798866272,0.652178168296814,-0.1104746535420418,0,0,0,-1,64217.65133304167,3,2,1561241757.314248,1561241546.732582,16,16.27515,0,0,14.2948,0,0,1561241691.513234,64216.737259,0,-1.189209,74.44102,2650659446,177292352,1,1,0.2,-32.51176,-34.73123,2
1561241759.405184,118,0,0,1561241759.128914,4.603060031171461,-74.06478187128573,2651.456,-1,-1,10,65,-9999,1561241759.379613,-27.62421035766602,-4.018864154815674,2.97357177734375,246.8381500244141,254.3818359375,15,64219.76601862501,-0.7348480224609375,0.64532470703125,-0.10577392578125,64219.756893625,0.07335117958794345,-0.01786821301777764,-0.0006631271114297304,64219.749721625,10.97235107421875,-2.985031127929688,-530.2203979492188,64219.74676162501,-1.767921538540436,-1.42492127576493,-0.709977227190577,0.0483367070555687,-0.03310006856918335,-0.01650999300181866,0.01428377628326416,0.002571940422058105,-0.01377189159393311,1,0.6407473087310791,0.185269370675087,0.4046075940132141,-0.6256282925605774,-0.7503219842910767,0.6518164873123169,-0.110236294567585,0,0,0,-1,64217.65133304167,3,2,1561241757.314248,1561241546.732582,16,16.27515,0,0,14.2948,0,0,1561241691.513234,64216.737259,0,-1.189209,74.44102,2650659446,177292352,1,1,0.2,-33.06905,-35.38494,2
1561241759.419659,119,0,0,1561241759.128914,4.603060031171461,-74.06478187128573,2651.456,-1,-1,10,65,-9999,1561241759.403759,-27.64141654968262,-3.676680088043213,3.01287841796875,246.7443084716797,254.2879943847656,15,64219.786251625,-0.727264404296875,0.6330108642578125,-0.10784912109375,64219.77712662501,0.0552105251906507,-0.002507366166309603,0.002100967783963511,64219.769832625,11.1348876953125,-3.2698974609375,-530.3621826171875,64219.76702562501,-1.766169808738064,-1.424256749943115,-0.7096482682849358,0.07322447746992111,-0.01684040389955044,-0.003070083446800709,0.01561272144317627,-0.006242275238037109,0.004992246627807617,1,0.6404052376747131,0.1857364624738693,0.4043697416782379,-0.6259937882423401,-0.7504607439041138,0.6515669822692871,-0.1107661947607994,0,0,0,-1,64217.65133304167,3,2,1561241757.314248,1561241546.732582,16,16.27515,0,0,14.2948,0,0,1561241691.513234,64216.737259,0,-1.189209,74.44102,2650659446,177292352,1,1,0.2,-33.62632,-36.22414,2
1561241759.439935,120,0,0,1561241759.128914,4.603060031171461,-74.06478187128573,2651.456,-1,-1,10,65,-9999,1561241759.430499,-27.73862457275391,-3.758934020996094,2.93646240234375,246.6896820068359,254.2333679199219,15,64219.806515625,-0.738311767578125,0.6346588134765625,-0.1101531982421875,64219.797390625,0.00332868504649004,-0.02942952794202963,0.002226136355197235,64219.789974625,10.91038513183594,-3.218490600585938,-530.2318725585938,64219.787258625,-1.764821695138825,-1.423645971203464,-0.7094745447817808,0.02342895977199078,-0.02391429245471954,0.00261390139348805,0.02324050664901733,-0.018424391746521,0.00339198112487793,1,0.6401325464248657,0.1860369741916656,0.4041946530342102,-0.6262964606285095,-0.7505049109458923,0.6514351963996887,-0.1112411320209503,0,0,0,-1,64217.65133304167,3,2,1561241757.314248,1561241546.732582,16,16.27515,0,0,14.2948,0,0,1561241691.513234,64216.737259,0,-1.189209,74.44102,2650659446,177292352,1,1,0.2,-34.1836,-36.85401,2
1561241759.460247,121,0,0,1561241759.128914,4.603060031171461,-74.06478187128573,2651.456,-1,-1,10,65,-9999,1561241759.454459,-27.30635833740234,-3.864802360534668,3.14654541015625,246.6837005615234,254.2273864746094,15,64219.82677862501,-0.7519073486328125,0.6432037353515625,-0.110565185546875,64219.817653625,-0.01865437817156903,-0.009090966697094487,0.01364177636782189,64219.810085625,10.95391845703125,-3.31683349609375,-530.0861206054688,64219.807522625,-1.764774701566798,-1.424295898485036,-0.7094683911237272,-0.016195148229599,-0.03242681920528412,-0.001997628249228001,0.01226943731307983,-0.01677173376083374,0.0006007552146911621,1,0.6402586102485657,0.1862577199935913,0.403973788022995,-0.6262446045875549,-0.7505812048912048,0.6514305472373962,-0.1107539460062981,0,0,0,-1,64217.65133304167,3,2,1561241757.314248,1561241546.732582,16,16.27515,0,0,14.2948,0,0,1561241691.513234,64216.737259,0,-1.189209,74.44102,2650659446,177292352,1,1,0.2,-34.74088,-37.22216,2
1561241759.490136,122,0,0,1561241759.128914,4.603060031171461,-74.06478187128573,2651.456,-1,-1,10,65,-9999,1561241759.480896,-27.63854598999023,-3.705447196960449,3.15863037109375,246.7024993896484,254.2461853027344,15,64219.84704262501,-0.74786376953125,0.64453125,-0.110198974609375,64219.837917625,0.008364456351720872,0.03372893520585355,0.01633210170101993,64219.830227625,11.0125732421875,-3.058135986328125,-530.2125244140625,64219.82778562501,-1.765194606517007,-1.42484521068844,-0.7097295230344618,-0.007399791851639748,0.005823363550007343,0.01781043037772179,-0.001433849334716797,-0.008424878120422363,-0.0002483129501342773,1,0.6404446363449097,0.1862048208713531,0.4038519859313965,-0.6261485815048218,-0.7504734396934509,0.6516286134719849,-0.1103168651461601,0,0,0,-1,64217.65133304167,3,2,1561241757.314248,1561241546.732582,16,16.27515,0,0,14.2948,0,0,1561241691.513234,64216.737259,0,-1.189209,74.44102,2650659446,177292352,1,1,0.2,-28.73745,-32.10998,2
