loggingTime,loggingSample,identifierForVendor,deviceID,locationTimestamp_since1970,locationLatitude,locationLongitude,locationAltitude,locationSpeed,locationCourse,locationVerticalAccuracy,locationHorizontalAccuracy,locationFloor,locationHeadingTimestamp_since1970,locationHeadingX,locationHeadingY,locationHeadingZ,locationTrueHeading,locationMagneticHeading,locationHeadingAccuracy,accelerometerTimestamp_sinceReboot,accelerometerAccelerationX,accelerometerAccelerationY,accelerometerAccelerationZ,gyroTimestamp_sinceReboot,gyroRotationX,gyroRotationY,gyroRotationZ,magnetometerTimestamp_sinceReboot,magnetometerX,magnetometerY,magnetometerZ,motionTimestamp_sinceReboot,motionYaw,motionRoll,motionPitch,motionRotationRateX,motionRotationRateY,motionRotationRateZ,motionUserAccelerationX,motionUserAccelerationY,motionUserAccelerationZ,motionAttitudeReferenceFrame,motionQuaternionX,motionQuaternionY,motionQuaternionZ,motionQuaternionW,motionGravityX,motionGravityY,motionGravityZ,motionMagneticFieldX,motionMagneticFieldY,motionMagneticFieldZ,motionMagneticFieldCalibrationAccuracy,activityTimestamp_sinceReboot,activity,activityActivityConfidence,activityActivityStartDate,pedometerStartDate,pedometerNumberofSteps,pedometerAverageActivePace,pedometerCurrentPace,pedometerCurrentCadence,pedometerDistance,pedometerFloorAscended,pedometerFloorDescended,pedometerEndDate,altimeterTimestamp_sinceReboot,altimeterReset,altimeterRelativeAltitude,altimeterPressure,IP_en0,IP_pdp_ip0,deviceOrientation,batteryState,batteryLevel,avAudioRecorderPeakPower,avAudioRecorderAveragePower,label
1561240666.008848,1,0,0,1561240665.534366,4.603086188546772,-74.0647608868382,2651.499,-1,-1,10,65,-9999,1561240666.001984,-20.76379013061523,-10.19419574737549,11.93170166015625,86.87509155273438,94.41877746582031,15,63126.36127266667,-0.69891357421875,-0.57391357421875,-0.348297119140625,63126.35013366667,-0.003189934353696911,0.1283004486756574,-0.0002037318233910617,63126.33264766667,17.9617919921875,-9.747604370117188,-521.040283203125,63126.35519966667,-2.741194558168658,-1.068730103104566,0.6370895151060647,-0.007123772520571947,0.1200884655117989,0.01499076001346111,0.007028579711914062,0.02030396461486816,0.04058122634887695,1,0.4204139709472656,0.3603266179561615,0.8326933979988098,-0.006213832646608353,-0.7046298980712891,-0.5948584079742432,-0.3868336379528046,0,0,0,-1,63114.989237125,3,1,1561240654.652152,1561239991.781823,76,3.81207,0,0,66.78877,0,0,1561240665.026445,63123.149283,0,-0.1083984,74.41625,2650659446,177292352,1,1,0.31,-31.98215,-38.37582,5
1561240666.029089,2,0,0,1561240665.534366,4.603086188546772,-74.0647608868382,2651.499,-1,-1,10,65,-9999,1561240666.023257,-20.74250411987305,-10.21521759033203,11.80926513671875,86.81431579589844,94.35800170898438,15,63126.38153666667,-0.701141357421875,-0.5685882568359375,-0.3408966064453125,63126.37039766667,0.04976675760641974,0.101500259677863,0.0397064002725364,63126.35278866667,17.94514465332031,-10.05445861816406,-521.0775756835938,63126.37546366667,-2.740177810496366,-1.067306328339053,0.6368406850429703,0.0716666504740715,0.08281911909580231,0.02654062397778034,-0.001083850860595703,0.02498674392700195,0.04356271028518677,1,0.4196775853633881,0.3604397475719452,0.8330098390579224,-0.006959294900298119,-0.7042079567909241,-0.594658374786377,-0.3879078328609467,0,0,0,-1,63114.989237125,3,1,1561240654.652152,1561239991.781823,76,3.81207,0,0,66.78877,0,0,1561240665.026445,63123.149283,0,-0.1083984,74.41625,2650659446,177292352,1,1,0.31,-32.53942,-39.35971,5
1561240666.049491,3,0,0,1561240665.534366,4.603086188546772,-74.0647608868382,2651.499,-1,-1,10,65,-9999,1561240666.023257,-20.74250411987305,-10.21521759033203,11.80926513671875,86.81431579589844,94.35800170898438,15,63126.40180066667,-0.685516357421875,-0.583251953125,-0.34564208984375,63126.39066166667,0.1387474969998202,0.04711318389626478,0.006470682500565525,63126.37293066667,18.11105346679688,-9.853042602539062,-521.4862670898438,63126.39572766667,-2.737439280175427,-1.067908735755577,0.6377779006795962,0.1499811559915543,0.03035430982708931,0.006118705961853266,0.01102077960968018,0.02368009090423584,0.0422593355178833,1,0.4192844331264496,0.3613767623901367,0.8327949643135071,-0.007743983995169401,-0.7039529085159302,-0.5954116582870483,-0.3872148096561432,0,0,0,-1,63114.989237125,3,1,1561240654.652152,1561239991.781823,76,3.81207,0,0,66.78877,0,0,1561240665.026445,63123.149283,0,-0.1083984,74.41625,2650659446,177292352,1,1,0.31,-33.0967,-36.61474,5
1561240666.069561,4,0,0,1561240665.534366,4.603086188546772,-74.0647608868382,2651.499,-1,-1,10,65,-9999,1561240666.049526,-20.87798881530762,-10.25160217285156,11.68548583984375,86.60489654541016,94.14858245849609,15,63126.42206366667,-0.7010650634765625,-0.5825958251953125,-0.3332366943359375,63126.41092466667,0.1691200502838469,0.0307493905782729,0.04774994571290272,63126.39307266667,18.0560302734375,-9.879318237304688,-521.531494140625,63126.41599066667,-2.733440493755601,-1.069844149890197,0.6387611006106368,0.1618921458721161,0.03738665208220482,0.0561874657869339,0.01403212547302246,0.008936226367950439,0.04507040977478027,1,0.4192083775997162,0.3626005947589874,0.8322906494140625,-0.008798609487712383,-0.7041872143745422,-0.5962012410163879,-0.3855702877044678,0,0,0,-1,63114.989237125,3,1,1561240654.652152,1561239991.781823,76,3.81207,0,0,66.78877,0,0,1561240665.026445,63123.149283,0,-0.1083984,74.41625,2650659446,177292352,1,1,0.31,-28.37094,-36.89086,5
1561240666.089855,5,0,0,1561240665.534366,4.603086188546772,-74.0647608868382,2651.499,-1,-1,10,65,-9999,1561240666.073886,-20.96243476867676,-10.1434965133667,11.96185302734375,86.30091857910156,93.8446044921875,15,63126.44232766667,-0.701141357421875,-0.592498779296875,-0.31683349609375,63126.43118866667,0.1528947413425391,0.07979096941986405,0.06369535642364316,63126.41321366667,17.97615051269531,-9.707534790039062,-521.0118408203125,63126.43625466667,-2.729278437142614,-1.071130707123757,0.639174185145137,0.1429227143526077,0.07993065565824509,0.05249153077602386,0.001997530460357666,0.01245695352554321,0.05951845645904541,1,0.4189212620258331,0.3636371791362762,0.8319670557975769,-0.01018741726875305,-0.7044664025306702,-0.5965328812599182,-0.3845459520816803,0,0,0,-1,63114.989237125,3,1,1561240654.652152,1561239991.781823,76,3.81207,0,0,66.78877,0,0,1561240665.026445,63123.149283,0,-0.1083984,74.41625,2650659446,177292352,1,1,0.31,-24.80461,-28.67333,5
1561240666.11073,6,0,0,1561240665.534366,4.603086188546772,-74.0647608868382,2651.499,-1,-1,10,65,-9999,1561240666.100146,-21.05665016174316,-10.02841186523438,11.9327392578125,86.03632354736328,93.58000946044922,15,63126.46259166667,-0.6946563720703125,-0.597869873046875,-0.3080291748046875,63126.45145266667,0.119380989552764,0.06068944650127072,0.02557620016079398,63126.43335566667,17.83639526367188,-9.764907836914062,-521.258056640625,63126.45651866667,-2.726043873292461,-1.071763992748092,0.6397779898529835,0.09979096055030823,0.03742020949721336,0.01464508287608624,0.007249772548675537,0.001543104648590088,0.07362449169158936,1,0.4184978008270264,0.3645489811897278,0.8317672610282898,-0.01125748082995415,-0.7043933272361755,-0.5970173478126526,-0.3839272558689117,0,0,0,-1,63114.989237125,3,1,1561240654.652152,1561239991.781823,76,3.81207,0,0,66.78877,0,0,1561240665.026445,63123.149283,0,-0.1083984,74.41625,2650659446,177292352,1,1,0.31,-19.27587,-21.07836,5
1561240666.130429,7,0,0,1561240665.534366,4.603086188546772,-74.0647608868382,2651.499,-1,-1,10,65,-9999,1561240666.124538,-21.00519180297852,-10.20375442504883,11.828857421875,85.91801452636719,93.46170043945312,15,63126.48285466667,-0.6939697265625,-0.6123046875,-0.325531005859375,63126.47171566667,0.03371508676818514,-0.033945450202477,0.01227584104472025,63126.45349666667,17.70280456542969,-9.655746459960938,-521.05029296875,63126.47678166667,-2.724684976744554,-1.072902493674662,0.6401090521858045,-0.002503454219549894,-0.05546259507536888,0.01049507781863213,0.01157170534133911,-0.007895946502685547,0.06958466768264771,1,0.4186694025993347,0.3649665415287018,0.831494152545929,-0.01152721233665943,-0.7046564221382141,-0.597282886505127,-0.3830307126045227,0,0,0,-1,63114.989237125,3,1,1561240654.652152,1561239991.781823,76,3.81207,0,0,66.78877,0,0,1561240665.026445,63123.149283,0,-0.1083984,74.41625,2650659446,177292352,1,1,0.31,-19.27587,-21.50834,5
1561240666.150671,8,0,0,1561240665.534366,4.603086188546772,-74.0647608868382,2651.499,-1,-1,10,65,-9999,1561240666.124538,-21.00519180297852,-10.20375442504883,11.828857421875,85.91801452636719,93.46170043945312,15,63126.50311866667,-0.714202880859375,-0.6090087890625,-0.35418701171875,63126.49197966667,-0.0897208318603335,-0.02229252253672628,0.01398931889007723,63126.47363866667,17.98373413085938,-9.681411743164062,-521.4393310546875,63126.49704566667,-2.725930472457101,-1.073048517440127,0.6393285994278161,-0.1126568540930748,-0.008179766125977039,0.0181154478341341,0.003263115882873535,-0.01514440774917603,0.04101765155792236,1,0.4190843999385834,0.3644079566001892,0.8315346240997314,-0.01118973549455404,-0.705121636390686,-0.5966567993164062,-0.3831502199172974,0,0,0,-1,63114.989237125,3,1,1561240654.652152,1561239991.781823,76,3.81207,0,0,66.78877,0,0,1561240665.026445,63123.149283,0,-0.1083984,74.41625,2650659446,177292352,1,1,0.31,-19.27587,-21.50834,5
1561240666.171464,9,0,0,1561240665.534366,4.603086188546772,-74.0647608868382,2651.499,-1,-1,10,65,-9999,1561240666.150797,-20.89782333374023,-10.14207744598389,11.8096923828125,86.02113342285156,93.5648193359375,15,63126.52338266667,-0.721954345703125,-0.6016998291015625,-0.3665618896484375,63126.51224366667,-0.1249350120061243,0.03205460582852074,0.04420234882480817,63126.49378066667,17.86100769042969,-9.694015502929688,-521.2514038085938,63126.51730966667,-2.728228018417183,-1.071408136053075,0.6375231621863044,-0.1194689571857452,0.01965053379535675,0.0498102605342865,-0.01766198873519897,-0.008552849292755127,0.02234911918640137,1,0.4191133379936218,0.3632260859012604,0.8320394158363342,-0.011011210270226,-0.7054367661476135,-0.5952069759368896,-0.3848216533660889,0,0,0,-1,63114.989237125,3,1,1561240654.652152,1561239991.781823,76,3.81207,0,0,66.78877,0,0,1561240665.026445,63123.149283,0,-0.1083984,74.41625,2650659446,177292352,1,1,0.31,-19.27587,-22.38516,5
1561240666.191135,10,0,0,1561240665.534366,4.603086188546772,-74.0647608868382,2651.499,-1,-1,10,65,-9999,1561240666.175216,-21.00475883483887,-10.18995189666748,11.7459716796875,86.15688323974609,93.70056915283203,15,63126.54364566667,-0.7245025634765625,-0.60003662109375,-0.3672027587890625,63126.53250666667,-0.05449679801850946,-0.04493418549236194,0.06478032825174143,63126.51389166667,17.80326843261719,-9.745254516601562,-521.0686645507812,63126.53757266667,-2.729186874447552,-1.071474753668779,0.6357787289162199,-0.03416577726602554,-0.07860838621854782,0.06361661851406097,-0.01602399349212646,-0.004508137702941895,0.01887714862823486,1,0.4195973873138428,0.3623567521572113,0.8321738243103027,-0.01106220111250877,-0.706372857093811,-0.5938042402267456,-0.3852712213993073,0,0,0,-1,63114.989237125,3,1,1561240654.652152,1561239991.781823,76,3.81207,0,0,66.78877,0,0,1561240665.026445,63124.098319,0,-0.0847168,74.41602,2650659446,177292352,1,1,0.31,-19.27587,-23.3551,5
1561240666.211629,11,0,0,1561240665.534366,4.603086188546772,-74.0647608868382,2651.499,-1,-1,10,65,-9999,1561240666.202011,-21.00401306152344,-10.27643585205078,11.5667724609375,86.15311431884766,93.69680023193359,15,63126.56390966667,-0.733062744140625,-0.6175994873046875,-0.3983154296875,63126.55277066667,-0.02109037162066451,-0.153695820198435,0.06526022988017371,63126.53403266667,18.00807189941406,-9.778549194335938,-521.34814453125,63126.55780566667,-2.72888273287022,-1.074482367156806,0.6345056731284096,-0.03911952301859856,-0.1795430034399033,0.05566415563225746,-0.01753079891204834,-0.01557320356369019,0.007787466049194336,1,0.4209992587566376,0.3619493246078491,0.8316439390182495,-0.01098155230283737,-0.7081924676895142,-0.5927794575691223,-0.3835046291351318,0,0,0,-1,63114.989237125,3,1,1561240654.652152,1561239991.781823,76,3.81207,0,0,66.78877,0,0,1561240665.026445,63124.098319,0,-0.0847168,74.41602,2650659446,177292352,1,1,0.31,-19.27587,-24.33162,5
1561240666.231804,12,0,0,1561240665.534366,4.603086188546772,-74.0647608868382,2651.499,-1,-1,10,65,-9999,1561240666.225998,-20.82593727111816,-10.26928424835205,11.8447265625,86.22502899169922,93.76871490478516,15,63126.58417366667,-0.7542572021484375,-0.6257781982421875,-0.4380340576171875,63126.57303466667,-0.1025780409710181,-0.1561922674042752,0.02865960807088772,63126.55417466667,18.00666809082031,-9.833450317382812,-521.1250610351562,63126.57806966667,-2.730208831966248,-1.077287086340448,0.6331751582691046,-0.1261644065380096,-0.1311757266521454,0.0099834855645895,-0.03264015913009644,-0.03491002321243286,-0.04271614551544189,1,0.4226199388504028,0.3611749112606049,0.8311675190925598,-0.01027674041688442,-0.7099593281745911,-0.5917074084281921,-0.3818901479244232,0,0,0,-1,63114.989237125,3,1,1561240654.652152,1561239991.781823,76,3.81207,0,0,66.78877,0,0,1561240665.026445,63124.098319,0,-0.0847168,74.41602,2650659446,177292352,1,1,0.31,-19.27587,-25.03391,5
1561240666.251986,13,0,0,1561240665.534366,4.603086188546772,-74.0647608868382,2651.499,-1,-1,10,65,-9999,1561240666.225998,-20.82593727111816,-10.26928424835205,11.8447265625,86.22502899169922,93.76871490478516,15,63126.60440666667,-0.7782440185546875,-0.610748291015625,-0.4543914794921875,63126.59329766667,-0.117836622436627,0.0003858920419524816,-0.03663071552960389,63126.57431566667,17.95249938964844,-9.750869750976562,-521.145263671875,63126.59833366667,-2.733212822629333,-1.076539244140135,0.6324342015400476,-0.09887925535440445,0.04047378897666931,-0.05584293231368065,-0.05890733003616333,-0.02630645036697388,-0.0628361701965332,1,0.4229702651500702,0.3602522909641266,0.8314005732536316,-0.00936000794172287,-0.7100593447685242,-0.5911099314689636,-0.3826288878917694,0,0,0,-1,63114.989237125,3,1,1561240654.652152,1561239991.781823,76,3.81207,0,0,66.78877,0,0,1561240665.026445,63124.098319,0,-0.0847168,74.41602,2650659446,177292352,1,1,0.31,-19.27587,-25.9071,5
1561240666.272209,14,0,0,1561240665.534366,4.603086188546772,-74.0647608868382,2651.499,-1,-1,10,65,-9999,1561240666.252296,-20.80396270751953,-10.11077976226807,11.91168212890625,86.43321990966797,93.97690582275391,15,63126.62466966667,-0.769256591796875,-0.5938720703125,-0.450927734375,63126.61353166667,0.01211525243098847,0.1830126964263543,-0.1104711178097949,63126.59445766667,18.06878662109375,-9.528579711914062,-521.1864013671875,63126.61859666667,-2.734927309020622,-1.072928373418703,0.6338532972202884,0.05774417147040367,0.2150003165006638,-0.1273123174905777,-0.06762319803237915,-0.01156681776046753,-0.07262343168258667,1,0.4215496182441711,0.3604182004928589,0.8320546746253967,-0.008921073749661446,-0.7079352736473083,-0.5922539234161377,-0.3847892880439758,0,0,0,-1,63114.989237125,3,1,1561240654.652152,1561239991.781823,76,3.81207,0,0,66.78877,0,0,1561240665.026445,63124.098319,0,-0.0847168,74.41602,2650659446,177292352,1,1,0.31,-19.27587,-26.86714,5
1561240666.299715,15,0,0,1561240665.534366,4.603086188546772,-74.0647608868382,2651.499,-1,-1,10,65,-9999,1561240666.276408,-20.76064682006836,-10.13901996612549,11.83172607421875,86.47319793701172,94.01688385009766,15,63126.64493366667,-0.752166748046875,-0.599029541015625,-0.4390106201171875,63126.63379466667,0.1545557549144216,0.3068235881363561,-0.1254575242119978,63126.63471066667,17.99308776855469,-9.809112548828125,-521.3892822265625,63126.63886066667,-2.73378000964283,-1.068107021239681,0.6373663094025549,0.1487518399953842,0.3318023085594177,-0.1261921972036362,-0.06046503782272339,0.001742899417877197,-0.05480802059173584,1,0.4187712967395782,0.3619861304759979,0.8327721953392029,-0.009340502321720123,-0.7042444348335266,-0.5950809121131897,-0.3871932923793793,0,0,0,-1,63114.989237125,3,1,1561240654.652152,1561239991.781823,76,3.81207,0,0,66.78877,0,0,1561240665.026445,63124.098319,0,-0.0847168,74.41602,2650659446,177292352,1,1,0.31,-19.27587,-27.79897,5
1561240666.312562,16,0,0,1561240665.534366,4.603086188546772,-74.0647608868382,2651.499,-1,-1,10,65,-9999,1561240666.302804,-20.76097869873047,-10.19337749481201,11.75299072265625,86.38150787353516,93.92519378662109,15,63126.66519766667,-0.719268798828125,-0.6037445068359375,-0.43798828125,63126.65405866667,0.08818738370466588,0.4156704439973116,-0.1436959166212964,63126.65485166667,17.90965270996094,-9.954940795898438,-521.53466796875,63126.65912466667,-2.733061132326294,-1.060761240406139,0.640884987908781,0.07074093073606491,0.4190807342529297,-0.1537617743015289,-0.03583258390426636,-0.00361168384552002,-0.04966294765472412,1,0.4150136411190033,0.3634529113769531,0.8340052962303162,-0.01004575844854116,-0.6995494961738586,-0.5979050397872925,-0.3913313150405884,0,0,0,-1,63114.989237125,3,1,1561240654.652152,1561239991.781823,76,3.81207,0,0,66.78877,0,0,1561240665.026445,63124.098319,0,-0.0847168,74.41602,2650659446,177292352,1,1,0.31,-19.27587,-27.79897,5
1561240666.333359,17,0,0,1561240665.534366,4.603086188546772,-74.0647608868382,2651.499,-1,-1,10,65,-9999,1561240666.327132,-20.96569442749023,-10.49273109436035,11.65362548828125,86.37328338623047,93.91696929931641,15,63126.68546166667,-0.7005462646484375,-0.604949951171875,-0.4082489013671875,63126.67432266667,0.1214798268078554,0.3833481904792379,-0.1564218318902401,63126.67499366667,17.82720947265625,-9.936752319335938,-521.5289916992188,63126.67938866667,-2.732883741177937,-1.052877855940201,0.6446408978085454,0.1546909511089325,0.3397691547870636,-0.1572236120700836,-0.01313966512680054,-0.005060851573944092,-0.02641510963439941,1,0.4110863208770752,0.3648950159549713,0.835313081741333,-0.01057164743542671,-0.6944866180419922,-0.6009114384651184,-0.3957193195819855,0,0,0,-1,63114.989237125,3,1,1561240654.652152,1561239991.781823,76,3.81207,0,0,66.78877,0,0,1561240665.026445,63124.098319,0,-0.0847168,74.41602,2650659446,177292352,1,1,0.31,-19.27587,-28.82183,5
1561240666.353208,18,0,0,1561240665.534366,4.603086188546772,-74.0647608868382,2651.499,-1,-1,10,65,-9999,1561240666.327132,-20.96569442749023,-10.49273109436035,11.65362548828125,86.37328338623047,93.91696929931641,15,63126.70572466667,-0.69610595703125,-0.600250244140625,-0.4012451171875,63126.69458566667,0.2692336019821056,0.1963865587885142,-0.1670691499283769,63126.69513566667,17.59332275390625,-9.993057250976562,-521.5901489257812,63126.69965166667,-2.729926002462912,-1.049754457513038,0.6497716833601205,0.2987429201602936,0.1497563272714615,-0.1791832447052002,-0.006243705749511719,0.002679169178009033,-0.007095813751220703,1,0.408410906791687,0.3674605190753937,0.8354947566986084,-0.01104040443897247,-0.6905641555786133,-0.605004608631134,-0.3963465988636017,0,0,0,-1,63114.989237125,3,1,1561240654.652152,1561239991.781823,76,3.81207,0,0,66.78877,0,0,1561240665.026445,63124.098319,0,-0.0847168,74.41602,2650659446,177292352,1,1,0.31,-19.27587,-29.77131,5
1561240666.381208,19,0,0,1561240665.534366,4.603086188546772,-74.0647608868382,2651.499,-1,-1,10,65,-9999,1561240666.377755,-20.94850730895996,-10.35038471221924,11.39227294921875,85.74924468994141,93.29293060302734,15,63126.725996375,-0.7006988525390625,-0.615631103515625,-0.3848876953125,63126.71484966667,0.3700334502932778,0.1489095870873446,-0.1983767390711304,63126.715284375,18.01884460449219,-9.941192626953125,-521.490478515625,63126.71992337501,-2.724789131935037,-1.050061381973741,0.6565926388790794,0.3685121536254883,0.1668548882007599,-0.1972059160470963,-0.01014506816864014,0.001656889915466309,-0.001984834671020508,1,0.4064791202545166,0.3711314797401428,0.8348097801208496,-0.01134974509477615,-0.6870899796485901,-0.6104215383529663,-0.3940722942352295,0,0,0,-1,63114.989237125,3,1,1561240654.652152,1561239991.781823,76,3.81207,0,0,66.78877,0,0,1561240665.026445,63124.098319,0,-0.0847168,74.41602,2650659446,177292352,1,1,0.31,-19.27587,-30.77319,5
1561240666.394371,20,0,0,1561240665.534366,4.603086188546772,-74.0647608868382,2651.499,-1,-1,10,65,-9999,1561240666.377755,-20.94850730895996,-10.35038471221924,11.39227294921875,85.74924468994141,93.29293060302734,15,63126.746260375,-0.6864013671875,-0.6275482177734375,-0.361602783203125,63126.735121375,0.329745681954777,0.246121624777962,-0.1681863460056651,63126.73539537501,17.53564453125,-9.769180297851562,-521.2716064453125,63126.74018737501,-2.719488049767844,-1.048899744458769,0.6631408167253746,0.3036466240882874,0.2534600794315338,-0.1580047309398651,-0.0134422779083252,-0.0002954602241516113,0.01872348785400391,1,0.4039280414581299,0.3747100532054901,0.834439218044281,-0.01206957921385765,-0.6831519603729248,-0.6155950427055359,-0.3928690254688263,0,0,0,-1,63114.989237125,3,1,1561240654.652152,1561239991.781823,76,3.81207,0,0,66.78877,0,0,1561240665.026445,63124.098319,0,-0.0847168,74.41602,2650659446,177292352,1,1,0.31,-19.27587,-31.6778,5
1561240666.414011,21,0,0,1561240665.534366,4.603086188546772,-74.0647608868382,2651.499,-1,-1,10,65,-9999,1561240666.404093,-21.08255767822266,-10.35824871063232,11.50164794921875,85.42398834228516,92.96767425537109,15,63126.766523375,-0.6694793701171875,-0.6465606689453125,-0.332611083984375,63126.75538437501,0.2263053094227914,0.2409031606219517,-0.1091395372647553,63126.75553737501,17.43318176269531,-9.7640380859375,-521.71533203125,63126.760450375,-2.715553003062488,-1.046376710093321,0.6678486394693388,0.1877628862857819,0.2105885297060013,-0.1044834405183792,0.003616988658905029,-0.02390545606613159,0.04859244823455811,1,0.4013541638851166,0.3772888779640198,0.8345057964324951,-0.01295768655836582,-0.6796423196792603,-0.6192982792854309,-0.3931358754634857,0,0,0,-1,63114.989237125,3,1,1561240654.652152,1561239991.781823,76,3.81207,0,0,66.78877,0,0,1561240665.026445,63124.098319,0,-0.0847168,74.41602,2650659446,177292352,1,1,0.31,-19.27587,-32.48285,5
1561240666.434272,22,0,0,1561240665.534366,4.603086188546772,-74.0647608868382,2651.499,-1,-1,10,65,-9999,1561240666.428468,-21.34438705444336,-10.39907932281494,11.41546630859375,85.29457092285156,92.8382568359375,15,63126.78678737501,-0.65789794921875,-0.6482391357421875,-0.325958251953125,63126.77564837501,0.09375339038293148,0.09788049112422728,-0.09790685641901907,63126.775678375,17.6201171875,-9.989593505859375,-521.5751953125,63126.780714375,-2.714112387276761,-1.044562071228683,0.6708007502127301,0.06580130010843277,0.05570254474878311,-0.1018471792340279,0.01273232698440552,-0.02345186471939087,0.0641639232635498,1,0.3998322784900665,0.3786949217319489,0.8345968723297119,-0.01313270814716816,-0.6773441433906555,-0.6216134428977966,-0.3934486210346222,0,0,0,-1,63114.989237125,3,1,1561240654.652152,1561239991.781823,76,3.81207,0,0,66.78877,0,0,1561240665.026445,63124.098319,0,-0.0847168,74.41602,2650659446,177292352,1,1,0.31,-19.27587,-33.43955,5
1561240666.461677,23,0,0,1561240665.534366,4.603086188546772,-74.0647608868382,2651.499,-1,-1,10,65,-9999,1561240666.455314,-21.41672706604004,-10.28703022003174,11.511962890625,85.35474395751953,92.89842987060547,15,63126.80705137501,-0.6443939208984375,-0.6633758544921875,-0.328857421875,63126.795912375,0.0008314388923227382,-0.03480778176344465,-0.0825183126922142,63126.795820375,17.39076232910156,-9.968887329101562,-521.4769897460938,63126.800978375,-2.714874859984925,-1.044265653013195,0.6725147194681199,-0.02071574702858925,-0.07433640956878662,-0.07051242887973785,0.02763897180557251,-0.03303545713424683,0.06852841377258301,1,0.3995667695999146,0.3791961371898651,0.8345072865486145,-0.01242441404610872,-0.67630535364151,-0.6229550838470459,-0.393113374710083,0,0,0,-1,63114.989237125,3,1,1561240654.652152,1561239991.781823,76,3.81207,0,0,66.78877,0,0,1561240665.026445,63124.098319,0,-0.0847168,74.41602,2650659446,177292352,1,1,0.31,-19.27587,-34.04238,5
1561240666.474784,24,0,0,1561240665.534366,4.603086188546772,-74.0647608868382,2651.499,-1,-1,10,65,-9999,1561240666.455314,-21.41672706604004,-10.28703022003174,11.511962890625,85.35474395751953,92.89842987060547,15,63126.827314375,-0.652923583984375,-0.6600341796875,-0.33270263671875,63126.816175375,-0.06856441384463503,-0.1668334601719049,-0.01202124284450867,63126.815962375,17.45376586914062,-9.99908447265625,-521.383544921875,63126.821241375,-2.716481999400016,-1.046168686113493,0.6725064761692988,-0.08760369569063187,-0.1999340206384659,-0.000817497493699193,0.03122842311859131,-0.04321950674057007,0.06062090396881104,1,0.4006665945053101,0.3788827955722809,0.8341369032859802,-0.01139548327773809,-0.6770566701889038,-0.6229486465454102,-0.3918282091617584,0,0,0,-1,63114.989237125,3,1,1561240654.652152,1561239991.781823,76,3.81207,0,0,66.78877,0,0,1561240665.026445,63124.098319,0,-0.0847168,74.41602,2650659446,177292352,1,1,0.31,-19.27587,-34.04238,5
1561240666.495102,25,0,0,1561240665.534366,4.603086188546772,-74.0647608868382,2651.499,-1,-1,10,65,-9999,1561240666.479175,-21.03756904602051,-10.4730749130249,11.3780517578125,85.48030090332031,93.02398681640625,15,63126.847578375,-0.6776123046875,-0.64788818359375,-0.3404693603515625,63126.836439375,-0.1169511213741757,-0.2718805177895354,0.04393177165805612,63126.836073375,17.596435546875,-10.10957336425781,-521.4061279296875,63126.841474375,-2.718530291104244,-1.050065466884671,0.6709752416019851,-0.1303716748952866,-0.2970752120018005,0.04741314798593521,0.01181775331497192,-0.0296323299407959,0.05386084318161011,1,0.4029338955879211,0.3779070973396301,0.8335025310516357,-0.01020382903516293,-0.6794050335884094,-0.6217501163482666,-0.3896610140800476,0,0,0,-1,63114.989237125,3,1,1561240654.652152,1561239991.781823,76,3.81207,0,0,66.78877,0,0,1561240665.026445,63124.098319,0,-0.0847168,74.41602,2650659446,177292352,1,1,0.31,-19.27587,-35.0209,5
1561240666.51582,26,0,0,1561240665.534366,4.603086188546772,-74.0647608868382,2651.499,-1,-1,10,65,-9999,1561240666.50542,-21.30882453918457,-10.47939968109131,11.60430908203125,85.64818572998047,93.19187164306641,15,63126.867842375,-0.6798858642578125,-0.6497344970703125,-0.3521270751953125,63126.856703375,-0.1591952478494486,-0.3302500846652381,0.06105376693839356,63126.856214375,18.08021545410156,-10.19100952148438,-521.4857177734375,63126.861738375,-2.721157548822133,-1.055080747214184,0.6686112770091969,-0.1786523908376694,-0.3515986502170563,0.06408533453941345,0.003138363361358643,-0.03037166595458984,0.04035389423370361,1,0.405911386013031,0.3764966130256653,0.8327119946479797,-0.008782229386270046,-0.6826274991035461,-0.6198968887329102,-0.3869724869728088,0,0,0,-1,63114.989237125,3,1,1561240654.652152,1561239991.781823,76,3.81207,0,0,66.78877,0,0,1561240665.026445,63124.098319,0,-0.0847168,74.41602,2650659446,177292352,1,1,0.31,-19.27587,-35.25167,5
1561240666.539429,27,0,0,1561240665.534366,4.603086188546772,-74.0647608868382,2651.499,-1,-1,10,65,-9999,1561240666.529758,-20.96156883239746,-10.50511646270752,11.5638427734375,85.88178253173828,93.42546844482422,15,63126.88807537501,-0.6921539306640625,-0.6408538818359375,-0.3562469482421875,63126.87696637501,-0.2088653327082985,-0.4300443233487963,0.09576434332205032,63126.876356375,17.90266418457031,-10.22567749023438,-521.3958740234375,63126.882002375,-2.72456044528188,-1.061247188703809,0.6653514289826565,-0.2172839343547821,-0.4715127944946289,0.1046612560749054,0.007348299026489258,-0.03110182285308838,0.02920150756835938,1,0.4096560776233673,0.3745826780796051,0.831757128238678,-0.007064444478601217,-0.6867611408233643,-0.6173356175422668,-0.3837394416332245,0,0,0,-1,63114.989237125,3,1,1561240654.652152,1561239991.781823,76,3.81207,0,0,66.78877,0,0,1561240665.026445,63124.098319,0,-0.0847168,74.41602,2650659446,177292352,1,1,0.31,-19.27587,-35.67122,5
1561240666.555819,28,0,0,1561240665.534366,4.603086188546772,-74.0647608868382,2651.499,-1,-1,10,65,-9999,1561240666.529758,-20.96156883239746,-10.50511646270752,11.5638427734375,85.88178253173828,93.42546844482422,15,63126.908338375,-0.7193603515625,-0.6290740966796875,-0.3635101318359375,63126.897199375,-0.2268371426924802,-0.5056666467143593,0.111618141291292,63126.896498375,18.05409240722656,-9.979812622070312,-521.0671997070312,63126.90226537501,-2.728222223830955,-1.069235660813824,0.6614315438832059,-0.2361428439617157,-0.498702347278595,0.09869710355997086,-0.01619338989257812,-0.01685637235641479,0.0181955099105835,1,0.414305716753006,0.3723573088645935,0.8304667472839355,-0.005085126962512732,-0.6919212341308594,-0.6142471432685852,-0.3794016242027283,0,0,0,-1,63114.989237125,3,1,1561240654.652152,1561239991.781823,76,3.81207,0,0,66.78877,0,0,1561240665.026445,63124.098319,0,-0.0847168,74.41602,2650659446,177292352,1,1,0.31,-19.27587,-36.33702,5
1561240666.577196,29,0,0,1561240665.534366,4.603086188546772,-74.0647608868382,2651.499,-1,-1,10,65,-9999,1561240666.556117,-20.94272804260254,-10.45811080932617,11.93890380859375,86.14775848388672,93.69144439697266,15,63126.928602375,-0.7241363525390625,-0.6165008544921875,-0.3413238525390625,63126.917463375,-0.2740683046250355,-0.3876470651108438,0.07190668101268446,63126.916609375,18.25164794921875,-10.31695556640625,-520.962158203125,63126.92252937501,-2.733128998809275,-1.074986220601278,0.6577181559931254,-0.3030482530593872,-0.352705717086792,0.06491854041814804,-0.02963030338287354,-0.0140383243560791,0.02115225791931152,1,0.4182116389274597,0.3699318170547485,0.8296027183532715,-0.00296532129868865,-0.696092963218689,-0.6113126277923584,-0.3764989376068115,0,0,0,-1,63114.989237125,3,1,1561240654.652152,1561239991.781823,76,3.81207,0,0,66.78877,0,0,1561240665.026445,63124.098319,0,-0.0847168,74.41602,2650659446,177292352,1,1,0.31,-19.27587,-35.7083,5
1561240666.596378,30,0,0,1561240665.534366,4.603086188546772,-74.0647608868382,2651.499,-1,-1,10,65,-9999,1561240666.580449,-20.592529296875,-10.41703796386719,11.81103515625,86.56001281738281,94.10369873046875,15,63126.948866375,-0.6827850341796875,-0.5806121826171875,-0.310394287109375,63126.93772737501,-0.4175242704321158,-0.2478297763011388,0.06060928535245933,63126.936750375,18.25381469726562,-10.16940307617188,-521.004638671875,63126.942793375,-2.740899044118603,-1.07611424684144,0.6531273515597795,-0.463592916727066,-0.2525261342525482,0.05837702006101608,-0.00972980260848999,0.006446242332458496,0.05526459217071533,1,0.4208559393882751,0.3665505647659302,0.8297713398933411,-0.0007523125386796892,-0.698979914188385,-0.6076730489730835,-0.3770419359207153,0,0,0,-1,63114.989237125,3,1,1561240654.652152,1561239991.781823,76,3.81207,0,0,66.78877,0,0,1561240665.026445,63124.098319,0,-0.0847168,74.41602,2650659446,177292352,1,1,0.31,-19.27587,-36.44056,5
1561240666.620726,31,0,0,1561240665.534366,4.603086188546772,-74.0647608868382,2651.499,-1,-1,10,65,-9999,1561240666.607153,-20.7037296295166,-10.58652019500732,12.07208251953125,87.25643920898438,94.80012512207031,15,63126.969129375,-0.672607421875,-0.57940673828125,-0.3219451904296875,63126.95799037501,-0.5490703135282528,-0.3802693099429973,0.1185303759005927,63126.956892375,18.29425048828125,-10.22384643554688,-521.1588134765625,63126.963056375,-2.751494664264636,-1.076510781133099,0.6465725101182449,-0.5706418752670288,-0.4548179805278778,0.1471463143825531,0.03279036283493042,0.02844917774200439,0.06907588243484497,1,0.4239995181560516,0.3618028461933136,0.830252468585968,0.001979807391762733,-0.7026206851005554,-0.6024543046951294,-0.3786462247371674,0,0,0,-1,63114.989237125,3,1,1561240654.652152,1561239991.781823,76,3.81207,0,0,66.78877,0,0,1561240665.026445,63124.098319,0,-0.0847168,74.41602,2650659446,177292352,1,1,0.31,-19.27587,-37.12151,5
1561240666.636871,32,0,0,1561240665.534366,4.603086188546772,-74.0647608868382,2651.499,-1,-1,10,65,-9999,1561240666.631078,-20.52012252807617,-10.78947162628174,12.12255859375,88.01097869873047,95.55466461181641,15,63126.98939337501,-0.72491455078125,-0.591094970703125,-0.3759307861328125,63126.978254375,-0.5653235856610063,-0.6021274066614654,0.2054040222395225,63126.97703337501,18.5098876953125,-10.27143859863281,-520.886474609375,63126.983320375,-2.762019203022629,-1.08159801768845,0.6378676695958364,-0.5536476969718933,-0.6380413770675659,0.2072194963693619,0.01459068059921265,0.01429176330566406,0.03037965297698975,1,0.4293704032897949,0.3562057316303253,0.8298999667167664,0.004953185096383095,-0.7091402411460876,-0.5954837799072266,-0.3775170743465424,0,0,0,-1,63114.989237125,3,1,1561240654.652152,1561239991.781823,76,3.81207,0,0,66.78877,0,0,1561240665.026445,63124.098319,0,-0.0847168,74.41602,2650659446,177292352,1,1,0.31,-19.27587,-37.12151,5
1561240666.657136,33,0,0,1561240665.534366,4.603086188546772,-74.0647608868382,2651.499,-1,-1,10,65,-9999,1561240666.631078,-20.52012252807617,-10.78947162628174,12.12255859375,88.01097869873047,95.55466461181641,15,63127.00965737501,-0.7699127197265625,-0.594757080078125,-0.422271728515625,63126.998518375,-0.4877188051799883,-0.611254059717167,0.1796848103281913,63126.99717537501,18.53684997558594,-10.50958251953125,-520.5581665039062,63127.003584375,-2.77114670399167,-1.089000117442823,0.6297135213899113,-0.4705895781517029,-0.5795218348503113,0.1431062966585159,-0.03214234113693237,-0.01597565412521362,-0.02609378099441528,1,0.4353171288967133,0.3510717749595642,0.828966498374939,0.007879050448536873,-0.7161943912506104,-0.5889132618904114,-0.3744952082633972,0,0,0,-1,63114.989237125,3,1,1561240654.652152,1561239991.781823,76,3.81207,0,0,66.78877,0,0,1561240665.026445,63124.098319,0,-0.0847168,74.41602,2650659446,177292352,1,1,0.31,-19.27587,-37.54583,5
1561240666.677654,34,0,0,1561240665.534366,4.603086188546772,-74.0647608868382,2651.499,-1,-1,10,65,-9999,1561240666.657431,-20.32761764526367,-10.93097400665283,12.17388916015625,88.65454864501953,96.19823455810547,15,63127.029920375,-0.767181396484375,-0.5942840576171875,-0.4715576171875,63127.018781375,-0.4232183751588142,-0.4080759075167327,-0.008008391713977277,63127.017286375,18.72114562988281,-10.50422668457031,-520.728271484375,63127.02384737501,-2.780375307300681,-1.093227137678333,0.6249334107133585,-0.4264056086540222,-0.3520135581493378,-0.06064657121896744,-0.05511236190795898,-0.001672446727752686,-0.06830108165740967,1,0.4394093155860901,0.347192108631134,0.8284035921096802,0.01116600167006254,-0.7202630043029785,-0.5850432515144348,-0.3727541863918304,0,0,0,-1,63114.989237125,3,1,1561240654.652152,1561239991.781823,76,3.81207,0,0,66.78877,0,0,1561240665.026445,63124.098319,0,-0.0847168,74.41602,2650659446,177292352,1,1,0.31,-19.27587,-38.31004,5
1561240666.701048,35,0,0,1561240665.534366,4.603086188546772,-74.0647608868382,2651.499,-1,-1,10,65,-9999,1561240666.682251,-20.10577774047852,-11.1165885925293,12.298095703125,89.35740661621094,96.90109252929688,15,63127.050184375,-0.7417144775390625,-0.57916259765625,-0.51861572265625,63127.039045375,-0.4139393892887601,-0.1655351691404912,-0.1611010059255093,63127.03742837501,18.4869384765625,-10.59407043457031,-520.9129638671875,63127.04411137501,-2.791152138528437,-1.091707431683225,0.6234916191688233,-0.3935720324516296,-0.1102845668792725,-0.1793026477098465,-0.0345613956451416,-0.008869528770446777,-0.1305696964263916,1,0.4408595860004425,0.3442737758159637,0.8287906646728516,0.01498389057815075,-0.7204434871673584,-0.5838733911514282,-0.3742367923259735,0,0,0,-1,63114.989237125,3,1,1561240654.652152,1561239991.781823,76,3.81207,0,0,66.78877,0,0,1561240665.026445,63124.098319,0,-0.0847168,74.41602,2650659446,177292352,1,1,0.31,-19.27587,-38.89765,5
1561240666.717967,36,0,0,1561240665.534366,4.603086188546772,-74.0647608868382,2651.499,-1,-1,10,65,-9999,1561240666.708001,-20.01199150085449,-11.1524600982666,12.3026123046875,90.05849456787109,97.60218048095703,15,63127.070448375,-0.7162322998046875,-0.54388427734375,-0.508056640625,63127.05930937501,-0.2129104080880198,0.06659234305743135,-0.166904832889119,63127.05756937501,18.79551696777344,-10.92225646972656,-520.915283203125,63127.064375375,-2.799363854568891,-1.086885893632766,0.6240852162976629,-0.1378925889730453,0.1074352413415909,-0.1583488881587982,-0.01469326019287109,0.02347260713577271,-0.1394688487052917,1,0.4401827156543732,0.3427343368530273,0.8297339081764221,0.01771829091012478,-0.7183237075805664,-0.5843551754951477,-0.3775447010993958,0,0,0,-1,63114.989237125,3,1,1561240654.652152,1561239991.781823,76,3.81207,0,0,66.78877,0,0,1561240665.026445,63124.098319,0,-0.0847168,74.41602,2650659446,177292352,1,1,0.31,-19.27587,-38.51015,5
1561240666.738237,37,0,0,1561240665.534366,4.603086188546772,-74.0647608868382,2651.499,-1,-1,10,65,-9999,1561240666.732404,-19.89058685302734,-11.4794979095459,12.14935302734375,90.17621612548828,97.71990203857422,15,63127.09071137501,-0.672760009765625,-0.51031494140625,-0.4609375,63127.07957337501,0.1362004497332684,0.1962043985699528,-0.115179852933164,63127.077711375,18.87188720703125,-11.00267028808594,-520.935302734375,63127.084638375,-2.799975319799401,-1.083205671079858,0.6268244252343048,0.2341387718915939,0.1793861240148544,-0.09933990985155106,0.02294665575027466,0.05853021144866943,-0.1121122241020203,1,0.4383560717105865,0.343695729970932,0.8302956223487854,0.01806490309536457,-0.7155125737190247,-0.5865758657455444,-0.3794344067573547,0,0,0,-1,63114.989237125,3,1,1561240654.652152,1561239991.781823,76,3.81207,0,0,66.78877,0,0,1561240665.026445,63124.098319,0,-0.0847168,74.41602,2650659446,177292352,1,1,0.31,-19.27587,-38.85173,5
1561240666.758593,38,0,0,1561240665.534366,4.603086188546772,-74.0647608868382,2651.499,-1,-1,10,65,-9999,1561240666.732404,-19.89058685302734,-11.4794979095459,12.14935302734375,90.17621612548828,97.71990203857422,15,63127.11097537501,-0.6411285400390625,-0.5191650390625,-0.3857879638671875,63127.099836375,0.5067588090774008,0.07832489923977544,-0.03029638687685042,63127.09782237501,18.75021362304688,-10.96847534179688,-520.8567504882812,63127.104902375,-2.791468960392257,-1.085964205279698,0.6316547797931745,0.5650967359542847,0.03535624966025352,-0.02123578451573849,0.05740988254547119,0.08370614051818848,-0.04413855075836182,1,0.4373124539852142,0.3474056422710419,0.8293381333351135,0.01628991402685642,-0.7140413522720337,-0.5904810428619385,-0.3761342763900757,0,0,0,-1,63114.989237125,3,1,1561240654.652152,1561239991.781823,76,3.81207,0,0,66.78877,0,0,1561240665.026445,63124.098319,0,-0.0847168,74.41602,2650659446,177292352,1,1,0.31,-19.27587,-38.99535,5
1561240666.781122,39,0,0,1561240665.534366,4.603086188546772,-74.0647608868382,2651.499,-1,-1,10,65,-9999,1561240666.758671,-20.08982467651367,-11.11625289916992,12.0999755859375,89.50203704833984,97.04572296142578,15,63127.131239375,-0.643341064453125,-0.537139892578125,-0.3238983154296875,63127.120100375,0.6927015153350603,-0.07203025168726415,0.002445048196801749,63127.11796437501,18.88624572753906,-10.62266540527344,-520.767333984375,63127.125135375,-2.777230579276984,-1.095056211858925,0.637728980522716,0.7011323571205139,-0.09649179130792618,0.01030190289020538,0.07728230953216553,0.06755554676055908,0.01128774881362915,1,0.4376627206802368,0.3527927696704865,0.8269240856170654,0.01360254175961018,-0.714229941368103,-0.5953723192214966,-0.3679772019386292,0,0,0,-1,63114.989237125,3,1,1561240654.652152,1561239991.781823,76,3.81207,0,0,66.78877,0,0,1561240665.026445,63124.098319,0,-0.0847168,74.41602,2650659446,177292352,1,1,0.31,-19.27587,-38.35617,5
1561240666.79904,40,0,0,1561240665.534366,4.603086188546772,-74.0647608868382,2651.499,-1,-1,10,65,-9999,1561240666.78306,-20.01908302307129,-11.20055389404297,12.5322265625,88.42299652099609,95.96668243408203,15,63127.151502375,-0.6538238525390625,-0.5638580322265625,-0.2791290283203125,63127.140364375,0.654914721576253,-0.08194173831621204,0.04461007878769931,63127.13807537501,18.78817749023438,-10.68670654296875,-520.5738525390625,63127.145399375,-2.761985355364517,-1.105779157924109,0.6431337188405438,0.6069357991218567,-0.08278743177652359,0.04895768687129021,0.06459814310073853,0.04852807521820068,0.06308829784393311,1,0.4385379552841187,0.3581337332725525,0.8242032527923584,0.01066734548658133,-0.715248167514801,-0.5997060537338257,-0.3588493764400482,0,0,0,-1,63114.989237125,3,1,1561240654.652152,1561239991.781823,76,3.81207,0,0,66.78877,0,0,1561240665.026445,63124.098319,0,-0.0847168,74.41602,2650659446,177292352,1,1,0.31,-19.27587,-38.35617,5
1561240666.819224,41,0,0,1561240665.534366,4.603086188546772,-74.0647608868382,2651.499,-1,-1,10,65,-9999,1561240666.809438,-20.15896224975586,-11.00233173370361,12.7906494140625,87.47057342529297,95.01425933837891,15,63127.17173637501,-0.666717529296875,-0.5792083740234375,-0.2575836181640625,63127.160627375,0.4216819975259475,-0.05534394956126367,0.05936771965226439,63127.15821637501,18.72854614257812,-10.56376647949219,-520.2991333007812,63127.165663375,-2.750633740772445,-1.113791655045124,0.6463173813170311,0.3440314531326294,-0.0447566956281662,0.04745246842503548,0.05673062801361084,0.02942043542861938,0.08534073829650879,1,0.4392864406108856,0.3617956340312958,0.8222301602363586,0.008299904875457287,-0.7163833975791931,-0.6022506356239319,-0.3522626757621765,0,0,0,-1,63114.989237125,3,1,1561240654.652152,1561239991.781823,76,3.81207,0,0,66.78877,0,0,1561240665.026445,63124.098319,0,-0.0847168,74.41602,2650659446,177292352,1,1,0.31,-19.27587,-39.10113,5
1561240666.839496,42,0,0,1561240665.534366,4.603086188546772,-74.0647608868382,2651.499,-1,-1,10,65,-9999,1561240666.834187,-19.89496231079102,-10.89131546020508,12.550537109375,87.04609680175781,94.58978271484375,15,63127.19199937501,-0.664337158203125,-0.603057861328125,-0.2538604736328125,63127.180860375,0.1635612341405245,-0.02605983021475237,0.004489556965655579,63127.178358375,18.95004272460938,-10.53665161132812,-520.14794921875,63127.185926375,-2.745484972302392,-1.117527948615305,0.6478876058123364,0.1259491741657257,-0.06452134251594543,-0.009893646463751793,0.05180448293685913,0.01446837186813354,0.09507977962493896,1,0.4396349489688873,0.3635059297084808,0.8212986588478088,0.00728962616994977,-0.7168435454368591,-0.603503406047821,-0.3491691052913666,0,0,0,-1,63114.989237125,3,1,1561240654.652152,1561239991.781823,76,3.81207,0,0,66.78877,0,0,1561240665.026445,63124.098319,0,-0.0847168,74.41602,2650659446,177292352,1,1,0.31,-19.27587,-39.51096,5
1561240666.861142,43,0,0,1561240665.534366,4.603086188546772,-74.0647608868382,2651.499,-1,-1,10,65,-9999,1561240666.860001,-20.14872169494629,-10.74201393127441,12.9202880859375,86.93154144287109,94.47522735595703,15,63127.212263375,-0.695281982421875,-0.6042938232421875,-0.25103759765625,63127.201124375,0.09499921714087055,-0.1930943590489582,-0.05795384742954133,63127.19846937501,18.84455871582031,-10.41877746582031,-520.1293334960938,63127.20619037501,-2.743677494379416,-1.121708983147265,0.6495924420586843,0.08791311830282211,-0.2454181611537933,-0.09764640033245087,0.03571343421936035,-0.001903831958770752,0.09419584274291992,1,0.4407453536987305,0.3645307421684265,0.8202441930770874,0.007774848025292158,-0.7173693180084229,-0.6048619151115417,-0.3457217514514923,0,0,0,-1,63114.989237125,3,1,1561240654.652152,1561239991.781823,76,3.81207,0,0,66.78877,0,0,1561240665.026445,63124.098319,0,-0.0847168,74.41602,2650659446,177292352,1,1,0.31,-19.27587,-40.43261,5
1561240666.880065,44,0,0,1561240665.534366,4.603086188546772,-74.0647608868382,2651.499,-1,-1,10,65,-9999,1561240666.860001,-20.14872169494629,-10.74201393127441,12.9202880859375,86.93154144287109,94.47522735595703,15,63127.232527375,-0.7094573974609375,-0.6136627197265625,-0.2660980224609375,63127.221388375,0.09700164796450113,-0.3875402723511316,-0.2593024079610912,63127.21861137501,18.80818176269531,-10.37704467773438,-520.3753662109375,63127.22645437501,-2.743851984753119,-1.128566086976351,0.654118822373467,0.09632577747106552,-0.4288289844989777,-0.321920782327652,0.01594734191894531,0.003296613693237305,0.08098292350769043,1,0.4428489804267883,0.3661626279354095,0.8183537721633911,0.01034105941653252,-0.7172412276268005,-0.6084601879119873,-0.3396194279193878,0,0,0,-1,63114.989237125,3,1,1561240654.652152,1561239991.781823,76,3.81207,0,0,66.78877,0,0,1561240665.026445,63124.098319,0,-0.0847168,74.41602,2650659446,177292352,1,1,0.31,-19.27587,-41.04044,5
1561240666.900333,45,0,0,1561240665.534366,4.603086188546772,-74.0647608868382,2651.499,-1,-1,10,65,-9999,1561240666.884353,-19.78180313110352,-10.71914386749268,12.85565185546875,87.00566864013672,94.54935455322266,15,63127.252790375,-0.742095947265625,-0.6095733642578125,-0.281097412109375,63127.24165137501,0.07214370234970152,-0.5190943049305389,-0.4839632154107586,63127.238752375,18.98052978515625,-10.44132995605469,-519.9197998046875,63127.246717375,-2.74668741560804,-1.136811262435446,0.6627753830125933,0.04635262489318848,-0.6209497451782227,-0.5817286372184753,-0.005812406539916992,-0.0008733868598937988,0.06039446592330933,1,0.445321798324585,0.3687208592891693,0.8157795071601868,0.01540142111480236,-0.7152111530303955,-0.6153070330619812,-0.3314668536186218,0,0,0,-1,63114.989237125,3,1,1561240654.652152,1561239991.781823,76,3.81207,0,0,66.78877,0,0,1561240665.026445,63124.098319,0,-0.0847168,74.41602,2650659446,177292352,1,1,0.31,-19.27587,-41.56695,5
1561240666.920544,46,0,0,1561240665.534366,4.603086188546772,-74.0647608868382,2651.499,-1,-1,10,65,-9999,1561240666.910789,-19.56636047363281,-10.84679889678955,13.1668701171875,87.42418670654297,94.96787261962891,15,63127.273054375,-0.71124267578125,-0.68389892578125,-0.27191162109375,63127.26191537501,0.09959130580849418,-1.080770158846464,-1.009191312963968,63127.25886337501,19.47731018066406,-10.96279907226562,-519.6703491210938,63127.266981375,-2.754206116969511,-1.15084681966049,0.6792771493877721,0.1518905013799667,-1.251929521560669,-1.162030696868896,-0.02125036716461182,-0.01744484901428223,0.02836388349533081,1,0.4497094452381134,0.3730348944664001,0.8111404180526733,0.02564259059727192,-0.7104238271713257,-0.6282308101654053,-0.3172127604484558,0,0,0,-1,63114.989237125,3,1,1561240654.652152,1561239991.781823,76,3.81207,0,0,66.78877,0,0,1561240665.026445,63124.098319,0,-0.0847168,74.41602,2650659446,177292352,1,1,0.31,-19.27587,-41.88677,5
1561240666.940865,47,0,0,1561240665.534366,4.603086188546772,-74.0647608868382,2651.499,-1,-1,10,65,-9999,1561240666.935076,-19.14860916137695,-11.3247537612915,13.5010986328125,87.97357940673828,95.51726531982422,15,63127.29331837501,-0.7270965576171875,-0.6649627685546875,-0.244873046875,63127.282179375,0.3527143810922745,-1.651839248243207,-1.434815854167669,63127.27900537501,20.16252136230469,-11.31085205078125,-519.0042114257812,63127.287245375,-2.761476559804841,-1.177132576647432,0.706750911644118,0.408209353685379,-1.749308466911316,-1.461861133575439,-0.01040071249008179,-0.03628730773925781,0.04043257236480713,1,0.4571092128753662,0.3810533285140991,0.8025884032249451,0.04124658182263374,-0.7023068070411682,-0.6493663787841797,-0.2916990518569946,0,0,0,-1,63114.989237125,3,1,1561240654.652152,1561239991.781823,76,3.81207,0,0,66.78877,0,0,1561240665.026445,63124.098319,0,-0.0847168,74.41602,2650659446,177292352,1,1,0.31,-19.27587,-41.88677,5
1561240666.96141,48,0,0,1561240665.534366,4.603086188546772,-74.0647608868382,2651.499,-1,-1,10,65,-9999,1561240666.935076,-19.14860916137695,-11.3247537612915,13.5010986328125,87.97357940673828,95.51726531982422,15,63127.31358137501,-0.720306396484375,-0.6408843994140625,-0.2350311279296875,63127.302442375,0.5500476936483119,-1.890116265714231,-1.414436546558055,63127.299146375,21.21482849121094,-11.48194885253906,-518.1773681640625,63127.307508375,-2.763099969406446,-1.213628708525897,0.7375645379919848,0.5735693573951721,-1.911619305610657,-1.392400026321411,-0.03421437740325928,0.02397358417510986,0.01686066389083862,1,0.4667106866836548,0.3908989727497101,0.7912294268608093,0.05775083228945732,-0.6934009790420532,-0.6724873781204224,-0.2587582468986511,0,0,0,-1,63114.989237125,3,1,1561240654.652152,1561239991.781823,76,3.81207,0,0,66.78877,0,0,1561240665.026445,63124.098319,0,-0.0847168,74.41602,2650659446,177292352,1,1,0.31,-19.27587,-42.33039,5
1561240666.981444,49,0,0,1561240665.534366,4.603086188546772,-74.0647608868382,2651.499,-1,-1,10,65,-9999,1561240666.961549,-17.47214126586914,-11.95394515991211,14.8743896484375,88.04716491699219,95.59085083007812,15,63127.333845375,-0.68359375,-0.663238525390625,-0.2227783203125,63127.322706375,0.6382220278636364,-1.993107096654212,-1.378245785240533,63127.31925837501,22.21957397460938,-11.725830078125,-517.6111450195312,63127.32777237501,-2.759607172819335,-1.255835012071553,0.7680797249702257,0.6580405235290527,-2.059578418731689,-1.402932286262512,-0.01839005947113037,0.05178052186965942,-0.006791174411773682,1,0.4772072434425354,0.4010851979255676,0.7784451842308044,0.07366787642240524,-0.6838651895523071,-0.6947553753852844,-0.2228078246116638,0,0,0,-1,63114.989237125,3,1,1561240654.652152,1561239991.781823,76,3.81207,0,0,66.78877,0,0,1561240665.026445,63124.098319,0,-0.0847168,74.41602,2650659446,177292352,1,1,0.31,-19.27587,-42.40423,5
1561240667.001583,50,0,0,1561240665.534366,4.603086188546772,-74.0647608868382,2651.499,-1,-1,10,65,-9999,1561240666.985677,-16.3585319519043,-12.08613109588623,15.765625,87.69593811035156,95.2396240234375,15,63127.354109375,-0.6767120361328125,-0.7359466552734375,-0.171478271484375,63127.342970375,0.7560312197410355,-2.247631260987483,-1.404029711966353,63127.33939937501,23.30519104003906,-11.66278076171875,-516.3812255859375,63127.34803637501,-2.751438718691199,-1.305993346831225,0.799605920120171,0.7710067629814148,-2.294395446777344,-1.378720879554749,0.0008203387260437012,0.01008075475692749,-0.01622343063354492,1,0.4891120493412018,0.4117786586284637,0.7635934948921204,0.09018226712942123,-0.6726952791213989,-0.7170814871788025,-0.1824154853820801,0,0,0,-1,63114.989237125,3,1,1561240654.652152,1561239991.781823,76,3.81207,0,0,66.78877,0,0,1561240665.026445,63124.098319,0,-0.0847168,74.41602,2650659446,177292352,1,1,0.31,-19.27587,-37.64475,5
1561240667.021896,51,0,0,1561240665.534366,4.603086188546772,-74.0647608868382,2651.499,-1,-1,10,65,-9999,1561240667.011915,-15.16162872314453,-12.37283802032471,16.58746337890625,86.87720489501953,94.42089080810547,15,63127.374372375,-0.6851348876953125,-0.7493743896484375,-0.148712158203125,63127.36323337501,0.7760249016248054,-2.270260673402104,-1.223210395013788,63127.359541375,24.54690551757812,-12.14801025390625,-515.94677734375,63127.368299375,-2.738080674448369,-1.362021883473719,0.8284864412002425,0.7593234777450562,-2.208451986312866,-1.152683854103088,-0.02011370658874512,-0.007933497428894043,-0.01866084337234497,1,0.5019746422767639,0.4218625724315643,0.7475776076316833,0.1057414337992668,-0.6613132953643799,-0.7369090914726257,-0.1401068568229675,0,0,0,-1,63114.989237125,3,1,1561240654.652152,1561239991.781823,76,3.81207,0,0,66.78877,0,0,1561240665.026445,63124.098319,0,-0.0847168,74.41602,2650659446,177292352,1,1,0.31,-19.27587,-38.50673,5
1561240667.043843,52,0,0,1561240665.534366,4.603086188546772,-74.0647608868382,2651.499,-1,-1,10,65,-9999,1561240667.036349,-13.93645858764648,-12.37862491607666,17.5135498046875,85.77393341064453,93.31761932373047,15,63127.39463637501,-0.698211669921875,-0.759490966796875,-0.115234375,63127.38349737501,0.6822595270169686,-1.807556674025121,-0.86790102975534,63127.37965237501,25.44302368164062,-11.57656860351562,-515.0029296875,63127.388563375,-2.722336771561538,-1.413368910637998,0.8503695739410505,0.6247920393943787,-1.625797629356384,-0.7742565274238586,-0.03885173797607422,-0.003434836864471436,-0.02746260166168213,1,0.5132725238800049,0.4299275279045105,0.7333731651306152,0.1178025677800179,-0.6515474319458008,-0.7515242695808411,-0.1034272760152817,0,0,0,-1,63114.989237125,3,1,1561240654.652152,1561239991.781823,76,3.81207,0,0,66.78877,0,0,1561240665.026445,63124.098319,0,-0.0847168,74.41602,2650659446,177292352,1,1,0.31,-19.83315,-39.11164,5
1561240667.062602,53,0,0,1561240665.534366,4.603086188546772,-74.0647608868382,2651.499,-1,-1,10,65,-9999,1561240667.036349,-13.93645858764648,-12.37862491607666,17.5135498046875,85.77393341064453,93.31761932373047,15,63127.41490037501,-0.6957244873046875,-0.7650604248046875,-0.105316162109375,63127.403761375,0.3949832749656851,-0.9801996087051473,-0.5181209195521149,63127.39979337501,26.43940734863281,-11.66044616699219,-514.2896118164062,63127.40879637501,-2.710476966726946,-1.4466630560442,0.8638017367287698,0.3102969229221344,-0.7923225164413452,-0.4537664353847504,-0.053871750831604,-0.001096129417419434,-0.02913403511047363,1,0.5200787782669067,0.4350931346416473,0.7242768406867981,0.1250403970479965,-0.6445536017417908,-0.7603175044059753,-0.08042405545711517,0,0,0,-1,63114.989237125,3,1,1561240654.652152,1561239991.781823,76,3.81207,0,0,66.78877,0,0,1561240665.026445,63124.098319,0,-0.0847168,74.41602,2650659446,177292352,1,1,0.31,-20.39043,-39.93879,5
1561240667.082686,54,0,0,1561240665.534366,4.603086188546772,-74.0647608868382,2651.499,-1,-1,10,65,-9999,1561240667.062637,-12.32808303833008,-12.42292881011963,18.6014404296875,84.99774169921875,92.54142761230469,15,63127.435163375,-0.6730804443359375,-0.7866058349609375,-0.0709228515625,63127.424024375,0.1396053011869347,-0.3404848790505216,-0.3062291705810504,63127.41990537501,26.61375427246094,-11.90841674804688,-514.4660034179688,63127.42906037501,-2.705851673708755,-1.46010345387389,0.8713847396428331,0.1038753017783165,-0.2432519495487213,-0.2767759561538696,-0.04828280210494995,-0.01050519943237305,-0.02159732580184937,1,0.5223368406295776,0.4377290308475494,0.7203959822654724,0.1287910789251328,-0.63982754945755,-0.765221118927002,-0.07111503928899765,0,0,0,-1,63114.989237125,3,1,1561240654.652152,1561239991.781823,76,3.81207,0,0,66.78877,0,0,1561240665.026445,63124.098319,0,-0.0847168,74.41602,2650659446,177292352,1,1,0.31,-20.94771,-35.12351,5
1561240667.103439,55,0,0,1561240665.534366,4.603086188546772,-74.0647608868382,2651.499,-1,-1,10,65,-9999,1561240667.086928,-12.02978706359863,-12.17504978179932,18.81402587890625,84.78826904296875,92.33195495605469,15,63127.455396375,-0.6495208740234375,-0.78594970703125,-0.04486083984375,63127.444288375,0.03533109291764522,-0.03995247635725972,-0.178163879029647,63127.44004637501,26.66886901855469,-11.69369506835938,-514.1917724609375,63127.449323375,-2.704833650745779,-1.463044833091863,0.8757980398401278,0.01692922227084637,-0.006730218883603811,-0.1456208378076553,-0.02148705720901489,-0.02013790607452393,0.01573783159255981,1,0.5222418308258057,0.4391230046749115,0.719304084777832,0.1305227279663086,-0.6366702914237976,-0.7680547833442688,-0.06886891275644302,0,0,0,-1,63114.989237125,3,1,1561240654.652152,1561239991.781823,76,3.81207,0,0,66.78877,0,0,1561240665.026445,63124.098319,0,-0.0847168,74.41602,2650659446,177292352,1,1,0.31,-20.94771,-35.12351,5
1561240667.123139,56,0,0,1561240665.534366,4.603086188546772,-74.0647608868382,2651.499,-1,-1,10,65,-9999,1561240667.113399,-12.01960754394531,-12.24567222595215,18.80859375,84.77960205078125,92.32328796386719,15,63127.47566037501,-0.63629150390625,-0.7743072509765625,-0.0417633056640625,63127.464521375,0.01228276526355446,0.05857969028570995,-0.0454537682210364,63127.46018837501,27.03770446777344,-11.88009643554688,-514.5202026367188,63127.469587375,-2.704824474582294,-1.462357651133089,0.8774431542464131,0.01932313852012157,0.06666277348995209,-0.02470588311553001,-0.007670044898986816,-0.01345497369766235,0.02723842859268188,1,0.5216449499130249,0.4396609663963318,0.7193381190299988,0.1309103816747665,-0.6353658437728882,-0.7691072821617126,-0.06916955858469009,0,0,0,-1,63114.989237125,3,1,1561240654.652152,1561239991.781823,76,3.81207,0,0,66.78877,0,0,1561240665.026445,63124.098319,0,-0.0847168,74.41602,2650659446,177292352,1,1,0.31,-21.50499,-34.65481,5
1561240667.14387,57,0,0,1561240665.534366,4.603086188546772,-74.0647608868382,2651.499,-1,-1,10,65,-9999,1561240667.137687,-11.93487548828125,-12.17126655578613,18.73724365234375,84.68405914306641,92.22774505615234,15,63127.49592437501,-0.6217803955078125,-0.7629852294921875,-0.0363311767578125,63127.484785375,0.06881528361932049,0.1064271076945096,0.03919960071709432,63127.48029937501,26.59274291992188,-11.8663330078125,-514.282958984375,63127.489851375,-2.70325900705347,-1.461744242738355,0.8772277640575055,0.07832227647304535,0.1140063256025314,0.05925905704498291,0.007436156272888184,0.003619253635406494,0.02966034412384033,1,0.5211255550384521,0.4400448799133301,0.7196193337440491,0.1301413625478745,-0.635487973690033,-0.7689695954322815,-0.06957732141017914,0,0,0,-1,63114.989237125,3,1,1561240654.652152,1561239991.781823,76,3.81207,0,0,66.78877,0,0,1561240665.026445,63125.047333,0,-0.0847168,74.41602,2650659446,177292352,1,1,0.31,-22.06227,-34.83878,5
1561240667.164227,58,0,0,1561240665.534366,4.603086188546772,-74.0647608868382,2651.499,-1,-1,10,65,-9999,1561240667.137687,-11.93487548828125,-12.17126655578613,18.73724365234375,84.68405914306641,92.22774505615234,15,63127.516188375,-0.6234588623046875,-0.760040283203125,-0.043731689453125,63127.505049375,0.09352569010972971,0.1431542296555743,0.1374806312692695,63127.50044037501,26.66702270507812,-11.96305847167969,-514.4278564453125,63127.51011537501,-2.700095009545992,-1.461570817814955,0.8752224226225634,0.09061063081026077,0.1403910517692566,0.1549760103225708,0.01786679029464722,0.006440341472625732,0.0305488109588623,1,0.5207914113998413,0.4402823746204376,0.7200457453727722,0.1283039152622223,-0.6370073556900024,-0.7676860690116882,-0.0698554739356041,0,0,0,-1,63114.989237125,3,1,1561240654.652152,1561239991.781823,76,3.81207,0,0,66.78877,0,0,1561240665.026445,63125.047333,0,-0.0847168,74.41602,2650659446,177292352,1,1,0.31,-22.61954,-32.77332,5
1561240667.18402,59,0,0,1561240665.534366,4.603086188546772,-74.0647608868382,2651.499,-1,-1,10,65,-9999,1561240667.164437,-12.16626358032227,-12.32671165466309,18.51763916015625,84.44855499267578,91.99224090576172,15,63127.536451375,-0.659271240234375,-0.76666259765625,-0.037200927734375,63127.525312375,0.1250378100242013,0.1382915638211986,0.1617521488120337,63127.520552375,26.93377685546875,-11.86778259277344,-514.4555053710938,63127.53037837501,-2.696107134881974,-1.46188106669153,0.8722321265098204,0.1395174562931061,0.1144779697060585,0.1261997520923615,-0.00194251537322998,0.005161523818969727,0.02664840221405029,1,0.5206589102745056,0.440409779548645,0.7204790115356445,0.1259503662586212,-0.6393080949783325,-0.7657663822174072,-0.069907046854496,0,0,0,-1,63114.989237125,3,1,1561240654.652152,1561239991.781823,76,3.81207,0,0,66.78877,0,0,1561240665.026445,63125.047333,0,-0.0847168,74.41602,2650659446,177292352,1,1,0.31,-23.17682,-30.97175,5
1561240667.204212,60,0,0,1561240665.534366,4.603086188546772,-74.0647608868382,2651.499,-1,-1,10,65,-9999,1561240667.188295,-12.1582145690918,-12.29702663421631,18.79229736328125,84.11618041992188,91.65986633300781,15,63127.556715375,-0.6680450439453125,-0.796234130859375,-0.025482177734375,63127.54557637501,0.2013192657595589,0.04517919631264924,-0.03415317676750317,63127.54069337501,26.76390075683594,-11.90707397460938,-514.4285278320312,63127.550642375,-2.690461442278271,-1.464832981831578,0.8722280374452304,0.2078477740287781,0.009799489751458168,-0.09035360068082809,-0.02744674682617188,-0.01638650894165039,0.03745651245117188,1,0.520477831363678,0.4416931867599487,0.7200646996498108,0.1245666816830635,-0.6395149230957031,-0.7657637596130371,-0.06801991164684296,0,0,0,-1,63114.989237125,3,1,1561240654.652152,1561239991.781823,76,3.81207,0,0,66.78877,0,0,1561240665.026445,63125.047333,0,-0.0847168,74.41602,2650659446,177292352,1,1,0.31,-23.7341,-31.63246,5
1561240667.224482,61,0,0,1561240665.534366,4.603086188546772,-74.0647608868382,2651.499,-1,-1,10,65,-9999,1561240667.214565,-11.99350166320801,-12.14713478088379,18.580078125,83.68940734863281,91.23309326171875,15,63127.576979375,-0.6573486328125,-0.7908172607421875,-0.020843505859375,63127.56584037501,0.1943721437399782,-0.005261873681778559,-0.1743014965007051,63127.56083537501,26.87699890136719,-11.66998291015625,-514.3948974609375,63127.570906375,-2.684733573536905,-1.469380981380261,0.8757258657597921,0.1606869250535965,0.005354407709091902,-0.1838800758123398,-0.02956873178482056,-0.02969038486480713,0.04141688346862793,1,0.520098090171814,0.4439351558685303,0.7189413905143738,0.1246705800294876,-0.6371487975120544,-0.7680085897445679,-0.06483910977840424,0,0,0,-1,63114.989237125,3,1,1561240654.652152,1561239991.781823,76,3.81207,0,0,66.78877,0,0,1561240665.026445,63125.047333,0,-0.0847168,74.41602,2650659446,177292352,1,1,0.31,-24.29138,-32.06324,5
1561240667.244846,62,0,0,1561240665.534366,4.603086188546772,-74.0647608868382,2651.499,-1,-1,10,65,-9999,1561240667.239439,-11.95779418945312,-12.20821094512939,18.7467041015625,83.48690795898438,91.03059387207031,15,63127.59724237501,-0.64495849609375,-0.77850341796875,-0.0267791748046875,63127.586103375,0.04619892069404058,0.09775532255299356,-0.1492896201748989,63127.580946375,26.90242004394531,-11.59538269042969,-514.18701171875,63127.591169375,-2.682465837294403,-1.469905913966645,0.8792503451414325,0.005501864943653345,0.121708981692791,-0.1411888152360916,-0.01340234279632568,-0.01466631889343262,0.04062628746032715,1,0.5190249681472778,0.4455303251743317,0.7186486124992371,0.1251399517059326,-0.6344858407974243,-0.7702609896659851,-0.06423162668943405,0,0,0,-1,63114.989237125,3,1,1561240654.652152,1561239991.781823,76,3.81207,0,0,66.78877,0,0,1561240665.026445,63125.047333,0,-0.0847168,74.41602,2650659446,177292352,1,1,0.31,-24.84866,-32.2715,5
1561240667.265063,63,0,0,1561240665.534366,4.603086188546772,-74.0647608868382,2651.499,-1,-1,10,65,-9999,1561240667.239439,-11.95779418945312,-12.20821094512939,18.7467041015625,83.48690795898438,91.03059387207031,15,63127.61750637501,-0.63189697265625,-0.7742767333984375,-0.0179290771484375,63127.606367375,-0.07768600689426543,0.2117242361384985,-0.1199722113147616,63127.60108737501,26.66401672363281,-11.62840270996094,-514.0919799804688,63127.611433375,-2.68457516383981,-1.464752275833286,0.8816996391603951,-0.09596137702465057,0.2154650241136551,-0.1137353554368019,-0.005533754825592041,-0.003234267234802246,0.04599946737289429,1,0.5171148777008057,0.4460289478302002,0.7196422219276428,0.1255602687597275,-0.6322683691978455,-0.7718206644058228,-0.06730075925588608,0,0,0,-1,63114.989237125,3,1,1561240654.652152,1561239991.781823,76,3.81207,0,0,66.78877,0,0,1561240665.026445,63125.047333,0,-0.0847168,74.41602,2650659446,177292352,1,1,0.31,-24.84866,-32.2715,5
1561240667.285195,64,0,0,1561240665.534366,4.603086188546772,-74.0647608868382,2651.499,-1,-1,10,65,-9999,1561240667.265216,-12.13653182983398,-12.12548923492432,18.7822265625,83.65798950195312,91.20167541503906,15,63127.637770375,-0.6230316162109375,-0.7652130126953125,-0.028167724609375,63127.626631375,-0.1011828108759255,0.2147940619270329,-0.06331825281328794,63127.621198375,26.8140869140625,-11.84710693359375,-514.4927368164062,63127.63169737501,-2.688002057399586,-1.45788862972996,0.8830910043473827,-0.1054206565022469,0.1933259069919586,-0.04857073351740837,0.002260267734527588,0.001677989959716797,0.04725629091262817,1,0.515108048915863,0.4459874629974365,0.7210774421691895,0.1257227808237076,-0.6307240128517151,-0.7727046012878418,-0.07151775807142258,0,0,0,-1,63114.989237125,3,1,1561240654.652152,1561239991.781823,76,3.81207,0,0,66.78877,0,0,1561240665.026445,63125.047333,0,-0.0847168,74.41602,2650659446,177292352,1,1,0.31,-25.40594,-31.92511,5
1561240667.305554,65,0,0,1561240665.534366,4.603086188546772,-74.0647608868382,2651.499,-1,-1,10,65,-9999,1561240667.289611,-12.07303619384766,-12.14072227478027,18.64849853515625,83.89651489257812,91.44020080566406,15,63127.658033375,-0.61895751953125,-0.7599029541015625,-0.032196044921875,63127.646894375,-0.08250845899618091,0.1400002479765935,-0.04305559165942005,63127.641340375,26.62017822265625,-11.78642272949219,-514.4424438476562,63127.65196037501,-2.690930995664119,-1.452608365830416,0.8837331426641489,-0.0682450607419014,0.1100882813334465,-0.0538504533469677,0.008079648017883301,0.01240038871765137,0.04266881942749023,1,0.5137182474136353,0.4457569420337677,0.7221947908401489,0.1258135139942169,-0.6298447847366333,-0.7731120586395264,-0.07478862255811691,0,0,0,-1,63114.989237125,3,1,1561240654.652152,1561239991.781823,76,3.81207,0,0,66.78877,0,0,1561240665.026445,63125.047333,0,-0.0847168,74.41602,2650659446,177292352,1,1,0.31,-25.96322,-32.40317,5
1561240667.325777,66,0,0,1561240665.534366,4.603086188546772,-74.0647608868382,2651.499,-1,-1,10,65,-9999,1561240667.315807,-12.14956283569336,-12.2914514541626,18.43865966796875,84.02931213378906,91.572998046875,15,63127.678297375,-0.6209564208984375,-0.7673187255859375,-0.0394439697265625,63127.66715837501,-0.01020496698107463,0.06093445732155801,-0.03537343717897748,63127.66148237501,26.78080749511719,-11.68228149414062,-514.3756713867188,63127.672224375,-2.691924999915448,-1.450466919838602,0.8845522170091086,-0.00709169078618288,0.04982040822505951,-0.02190743200480938,0.009608447551727295,0.01064610481262207,0.0407676100730896,1,0.512991189956665,0.4458805322647095,0.7226089239120483,0.1259639859199524,-0.6290542483329773,-0.7736313343048096,-0.0760611817240715,0,0,0,-1,63114.989237125,3,1,1561240654.652152,1561239991.781823,76,3.81207,0,0,66.78877,0,0,1561240665.026445,63125.047333,0,-0.0847168,74.41602,2650659446,177292352,1,1,0.31,-26.5205,-32.78746,5
1561240667.346111,67,0,0,1561240665.534366,4.603086188546772,-74.0647608868382,2651.499,-1,-1,10,65,-9999,1561240667.340244,-12.43098258972168,-12.08436298370361,18.59466552734375,84.05043029785156,91.5941162109375,15,63127.698561375,-0.629669189453125,-0.768096923828125,-0.05224609375,63127.68742237501,-0.02373728742809427,0.07592752162648611,0.02896161053850271,63127.681593375,26.81756591796875,-11.79411315917969,-514.3556518554688,63127.692457375,-2.692294443831219,-1.449056780145652,0.8842974878504309,-0.0386354997754097,0.08808417618274689,0.03489965572953224,0.005194783210754395,0.006486892700195312,0.03037172555923462,1,0.512618362903595,0.4457985758781433,0.7229700088500977,0.1256996542215347,-0.6291419267654419,-0.7734699249267578,-0.07697208970785141,0,0,0,-1,63114.989237125,3,1,1561240654.652152,1561239991.781823,76,3.81207,0,0,66.78877,0,0,1561240665.026445,63125.047333,0,-0.0847168,74.41602,2650659446,177292352,1,1,0.31,-26.87026,-33.39964,5
1561240667.366478,68,0,0,1561240665.534366,4.603086188546772,-74.0647608868382,2651.499,-1,-1,10,65,-9999,1561240667.340244,-12.43098258972168,-12.08436298370361,18.59466552734375,84.05043029785156,91.5941162109375,15,63127.71882437501,-0.62945556640625,-0.775634765625,-0.05133056640625,63127.707685375,-0.039558594832037,0.1592831321654212,0.04504550562592726,63127.701734375,26.55801391601562,-11.78253173828125,-514.7642822265625,63127.71272137501,-2.69331937750099,-1.44570096261674,0.8833913517028126,-0.03975243121385574,0.1721796095371246,0.04535842314362526,-0.003252327442169189,0.001258313655853271,0.0278550386428833,1,0.5118262767791748,0.4454757869243622,0.7238465547561646,0.1250258386135101,-0.6295754313468933,-0.7728952169418335,-0.07917036861181259,0,0,0,-1,63114.989237125,3,1,1561240654.652152,1561239991.781823,76,3.81207,0,0,66.78877,0,0,1561240665.026445,63125.047333,0,-0.0847168,74.41602,2650659446,177292352,1,1,0.31,-26.87026,-30.89807,5
1561240667.386539,69,0,0,1561240665.534366,4.603086188546772,-74.0647608868382,2651.499,-1,-1,10,65,-9999,1561240667.36663,-12.16308403015137,-12.33519458770752,18.392333984375,84.12374114990234,91.66742706298828,15,63127.73906550001,-0.637481689453125,-0.77374267578125,-0.0570220947265625,63127.72795750001,-0.02522652710966658,0.1677650339212146,0.04424602466668547,63127.7218845,26.59907531738281,-11.89775085449219,-514.762451171875,63127.7329925,-2.693977710845295,-1.441856770457591,0.8824219953017756,-0.02534792758524418,0.1435682028532028,0.02414474822580814,-0.002849221229553223,-0.002225816249847412,0.02579331398010254,1,0.5107870697975159,0.4452565908432007,0.7248755097389221,0.1240914314985275,-0.6300089955329895,-0.7722797989845276,-0.08168627321720123,0,0,0,-1,63114.989237125,3,1,1561240654.652152,1561239991.781823,76,3.81207,0,0,66.78877,0,0,1561240665.026445,63125.047333,0,-0.0847168,74.41602,2650659446,177292352,1,1,0.31,-24.84377,-30.95151,5
1561240667.406799,70,0,0,1561240665.534366,4.603086188546772,-74.0647608868382,2651.499,-1,-1,10,65,-9999,1561240667.390901,-12.16642570495605,-12.14094829559326,18.36395263671875,84.15723419189453,91.70092010498047,15,63127.7593295,-0.6420745849609375,-0.7778778076171875,-0.051361083984375,63127.7481905,0.01129233565415399,0.09109848509223149,-0.06000874252664647,63127.7419955,26.3052978515625,-11.90676879882812,-514.6220703125,63127.75325650001,-2.694093239406783,-1.439747705898909,0.8830848017902094,0.01421652734279633,0.06919703632593155,-0.08508533984422684,-0.007787883281707764,-0.005695879459381104,0.03054922819137573,1,0.5099071264266968,0.4455567002296448,0.725346565246582,0.1238800585269928,-0.6293275952339172,-0.7727006673812866,-0.08294789493083954,0,0,0,-1,63114.989237125,3,1,1561240654.652152,1561239991.781823,76,3.81207,0,0,66.78877,0,0,1561240665.026445,63125.047333,0,-0.0847168,74.41602,2650659446,177292352,1,1,0.31,-24.84377,-30.95151,5
1561240667.427209,71,0,0,1561240665.534366,4.603086188546772,-74.0647608868382,2651.499,-1,-1,10,65,-9999,1561240667.417236,-12.18062210083008,-12.17882442474365,18.565185546875,84.13715362548828,91.68083953857422,15,63127.7795935,-0.6341552734375,-0.771820068359375,-0.062286376953125,63127.7684545,0.02727236745906545,0.05384458986754906,-0.1032246564836893,63127.7621375,26.687255859375,-11.82391357421875,-514.6604614257812,63127.77352050001,-2.693646995045175,-1.439083925000352,0.8851998001500492,0.02081637270748615,0.05047581344842911,-0.1049503907561302,-0.01419472694396973,-0.0005708932876586914,0.02640336751937866,1,0.509116530418396,0.4463462233543396,0.7253515720367432,0.1242599934339523,-0.6276509761810303,-0.774041473865509,-0.08315081149339676,0,0,0,-1,63114.989237125,3,1,1561240654.652152,1561239991.781823,76,3.81207,0,0,66.78877,0,0,1561240665.026445,63125.047333,0,-0.0847168,74.41602,2650659446,177292352,1,1,0.31,-21.76482,-26.02899,5
1561240667.447432,72,0,0,1561240665.534366,4.603086188546772,-74.0647608868382,2651.499,-1,-1,10,65,-9999,1561240667.441547,-12.49776458740234,-12.30216121673584,18.53424072265625,84.12953948974609,91.67322540283203,15,63127.7998565,-0.6317138671875,-0.77239990234375,-0.0626373291015625,63127.78871750001,0.009007609754975008,0.05688192509078444,-0.1039735373822196,63127.7822785,26.31716918945312,-11.66302490234375,-514.3353271484375,63127.7937835,-2.693644175240688,-1.438129903613287,0.8873406428645828,0.005090672988444567,0.05601012706756592,-0.1143297776579857,-0.005343973636627197,0.00441431999206543,0.01900076866149902,1,0.5083134770393372,0.4470484554767609,0.7253992557525635,0.124743826687336,-0.6259273886680603,-0.7753951549530029,-0.08353017270565033,0,0,0,-1,63114.989237125,3,1,1561240654.652152,1561239991.781823,76,3.81207,0,0,66.78877,0,0,1561240665.026445,63125.047333,0,-0.0847168,74.41602,2650659446,177292352,1,1,0.31,-21.76482,-26.1679,5
1561240667.467677,73,0,0,1561240665.534366,4.603086188546772,-74.0647608868382,2651.499,-1,-1,10,65,-9999,1561240667.441547,-12.49776458740234,-12.30216121673584,18.53424072265625,84.12953948974609,91.67322540283203,15,63127.8201205,-0.6379852294921875,-0.773193359375,-0.0597381591796875,63127.80898150001,0.01488467364856187,0.08602756006061162,-0.1407006593432843,63127.8024205,26.28019714355469,-12.03456115722656,-514.7291870117188,63127.8140475,-2.693798741680774,-1.436625267976786,0.8900435268557316,0.01473211497068405,0.09858608990907669,-0.1490611135959625,-0.01281392574310303,0.005019664764404297,0.02355277538299561,1,0.5072253942489624,0.4479138255119324,0.7255236506462097,0.1253436803817749,-0.623721718788147,-0.7770991325378418,-0.0841912105679512,0,0,0,-1,63114.989237125,3,1,1561240654.652152,1561239991.781823,76,3.81207,0,0,66.78877,0,0,1561240665.026445,63125.047333,0,-0.0847168,74.41602,2650659446,177292352,1,1,0.31,-21.76482,-26.79599,5
1561240667.487891,74,0,0,1561240665.534366,4.603086188546772,-74.0647608868382,2651.499,-1,-1,10,65,-9999,1561240667.467852,-12.57180595397949,-12.29908561706543,18.59332275390625,84.14198303222656,91.6856689453125,15,63127.84038450001,-0.626922607421875,-0.771240234375,-0.06939697265625,63127.8292455,0.006590524749619091,0.1499881673288267,-0.1313987702878556,63127.8225615,26.48197937011719,-11.92741394042969,-514.3653564453125,63127.8343115,-2.694028122659507,-1.433868660792352,0.8928603897059737,-0.003320388728752732,0.154497817158699,-0.1264735162258148,-0.01344907283782959,0.006743669509887695,0.02266860008239746,1,0.5056746602058411,0.4488736689090729,0.7259469032287598,0.1257251352071762,-0.6213164925575256,-0.7788689136505127,-0.08561113476753235,0,0,0,-1,63114.989237125,3,1,1561240654.652152,1561239991.781823,76,3.81207,0,0,66.78877,0,0,1561240665.026445,63125.047333,0,-0.0847168,74.41602,2650659446,177292352,1,1,0.31,-21.76482,-27.37955,5
1561240667.50867,75,0,0,1561240665.534366,4.603086188546772,-74.0647608868382,2651.499,-1,-1,10,65,-9999,1561240667.492269,-12.40140533447266,-12.49855995178223,18.44317626953125,84.17577362060547,91.71945953369141,15,63127.86064750001,-0.612640380859375,-0.76727294921875,-0.0729522705078125,63127.8495085,-0.01961870880228673,0.1715144984199372,-0.09073150149401857,63127.8426735,26.63967895507812,-11.87249755859375,-514.7703247070312,63127.8545745,-2.694930552483595,-1.429950294352541,0.8948513703299851,-0.02515378221869469,0.162463590502739,-0.08259768038988113,0.003121733665466309,0.009242057800292969,0.01653802394866943,1,0.504028856754303,0.44949010014534,0.7266932129859924,0.1258194744586945,-0.6194394826889038,-0.780116081237793,-0.08782712370157242,0,0,0,-1,63114.989237125,3,1,1561240654.652152,1561239991.781823,76,3.81207,0,0,66.78877,0,0,1561240665.026445,63125.047333,0,-0.0847168,74.41602,2650659446,177292352,1,1,0.31,-21.76482,-22.2931,5
1561240667.528478,76,0,0,1561240665.534366,4.603086188546772,-74.0647608868382,2651.499,-1,-1,10,65,-9999,1561240667.518478,-12.44747161865234,-12.15102672576904,18.46759033203125,84.239501953125,91.78318786621094,15,63127.8809115,-0.61041259765625,-0.775238037109375,-0.069732666015625,63127.8697725,-3.35558297349984e-05,0.1680159036959001,-0.06440162674473217,63127.8628145,26.01834106445312,-12.01792907714844,-514.5360717773438,63127.87483850001,-2.695538253854684,-1.426269842685196,0.89621981790609,0.005148197058588266,0.1645986586809158,-0.06556649506092072,0.005460500717163086,0.01157760620117188,0.01808357238769531,1,0.5025351643562317,0.4499801695346832,0.727452278137207,0.1256562024354935,-0.6180551052093506,-0.7809715270996094,-0.08995251357555389,0,0,0,-1,63114.989237125,3,1,1561240654.652152,1561239991.781823,76,3.81207,0,0,66.78877,0,0,1561240665.026445,63125.047333,0,-0.0847168,74.41602,2650659446,177292352,1,1,0.31,-14.80569,-20.32853,5
1561240667.548707,77,0,0,1561240665.534366,4.603086188546772,-74.0647608868382,2651.499,-1,-1,10,65,-9999,1561240667.542855,-12.53115844726562,-12.50494575500488,18.3123779296875,84.20700836181641,91.75069427490234,15,63127.9011755,-0.617156982421875,-0.770904541015625,-0.072540283203125,63127.8900365,0.03624935086150454,0.1528119170326377,-0.05692480198433471,63127.88295650001,26.26844787597656,-11.86187744140625,-514.7770385742188,63127.89510250001,-2.694979597309055,-1.423676976597399,0.8974830205318353,0.04373154416680336,0.1344138532876968,-0.06065908819437027,0.003257036209106445,0.007818818092346191,0.01848828792572021,1,0.501196026802063,0.4506634175777435,0.7280182242393494,0.1252778172492981,-0.6168434023857117,-0.7817598581314087,-0.09141005575656891,0,0,0,-1,63114.989237125,3,1,1561240654.652152,1561239991.781823,76,3.81207,0,0,66.78877,0,0,1561240665.026445,63125.047333,0,-0.0847168,74.41602,2650659446,177292352,1,1,0.31,-11.16237,-13.4046,5
1561240667.568927,78,0,0,1561240665.534366,4.603086188546772,-74.0647608868382,2651.499,-1,-1,10,65,-9999,1561240667.542855,-12.53115844726562,-12.50494575500488,18.3123779296875,84.20700836181641,91.75069427490234,15,63127.9214385,-0.6043853759765625,-0.767486572265625,-0.0702362060546875,63127.91030050001,0.09074268677059691,0.1160163518315579,-0.06200531439587887,63127.90309750001,26.07211303710938,-12.00508117675781,-514.990478515625,63127.9153655,-2.692826909566465,-1.422990859388529,0.8989270020830225,0.09930650144815445,0.1024036705493927,-0.05833221971988678,0.004060506820678711,0.01285356283187866,0.02080512046813965,1,0.5001516938209534,0.4516800045967102,0.7281873822212219,0.124806247651577,-0.6156633496284485,-0.7826594710350037,-0.09166691452264786,0,0,0,-1,63114.989237125,3,1,1561240654.652152,1561239991.781823,76,3.81207,0,0,66.78877,0,0,1561240665.026445,63125.047333,0,-0.0847168,74.41602,2650659446,177292352,1,1,0.31,-11.16237,-13.4046,5
1561240667.589166,79,0,0,1561240665.534366,4.603086188546772,-74.0647608868382,2651.499,-1,-1,10,65,-9999,1561240667.569203,-12.40062141418457,-12.50851821899414,18.1627197265625,84.03903198242188,91.58271789550781,15,63127.9417025,-0.60693359375,-0.7713775634765625,-0.064178466796875,63127.93056350001,0.1262298409281208,0.08467094580132525,-0.02713388308238132,63127.9232085,26.23013305664062,-11.68766784667969,-514.660400390625,63127.9356295,-2.689182575278242,-1.424130547955871,0.9000290335582187,0.1236350163817406,0.08094523847103119,-0.02682702243328094,0.01203900575637817,0.01471400260925293,0.02313584089279175,1,0.4995060563087463,0.4528511464595795,0.7280248999595642,0.1240937262773514,-0.6149137020111084,-0.7833449840545654,-0.09083908051252365,0,0,0,-1,63114.989237125,3,1,1561240654.652152,1561239991.781823,76,3.81207,0,0,66.78877,0,0,1561240665.026445,63125.047333,0,-0.0847168,74.41602,2650659446,177292352,1,1,0.31,-9.392595,-13.7036,5
1561240667.611299,80,0,0,1561240665.534366,4.603086188546772,-74.0647608868382,2651.499,-1,-1,10,65,-9999,1561240667.593782,-12.53994178771973,-12.29465293884277,18.281982421875,83.76592254638672,91.30960845947266,15,63127.96196650001,-0.611480712890625,-0.7813873291015625,-0.0592498779296875,63127.9508275,0.1102490101748823,0.1144512120589183,-0.02537752834347407,63127.94335050001,25.99424743652344,-11.68833923339844,-514.7008056640625,63127.95586250001,-2.685600942258978,-1.424937134640438,0.9008883633072923,0.09601803123950958,0.1102919429540634,-0.02611622586846352,0.004243731498718262,0.004719257354736328,0.02953052520751953,1,0.4988026916980743,0.4539529383182526,0.7279641628265381,0.1232510134577751,-0.6143206357955933,-0.7838788032531738,-0.09024520963430405,0,0,0,-1,63114.989237125,3,1,1561240654.652152,1561239991.781823,76,3.991668,0,0,66.78877,0,0,1561240667.620059,63125.047333,0,-0.0847168,74.41602,2650659446,177292352,1,1,0.31,-9.392595,-14.40053,5
1561240667.629756,81,0,0,1561240665.534366,4.603086188546772,-74.0647608868382,2651.499,-1,-1,10,65,-9999,1561240667.61978,-12.49556350708008,-12.34605121612549,18.31219482421875,83.55438232421875,91.09806823730469,15,63127.9822295,-0.6058502197265625,-0.7859039306640625,-0.05523681640625,63127.9710915,0.07583963731051349,0.1082327309135833,-0.007164968596749182,63127.96349250001,26.06242370605469,-11.78260803222656,-514.5250244140625,63127.97612650001,-2.683041560629552,-1.424821403617763,0.9014354372325186,0.06232664361596107,0.09864515066146851,-0.003182679880410433,0.002878248691558838,0.001549363136291504,0.03362858295440674,1,0.4980610311031342,0.4547617435455322,0.72809898853302,0.1224701851606369,-0.6138859391212463,-0.7842183709144592,-0.09025393426418304,0,0,0,-1,63114.989237125,3,1,1561240654.652152,1561239991.781823,76,3.991668,0,0,66.78877,0,0,1561240667.620059,63125.047333,0,-0.0847168,74.41602,2650659446,177292352,1,1,0.31,-9.392595,-15.14183,5
1561240667.65002,82,0,0,1561240665.534366,4.603086188546772,-74.0647608868382,2651.499,-1,-1,10,65,-9999,1561240667.644096,-12.60319900512695,-12.39375591278076,18.5421142578125,83.4345703125,90.97825622558594,15,63128.0024935,-0.6098175048828125,-0.7923736572265625,-0.0549468994140625,63127.9913545,0.03845711140518023,0.08766487149879233,0.01165852030403988,63127.98363350001,26.12030029296875,-12.17770385742188,-514.7559204101562,63127.9963905,-2.681549497462637,-1.424253467682786,0.9014475498238901,0.02836494892835617,0.08104485273361206,0.008713660761713982,0.007837533950805664,-0.003325998783111572,0.03402161598205566,1,0.4975122213363647,0.4551714062690735,0.7283302545547485,0.1218017190694809,-0.6138250827789307,-0.7842258810997009,-0.09060116112232208,0,0,0,-1,63114.989237125,3,1,1561240654.652152,1561239991.781823,76,3.991668,0,0,66.78877,0,0,1561240667.620059,63125.047333,0,-0.0847168,74.41602,2650659446,177292352,1,1,0.31,-9.392595,-16.11858,5
1561240667.6702,83,0,0,1561240665.534366,4.603086188546772,-74.0647608868382,2651.499,-1,-1,10,65,-9999,1561240667.644096,-12.60319900512695,-12.39375591278076,18.5421142578125,83.4345703125,90.97825622558594,15,63128.02272650001,-0.6259918212890625,-0.7902374267578125,-0.056610107421875,63128.0115875,0.01803918795976073,0.08506669153931103,-0.02696344077261625,63128.00374450001,26.46270751953125,-11.70436096191406,-514.598388671875,63128.0166535,-2.680946666216455,-1.423171967466794,0.9017698700472185,0.01198277901858091,0.08553840219974518,-0.05260615795850754,-0.002337336540222168,-0.007779955863952637,0.03643345832824707,1,0.4969113171100616,0.4554835259914398,0.7286057472229004,0.121440201997757,-0.6134768724441528,-0.7844258546829224,-0.09122779965400696,0,0,0,-1,63114.989237125,3,1,1561240654.652152,1561239991.781823,76,3.991668,0,0,66.78877,0,0,1561240667.620059,63125.047333,0,-0.0847168,74.41602,2650659446,177292352,1,1,0.31,-9.392595,-17.08899,5
1561240667.690471,84,0,0,1561240665.534366,4.603086188546772,-74.0647608868382,2651.499,-1,-1,10,65,-9999,1561240667.670565,-12.67332649230957,-12.12712287902832,18.52178955078125,83.39817047119141,90.94185638427734,15,63128.04299050001,-0.6269989013671875,-0.7960205078125,-0.0595855712890625,63128.0318515,0.01517895294901563,0.1256737728925122,-0.1052124399213244,63128.02388650001,25.9820556640625,-11.71696472167969,-514.2063598632812,63128.0369175,-2.680915949806661,-1.421065915410429,0.9036022222164363,0.008348363451659679,0.1235422343015671,-0.1189745217561722,-0.01622152328491211,-0.009086191654205322,0.03860932588577271,1,0.4957404136657715,0.4561676681041718,0.7289581298828125,0.1215421780943871,-0.6118608117103577,-0.7855610251426697,-0.09230500459671021,0,0,0,-1,63114.989237125,3,1,1561240654.652152,1561239991.781823,76,3.991668,0,0,66.78877,0,0,1561240667.620059,63125.047333,0,-0.0847168,74.41602,2650659446,177292352,1,1,0.31,-9.392595,-18.06936,5
1561240667.710783,85,0,0,1561240665.534366,4.603086188546772,-74.0647608868382,2651.499,-1,-1,10,65,-9999,1561240667.694797,-12.81843948364258,-12.24088382720947,18.58123779296875,83.41193389892578,90.95561981201172,15,63128.0632545,-0.6323089599609375,-0.8079986572265625,-0.0740966796875,63128.0521155,-0.0355321615799462,0.1509996359108388,-0.1354909836188713,63128.0440285,25.88108825683594,-11.79966735839844,-514.6801147460938,63128.0571815,-2.682108191606519,-1.417407679624822,0.9062039608745268,-0.07312758266925812,0.1723523885011673,-0.1432580202817917,-0.01882940530776978,-0.01347565650939941,0.026847243309021,1,0.4941155314445496,0.4568750262260437,0.7295445203781128,0.1219825148582458,-0.6094970107078552,-0.7871682643890381,-0.09423010051250458,0,0,0,-1,63114.989237125,3,1,1561240654.652152,1561239991.781823,76,3.991668,0,0,66.78877,0,0,1561240667.620059,63125.047333,0,-0.0847168,74.41602,2650659446,177292352,1,1,0.31,-9.392595,-18.97572,5
1561240667.73104,86,0,0,1561240665.534366,4.603086188546772,-74.0647608868382,2651.499,-1,-1,10,65,-9999,1561240667.721067,-12.98812866210938,-12.47035694122314,18.17742919921875,83.69595336914062,91.23963928222656,15,63128.0835175,-0.6648712158203125,-0.8253631591796875,-0.1126708984375,63128.0723785,-0.2084522764232272,0.2947448210123016,-0.2030756204984662,63128.0641695,26.09280395507812,-11.92945861816406,-514.6005859375,63128.07744450001,-2.68826702573505,-1.407599865626046,0.9093399059798831,-0.2640722393989563,0.3456309735774994,-0.2535541653633118,-0.04318690299987793,-0.02813178300857544,0.007272481918334961,1,0.4912633895874023,0.4569019377231598,0.731281042098999,0.1230001971125603,-0.6061051487922668,-0.7890984416007996,-0.09980180114507675,0,0,0,-1,63114.989237125,3,1,1561240654.652152,1561239991.781823,76,3.991668,0,0,66.78877,0,0,1561240667.620059,63125.047333,0,-0.0847168,74.41602,2650659446,177292352,1,1,0.31,-9.392595,-18.97572,5
1561240667.751275,87,0,0,1561240665.534366,4.603086188546772,-74.0647608868382,2651.499,-1,-1,10,65,-9999,1561240667.745442,-12.95937156677246,-12.44961547851562,18.10345458984375,84.57603454589844,92.11972045898438,15,63128.1037815,-0.685638427734375,-0.8258514404296875,-0.1156158447265625,63128.09264250001,-0.3669998434955685,0.5444657080035057,-0.4769955870507843,63128.0843115,26.0360107421875,-12.03840637207031,-514.81591796875,63128.0977085,-2.701392978756497,-1.387724596434798,0.9162060285809607,-0.3848679065704346,0.5741954445838928,-0.5858900547027588,-0.07617497444152832,-0.0330880880355835,-0.007645726203918457,1,0.4855066537857056,0.4570162892341614,0.7346287369728088,0.1254594922065735,-0.5986602306365967,-0.7932974100112915,-0.1108388006687164,0,0,0,-1,63114.989237125,3,1,1561240654.652152,1561239991.781823,76,3.991668,0,0,66.78877,0,0,1561240667.620059,63125.047333,0,-0.0847168,74.41602,2650659446,177292352,1,1,0.31,-9.392595,-19.97176,5
1561240667.771521,88,0,0,1561240665.534366,4.603086188546772,-74.0647608868382,2651.499,-1,-1,10,65,-9999,1561240667.745442,-12.95937156677246,-12.44961547851562,18.10345458984375,84.57603454589844,92.11972045898438,15,63128.1240455,-0.7242431640625,-0.83795166015625,-0.1129913330078125,63128.11290650001,-0.332667702302812,0.4699485964903256,-1.073007576901101,63128.1044225,25.95819091796875,-12.37745666503906,-515.0762329101562,63128.1179725,-2.718919563849414,-1.363421896590261,0.9327317133365156,-0.2793659865856171,0.3886007964611053,-1.313309073448181,-0.1243798732757568,-0.01813054084777832,0.005450010299682617,1,0.4770691394805908,0.4594412744045258,0.7375747561454773,0.1315380483865738,-0.5828803181648254,-0.8032500743865967,-0.122637502849102,0,0,0,-1,63114.989237125,3,1,1561240654.652152,1561239991.781823,76,3.991668,0,0,66.78877,0,0,1561240667.620059,63125.047333,0,-0.0847168,74.41602,2650659446,177292352,1,1,0.31,-9.392595,-20.98611,5
1561240667.791776,89,0,0,1561240665.534366,4.603086188546772,-74.0647608868382,2651.499,-1,-1,10,65,-9999,1561240667.773574,-12.84345626831055,-12.90103626251221,17.73651123046875,85.86263275146484,93.40631866455078,15,63128.14430850001,-0.76300048828125,-0.907958984375,-0.0853729248046875,63128.1331695,-0.0507942051549723,0.259432103906178,-2.097972793001608,63128.1245635,26.120361328125,-12.64596557617188,-515.1471557617188,63128.1382355,-2.73730212929283,-1.342504246129151,0.9684916167277017,0.0007226681336760521,0.210440918803215,-2.349053144454956,-0.1905114650726318,-0.04935050010681152,0.03086578845977783,1,0.4660597741603851,0.4676322042942047,0.7370367050170898,0.1445178240537643,-0.5518439412117004,-0.8240320682525635,-0.1282168179750443,0,0,0,-1,63114.989237125,3,1,1561240654.652152,1561239991.781823,76,3.991668,0,0,66.78877,0,0,1561240667.620059,63125.047333,0,-0.0847168,74.41602,2650659446,177292352,1,1,0.31,-9.392595,-21.78206,5
1561240667.812359,90,0,0,1561240665.534366,4.603086188546772,-74.0647608868382,2651.499,-1,-1,10,65,-9999,1561240667.796112,-12.38670921325684,-13.30171871185303,17.84503173828125,87.28870391845703,94.83238983154297,15,63128.16457250001,-0.70538330078125,-0.9340972900390625,-0.0677642822265625,63128.1534335,-0.02212314549139724,0.06006839733506424,-2.949078597342363,63128.1447055,26.86865234375,-13.37246704101562,-515.3265380859375,63128.1584995,-2.762022604061283,-1.319529505410258,1.022738268809901,-0.09784677624702454,-0.01060944050550461,-3.114149332046509,-0.2451474666595459,-0.071083664894104,0.04758954048156738,1,0.4519800245761871,0.4805640578269958,0.7332714200019836,0.1645760387182236,-0.5046694278717041,-0.853537917137146,-0.1295444816350937,0,0,0,-1,63114.989237125,3,1,1561240654.652152,1561239991.781823,76,3.991668,0,0,66.78877,0,0,1561240667.620059,63125.047333,0,-0.0847168,74.41602,2650659446,177292352,1,1,0.31,-9.392595,-22.71196,5
1561240667.832358,91,0,0,1561240665.534366,4.603086188546772,-74.0647608868382,2651.499,-1,-1,10,65,-9999,1561240667.822437,-11.8281421661377,-13.89712238311768,17.7703857421875,90.08020782470703,97.62389373779297,15,63128.1848365,-0.559722900390625,-0.9143829345703125,-0.039581298828125,63128.1736975,-0.403212176417921,-0.1949085043835202,-3.472325835676771,63128.1648475,27.62625122070312,-13.91668701171875,-515.186279296875,63128.17876350001,-2.810897435468825,-1.279731495863721,1.086728628010607,-0.5298898220062256,-0.2742461562156677,-3.547082424163818,-0.1782602667808533,-0.05213135480880737,0.0863567590713501,1,0.4358567595481873,0.4932066202163696,0.72808837890625,0.1914771199226379,-0.4458089172840118,-0.8851091861724854,-0.133552223443985,0,0,0,-1,63114.989237125,3,1,1561240654.652152,1561239991.781823,76,3.991668,0,0,66.78877,0,0,1561240667.620059,63125.047333,0,-0.0847168,74.41602,2650659446,177292352,1,1,0.31,-9.392595,-23.64906,5
1561240667.852632,92,0,0,1561240665.534366,4.603086188546772,-74.0647608868382,2651.499,-1,-1,10,65,-9999,1561240667.846817,-9.607080459594727,-15.6996431350708,17.5748291015625,166.5609588623047,174.1046447753906,15,63128.2050995,-0.4479827880859375,-0.9007568359375,-0.0155792236328125,63128.1939605,-0.8399170656530054,-0.5288454692618639,-3.626158542355236,63128.1849885,28.94340515136719,-15.08590698242188,-515.4207763671875,63128.19902650001,-2.897173901831035,-1.211018395092818,1.151166827641192,-0.9192607402801514,-0.5975821018218994,-3.597756385803223,-0.1189683377742767,0.01271200180053711,0.1131051778793335,1,0.4193516075611115,0.502418577671051,0.7223576307296753,0.2234260737895966,-0.3813368380069733,-0.9132399559020996,-0.1434396058320999,0,0,0,-1,63114.989237125,3,1,1561240654.652152,1561239991.781823,76,3.991668,0,0,66.78877,0,0,1561240667.620059,63125.047333,0,-0.0847168,74.41602,2650659446,177292352,1,1,0.31,-9.392595,-24.62024,5
1561240667.872842,93,0,0,1561240665.534366,4.603086188546772,-74.0647608868382,2651.499,-1,-1,10,65,-9999,1561240667.846817,-9.607080459594727,-15.6996431350708,17.5748291015625,166.5609588623047,174.1046447753906,15,63128.2253635,-0.3836517333984375,-0.90234375,-0.0797576904296875,63128.21422450001,-1.133693561292954,-0.6566140846678326,-3.277450354490768,63128.2050995,30.24067687988281,-15.76875305175781,-515.5270385742188,63128.2192905,-3.020715274253323,-1.109748729576057,1.205742655961061,-1.230782151222229,-0.613900899887085,-3.12224006652832,-0.09545227885246277,0.02465027570724487,0.1324266195297241,1,0.404058575630188,0.5072716474533081,0.716891884803772,0.2558870911598206,-0.3197240829467773,-0.9341046214103699,-0.1588242799043655,0,0,0,-1,63114.989237125,3,1,1561240654.652152,1561239991.781823,76,3.991668,0,0,66.78877,0,0,1561240667.620059,63125.047333,0,-0.0847168,74.41602,2650659446,177292352,1,1,0.31,-9.392595,-25.55494,5
1561240667.900179,94,0,0,1561240665.534366,4.603086188546772,-74.0647608868382,2651.499,-1,-1,10,65,-9999,1561240667.873131,-8.148841857910156,-16.47190856933594,17.45452880859375,167.9791259765625,175.5228118896484,15,63128.2456275,-0.3437957763671875,-0.81494140625,-0.15545654296875,63128.23448850001,-1.567665514617399,-0.0821148437870672,-2.500817985821316,63128.2252415,31.51730346679688,-16.94773864746094,-515.9171142578125,63128.2395235,3.106615249386163,-0.9688461938251026,1.238364319240594,-1.711043000221252,0.1872133612632751,-2.265930891036987,-0.09237614274024963,0.071441650390625,0.0616229772567749,1,0.3881663084030151,0.5068835616111755,0.7158201932907104,0.2828381657600403,-0.2689825296401978,-0.94525146484375,-0.1847919374704361,0,0,0,-1,63114.989237125,3,1,1561240654.652152,1561239991.781823,76,3.991668,0,0,66.78877,0,0,1561240667.620059,63125.047333,0,-0.0847168,74.41602,2650659446,177292352,1,1,0.31,-9.392595,-26.27904,5
1561240667.914044,95,0,0,1561240665.534366,4.603086188546772,-74.0647608868382,2651.499,-1,-1,10,65,-9999,1561240667.904839,-6.933862686157227,-17.60380172729492,17.10870361328125,168.545166015625,176.0888519287109,15,63128.26589050001,-0.16046142578125,-0.6481781005859375,-0.2474212646484375,63128.2547515,-2.144587166825701,1.050343543392308,-1.50186732619703,63128.24538350001,32.20780944824219,-17.56674194335938,-516.1463623046875,63128.25978750001,2.940801571452287,-0.7966331493593469,1.240298987597525,-2.267807245254517,1.29602575302124,-1.205111980438232,-0.04581809043884277,0.2118417620658875,0.02939403057098389,1,0.3677414059638977,0.5013278722763062,0.7237148284912109,0.299455314874649,-0.2320292294025421,-0.9458810687065125,-0.2268732488155365,0,0,0,-1,63114.989237125,3,1,1561240654.652152,1561239991.781823,76,3.991668,0,0,66.78877,0,0,1561240667.620059,63125.047333,0,-0.0847168,74.41602,2650659446,177292352,1,1,0.31,-9.392595,-26.27904,5
1561240667.933954,96,0,0,1561240665.534366,4.603086188546772,-74.0647608868382,2651.499,-1,-1,10,65,-9999,1561240667.904839,-6.933862686157227,-17.60380172729492,17.10870361328125,168.545166015625,176.0888519287109,15,63128.28615450001,0.07427978515625,-0.5191650390625,-0.3011932373046875,63128.2750155,-2.269000731890388,1.673521107941978,-0.1345508877540733,63128.2654945,32.23725891113281,-18.69815063476562,-517.2000122070312,63128.28005050001,2.826971469834044,-0.6576833205898277,1.212462180628867,-2.106052160263062,1.654627919197083,0.2472681701183319,0.1798865497112274,0.3661393523216248,-0.01014518737792969,1,0.3466005027294159,0.4910075664520264,0.7393360733985901,0.303581714630127,-0.2143866717815399,-0.9364823698997498,-0.2775593101978302,0,0,0,-1,63114.989237125,3,1,1561240654.652152,1561239991.781823,76,3.991668,0,0,66.78877,0,0,1561240667.620059,63125.047333,0,-0.0847168,74.41602,2650659446,177292352,1,1,0.31,-9.392595,-27.26398,5
1561240667.954502,97,0,0,1561240665.534366,4.603086188546772,-74.0647608868382,2651.499,-1,-1,10,65,-9999,1561240667.949165,-7.340520858764648,-19.97585487365723,14.5850830078125,165.7725524902344,173.3162384033203,15,63128.3063875,0.0756378173828125,-0.5330810546875,-0.3201904296875,63128.29524850001,-1.245670963015298,1.320989952332701,1.511778546509869,63128.2856355,31.58811950683594,-19.67169189453125,-518.2930908203125,63128.3003145,2.823535567680641,-0.6250681520826875,1.174256741787071,-0.9404669404029846,1.176974296569824,1.97855007648468,0.3400011360645294,0.4077850580215454,0.00982666015625,1,0.3362271189689636,0.4799483120441437,0.7552350759506226,0.2936339974403381,-0.2260027378797531,-0.9224030375480652,-0.3132018744945526,0,0,0,-1,63114.989237125,3,1,1561240654.652152,1561239991.781823,76,3.991668,0,0,66.78877,0,0,1561240667.620059,63125.047333,0,-0.0847168,74.41602,2650659446,177292352,1,1,0.31,-9.392595,-27.94333,5
1561240667.97763,98,0,0,1561240665.534366,4.603086188546772,-74.0647608868382,2651.499,-1,-1,10,65,-9999,1561240667.949165,-7.340520858764648,-19.97585487365723,14.5850830078125,165.7725524902344,173.3162384033203,15,63128.32665150001,0.006378173828125,-0.4904022216796875,-0.3421783447265625,63128.3155125,-0.310889702488689,1.111457497771338,3.310910310426524,63128.30577750001,30.67965698242188,-19.46360778808594,-518.9531860351562,63128.3205785,2.921349428053229,-0.6918424795337527,1.130517625079704,-0.2222068160772324,1.212532520294189,3.68317699432373,0.3087418675422668,0.3828128576278687,-0.008059859275817871,1,0.3399666249752045,0.4693864583969116,0.7696563601493835,0.2678209543228149,-0.2718918919563293,-0.9046329259872437,-0.328198105096817,0,0,0,-1,63114.989237125,3,1,1561240654.652152,1561239991.781823,76,3.991668,0,0,66.78877,0,0,1561240667.620059,63125.047333,0,-0.0847168,74.41602,2650659446,177292352,1,1,0.31,-9.392595,-28.4809,5
1561240668.016919,99,0,0,1561240665.534366,4.603086188546772,-74.0647608868382,2651.499,-1,-1,10,65,-9999,1561240667.999166,-10.82040023803711,-19.28355979919434,13.6888427734375,161.9791107177734,169.5227966308594,15,63128.34691450001,-0.11029052734375,-0.315216064453125,-0.312347412109375,63128.3357765,-0.1279233450653021,1.634577703321749,4.66914563586842,63128.32591850001,28.55162048339844,-19.24420166015625,-519.2366943359375,63128.3408425,3.060204447594166,-0.7855351935521465,1.068792328358009,-0.09984761476516724,1.717941641807556,4.992486476898193,0.2864614725112915,0.4553554058074951,0.001105189323425293,1,0.3482529520988464,0.4567485749721527,0.7864572405815125,0.2271245419979095,-0.3402944803237915,-0.8766200542449951,-0.3402012288570404,0,0,0,-1,63114.989237125,3,1,1561240654.652152,1561239991.781823,76,3.991668,0,0,66.78877,0,0,1561240667.620059,63125.047333,0,-0.0847168,74.41602,2650659446,177292352,1,1,0.31,-9.392595,-29.93285,5
1561240668.020211,100,0,0,1561240665.534366,4.603086188546772,-74.0647608868382,2651.499,-1,-1,10,65,-9999,1561240667.999166,-10.82040023803711,-19.28355979919434,13.6888427734375,161.9791107177734,169.5227966308594,15,63128.3671785,-0.17962646484375,-0.1201019287109375,-0.2140960693359375,63128.3560395,0.2153860826373575,1.406802861609452,6.007620572338036,63128.3460295,26.47665405273438,-18.25503540039062,-519.5865478515625,63128.36110550001,-3.070956953275548,-0.8844615838650755,0.984860281105251,0.3711388111114502,1.161201357841492,6.310986518859863,0.2811945080757141,0.6279336214065552,0.08649516105651855,1,0.361786812543869,0.4403374791145325,0.8030631542205811,0.1740765869617462,-0.4277704358100891,-0.8331948518753052,-0.3504264056682587,0,0,0,-1,63114.989237125,3,1,1561240654.652152,1561239991.781823,76,3.991668,0,0,66.78877,0,0,1561240667.620059,63125.047333,0,-0.0847168,74.41602,2650659446,177292352,1,1,0.31,-9.392595,-29.93285,5
1561240668.035161,101,0,0,1561240665.534366,4.603086188546772,-74.0647608868382,2651.499,-1,-1,10,65,-9999,1561240668.025255,-15.62936973571777,-16.08860015869141,13.22882080078125,160.1566619873047,167.7003479003906,15,63128.3874425,-0.290863037109375,0.033447265625,-0.153900146484375,63128.3763035,0.728355383376823,0.7133226379716529,7.10127856664772,63128.36617150001,23.98104858398438,-16.27153015136719,-519.873291015625,63128.38136950001,-2.91629853636036,-0.991844467077635,0.8802977703582349,0.7835479378700256,0.6812835335731506,7.304637908935547,0.2944182753562927,0.7152034640312195,0.1738681793212891,1,0.3856363892555237,0.4207608699798584,0.813447892665863,0.1120154708623886,-0.5331267714500427,-0.7709285616874695,-0.3484897315502167,0,0,0,-1,63114.989237125,3,1,1561240654.652152,1561239991.781823,76,3.991668,0,0,66.78877,0,0,1561240667.620059,63125.047333,0,-0.0847168,74.41602,2650659446,177292352,1,1,0.31,-9.392595,-30.48839,5
1561240668.081959,102,0,0,1561240665.534366,4.603086188546772,-74.0647608868382,2651.499,-1,-1,10,65,-9999,1561240668.075657,-20.05716323852539,-10.31511878967285,12.8355712890625,156.6292419433594,164.1729278564453,15,63128.4077065,-0.3876190185546875,0.2147369384765625,-0.172271728515625,63128.39656750001,0.8845865329330135,0.7831552491273835,7.667158220344334,63128.38631350001,21.59474182128906,-13.75251770019531,-520.2066040039062,63128.40163350001,-2.780095812512837,-1.076562351557153,0.7572722009647666,0.9258225560188293,0.7463855743408203,7.714949131011963,0.3161249160766602,0.8121400475502014,0.1748453974723816,1,0.4115347266197205,0.3978421986103058,0.8188474774360657,0.04300671815872192,-0.6397485733032227,-0.6869416832923889,-0.3447214961051941,0,0,0,-1,63114.989237125,3,1,1561240654.652152,1561239991.781823,76,3.991668,0,0,66.78877,0,0,1561240667.620059,63125.047333,0,-0.0847168,74.41602,2650659446,177292352,1,1,0.31,-9.392595,-31.49647,5
1561240668.085241,103,0,0,1561240665.534366,4.603086188546772,-74.0647608868382,2651.499,-1,-1,10,65,-9999,1561240668.075657,-20.05716323852539,-10.31511878967285,12.8355712890625,156.6292419433594,164.1729278564453,15,63128.4279695,-0.5674896240234375,0.3217620849609375,-0.1480560302734375,63128.41683050001,1.114486310879085,0.5465485662920567,7.562808644616196,63128.4064245,19.39727783203125,-10.80363464355469,-520.0327758789062,63128.4218965,-2.665541084208686,-1.137688400343673,0.6284016517899353,1.181108593940735,0.4983177185058594,7.36274242401123,0.2272535562515259,0.8871841430664062,0.1887468099594116,1,0.4364487528800964,0.3738355934619904,0.8179379105567932,-0.02714649960398674,-0.7342725992202759,-0.5878524780273438,-0.3395188748836517,0,0,0,-1,63114.989237125,3,1,1561240654.652152,1561239991.781823,76,3.991668,0,0,66.78877,0,0,1561240667.620059,63125.047333,0,-0.0847168,74.41602,2650659446,177292352,1,1,0.31,-9.392595,-31.49647,5
1561240668.096042,104,0,0,1561240665.534366,4.603086188546772,-74.0647608868382,2651.499,-1,-1,10,65,-9999,1561240668.075657,-20.05716323852539,-10.31511878967285,12.8355712890625,156.6292419433594,164.1729278564453,15,63128.44823350001,-0.6379241943359375,0.31353759765625,-0.23846435546875,63128.4370945,1.48452588644287,0.2517933589515037,6.245649649511574,63128.42656550001,17.83341979980469,-7.63433837890625,-519.9892578125,63128.4421605,-2.571161995376149,-1.181887520257719,0.5162030020484919,1.653333187103271,0.1429708003997803,5.694761276245117,0.1961565017700195,0.8169915080070496,0.1410510540008545,1,0.4572899639606476,0.3549648225307465,0.8104845285415649,-0.08944602310657501,-0.8047532439231873,-0.4935814440250397,-0.3297717273235321,0,0,0,-1,63114.989237125,3,1,1561240654.652152,1561239991.781823,76,3.991668,0,0,66.78877,0,0,1561240667.620059,63125.996315,0,-0.03979492,74.4156,2650659446,177292352,1,1,0.31,-9.392595,-31.49647,5
1561240668.116201,105,0,0,1561240665.534366,4.603086188546772,-74.0647608868382,2651.499,-1,-1,10,65,-9999,1561240668.113041,-21.15814590454102,-7.234364032745361,13.02978515625,74.534912109375,82.07859802246094,15,63128.46849750001,-0.5145416259765625,0.2080230712890625,-0.244110107421875,63128.4573585,2.474170129637874,-0.1326041169972254,3.72747344602123,63128.44670750001,17.12985229492188,-4.5638427734375,-520.0868530273438,63128.4624245,-2.488218571289113,-1.221063889705236,0.4490556242355774,2.806480407714844,-0.2630664706230164,3.081993341445923,0.2523447871208191,0.7016168236732483,0.06204783916473389,1,0.4708115458488464,0.3521344363689423,0.7974922060966492,-0.1354405581951141,-0.8463236689567566,-0.4341149926185608,-0.3086756467819214,0,0,0,-1,63114.989237125,3,1,1561240654.652152,1561239991.781823,76,3.991668,0,0,66.78877,0,0,1561240667.620059,63125.996315,0,-0.03979492,74.4156,2650659446,177292352,1,1,0.31,-9.392595,-32.31589,5
1561240668.155185,106,0,0,1561240665.534366,4.603086188546772,-74.0647608868382,2651.499,-1,-1,10,65,-9999,1561240668.151482,-21.14314842224121,-0.5584090948104858,14.012939453125,61.61598968505859,69.15967559814453,15,63128.4887605,-0.4872589111328125,0.2516021728515625,-0.234588623046875,63128.4776215,3.702665301518815,-0.8408984405146996,1.695454902679871,63128.4668495,16.98304748535156,-2.576461791992188,-519.59521484375,63128.48268750001,-2.400585114575802,-1.271083546543248,0.4302399865762178,3.897054433822632,-1.053786635398865,1.446488499641418,0.3804346323013306,0.6188712120056152,0.02088701725006104,1,0.4783790111541748,0.3701136708259583,0.7787355184555054,-0.1665545403957367,-0.8683496713638306,-0.4170889258384705,-0.2683387994766235,0,0,0,-1,63114.989237125,3,1,1561240654.652152,1561239991.781823,76,3.991668,0,0,66.78877,0,0,1561240667.620059,63125.996315,0,-0.03979492,74.4156,2650659446,177292352,1,1,0.31,-9.392595,-33.58576,5
1561240668.157759,107,0,0,1561240665.534366,4.603086188546772,-74.0647608868382,2651.499,-1,-1,10,65,-9999,1561240668.151482,-21.14314842224121,-0.5584090948104858,14.012939453125,61.61598968505859,69.15967559814453,15,63128.5090245,-0.552337646484375,0.3250579833984375,-0.16741943359375,63128.4978855,4.217651680467907,-1.39163642551756,1.311702444347159,63128.4869905,17.33839416503906,-0.683258056640625,-519.2308349609375,63128.50295150001,-2.304278160094386,-1.337373210234349,0.4263403690417492,4.256022930145264,-1.405393958091736,1.385019898414612,0.3866018056869507,0.7053506374359131,0.002702593803405762,1,0.4861096739768982,0.3979894518852234,0.7539656162261963,-0.1919311583042145,-0.8857930898666382,-0.4135415256023407,-0.2106035649776459,0,0,0,-1,63114.989237125,3,1,1561240654.652152,1561239991.781823,76,3.991668,0,0,66.78877,0,0,1561240667.620059,63125.996315,0,-0.03979492,74.4156,2650659446,177292352,1,1,0.31,-9.392595,-33.58576,5
1561240668.17714,108,0,0,1561240665.534366,4.603086188546772,-74.0647608868382,2651.499,-1,-1,10,65,-9999,1561240668.151482,-21.14314842224121,-0.5584090948104858,14.012939453125,61.61598968505859,69.15967559814453,15,63128.5292885,-0.5986785888671875,0.27496337890625,-0.1096038818359375,63128.51814950001,4.189832566037048,-1.014558381508805,1.647187771083275,63128.50710150001,17.68527221679688,1.03570556640625,-518.4205932617188,63128.5231845,-2.205869366628916,-1.401171559362828,0.4124371163051541,4.075685977935791,-0.7577449083328247,1.716369867324829,0.3036025166511536,0.7289377450942993,0.02115786075592041,1,0.4926027059555054,0.4242806434631348,0.7273845672607422,-0.219636544585228,-0.9029982686042786,-0.4008432626724243,-0.1546570211648941,0,0,0,-1,63114.989237125,3,1,1561240654.652152,1561239991.781823,76,3.991668,0,0,66.78877,0,0,1561240667.620059,63125.996315,0,-0.03979492,74.4156,2650659446,177292352,1,1,0.31,-9.392595,-34.1786,5
1561240668.197314,109,0,0,1561240665.534366,4.603086188546772,-74.0647608868382,2651.499,-1,-1,10,65,-9999,1561240668.177167,-20.72594833374023,1.222006678581238,14.6378173828125,54.62106323242188,62.16474914550781,15,63128.5495515,-0.566131591796875,0.2210540771484375,-0.1322479248046875,63128.53841250001,3.39413968712979,0.3223016140757876,1.89468545119648,63128.5272435,18.24612426757812,3.071578979492188,-518.3389892578125,63128.5434485,-2.120791399188,-1.435504706487687,0.386683174888209,3.043706893920898,0.7089660167694092,1.940459609031677,0.3351517915725708,0.6118444800376892,0.01180708408355713,1,0.4924695789813995,0.4416033029556274,0.706766664981842,-0.2508808970451355,-0.9177018404006958,-0.3771185576915741,-0.1249204725027084,0,0,0,-1,63114.989237125,3,1,1561240654.652152,1561239991.781823,76,3.991668,0,0,66.78877,0,0,1561240667.620059,63125.996315,0,-0.03979492,74.4156,2650659446,177292352,1,1,0.31,-9.392595,-34.33553,5
1561240668.240129,110,0,0,1561240665.534366,4.603086188546772,-74.0647608868382,2651.499,-1,-1,10,65,-9999,1561240668.232161,-20.68851661682129,6.031551837921143,13.34228515625,46.83769226074219,54.38137817382812,15,63128.5697845,-0.479217529296875,0.1786651611328125,-0.10186767578125,63128.5586765,1.8165230047832,1.824319941506625,2.076216364792315,63128.5473845,18.50276184082031,4.844696044921875,-518.6953125,63128.56371150001,-2.066658529957495,-1.425837012584374,0.3520773728523579,1.38792896270752,2.114051818847656,2.162370920181274,0.4051166772842407,0.5386808514595032,0.01358199119567871,1,0.4853222966194153,0.4434711337089539,0.6984013915061951,-0.2828978002071381,-0.9288135766983032,-0.3448484838008881,-0.1355912387371063,0,0,0,-1,63114.989237125,3,1,1561240654.652152,1561239991.781823,76,3.991668,0,0,66.78877,0,0,1561240667.620059,63125.996315,0,-0.03979492,74.4156,2650659446,177292352,1,1,0.31,-9.392595,-35.08421,5
1561240668.243329,111,0,0,1561240665.534366,4.603086188546772,-74.0647608868382,2651.499,-1,-1,10,65,-9999,1561240668.232161,-20.68851661682129,6.031551837921143,13.34228515625,46.83769226074219,54.38137817382812,15,63128.5900485,-0.624664306640625,0.2239837646484375,0.03778076171875,63128.57890950001,0.4262634335492108,2.500266977791779,2.653012049481055,63128.5675265,18.24478149414062,6.267929077148438,-519.5748901367188,63128.58397550001,-2.042490606292905,-1.385277968598803,0.3049413932711592,0.3004534542560577,2.397893190383911,2.836775779724121,0.4192626476287842,0.4974570870399475,0.1045196652412415,1,0.4771813750267029,0.4293307662010193,0.6992954611778259,-0.3145772814750671,-0.9374969601631165,-0.3002372682094574,-0.175946056842804,0,0,0,-1,63114.989237125,3,1,1561240654.652152,1561239991.781823,76,3.991668,0,0,66.78877,0,0,1561240667.620059,63125.996315,0,-0.03979492,74.4156,2650659446,177292352,1,1,0.31,-9.392595,-35.60179,5
1561240668.258071,112,0,0,1561240665.534366,4.603086188546772,-74.0647608868382,2651.499,-1,-1,10,65,-9999,1561240668.232161,-20.68851661682129,6.031551837921143,13.34228515625,46.83769226074219,54.38137817382812,15,63128.6103125,-0.7727508544921875,0.2970733642578125,0.21527099609375,63128.59917350001,0.4692433914336726,1.543603587852425,3.25327124863783,63128.5876375,17.95185852050781,7.234344482421875,-520.3433227539062,63128.6042395,-2.021244775903083,-1.353470544117277,0.244623343263381,0.5922197699546814,1.087753772735596,3.367659568786621,0.2513158321380615,0.4861331582069397,0.3758562803268433,1,0.4760330319404602,0.4108438193798065,0.6961296200752258,-0.346415251493454,-0.947406530380249,-0.2421908974647522,-0.2091998159885406,0,0,0,-1,63114.989237125,3,1,1561240654.652152,1561239991.781823,76,3.991668,0,0,66.78877,0,0,1561240667.620059,63125.996315,0,-0.03979492,74.4156,2650659446,177292352,1,1,0.31,-9.392595,-35.60179,5
1561240668.278531,113,0,0,1561240665.534366,4.603086188546772,-74.0647608868382,2651.499,-1,-1,10,65,-9999,1561240668.232161,-20.68851661682129,6.031551837921143,13.34228515625,46.83769226074219,54.38137817382812,15,63128.63057550001,-0.8271331787109375,0.444427490234375,0.22845458984375,63128.6194365,0.7791570453828476,-0.2588358221381092,3.612527152315666,63128.6077795,18.48619079589844,8.560302734375,-520.824951171875,63128.6245025,-1.990700448108903,-1.3561685534225,0.1778716178194698,0.7371636629104614,-0.6200615763664246,3.63055682182312,0.1312568783760071,0.5560550689697266,0.416105329990387,1,0.4865522384643555,0.3980643451213837,0.6810927391052246,-0.3753988444805145,-0.9616401791572571,-0.1769351810216904,-0.209623396396637,0,0,0,-1,63114.989237125,3,1,1561240654.652152,1561239991.781823,76,3.991668,0,0,66.78877,0,0,1561240667.620059,63125.996315,0,-0.03979492,74.4156,2650659446,177292352,1,1,0.31,-9.392595,-36.49226,5
1561240668.319081,114,0,0,1561240665.534366,4.603086188546772,-74.0647608868382,2651.499,-1,-1,10,65,-9999,1561240668.303144,-19.43044090270996,9.881952285766602,13.0360107421875,41.09784698486328,48.64153289794922,15,63128.65083950001,-1.0162353515625,0.3949432373046875,0.4078521728515625,63128.6397005,0.6176283357862715,-1.555918843681278,3.783686118730078,63128.6279205,19.00360107421875,9.820388793945312,-520.1500854492188,63128.6447665,-1.962361790232754,-1.385572643468861,0.106652654421813,0.6800476312637329,-1.917891621589661,3.83312463760376,0.09417736530303955,0.5398154258728027,0.4847251772880554,1,0.5072849988937378,0.3887183368206024,0.6575679779052734,-0.3989541232585907,-0.9773102998733521,-0.106450580060482,-0.1831199675798416,0,0,0,-1,63114.989237125,3,1,1561240654.652152,1561239991.781823,76,3.991668,0,0,66.78877,0,0,1561240667.620059,63125.996315,0,-0.03979492,74.4156,2650659446,177292352,1,1,0.31,-9.392595,-35.39368,5
1561240668.32162,115,0,0,1561240665.534366,4.603086188546772,-74.0647608868382,2651.499,-1,-1,10,65,-9999,1561240668.303144,-19.43044090270996,9.881952285766602,13.0360107421875,41.09784698486328,48.64153289794922,15,63128.6711035,-1.263351440429688,0.475372314453125,0.571502685546875,63128.6599645,1.107319211753464,-3.108750018394718,3.818163135886135,63128.6480625,20.24293518066406,11.24656677246094,-519.260986328125,63128.6650305,-1.930966421392657,-1.442485820088479,0.03292576325278643,1.170767545700073,-3.395774602890015,3.874914646148682,-0.1288599967956543,0.4461583495140076,0.6403100490570068,1,0.5358875393867493,0.3858495354652405,0.6236551403999329,-0.4183287024497986,-0.9912419319152832,-0.03291981294751167,-0.1278893649578094,0,0,0,-1,63114.989237125,3,1,1561240654.652152,1561239991.781823,76,3.991668,0,0,66.78877,0,0,1561240667.620059,63125.996315,0,-0.03979492,74.4156,2650659446,177292352,1,1,0.31,-9.392595,-35.39368,5
1561240668.338949,116,0,0,1561240665.534366,4.603086188546772,-74.0647608868382,2651.499,-1,-1,10,65,-9999,1561240668.303144,-19.43044090270996,9.881952285766602,13.0360107421875,41.09784698486328,48.64153289794922,15,63128.6913665,-1.572174072265625,0.63995361328125,0.561248779296875,63128.6802275,0.5349345207782211,-2.999486377823165,4.552214754518528,63128.6681735,22.14900207519531,12.75593566894531,-518.0750732421875,63128.68529350001,-1.907031194134849,-1.507376577271055,-0.05222712406399949,-0.002796432934701443,-2.525589942932129,4.814406394958496,-0.471556544303894,0.4887206852436066,0.6409733295440674,1,0.5688728094100952,0.3804448843002319,0.5840602517127991,-0.4364849627017975,-0.9966289401054382,0.05220338329672813,-0.06329083442687988,0,0,0,-1,63114.989237125,3,1,1561240654.652152,1561239991.781823,76,3.991668,0,0,66.78877,0,0,1561240667.620059,63125.996315,0,-0.03979492,74.4156,2650659446,177292352,1,1,0.31,-9.392595,-36.01956,5
1561240668.359419,117,0,0,1561240665.534366,4.603086188546772,-74.0647608868382,2651.499,-1,-1,10,65,-9999,1561240668.334701,-16.08021354675293,12.85669708251953,15.3839111328125,38.94849395751953,46.49217987060547,15,63128.7116305,-1.645645141601562,0.83538818359375,0.5606689453125,63128.70049150001,-2.076125817315252,-1.173825268391576,5.410972353303299,63128.6883155,24.1632080078125,13.84185791015625,-516.7091064453125,63128.7055575,-1.930303183407375,-1.543127595622745,-0.1589985838202239,-2.694430351257324,-0.9520148038864136,5.518527030944824,-0.6385408043861389,0.5852770805358887,0.5607177019119263,1,0.6038370132446289,0.3488878607749939,0.5559391975402832,-0.4523160755634308,-0.9870085120201111,0.158329501748085,-0.02731624431908131,0,0,0,-1,63114.989237125,3,1,1561240654.652152,1561239991.781823,76,3.991668,0,0,66.78877,0,0,1561240667.620059,63125.996315,0,-0.03979492,74.4156,2650659446,177292352,1,1,0.31,-9.392595,-36.56762,5
1561240668.392111,118,0,0,1561240665.534366,4.603086188546772,-74.0647608868382,2651.499,-1,-1,10,65,-9999,1561240668.379889,-12.64669990539551,13.58078002929688,18.31097412109375,44.68757629394531,52.23126602172852,15,63128.731919875,-1.683349609375,0.9192962646484375,0.8349609375,63128.720780875,-3.339550477421454,-1.381560621849354,5.695156142696782,63128.7084565,25.69966125488281,14.0972900390625,-515.487060546875,63128.725846875,-1.995234192943074,-1.581327483367494,-0.2740336056543246,-3.069040536880493,-1.978225588798523,5.655814647674561,-0.7056554555892944,0.6120278835296631,0.6513762474060059,1,0.6437214016914368,0.3011507391929626,0.5327702760696411,-0.4594418108463287,-0.9626337289810181,0.270616739988327,0.0101380217820406,0,0,0,-1,63114.989237125,3,1,1561240654.652152,1561239991.781823,76,3.991668,0,0,66.78877,0,0,1561240667.620059,63125.996315,0,-0.03979492,74.4156,2650659446,177292352,1,1,0.31,-9.392595,-36.93026,5
1561240668.399841,119,0,0,1561240665.534366,4.603086188546772,-74.0647608868382,2651.499,-1,-1,10,65,-9999,1561240668.379889,-12.64669990539551,13.58078002929688,18.31097412109375,44.68757629394531,52.23126602172852,15,63128.752182875,-1.653732299804688,1.03082275390625,1.08740234375,63128.741044875,-1.367013637027014,-4.643737481172409,5.22460007916181,63128.728623875,27.21495056152344,13.98251342773438,-513.6226806640625,63128.74610987501,-2.04296419540556,-1.671725590229196,-0.3812093132125665,-0.7244552969932556,-5.632848739624023,5.033529281616211,-0.7396401166915894,0.589779257774353,0.9147909879684448,1,0.6875991821289062,0.271974116563797,0.488151490688324,-0.463622123003006,-0.9234915375709534,0.372043251991272,0.09352511167526245,0,0,0,-1,63114.989237125,3,1,1561240654.652152,1561239991.781823,76,3.991668,0,0,66.78877,0,0,1561240667.620059,63125.996315,0,-0.03979492,74.4156,2650659446,177292352,1,1,0.31,-9.392595,-36.93026,5
1561240668.420058,120,0,0,1561240665.534366,4.603086188546772,-74.0647608868382,2651.499,-1,-1,10,65,-9999,1561240668.404022,-10.54164886474609,13.55358028411865,20.1595458984375,46.97181701660156,54.5155029296875,15,63128.772446875,-1.659912109375,1.121429443359375,1.327224731445312,63128.76130787501,1.137233967646106,-7.997430142930511,4.418315275967088,63128.748764875,30.442138671875,14.01805114746094,-511.6519165039062,63128.76637387501,-2.048962541876191,-1.820701705396915,-0.4759137782475101,1.730859041213989,-8.573272705078125,4.231979846954346,-0.79704749584198,0.6383609771728516,0.9701881408691406,1,0.730885922908783,0.27517369389534,0.4126916527748108,-0.4687972664833069,-0.8612623810768127,0.4581508636474609,0.2198295891284943,0,0,0,-1,63114.989237125,3,1,1561240654.652152,1561239991.781823,76,3.991668,0,0,66.78877,0,0,1561240667.620059,63125.996315,0,-0.03979492,74.4156,2650659446,177292352,1,1,0.31,-9.392595,-37.02808,5
1561240668.440364,121,0,0,1561240665.534366,4.603086188546772,-74.0647608868382,2651.499,-1,-1,10,65,-9999,1561240668.430472,-2.281597137451172,14.92133712768555,21.5546875,45.67803192138672,53.22171783447266,15,63128.792710875,-1.463775634765625,1.094207763671875,1.58758544921875,63128.78157187501,3.185900996225986,-9.947411606788634,3.888578446688375,63128.768906875,34.85057067871094,14.86531066894531,-511.3141479492188,63128.786637875,-2.019911872919873,-1.998643142212386,-0.5709652672937106,3.431522369384766,-10.3341178894043,3.84436297416687,-0.8389536142349243,0.5771092772483826,1.140021562576294,1,0.7644454836845398,0.3002875447273254,0.3134860992431641,-0.4766307175159454,-0.7655385732650757,0.5404444336891174,0.3490990102291107,0,0,0,-1,63114.989237125,3,1,1561240654.652152,1561239991.781823,76,3.991668,0,0,66.78877,0,0,1561240667.620059,63125.996315,0,-0.03979492,74.4156,2650659446,177292352,1,1,0.31,-9.392595,-33.93311,5
1561240668.483252,122,0,0,1561240665.534366,4.603086188546772,-74.0647608868382,2651.499,-1,-1,10,65,-9999,1561240668.455201,3.627090454101562,16.63742446899414,20.2857666015625,43.78858184814453,51.33227157592773,15,63128.81297387501,-1.2969970703125,1.267898559570312,1.630294799804688,63128.80183587501,3.42779964646341,-10.7936544789789,4.197344810839944,63128.789017875,40.68617248535156,16.70489501953125,-512.0894775390625,63128.80687087501,-1.996598389480507,-2.201312844752072,-0.6767658286523319,3.169412136077881,-10.58881282806396,4.409791946411133,-0.708599865436554,0.5065833330154419,1.202378630638123,1,0.7883284091949463,0.3291660249233246,0.1988622844219208,-0.4802518486976624,-0.6297027468681335,0.6262749433517456,0.4596239030361176,0,0,0,-1,63114.989237125,3,1,1561240654.652152,1561239991.781823,76,3.991668,0,0,66.78877,0,0,1561240667.620059,63125.996315,0,-0.03979492,74.4156,2650659446,177292352,1,1,0.31,-9.392595,-32.82958,5
