loggingTime,loggingSample,identifierForVendor,deviceID,locationTimestamp_since1970,locationLatitude,locationLongitude,locationAltitude,locationSpeed,locationCourse,locationVerticalAccuracy,locationHorizontalAccuracy,locationFloor,locationHeadingTimestamp_since1970,locationHeadingX,locationHeadingY,locationHeadingZ,locationTrueHeading,locationMagneticHeading,locationHeadingAccuracy,accelerometerTimestamp_sinceReboot,accelerometerAccelerationX,accelerometerAccelerationY,accelerometerAccelerationZ,gyroTimestamp_sinceReboot,gyroRotationX,gyroRotationY,gyroRotationZ,magnetometerTimestamp_sinceReboot,magnetometerX,magnetometerY,magnetometerZ,motionTimestamp_sinceReboot,motionYaw,motionRoll,motionPitch,motionRotationRateX,motionRotationRateY,motionRotationRateZ,motionUserAccelerationX,motionUserAccelerationY,motionUserAccelerationZ,motionAttitudeReferenceFrame,motionQuaternionX,motionQuaternionY,motionQuaternionZ,motionQuaternionW,motionGravityX,motionGravityY,motionGravityZ,motionMagneticFieldX,motionMagneticFieldY,motionMagneticFieldZ,motionMagneticFieldCalibrationAccuracy,activityTimestamp_sinceReboot,activity,activityActivityConfidence,activityActivityStartDate,pedometerStartDate,pedometerNumberofSteps,pedometerAverageActivePace,pedometerCurrentPace,pedometerCurrentCadence,pedometerDistance,pedometerFloorAscended,pedometerFloorDescended,pedometerEndDate,altimeterTimestamp_sinceReboot,altimeterReset,altimeterRelativeAltitude,altimeterPressure,IP_en0,IP_pdp_ip0,deviceOrientation,batteryState,batteryLevel,avAudioRecorderPeakPower,avAudioRecorderAveragePower,label
1562003755,1,0,0,1562003752,4.634792986,-74.15098759,2563.801,-1,-1,10,65,-9999,1562003755,-26.62561798,2.28877449,12.24255371,66.50674438,74.00071716,15,10244.30614,-0.369720459,-0.096176147,-0.707000732,10244.30614,1.151909317,1.834420246,-0.141299338,10244.2918,-28.10731506,12.74371338,-529.3950195,10244.30108,-2.246848603,-0.83671248,0.380324713,1.102940798,1.84293735,-0.21209529,0.295105636,0.25780344,-0.088426054,1,0.284958214,0.328298032,0.842200935,-0.318930656,-0.689392745,-0.371221989,-0.622038424,0,0,0,-1,10239.243,3,1,1562003750,1562003627,7,3.110259,0,0,7.126037,0,0,1562003753,10241.19821,0,-1.197021,75.3113,3232235528,182473588,1,1,0.31,-21.93373,-29.17867,0
1562003755,2,0,0,1562003752,4.634792986,-74.15098759,2563.801,-1,-1,10,65,-9999,1562003755,-26.62561798,2.28877449,12.24255371,66.50674438,74.00071716,15,10244.32641,-0.322677612,-0.076721191,-0.682220459,10244.32641,1.372708274,1.808295968,0.125928637,10244.31188,-28.62315369,12.80393982,-530.3303223,10244.32134,-2.228735823,-0.806612858,0.398081764,1.310348511,1.811233997,0.055485021,0.317671776,0.300889313,-0.058737159,1,0.265174806,0.332808375,0.843515873,-0.32772246,-0.665495872,-0.387650818,-0.637841821,0,0,0,-1,10239.243,3,1,1562003750,1562003627,7,3.110259,0,0,7.126037,0,0,1562003753,10241.19821,0,-1.197021,75.3113,3232235528,182473588,1,1,0.31,-21.93373,-29.17867,0
1562003755,3,0,0,1562003752,4.634792986,-74.15098759,2563.801,-1,-1,10,65,-9999,1562003755,-27.73563385,2.517175674,9.000061035,64.03216553,71.52613831,15,10244.34664,-0.297058105,-0.03036499,-0.64666748,10244.34664,1.601332931,1.789657036,0.448407352,10244.33196,-28.90351868,13.11561584,-531.5876465,10244.3416,-2.203123212,-0.780305313,0.415644718,1.554048896,1.790911674,0.352348119,0.341626644,0.34637627,-0.016148865,1,0.245630935,0.338484645,0.842624545,-0.339230686,-0.64359808,-0.403779835,-0.650187194,0,0,0,-1,10239.243,3,1,1562003750,1562003627,7,3.110259,0,0,7.126037,0,0,1562003753,10241.19821,0,-1.197021,75.3113,3232235528,182473588,1,1,0.31,-21.93373,-29.17867,0
1562003755,4,0,0,1562003752,4.634792986,-74.15098759,2563.801,-1,-1,10,65,-9999,1562003755,-27.73563385,2.517175674,9.000061035,64.03216553,71.52613831,15,10244.3669,-0.302566528,0.016235352,-0.6224823,10244.3669,1.685072037,1.749469136,0.941539831,10244.35207,-29.42219543,13.57302856,-532.8334351,10244.36187,-2.168988599,-0.758413929,0.431510605,1.680469871,1.752662897,0.795492291,0.321061254,0.414779693,0.022575259,1,0.22673291,0.344817907,0.839259446,-0.354028791,-0.624726415,-0.418243408,-0.659385622,0,0,0,-1,10239.243,3,1,1562003750,1562003627,7,3.110259,0,0,7.126037,0,0,1562003753,10241.19821,0,-1.197021,75.3113,3232235528,182473588,1,1,0.31,-21.93373,-29.49309,0
1562003755,5,0,0,1562003752,4.634792986,-74.15098759,2563.801,-1,-1,10,65,-9999,1562003755,-28.04766846,3.774871826,6.682617188,58.68066788,66.17463684,15,10244.38717,-0.317230225,0.052200317,-0.587020874,10244.38717,1.612401561,1.640578871,1.556894892,10244.37215,-29.18896484,14.53096008,-533.8875122,10244.3821,-2.125781236,-0.741845365,0.441180759,1.633800983,1.674101233,1.394643903,0.308693409,0.461156666,0.066977322,1,0.209865019,0.350200564,0.833183408,-0.372990072,-0.610954762,-0.427007467,-0.666632473,0,0,0,-1,10239.243,3,1,1562003750,1562003627,7,3.110259,0,0,7.126037,0,0,1562003753,10241.19821,0,-1.197021,75.3113,3232235528,182473588,1,1,0.31,-21.93373,-29.96495,0
1562003755,6,0,0,1562003752,4.634792986,-74.15098759,2563.801,-1,-1,10,65,-9999,1562003755,-28.04766846,3.774871826,6.682617188,58.68066788,66.17463684,15,10244.40743,-0.374298096,0.080001831,-0.572128296,10244.40743,1.589728739,1.343780752,2.145059345,10244.39223,-29.12509155,15.46118164,-534.9020996,10244.40237,-2.073341878,-0.732473512,0.441813764,1.574490786,1.430542588,2.01963973,0.260535955,0.493421435,0.096261144,1,0.196584344,0.353964239,0.824050128,-0.396239042,-0.604499638,-0.427579761,-0.672127843,0,0,0,-1,10239.243,3,1,1562003750,1562003627,7,3.110259,0,0,7.126037,0,0,1562003753,10241.19821,0,-1.197021,75.3113,3232235528,182473588,1,1,0.31,-21.93373,-29.96495,0
1562003755,7,0,0,1562003752,4.634792986,-74.15098759,2563.801,-1,-1,10,65,-9999,1562003755,-28.07362747,4.686987877,5.619506836,54.77944946,62.27341843,15,10244.42769,-0.482437134,0.077270508,-0.55027771,10244.42769,1.821739072,0.9308515,2.431351293,10244.41234,-29.04408264,16.53050232,-536.0678711,10244.42263,-2.01183585,-0.733406746,0.436317294,1.738316894,1.043526649,2.378834248,0.183045626,0.512265325,0.107930541,1,0.187507927,0.358037978,0.811347246,-0.422333091,-0.606690645,-0.42260465,-0.673299193,0,0,0,-1,10239.243,3,1,1562003750,1562003627,7,3.110259,0,0,7.126037,0,0,1562003753,10241.19821,0,-1.197021,75.3113,3232235528,182473588,1,1,0.31,-21.93373,-30.55685,0
1562003755,8,0,0,1562003752,4.634792986,-74.15098759,2563.801,-1,-1,10,65,-9999,1562003755,-27.69060898,7.291646004,3.727416992,50.10007095,57.59403992,15,10244.44796,-0.615280151,0.044113159,-0.494979858,10244.44796,2.292026689,0.505376628,2.564558882,10244.43242,-28.64855957,18.16471863,-536.8421021,10244.44289,-1.94201337,-0.746361687,0.431583192,2.163536072,0.586797953,2.543905497,0.072875023,0.475255132,0.136540592,1,0.181418106,0.365602493,0.794878066,-0.448988974,-0.616713524,-0.418309361,-0.666844547,0,0,0,-1,10239.243,3,1,1562003750,1562003627,7,3.676008,0,0,7.126037,0,0,1562003755,10241.19821,0,-1.197021,75.3113,3232235528,182473588,1,1,0.31,-21.93373,-31.29592,0
1562003755,9,0,0,1562003752,4.634792986,-74.15098759,2563.801,-1,-1,10,65,-9999,1562003755,-27.47093964,8.922192574,2.856079102,44.64326096,52.13722992,15,10244.46822,-0.747436523,-0.022201538,-0.400421143,10244.46822,2.766733289,0.177061597,2.518764496,10244.45251,-28.48805237,19.74945068,-537.7194824,10244.46316,-1.863545477,-0.77068298,0.43151419,2.661168098,0.252522826,2.540624857,-0.04951334,0.436801374,0.20052892,1,0.176391065,0.378220916,0.774565756,-0.475271434,-0.632768154,-0.418246657,-0.651670277,0,0,0,-1,10239.243,3,1,1562003750,1562003627,7,3.676008,0,0,7.126037,0,0,1562003755,10241.19821,0,-1.197021,75.3113,3232235528,182473588,1,1,0.31,-21.93373,-31.56258,0
1562003755,10,0,0,1562003752,4.634792986,-74.15098759,2563.801,-1,-1,10,65,-9999,1562003755,-26.67337036,10.58281422,2.103149414,38.63805008,46.13201904,15,10244.48847,-0.863815308,-0.091598511,-0.317962646,10244.48847,2.935390748,-0.202757373,2.457807402,10244.47262,-27.63746643,21.47032166,-538.4473267,10244.48343,-1.779427944,-0.804409705,0.436160822,2.928967953,-0.108023919,2.462469339,-0.150277495,0.364174247,0.273261189,1,0.171555445,0.395303398,0.751288295,-0.499869883,-0.652975738,-0.422462821,-0.628607929,0,0,0,-1,10239.243,3,1,1562003750,1562003627,7,3.676008,0,0,7.126037,0,0,1562003755,10241.19821,0,-1.197021,75.3113,3232235528,182473588,1,1,0.31,-21.93373,-31.78965,0
1562003755,11,0,0,1562003752,4.634792986,-74.15098759,2563.801,-1,-1,10,65,-9999,1562003755,-26.67337036,10.58281422,2.103149414,38.63805008,46.13201904,15,10244.50873,-1.009414673,-0.193725586,-0.21333313,10244.50873,2.871990204,-0.453461499,2.395056668,10244.49271,-27.02497864,22.68716431,-538.8845215,10244.5037,-1.694225732,-0.846356032,0.439937924,2.897026062,-0.421880633,2.423518419,-0.25778693,0.29033947,0.326158524,1,0.168586314,0.414455086,0.726137102,-0.522044539,-0.677561581,-0.425883293,-0.599611282,0,0,0,-1,10239.243,3,1,1562003750,1562003627,7,3.676008,0,0,7.126037,0,0,1562003755,10241.19821,0,-1.197021,75.3113,3232235528,182473588,1,1,0.31,-21.93373,-31.78965,0
1562003755,12,0,0,1562003752,4.634792986,-74.15098759,2563.801,-1,-1,10,65,-9999,1562003755,-26.05003357,11.90239048,1.542297363,32.56413651,40.05810547,15,10244.529,-1.126434326,-0.282989502,-0.125686646,10244.529,2.662519002,-0.461075743,2.098528062,10244.51279,-26.52008057,23.78433228,-539.4595337,10244.52393,-1.612391754,-0.890750548,0.440890242,2.725459099,-0.476071984,2.190036297,-0.374523878,0.180284739,0.402603209,1,0.16676116,0.433408767,0.70070976,-0.541621208,-0.703189075,-0.426744759,-0.568695128,0,0,0,-1,10239.243,3,1,1562003750,1562003627,7,3.676008,0,0,7.126037,0,0,1562003755,10241.19821,0,-1.197021,75.3113,3232235528,182473588,1,1,0.31,-21.93373,-32.18074,0
1562003755,13,0,0,1562003752,4.634792986,-74.15098759,2563.801,-1,-1,10,65,-9999,1562003755,-24.64366531,14.0787611,0.089538574,26.96466827,34.45863724,15,10244.54926,-1.177322388,-0.337036133,-0.044692993,10244.54926,2.314771949,-0.439994159,1.747254717,10244.5329,-25.61711121,24.78504944,-540.4829102,10244.54419,-1.539279785,-0.931262275,0.440950835,2.412147522,-0.445427507,1.811649084,-0.434944391,0.117915869,0.452987194,1,0.164539754,0.450621754,0.677257776,-0.557842791,-0.725623846,-0.426799536,-0.53973341,0,0,0,-1,10239.243,3,1,1562003750,1562003627,7,3.676008,0,0,7.126037,0,0,1562003755,10241.19821,0,-1.197021,75.3113,3232235528,182473588,1,1,0.31,-21.93373,-30.01223,0
1562003755,14,0,0,1562003752,4.634792986,-74.15098759,2563.801,-1,-1,10,65,-9999,1562003755,-24.14281464,15.3238039,-0.363464355,22.29918289,29.79315186,15,10244.56952,-1.197967529,-0.381164551,0.012969971,10244.56952,1.854287162,-0.530283576,1.6590929,10244.55298,-25.11854553,26.05235291,-540.8328857,10244.56446,-1.476958442,-0.967183321,0.438764847,1.97179091,-0.502829015,1.652147889,-0.444895029,0.062944233,0.501998007,1,0.163014337,0.465294838,0.656516552,-0.570888102,-0.745305777,-0.424821645,-0.513854086,0,0,0,-1,10239.243,3,1,1562003750,1562003627,7,3.676008,0,0,7.126037,0,0,1562003755,10242.14216,0,-1.197021,75.3113,3232235528,182473588,1,1,0.31,-21.93373,-30.01223,0
1562003755,15,0,0,1562003752,4.634792986,-74.15098759,2563.801,-1,-1,10,65,-9999,1562003755,-24.14281464,15.3238039,-0.363464355,22.29918289,29.79315186,15,10244.58979,-1.207000732,-0.384735107,0.050949097,10244.58979,1.363501194,-0.709102327,1.675267875,10244.57306,-24.33226013,26.64558411,-541.1322632,10244.58472,-1.424167021,-1.001152149,0.430065579,1.484978437,-0.665256023,1.681116939,-0.436188579,0.029402971,0.525742412,1,0.164660513,0.477259815,0.637563288,-0.581913233,-0.765410602,-0.416930407,-0.49021998,0,0,0,-1,10239.243,3,1,1562003750,1562003627,7,3.676008,0,0,7.126037,0,0,1562003755,10242.14216,0,-1.197021,75.3113,3232235528,182473588,1,1,0.31,-21.93373,-30.25372,0
1562003755,16,0,0,1562003752,4.634792986,-74.15098759,2563.801,-1,-1,10,65,-9999,1562003755,-23.43374252,15.95268345,-0.704956055,18.50426865,25.99823761,15,10244.61005,-1.18762207,-0.401580811,0.045272827,10244.61005,0.790260297,-0.940689483,1.516122695,10244.59317,-23.94195557,27.19268799,-541.5629883,10244.60498,-1.381920368,-1.034092153,0.414880785,0.944162071,-0.885814488,1.56406033,-0.417183518,0.013112009,0.524814069,1,0.170292258,0.486863315,0.62055397,-0.590658367,-0.786490858,-0.403080821,-0.467929304,0,0,0,-1,10239.243,3,1,1562003750,1562003627,7,3.676008,0,0,7.126037,0,0,1562003755,10242.14216,0,-1.197021,75.3113,3232235528,182473588,1,1,0.31,-21.93373,-30.51348,0
1562003756,17,0,0,1562003752,4.634792986,-74.15098759,2563.801,-1,-1,10,65,-9999,1562003755,-23.43374252,15.95268345,-0.704956055,18.50426865,25.99823761,15,10244.63031,-1.150497437,-0.374435425,-0.004714966,10244.61005,0.790260297,-0.940689483,1.516122695,10244.61325,-23.62705994,28.0166626,-541.2681274,10244.62525,-1.353894691,-1.065209604,0.39518321,0.273825467,-1.061355948,1.422999382,-0.36182189,-0.010377944,0.470292449,1,0.180067122,0.494044214,0.606849849,-0.596011162,-0.807459116,-0.384977281,-0.446992278,0,0,0,-1,10239.243,3,1,1562003750,1562003627,7,3.676008,0,0,7.126037,0,0,1562003755,10242.14216,0,-1.197021,75.3113,3232235528,182473588,1,1,0.31,-21.93373,-30.92935,0
1562003756,18,0,0,1562003752,4.634792986,-74.15098759,2563.801,-1,-1,10,65,-9999,1562003756,-22.09350586,17.86896896,-0.615722656,14.19378662,21.68775558,15,10244.65055,-1.161117554,-0.344573975,-0.100997925,10244.63031,0.094306795,-1.069021357,1.445763577,10244.63334,-23.15820313,28.44863892,-540.9411011,10244.64551,-1.340327189,-1.092283573,0.367513792,-0.474306285,-1.098665714,1.608676553,-0.317240596,-0.002428472,0.381493866,1,0.194798231,0.497189939,0.596207619,-0.599493384,-0.828404546,-0.359296352,-0.42971164,0,0,0,-1,10239.243,3,1,1562003750,1562003627,7,3.676008,0,0,7.126037,0,0,1562003755,10242.14216,0,-1.197021,75.3113,3232235528,182473588,1,1,0.31,-21.93373,-31.43771,0
1562003756,19,0,0,1562003752,4.634792986,-74.15098759,2563.801,-1,-1,10,65,-9999,1562003756,-21.43943787,18.77633286,0.065979004,13.89464951,21.38861847,15,10244.67081,-1.208648682,-0.336090088,-0.21836853,10244.67081,-1.2747138,-1.18555889,1.832950448,10244.65345,-22.43360901,29.63224792,-540.1929321,10244.66578,-1.339588352,-1.114986557,0.328772218,-1.153585196,-1.143535495,1.811571598,-0.330317378,-0.013224095,0.260149121,1,0.215160519,0.495378196,0.587593377,-0.602528393,-0.849812627,-0.322881252,-0.416612774,0,0,0,-1,10239.243,3,1,1562003750,1562003627,7,3.676008,0,0,7.126037,0,0,1562003755,10242.14216,0,-1.197021,75.3113,3232235528,182473588,1,1,0.31,-21.93373,-31.43771,0
1562003756,20,0,0,1562003752,4.634792986,-74.15098759,2563.801,-1,-1,10,65,-9999,1562003756,-20.70916367,19.51190567,1.132080078,14.52993584,22.0239048,15,10244.69107,-1.25479126,-0.345336914,-0.350830078,10244.69107,-1.481352464,-1.464555907,1.767102724,10244.67353,-21.70399475,30.197052,-539.03125,10244.68601,-1.348778708,-1.137652244,0.283725386,-1.472211599,-1.390342116,1.805150151,-0.362845182,-0.058277041,0.116156638,1,0.239915133,0.49088484,0.58029604,-0.603928208,-0.871362031,-0.279934019,-0.402945608,0,0,0,-1,10239.243,3,1,1562003750,1562003627,7,3.676008,0,0,7.126037,0,0,1562003755,10242.14216,0,-1.197021,75.3113,3232235528,182473588,1,1,0.31,-21.93373,-31.88919,0
1562003756,21,0,0,1562003752,4.634792986,-74.15098759,2563.801,-1,-1,10,65,-9999,1562003756,-20.70916367,19.51190567,1.132080078,14.52993584,22.0239048,15,10244.71134,-1.300369263,-0.328857422,-0.466674805,10244.71134,-1.335835211,-1.626603666,1.50525034,10244.69364,-20.80775452,30.93275452,-537.7925415,10244.70627,-1.362147186,-1.165115606,0.240291594,-1.392893076,-1.620665312,1.562827229,-0.394323885,-0.099126577,-0.031718194,1,0.26614207,0.487355709,0.573214471,-0.602559447,-0.892434537,-0.237985849,-0.383305609,0,0,0,-1,10239.243,3,1,1562003750,1562003627,7,3.676008,0,0,7.126037,0,0,1562003755,10242.14216,0,-1.197021,75.3113,3232235528,182473588,1,1,0.31,-21.93373,-30.2908,0
1562003756,22,0,0,1562003752,4.634792986,-74.15098759,2563.801,-1,-1,10,65,-9999,1562003756,-19.88902283,20.24817276,2.335571289,15.49740791,22.99137688,15,10244.7316,-1.299835205,-0.340438843,-0.55305481,10244.7316,-1.258964931,-1.514510151,1.393866823,10244.71372,-20.19090271,31.75804138,-536.5881348,10244.72654,-1.375472851,-1.195107911,0.202777764,-1.244047999,-1.587120056,1.406550527,-0.385405183,-0.134760171,-0.14910382,1,0.290657312,0.485613704,0.566096008,-0.599360466,-0.911195219,-0.201390952,-0.359395325,0,0,0,-1,10239.243,3,1,1562003750,1562003627,7,3.676008,0,0,7.126037,0,0,1562003755,10242.14216,0,-1.197021,75.3113,3232235528,182473588,1,1,0.31,-21.93373,-30.29293,0
1562003756,23,0,0,1562003752,4.634792986,-74.15098759,2563.801,-1,-1,10,65,-9999,1562003756,-18.5618248,21.60136032,4.709960938,16.47641373,23.97038269,15,10244.75187,-1.294998169,-0.327392578,-0.616638184,10244.75187,-1.373667545,-1.139616432,1.240027991,10244.73383,-19.50105286,32.25588989,-535.4621582,10244.7468,-1.390497999,-1.221296324,0.167688843,-1.359002233,-1.246024847,1.292184114,-0.372112036,-0.166790426,-0.250448883,1,0.31332925,0.482713521,0.559840083,-0.59614718,-0.926365137,-0.166904062,-0.337624878,0,0,0,-1,10239.243,3,1,1562003750,1562003627,7,3.676008,0,0,7.126037,0,0,1562003755,10242.14216,0,-1.197021,75.3113,3232235528,182473588,1,1,0.31,-21.93373,-30.48475,0
1562003756,24,0,0,1562003752,4.634792986,-74.15098759,2563.801,-1,-1,10,65,-9999,1562003756,-17.05397034,22.24159622,6.779785156,18.8176384,26.31160736,15,10244.77213,-1.268493652,-0.35534668,-0.626586914,10244.77213,-1.166165751,-0.766846317,0.935170082,10244.75391,-18.69590759,32.411026,-534.4405518,10244.76706,-1.408511389,-1.239798566,0.136398235,-1.256027102,-0.85516578,1.014350891,-0.349823475,-0.205165058,-0.305900276,1,0.333002597,0.477624416,0.555943191,-0.593221188,-0.936934888,-0.135975689,-0.321968377,0,0,0,-1,10239.243,3,1,1562003750,1562003627,7,3.676008,0,0,7.126037,0,0,1562003755,10242.14216,0,-1.197021,75.3113,3232235528,182473588,1,1,0.31,-21.93373,-28.92868,0
1562003756,25,0,0,1562003752,4.634792986,-74.15098759,2563.801,-1,-1,10,65,-9999,1562003756,-17.05397034,22.24159622,6.779785156,18.8176384,26.31160736,15,10244.79236,-1.229934692,-0.386810303,-0.61505127,10244.79236,-0.769662343,-0.628710814,0.563362434,10244.77402,-18.02323914,32.88920593,-533.3994141,10244.78733,-1.423636717,-1.252511903,0.113386836,-0.860673368,-0.635373235,0.653317571,-0.301945925,-0.254379153,-0.313080072,1,0.347480386,0.473067999,0.553546429,-0.590804815,-0.943674743,-0.113144033,-0.310928106,0,0,0,-1,10239.243,3,1,1562003750,1562003627,7,3.676008,0,0,7.126037,0,0,1562003755,10242.14216,0,-1.197021,75.3113,3232235528,182473588,1,1,0.31,-21.93373,-28.92868,0
1562003756,26,0,0,1562003752,4.634792986,-74.15098759,2563.801,-1,-1,10,65,-9999,1562003756,-17.05397034,22.24159622,6.779785156,18.8176384,26.31160736,15,10244.81263,-1.210159302,-0.426773071,-0.581573486,10244.81263,-0.539121276,-0.75752765,0.178645112,10244.7941,-17.58740234,32.59440613,-532.7805176,10244.80759,-1.434286189,-1.264713482,0.100012065,-0.576084018,-0.716053724,0.279925585,-0.269398451,-0.308845967,-0.300399601,1,0.35758242,0.471407205,0.551753163,-0.587774158,-0.948756397,-0.099845424,-0.299820125,0,0,0,-1,10239.243,3,1,1562003750,1562003627,7,3.676008,0,0,7.126037,0,0,1562003755,10242.14216,0,-1.197021,75.3113,3232235528,182473588,1,1,0.31,-21.93373,-25.17022,0
1562003756,27,0,0,1562003752,4.634792986,-74.15098759,2563.801,-1,-1,10,65,-9999,1562003756,-16.19864273,22.30540085,7.995117188,19.54899406,27.04296303,15,10244.83289,-1.1900177,-0.484237671,-0.49760437,10244.83289,-0.540747136,-0.911333459,-0.212380173,10244.81421,-17.22262573,32.86639404,-532.3117676,10244.82782,-1.444189596,-1.279951382,0.095482285,-0.523293734,-0.878787518,-0.130205214,-0.243200123,-0.359603494,-0.257970929,1,0.365533024,0.472924739,0.550943553,-0.582399368,-0.953638256,-0.095337264,-0.285455585,0,0,0,-1,10239.243,3,1,1562003750,1562003627,7,3.676008,0,0,7.126037,0,0,1562003755,10242.14216,0,-1.197021,75.3113,3232235528,182473588,1,1,0.31,-21.93373,-25.17022,0
1562003756,28,0,0,1562003752,4.634792986,-74.15098759,2563.801,-1,-1,10,65,-9999,1562003756,-16.1351738,22.20407867,9.205932617,21.48313332,28.97710228,15,10244.85315,-1.203826904,-0.521362305,-0.457473755,10244.85315,-0.651074177,-0.894583507,-0.607965855,10244.83429,-17.30221558,32.7951355,-531.7741089,10244.84809,-1.457055849,-1.297599492,0.098203321,-0.628119528,-0.940716088,-0.492485642,-0.242058694,-0.407706976,-0.208402276,1,0.37261349,0.476344019,0.551982701,-0.574082494,-0.958273947,-0.09804555,-0.268511117,0,0,0,-1,10239.243,3,1,1562003750,1562003627,7,3.676008,0,0,7.126037,0,0,1562003755,10242.14216,0,-1.197021,75.3113,3232235528,182473588,1,1,0.31,-19.93038,-24.83213,0
1562003756,29,0,0,1562003752,4.634792986,-74.15098759,2563.801,-1,-1,10,65,-9999,1562003756,-16.1351738,22.20407867,9.205932617,21.48313332,28.97710228,15,10244.87342,-1.197509766,-0.542861938,-0.405929565,10244.87342,-0.700297916,-0.548098526,-1.136468575,10244.85437,-17.25646973,32.73709106,-531.0489502,10244.86835,-1.474123784,-1.312515517,0.109215203,-0.692022085,-0.656001031,-1.007745504,-0.237858772,-0.426432699,-0.178384542,1,0.377464861,0.480178922,0.556369305,-0.563384116,-0.961070061,-0.108998209,-0.253896952,0,0,0,-1,10239.243,3,1,1562003750,1562003627,7,3.676008,0,0,7.126037,0,0,1562003755,10242.14216,0,-1.197021,75.3113,3232235528,182473588,1,1,0.31,-19.93038,-24.83213,0
1562003756,30,0,0,1562003752,4.634792986,-74.15098759,2563.801,-1,-1,10,65,-9999,1562003756,-16.29639435,21.4940033,9.770202637,22.97273636,30.46670532,15,10244.89368,-1.190856934,-0.557113647,-0.366882324,10244.89368,-0.825044909,-0.193437907,-1.635171855,10244.87449,-17.37089539,31.88793945,-530.539917,10244.88861,-1.494958593,-1.319264965,0.130427205,-0.78152132,-0.266551763,-1.522753,-0.239034653,-0.420738757,-0.139380693,1,0.3779414,0.483501345,0.56533134,-0.551169038,-0.960306168,-0.130057737,-0.246773496,0,0,0,-1,10239.243,3,1,1562003750,1562003627,7,3.676008,0,0,7.126037,0,0,1562003755,10242.14216,0,-1.197021,75.3113,3232235528,182473588,1,1,0.31,-19.93038,-24.83213,0
1562003756,31,0,0,1562003752,4.634792986,-74.15098759,2563.801,-1,-1,10,65,-9999,1562003756,-16.29639435,21.4940033,9.770202637,22.97273636,30.46670532,15,10244.91394,-1.15284729,-0.523574829,-0.339996338,10244.91394,-1.014778359,-0.083561473,-2.085152336,10244.89457,-18.41964722,31.09648132,-530.00354,10244.90888,-1.521257534,-1.318715433,0.160334049,-0.972371399,-0.094449252,-1.973916173,-0.218753517,-0.388081521,-0.106104851,1,0.375111371,0.485984743,0.578662038,-0.53689903,-0.955974877,-0.159647986,-0.246220574,0,0,0,-1,10239.243,3,1,1562003750,1562003627,7,3.676008,0,0,7.126037,0,0,1562003755,10242.14216,0,-1.197021,75.3113,3232235528,182473588,1,1,0.31,-19.93038,-25.10956,0
1562003756,32,0,0,1562003752,4.634792986,-74.15098759,2563.801,-1,-1,10,65,-9999,1562003756,-18.72372055,19.03113174,11.1083374,27.49118423,34.9851532,15,10244.93421,-1.086486816,-0.473144531,-0.331390381,10244.93421,-1.174975488,-0.179930354,-2.555852476,10244.91468,-19.0124054,30.57055664,-529.8189087,10244.92914,-1.553731425,-1.315162854,0.198301664,-1.133667588,-0.156710222,-2.449557781,-0.173680186,-0.299272299,-0.079367518,1,0.370508879,0.488642693,0.595280051,-0.51922363,-0.948542774,-0.197004557,-0.247902974,0,0,0,-1,10239.243,3,1,1562003750,1562003627,7,3.676008,0,0,7.126037,0,0,1562003755,10242.14216,0,-1.197021,75.3113,3232235528,182473588,1,1,0.31,-19.93038,-26.75479,0
1562003756,33,0,0,1562003752,4.634792986,-74.15098759,2563.801,-1,-1,10,65,-9999,1562003756,-18.72372055,19.03113174,11.1083374,27.49118423,34.9851532,15,10244.95444,-1.043838501,-0.409790039,-0.355606079,10244.95444,-1.350025865,-0.129852006,-2.895617769,10244.93476,-20.01675415,29.29425049,-529.1217651,10244.94941,-1.592249908,-1.310433546,0.243949067,-1.303351998,-0.168140784,-2.827096939,-0.122952223,-0.207788914,-0.093300104,1,0.36474067,0.491995662,0.614306629,-0.497525752,-0.937686265,-0.241536647,-0.249809027,0,0,0,-1,10239.243,3,1,1562003750,1562003627,7,3.676008,0,0,7.126037,0,0,1562003755,10242.14216,0,-1.197021,75.3113,3232235528,182473588,1,1,0.31,-19.93038,-26.75479,0
1562003756,34,0,0,1562003752,4.634792986,-74.15098759,2563.801,-1,-1,10,65,-9999,1562003756,-19.77627945,17.5538826,11.55773926,30.57538605,38.06935501,15,10244.9747,-1.008010864,-0.326553345,-0.414352417,10244.9747,-1.609372215,0.125889755,-3.119499336,10244.95487,-21.08717346,27.75976563,-528.7611084,10244.96967,-1.637191661,-1.300198272,0.294210839,-1.54107213,0.028901178,-3.06462431,-0.10205549,-0.079369545,-0.122748673,1,0.357464045,0.494275749,0.635584235,-0.473226696,-0.922205985,-0.289984703,-0.255821884,0,0,0,-1,10239.243,3,1,1562003750,1562003627,7,3.676008,0,0,7.126037,0,0,1562003755,10242.14216,0,-1.197021,75.3113,3232235528,182473588,1,1,0.31,-19.93038,-27.29654,0
1562003756,35,0,0,1562003752,4.634792986,-74.15098759,2563.801,-1,-1,10,65,-9999,1562003756,-20.82241821,15.96778774,12.18597412,34.3502655,41.84423447,15,10244.99497,-0.950119019,-0.234161377,-0.45652771,10244.99497,-1.812517611,0.613340913,-3.310842134,10244.97495,-22.065979,26.18205261,-528.0716553,10244.9899,-1.690058067,-1.278711869,0.346655045,-1.770934105,0.475657105,-3.277944565,-0.083939552,0.066331476,-0.16553539,1,0.347767532,0.493606776,0.659551799,-0.447662175,-0.900679588,-0.339753747,-0.2708202,0,0,0,-1,10239.243,3,1,1562003750,1562003627,7,3.676008,0,0,7.126037,0,0,1562003755,10242.14216,0,-1.197021,75.3113,3232235528,182473588,1,1,0.31,-19.93038,-27.29654,0
1562003756,36,0,0,1562003752,4.634792986,-74.15098759,2563.801,-1,-1,10,65,-9999,1562003756,-23.16573334,11.88408375,12.54083252,38.80338669,46.29735565,15,10245.01523,-0.909835815,-0.181945801,-0.509521484,10245.01523,-1.985771952,1.13010149,-3.357040788,10244.99506,-23.24021912,24.08486938,-527.8398438,10245.01017,-1.750604476,-1.241594994,0.399512401,-1.939766288,0.999538958,-3.359854937,-0.055542111,0.18373847,-0.186882019,1,0.334276825,0.489228636,0.686030328,-0.422228158,-0.871780276,-0.388969183,-0.297828704,0,0,0,-1,10239.243,3,1,1562003750,1562003627,7,3.676008,0,0,7.126037,0,0,1562003755,10242.14216,0,-1.197021,75.3113,3232235528,182473588,1,1,0.31,-19.93038,-28.43356,0
1562003756,37,0,0,1562003752,4.634792986,-74.15098759,2563.801,-1,-1,10,65,-9999,1562003756,-23.16573334,11.88408375,12.54083252,38.80338669,46.29735565,15,10245.0355,-0.826660156,-0.159164429,-0.539505005,10245.0355,-2.085128101,1.624797511,-3.40460884,10245.03525,-25.67504883,19.92449951,-527.8945313,10245.03043,-1.818865242,-1.188079076,0.44924742,-2.085249901,1.503388524,-3.389159679,-0.041850507,0.264060706,-0.19605279,1,0.317235589,0.480799228,0.714105189,-0.397803247,-0.835606158,-0.434287757,-0.336387366,0,0,0,-1,10239.243,3,1,1562003750,1562003627,7,3.676008,0,0,7.126037,0,0,1562003755,10242.14216,0,-1.197021,75.3113,3232235528,182473588,1,1,0.31,-19.93038,-28.69173,0
1562003756,38,0,0,1562003752,4.634792986,-74.15098759,2563.801,-1,-1,10,65,-9999,1562003756,-24.3289299,9.874094963,12.55731201,43.92803192,51.42200089,15,10245.05576,-0.749359131,-0.121047974,-0.5519104,10245.05576,-1.970689139,1.945372864,-3.425422243,10245.05533,-26.44068909,17.91372681,-528.6853027,10245.05069,-1.893351888,-1.119431303,0.495713188,-2.018399,1.881835222,-3.436264992,0.011782408,0.334500045,-0.156273365,1,0.296195269,0.469492972,0.742755592,-0.374377936,-0.791536987,-0.475659102,-0.383689433,0,0,0,-1,10239.243,3,1,1562003750,1562003627,7,3.676008,0,0,7.126037,0,0,1562003755,10242.14216,0,-1.197021,75.3113,3232235528,182473588,1,1,0.31,-19.93038,-28.69173,0
1562003756,39,0,0,1562003752,4.634792986,-74.15098759,2563.801,-1,-1,10,65,-9999,1562003756,-25.23231125,7.761361122,11.85797119,49.38346481,56.87743378,15,10245.07602,-0.611206055,-0.105575562,-0.550201416,10245.07602,-1.580868668,2.240192786,-3.249687166,10245.07541,-27.61930847,15.67945862,-529.3842773,10245.07096,-1.969515865,-1.040800055,0.538498069,-1.703871489,2.180235147,-3.326989412,0.047894061,0.40252614,-0.135073841,1,0.271689862,0.457373917,0.769955933,-0.352365613,-0.740704119,-0.512847185,-0.433987439,0,0,0,-1,10239.243,3,1,1562003750,1562003627,7,3.676008,0,0,7.126037,0,0,1562003755,10242.14216,0,-1.197021,75.3113,3232235528,182473588,1,1,0.31,-19.93038,-22.65167,0
1562003756,40,0,0,1562003752,4.634792986,-74.15098759,2563.801,-1,-1,10,65,-9999,1562003756,-25.23231125,7.761361122,11.85797119,49.38346481,56.87743378,15,10245.09626,-0.518112183,-0.106750488,-0.549850464,10245.09626,-1.247786845,2.284752531,-2.809490607,10245.09552,-28.35687256,13.92758179,-530.807312,10245.09122,-2.039815458,-0.958175112,0.575892799,-1.299124479,2.258996487,-2.920954943,0.133798838,0.443311214,-0.058122158,1,0.24468869,0.446086884,0.793523729,-0.333847165,-0.686182261,-0.544583797,-0.482267886,0,0,0,-1,10239.243,3,1,1562003750,1562003627,7,3.676008,0,0,7.126037,0,0,1562003755,10242.14216,0,-1.197021,75.3113,3232235528,182473588,1,1,0.31,-19.91724,-22.7453,0
1562003756,41,0,0,1562003752,4.634792986,-74.15098759,2563.801,-1,-1,10,65,-9999,1562003756,-26.30357361,5.537320137,11.12005615,54.43162918,61.92559814,15,10245.11652,-0.404907227,-0.140151978,-0.52116394,10245.11652,-1.241666101,2.567432433,-2.557613358,10245.1156,-28.7293396,11.8558197,-532.1365356,10245.11148,-2.104262908,-0.874819187,0.604731203,-1.213560104,2.478264093,-2.599540949,0.168635786,0.44682157,-0.015245497,1,0.217477113,0.434726387,0.813555419,-0.319130242,-0.631328046,-0.56854099,-0.527433336,0,0,0,-1,10239.243,3,1,1562003750,1562003627,7,3.676008,0,0,7.126037,0,0,1562003755,10242.14216,0,-1.197021,75.3113,3232235528,182473588,1,1,0.31,-19.91724,-23.2179,0
1562003756,42,0,0,1562003752,4.634792986,-74.15098759,2563.801,-1,-1,10,65,-9999,1562003756,-26.30357361,5.537320137,11.12005615,54.43162918,61.92559814,15,10245.13678,-0.308898926,-0.162322998,-0.501159668,10245.13678,-1.449822234,2.670105815,-2.377803646,10245.13572,-29.15061951,10.28541565,-533.3751831,10245.13172,-2.170036471,-0.784024087,0.624772212,-1.393275738,2.679740667,-2.440803051,0.219395399,0.431027651,0.065957487,1,0.188892707,0.420903653,0.832499206,-0.306765109,-0.572743177,-0.584912539,-0.574319303,0,0,0,-1,10239.243,3,1,1562003750,1562003627,7,3.676008,0,0,7.126037,0,0,1562003755,10242.14216,0,-1.197021,75.3113,3232235528,182473588,1,1,0.31,-19.91724,-23.79006,0
1562003756,43,0,0,1562003752,4.634792986,-74.15098759,2563.801,-1,-1,10,65,-9999,1562003756,-28.00320053,0.065997124,7.324707031,63.86192703,71.355896,15,10245.15705,-0.225616455,-0.157470703,-0.489929199,10245.15705,-1.579867586,2.51328158,-1.951109845,10245.1558,-29.44099426,8.934753418,-534.8173218,10245.15198,-2.237723007,-0.690817617,0.633637057,-1.566083789,2.562288523,-2.098308325,0.240988791,0.432106555,0.12414819,1,0.161411971,0.404215693,0.850408316,-0.295570016,-0.513480246,-0.592079699,-0.621111691,0,0,0,-1,10239.243,3,1,1562003750,1562003627,7,3.676008,0,0,7.126037,0,0,1562003755,10242.14216,0,-1.197021,75.3113,3232235528,182473588,1,1,0.31,-19.91724,-23.79006,0
1562003756,44,0,0,1562003752,4.634792986,-74.15098759,2563.801,-1,-1,10,65,-9999,1562003756,-28.30868149,-1.353909492,5.768920898,68.33132172,75.82529449,15,10245.17731,-0.162460327,-0.139587402,-0.521682739,10245.17731,-1.454692623,2.171556999,-1.104285339,10245.17591,-29.74276733,8.153945923,-536.0778198,10245.17225,-2.296723609,-0.606710357,0.629921237,-1.524581909,2.268503666,-1.35806489,0.271116912,0.434982598,0.161612391,1,0.137856394,0.38609314,0.865567505,-0.287611753,-0.460737884,-0.589081109,-0.663855433,0,0,0,-1,10239.243,3,1,1562003750,1562003627,7,3.676008,0,0,7.126037,0,0,1562003755,10242.14216,0,-1.197021,75.3113,3232235528,182473588,1,1,0.31,-19.91724,-25.07018,0
1562003756,45,0,0,1562003752,4.634792986,-74.15098759,2563.801,-1,-1,10,65,-9999,1562003756,-28.61789703,-2.242221832,4.47076416,70.89131165,78.38528442,15,10245.19757,-0.132263184,-0.108795166,-0.506134033,10245.19757,-0.840947176,1.636831803,0.064676199,10245.19599,-29.85690308,7.720291138,-537.3862305,10245.19251,-2.331997034,-0.544776971,0.61637119,-1.056500435,1.774841666,-0.240211084,0.288556099,0.455168366,0.176225483,1,0.120581999,0.369497985,0.875721693,-0.286431104,-0.42286399,-0.578077912,-0.697862446,0,0,0,-1,10239.243,3,1,1562003750,1562003627,7,3.676008,0,0,7.126037,0,0,1562003755,10242.14216,0,-1.197021,75.3113,3232235528,182473588,1,1,0.31,-19.91724,-25.07018,0
1562003756,46,0,0,1562003752,4.634792986,-74.15098759,2563.801,-1,-1,10,65,-9999,1562003756,-28.61789703,-2.242221832,4.47076416,70.89131165,78.38528442,15,10245.21784,-0.206115723,-0.12840271,-0.400909424,10245.21784,0.423841555,1.136116772,1.105490419,10245.21607,-29.75627136,7.933364868,-538.402832,10245.21277,-2.331691465,-0.514638518,0.603345382,0.056368783,1.244071007,0.873332739,0.246608198,0.461641669,0.246857285,1,0.110140882,0.35983035,0.87850982,-0.294298619,-0.405314833,-0.567400396,-0.716782212,0,0,0,-1,10239.243,3,1,1562003750,1562003627,7,3.676008,0,0,7.126037,0,0,1562003755,10242.14216,0,-1.197021,75.3113,3232235528,182473588,1,1,0.31,-19.91724,-25.59444,0
1562003756,47,0,0,1562003752,4.634792986,-74.15098759,2563.801,-1,-1,10,65,-9999,1562003756,-28.71085358,-2.635550499,2.177429199,70.26035309,77.75432587,15,10245.2381,-0.35295105,-0.247451782,-0.245162964,10245.2381,1.845686217,0.732020692,1.670458473,10245.23618,-29.84896851,8.658660889,-538.8129272,10245.23304,-2.294882137,-0.514886418,0.604650617,1.511785507,0.809633732,1.584314704,0.130713403,0.39331907,0.394152343,1,0.103315666,0.362363935,0.87282604,-0.310149878,-0.405127466,-0.56847465,-0.716036499,0,0,0,-1,10239.243,3,1,1562003750,1562003627,7,3.676008,0,0,7.126037,0,0,1562003755,10242.14216,0,-1.197021,75.3113,3232235528,182473588,1,1,0.31,-19.91724,-25.74483,0
1562003756,48,0,0,1562003752,4.634792986,-74.15098759,2563.801,-1,-1,10,65,-9999,1562003756,-28.57847977,-0.801029205,1.479492188,61.50181961,68.99578857,15,10245.25834,-0.439590454,-0.390182495,-0.089706421,10245.25834,2.750698396,0.461900524,1.719181271,10245.25626,-29.61709595,9.933685303,-538.958374,10245.2533,-2.232324059,-0.537594916,0.62443105,2.601460457,0.524548471,1.728509665,0.005987257,0.257594168,0.531237781,1,0.097017005,0.377040267,0.860108435,-0.32960844,-0.415441602,-0.584635794,-0.696856678,0,0,0,-1,10239.243,3,1,1562003750,1562003627,7,3.676008,0,0,7.126037,0,0,1562003755,10242.14216,0,-1.197021,75.3113,3232235528,182473588,1,1,0.31,-19.91724,-26.53102,0
1562003756,49,0,0,1562003752,4.634792986,-74.15098759,2563.801,-1,-1,10,65,-9999,1562003756,-28.57847977,-0.801029205,1.479492188,61.50181961,68.99578857,15,10245.2786,-0.451049805,-0.465423584,-0.005737305,10245.2786,2.836978158,-0.031712123,1.771229026,10245.27637,-29.93778992,10.74372864,-538.9896851,10245.27356,-2.158260137,-0.5746787,0.654421536,2.8773458,0.116599604,1.723876834,-0.01784724,0.18108809,0.629989028,1,0.091064468,0.398409694,0.843551457,-0.348422199,-0.431264699,-0.608700395,-0.665953934,0,0,0,-1,10239.243,3,1,1562003750,1562003627,7,3.676008,0,0,7.126037,0,0,1562003755,10242.14216,0,-1.197021,75.3113,3232235528,182473588,1,1,0.31,-19.91724,-26.53102,0
1562003756,50,0,0,1562003752,4.634792986,-74.15098759,2563.801,-1,-1,10,65,-9999,1562003756,-28.93586349,1.362716675,1.370605469,105.2830811,112.7770538,15,10245.29886,-0.433898926,-0.559921265,-0.004318237,10245.29886,2.459023135,-0.623424706,1.98368723,10245.29645,-30.14767456,12.14201355,-538.9815674,10245.2938,-2.079475115,-0.627220525,0.679488018,2.567477226,-0.476660252,1.938276291,0.012848586,0.115531683,0.628397226,1,0.09026181,0.420638829,0.825396478,-0.365563124,-0.456543654,-0.628394842,-0.629831553,0,0,0,-1,10239.243,3,1,1562003750,1562003627,7,3.676008,0,0,7.126037,0,0,1562003755,10242.14216,0,-1.197021,75.3113,3232235528,182473588,1,1,0.31,-19.91724,-27.0315,0
1562003756,51,0,0,1562003752,4.634792986,-74.15098759,2563.801,-1,-1,10,65,-9999,1562003756,-28.93586349,1.362716675,1.370605469,105.2830811,112.7770538,15,10245.31913,-0.460861206,-0.655532837,-0.026382446,10245.31913,2.121609946,-1.269093731,2.026125767,10245.31656,-29.84512329,13.51661682,-538.4261475,10245.31406,-2.000261527,-0.693538654,0.692461267,2.179056883,-1.120887637,2.030112743,0.057043195,0.031087875,0.574416816,1,0.096630417,0.441277832,0.806785822,-0.380831957,-0.492025495,-0.638433516,-0.591872871,0,0,0,-1,10239.243,3,1,1562003750,1562003627,7,3.676008,0,0,7.126037,0,0,1562003755,10242.14216,0,-1.197021,75.3113,3232235528,182473588,1,1,0.31,-19.91724,-27.0315,0
1562003756,52,0,0,1562003752,4.634792986,-74.15098759,2563.801,-1,-1,10,65,-9999,1562003756,-28.45052338,3.911700249,2.558349609,103.9552307,111.4492035,15,10245.33939,-0.519729614,-0.683273315,-0.04649353,10245.33939,2.053335816,-1.674897163,1.82775968,10245.33664,-29.44628906,14.71343994,-537.6795654,10245.33432,-1.924465294,-0.770227622,0.697151433,2.044964552,-1.600806355,1.894582868,0.032064199,-0.037757933,0.515080094,1,0.108721197,0.461561084,0.788000941,-0.392677635,-0.533834219,-0.642036378,-0.550282121,0,0,0,-1,10239.243,3,1,1562003750,1562003627,7,3.676008,0,0,7.126037,0,0,1562003755,10242.14216,0,-1.197021,75.3113,3232235528,182473588,1,1,0.31,-19.91724,-25.22884,0
1562003756,53,0,0,1562003752,4.634792986,-74.15098759,2563.801,-1,-1,10,65,-9999,1562003756,-28.45052338,3.911700249,2.558349609,103.9552307,111.4492035,15,10245.35965,-0.562210083,-0.669967651,-0.099060059,10245.35965,2.088796073,-1.97854866,1.48782501,10245.35672,-29.18305969,15.43940735,-536.7457275,10245.35459,-1.853004005,-0.851859059,0.700310023,2.078598738,-1.921632528,1.585936308,0.041386247,-0.034790218,0.439342797,1,0.122657478,0.482870579,0.769040108,-0.400460333,-0.575398088,-0.644454777,-0.503582299,0,0,0,-1,10239.243,3,1,1562003750,1562003627,7,3.676008,0,0,7.126037,0,0,1562003755,10242.14216,0,-1.197021,75.3113,3232235528,182473588,1,1,0.31,-19.91724,-25.22884,0
1562003756,54,0,0,1562003752,4.634792986,-74.15098759,2563.801,-1,-1,10,65,-9999,1562003756,-28.12784576,4.746040344,3.441345215,104.037796,111.5317688,15,10245.37992,-0.580459595,-0.672683716,-0.147140503,10245.37992,2.013284803,-2.156346355,1.302251951,10245.37683,-28.80004883,16.41279602,-536.1414795,10245.37485,-1.78638501,-0.93577173,0.704774213,2.078635693,-2.098030806,1.278648257,0.047065973,-0.00815922,0.332060754,1,0.136651292,0.505361319,0.750203311,-0.403895259,-0.6132586,-0.647861838,-0.451872736,0,0,0,-1,10239.243,3,1,1562003750,1562003627,7,3.676008,0,0,7.126037,0,0,1562003755,10242.14216,0,-1.197021,75.3113,3232235528,182473588,1,1,0.31,-19.91724,-25.94063,0
1562003756,55,0,0,1562003752,4.634792986,-74.15098759,2563.801,-1,-1,10,65,-9999,1562003756,-27.55820847,6.629157066,5.053161621,104.3649597,111.8589325,15,10245.40015,-0.681228638,-0.728057861,-0.272079468,10245.40015,1.550990398,-1.886922337,1.387827839,10245.39692,-28.57672119,17.24842834,-535.1832275,10245.39511,-1.724710575,-1.019262647,0.703746045,1.665314674,-2.056465864,1.397912383,0.010533154,-0.067200899,0.16659534,1,0.152013078,0.526440203,0.731665611,-0.405485153,-0.649372876,-0.647078276,-0.399505466,0,0,0,-1,10239.243,3,1,1562003750,1562003627,7,3.676008,0,0,7.126037,0,0,1562003755,10242.14216,0,-1.197021,75.3113,3232235528,182473588,1,1,0.31,-19.91724,-26.42168,0
1562003756,56,0,0,1562003752,4.634792986,-74.15098759,2563.801,-1,-1,10,65,-9999,1562003756,-27.01154709,7.362416267,5.401000977,104.4722824,111.9662552,15,10245.42041,-0.682006836,-0.710784912,-0.245056152,10245.42041,1.215832107,-1.144264713,1.059750361,10245.41703,-27.99002075,17.9588623,-534.9482422,10245.41538,-1.674024631,-1.086273756,0.695032919,1.268621922,-1.320436478,1.172365308,-0.008526087,-0.082260787,0.097561121,1,0.165623963,0.541940331,0.715639353,-0.408325374,-0.679630041,-0.640410721,-0.357738763,0,0,0,-1,10239.243,3,1,1562003750,1562003627,7,3.676008,0,0,7.126037,0,0,1562003755,10242.14216,0,-1.197021,75.3113,3232235528,182473588,1,1,0.31,-19.91724,-26.84157,0
1562003756,57,0,0,1562003752,4.634792986,-74.15098759,2563.801,-1,-1,10,65,-9999,1562003756,-27.01154709,7.362416267,5.401000977,104.4722824,111.9662552,15,10245.44068,-0.613708496,-0.622497559,-0.158859253,10245.44068,1.208432248,-0.819360392,0.582768889,10245.43711,-27.81719971,18.85601807,-534.4569702,10245.43561,-1.634991592,-1.132287882,0.68882972,1.172147512,-0.856704593,0.694092393,0.040440917,-0.042466402,0.122807682,1,0.173348144,0.553227723,0.703357995,-0.411311328,-0.698949277,-0.635634184,-0.327779025,0,0,0,-1,10239.243,3,1,1562003750,1562003627,7,3.676008,0,0,7.126037,0,0,1562003755,10242.14216,0,-1.197021,75.3113,3232235528,182473588,1,1,0.31,-19.91724,-26.84157,0
1562003756,58,0,0,1562003752,4.634792986,-74.15098759,2563.801,-1,-1,10,65,-9999,1562003756,-26.76296234,8.246001244,5.857849121,104.0427704,111.5367432,15,10245.46094,-0.530014038,-0.533554077,-0.0756073,10245.46094,1.483352764,-1.041154306,0.355482737,10245.45722,-27.56411743,19.22340393,-533.9871826,10245.45588,-1.599186251,-1.172244529,0.690336335,1.420185804,-0.921370625,0.328734666,0.141723275,0.071290553,0.186188042,1,0.176772982,0.564923644,0.692599893,-0.41221109,-0.710601509,-0.636796534,-0.299225181,0,0,0,-1,10239.243,3,1,1562003750,1562003627,7,3.676008,0,0,7.126037,0,0,1562003755,10242.14216,0,-1.197021,75.3113,3232235528,182473588,1,1,0.31,-19.91724,-26.84157,0
1562003756,59,0,0,1562003752,4.634792986,-74.15098759,2563.801,-1,-1,10,65,-9999,1562003756,-26.53994751,8.619030952,6.325622559,103.5221176,111.0160904,15,10245.48121,-0.596496582,-0.626556396,-0.123092651,10245.48121,1.308918642,-1.672326414,0.825636131,10245.4773,-27.3311615,19.55044556,-533.7880249,10245.47614,-1.558723539,-1.223357649,0.692057351,1.393699646,-1.601529121,0.731201172,0.185843706,0.064361572,0.182321668,1,0.182147071,0.579434752,0.679834485,-0.410978049,-0.723929644,-0.638122559,-0.262155622,0,0,0,-1,10239.243,3,1,1562003750,1562003627,7,3.676008,0,0,7.126037,0,0,1562003755,10242.14216,0,-1.197021,75.3113,3232235528,182473588,1,1,0.31,-19.91724,-27.46503,0
1562003756,60,0,0,1562003752,4.634792986,-74.15098759,2563.801,-1,-1,10,65,-9999,1562003756,-26.35557175,9.469485283,7.320495605,103.7507477,111.2447205,15,10245.50147,-0.642288208,-0.637405396,-0.060424805,10245.50147,0.804058933,-1.405070742,0.866348141,10245.49742,-27.45127869,20.12283325,-532.8796387,10245.49641,-1.522075624,-1.279803018,0.683445946,0.956241071,-1.536471009,0.873791337,0.119985104,-0.004120827,0.1263659,1,0.193352073,0.592774928,0.666133165,-0.409267187,-0.742803097,-0.631468773,-0.222465724,0,0,0,-1,10239.243,3,1,1562003750,1562003627,7,3.676008,0,0,7.126037,0,0,1562003755,10243.08632,0,-0.8666992,75.3082,3232235528,182473588,1,1,0.31,-19.91724,-28.34093,0
1562003756,61,0,0,1562003752,4.634792986,-74.15098759,2563.801,-1,-1,10,65,-9999,1562003756,-25.89743042,10.13362789,7.582519531,104.2948456,111.7888184,15,10245.52174,-0.664276123,-0.6222229,-0.036956787,10245.52174,-0.017706559,-0.728678957,0.846447403,10245.5175,-26.92906189,20.73599243,-532.7819824,10245.51667,-1.50091166,-1.318106847,0.670001139,0.205646947,-0.887229204,0.850151002,0.089480758,-0.018219054,0.139214814,1,0.204306126,0.600231528,0.656424224,-0.408764422,-0.758929551,-0.620986879,-0.195962235,0,0,0,-1,10239.243,3,1,1562003750,1562003627,7,3.676008,0,0,7.126037,0,0,1562003755,10243.08632,0,-0.8666992,75.3082,3232235528,182473588,1,1,0.31,-19.91724,-28.34093,0
1562003756,62,0,0,1562003752,4.634792986,-74.15098759,2563.801,-1,-1,10,65,-9999,1562003756,-25.89743042,10.13362789,7.582519531,104.2948456,111.7888184,15,10245.542,-0.633605957,-0.517440796,0.015136719,10245.542,-0.628529453,-0.51683701,0.807673908,10245.53758,-26.60176086,21.40505981,-532.2479248,10245.53694,-1.500821364,-1.331520071,0.652673531,-0.539644778,-0.530373335,0.81019479,0.134346843,0.03561151,0.18044436,1,0.214575022,0.599844873,0.65282768,-0.409828871,-0.771828532,-0.60731262,-0.188287377,0,0,0,-1,10239.243,3,1,1562003750,1562003627,7,3.676008,0,0,7.126037,0,0,1562003755,10243.08632,0,-0.8666992,75.3082,3232235528,182473588,1,1,0.31,-19.91724,-28.92573,0
1562003756,63,0,0,1562003752,4.634792986,-74.15098759,2563.801,-1,-1,10,65,-9999,1562003756,-25.59682846,10.73631382,7.997253418,105.3693619,112.8633347,15,10245.56224,-0.701828003,-0.517532349,-0.026290894,10245.56224,-0.807185218,-0.722151816,0.871262472,10245.55769,-26.4541626,21.84333801,-531.9316406,10245.5572,-1.512686151,-1.335772582,0.633346546,-0.779664576,-0.658644736,0.849965394,0.128008246,0.094470084,0.205158114,1,0.226056054,0.595858753,0.652297437,-0.410315752,-0.783892035,-0.591845572,-0.187702015,0,0,0,-1,10239.243,3,1,1562003750,1562003627,7,3.676008,0,0,7.126037,0,0,1562003755,10243.08632,0,-0.8666992,75.3082,3232235528,182473588,1,1,0.31,-19.91724,-29.37525,0
1562003756,64,0,0,1562003752,4.634792986,-74.15098759,2563.801,-1,-1,10,65,-9999,1562003756,-25.41766739,11.16194248,8.340881348,106.9215622,114.415535,15,10245.5825,-0.755523682,-0.53112793,-0.071533203,10245.5825,-0.81270888,-0.748301661,0.877241268,10245.57777,-26.06048584,22.15542603,-531.0849609,10245.57746,-1.527506085,-1.342182499,0.612556077,-0.814635038,-0.759178281,0.85487622,0.056750536,0.041070938,0.117398798,1,0.239531085,0.591534972,0.651859462,-0.40962255,-0.796893358,-0.574960649,-0.185422465,0,0,0,-1,10239.243,3,1,1562003750,1562003627,7,3.676008,0,0,7.126037,0,0,1562003755,10243.08632,0,-0.8666992,75.3082,3232235528,182473588,1,1,0.31,-19.91724,-29.41895,0
1562003756,65,0,0,1562003752,4.634792986,-74.15098759,2563.801,-1,-1,10,65,-9999,1562003756,-24.87083435,11.62736416,9.616882324,108.592865,116.0868378,15,10245.60276,-0.87286377,-0.56741333,-0.150924683,10245.60276,-1.020670336,-0.663542298,1.09257755,10245.59788,-25.94099426,22.12582397,-530.6662598,10245.5977,-1.542677559,-1.348826345,0.590245569,-0.937117279,-0.729964972,1.056747794,0.017146945,0.015488446,0.08187449,1,0.253590733,0.58671993,0.651162565,-0.40919289,-0.810420811,-0.556565046,-0.182902932,0,0,0,-1,10239.243,3,1,1562003750,1562003627,7,3.676008,0,0,7.126037,0,0,1562003755,10243.08632,0,-0.8666992,75.3082,3232235528,182473588,1,1,0.31,-19.91724,-29.41895,0
1562003757,66,0,0,1562003752,4.634792986,-74.15098759,2563.801,-1,-1,10,65,-9999,1562003756,-24.87083435,11.62736416,9.616882324,108.592865,116.0868378,15,10245.62303,-1.012756348,-0.610855103,-0.199005127,10245.62303,-1.576350616,-0.179399053,1.088144985,10245.61796,-25.50924683,22.21226501,-530.1224365,10245.61796,-1.563780299,-1.348368112,0.563779423,-1.396624207,-0.289376915,1.077842712,-0.117979407,-0.046929538,0.011166155,1,0.26830554,0.578603983,0.65195632,-0.410100579,-0.824418664,-0.534384549,-0.186459139,0,0,0,-1,10239.243,3,1,1562003750,1562003627,7,3.676008,0,0,7.126037,0,0,1562003755,10243.08632,0,-0.8666992,75.3082,3232235528,182473588,1,1,0.31,-19.91724,-29.41895,0
1562003757,67,0,0,1562003752,4.634792986,-74.15098759,2563.801,-1,-1,10,65,-9999,1562003757,-24.4869194,11.73590755,10.18487549,110.5079422,118.001915,15,10245.64329,-1.193344116,-0.69367981,-0.347824097,10245.64329,-2.123047254,-0.199870772,1.057295459,10245.63807,-25.14237976,23.01870728,-529.262085,10245.63822,-1.59864811,-1.333369048,0.534182501,-2.078961372,-0.130322292,1.075359344,-0.274178028,-0.153948307,-0.072436213,1,0.282984316,0.564537048,0.657194138,-0.411477357,-0.836539686,-0.509137571,-0.202435598,0,0,0,-1,10239.243,3,1,1562003750,1562003627,7,3.676008,0,0,7.126037,0,0,1562003755,10243.08632,0,-0.8666992,75.3082,3232235528,182473588,1,1,0.31,-19.91724,-29.44922,0
1562003757,68,0,0,1562003752,4.634792986,-74.15098759,2563.801,-1,-1,10,65,-9999,1562003757,-24.09918213,12.37650394,10.97436523,30.24101257,37.73498154,15,10245.66355,-1.394592285,-0.759140015,-0.528961182,10245.66355,-1.555929496,-0.982414826,0.98471633,10245.65815,-24.85105896,23.1313324,-528.4298096,10245.65849,-1.638837808,-1.321290187,0.503807501,-1.799653411,-0.780124307,1.006617069,-0.423889279,-0.23600179,-0.197603762,1,0.299906701,0.54948467,0.663194299,-0.410238832,-0.848632753,-0.482763439,-0.21624513,0,0,0,-1,10239.243,3,1,1562003750,1562003627,7,3.676008,0,0,7.126037,0,0,1562003755,10243.08632,0,-0.8666992,75.3082,3232235528,182473588,1,1,0.31,-19.91724,-30.05373,0
1562003757,69,0,0,1562003752,4.634792986,-74.15098759,2563.801,-1,-1,10,65,-9999,1562003757,-23.84669876,12.54543591,11.80322266,32.31062317,39.80459213,15,10245.68382,-1.713577271,-0.880065918,-0.698394775,10245.68382,-0.392322244,-1.092533608,0.657312898,10245.67823,-24.39376831,23.17955017,-527.7581787,10245.67875,-1.661667425,-1.332225691,0.479667244,-0.654738843,-1.177525401,0.763546884,-0.693566084,-0.343554437,-0.425272584,1,0.31735307,0.542645574,0.662977874,-0.406550378,-0.862021625,-0.461483985,-0.209645614,0,0,0,-1,10239.243,3,1,1562003750,1562003627,7,3.676008,0,0,7.126037,0,0,1562003755,10243.08632,0,-0.8666992,75.3082,3232235528,182473588,1,1,0.31,-19.91724,-30.41699,0
1562003757,70,0,0,1562003752,4.634792986,-74.15098759,2563.801,-1,-1,10,65,-9999,1562003757,-22.96993637,12.59375286,12.97479248,32.59307861,40.08704758,15,10245.70405,-1.993148804,-1.029449463,-0.830612183,10245.70405,-0.066622437,-0.31333262,0.019027487,10245.69834,-24.04507446,23.07411194,-527.3496704,10245.69902,-1.664717191,-1.349699205,0.468431443,-0.043449692,-0.567824304,0.201597214,-0.991030216,-0.515446901,-0.56976527,1,0.327445239,0.543084979,0.659256995,-0.404003263,-0.870557308,-0.451487243,-0.19567664,0,0,0,-1,10239.243,3,1,1562003750,1562003627,7,3.676008,0,0,7.126037,0,0,1562003755,10243.08632,0,-0.8666992,75.3082,3232235528,182473588,1,1,0.31,-19.91724,-31.05139,0
1562003757,71,0,0,1562003752,4.634792986,-74.15098759,2563.801,-1,-1,10,65,-9999,1562003757,-22.96993637,12.59375286,12.97479248,32.59307861,40.08704758,15,10245.72431,-2.108551025,-1.071517944,-0.868591309,10245.70405,-0.066622437,-0.31333262,0.019027487,10245.71842,-23.98664856,23.26856995,-527.4272461,10245.71928,-1.668987549,-1.348972263,0.471331735,-0.321391821,0.432120293,-0.574157357,-1.206351519,-0.611692131,-0.665551782,1,0.327468276,0.542912781,0.660633564,-0.401961982,-0.869133651,-0.45407322,-0.196020484,0,0,0,-1,10239.243,3,1,1562003750,1562003627,7,3.676008,0,0,7.126037,0,0,1562003755,10243.08632,0,-0.8666992,75.3082,3232235528,182473588,1,1,0.31,-19.91724,-31.08757,0
1562003757,72,0,0,1562003752,4.634792986,-74.15098759,2563.801,-1,-1,10,65,-9999,1562003757,-23.48823166,11.98499393,12.83441162,33.94610214,41.44007111,15,10245.74458,-1.958023071,-0.968780518,-0.812576294,10245.74458,-0.121908063,1.071578791,-1.445503919,10245.73854,-24.72636414,22.33735657,-527.6081543,10245.73951,-1.682338233,-1.327179347,0.488595109,-0.279170603,1.018607974,-1.322585821,-1.219618082,-0.563740969,-0.644629598,1,0.318493068,0.540432096,0.669107974,-0.398484349,-0.856919944,-0.469385833,-0.212990627,0,0,0,-1,10239.243,3,1,1562003750,1562003627,7,3.676008,0,0,7.126037,0,0,1562003755,10243.08632,0,-0.8666992,75.3082,3232235528,182473588,1,1,0.31,-19.91724,-29.02187,0
1562003757,73,0,0,1562003752,4.634792986,-74.15098759,2563.801,-1,-1,10,65,-9999,1562003757,-23.48823166,11.98499393,12.83441162,33.94610214,41.44007111,15,10245.76484,-1.692459106,-0.852645874,-0.724258423,10245.76484,0.732206847,0.912041061,-1.583894818,10245.75862,-24.99345398,21.90419006,-528.0814209,10245.75978,-1.689158376,-1.302928629,0.518447885,0.510463059,0.965574861,-1.57851398,-0.974108517,-0.407650352,-0.536172867,1,0.302862108,0.541596949,0.677907526,-0.394193769,-0.837613285,-0.495532572,-0.229894578,0,0,0,-1,10239.243,3,1,1562003750,1562003627,7,3.676008,0,0,7.126037,0,0,1562003755,10243.08632,0,-0.8666992,75.3082,3232235528,182473588,1,1,0.31,-19.91724,-29.60476,0
1562003757,74,0,0,1562003752,4.634792986,-74.15098759,2563.801,-1,-1,10,65,-9999,1562003757,-23.89450073,11.42376614,12.39929199,33.53928375,41.03325272,15,10245.78511,-1.493087769,-0.782318115,-0.611846924,10245.78511,1.364571252,0.799136346,-1.705583171,10245.7787,-25.77630615,20.87365723,-528.760376,10245.78004,-1.678698612,-1.290623895,0.554948014,1.253806472,0.812810361,-1.673012733,-0.76911974,-0.285005748,-0.434120476,1,0.28430593,0.549234509,0.681861997,-0.390609443,-0.816787183,-0.526899099,-0.235023186,0,0,0,-1,10239.243,3,1,1562003750,1562003627,7,3.676008,0,0,7.126037,0,0,1562003755,10243.08632,0,-0.8666992,75.3082,3232235528,182473588,1,1,0.31,-19.91724,-29.60476,0
1562003757,75,0,0,1562003752,4.634792986,-74.15098759,2563.801,-1,-1,10,65,-9999,1562003757,-25.24912643,10.05062962,10.88574219,32.06814957,39.56211853,15,10245.80537,-1.365325928,-0.773147583,-0.519195557,10245.80537,1.39885226,0.743534869,-1.702433184,10245.79881,-26.50695801,20.4080658,-529.6591797,10245.8003,-1.657740232,-1.286410609,0.59625992,1.449109077,0.733897686,-1.719317675,-0.625715256,-0.208925605,-0.330499113,1,0.263805538,0.560651302,0.682884932,-0.386968642,-0.794206619,-0.56155169,-0.232153505,0,0,0,-1,10239.243,3,1,1562003750,1562003627,7,3.676008,0,0,7.126037,0,0,1562003755,10243.08632,0,-0.8666992,75.3082,3232235528,182473588,1,1,0.31,-19.91724,-29.61764,0
1562003757,76,0,0,1562003752,4.634792986,-74.15098759,2563.801,-1,-1,10,65,-9999,1562003757,-25.60361862,9.484784126,10.23022461,30.91794968,38.41191864,15,10245.82563,-1.256942749,-0.758422852,-0.436904907,10245.82563,0.920672898,1.006884217,-1.802123825,10245.81889,-26.77444458,19.86032104,-530.3357544,10245.82057,-1.639058829,-1.281279767,0.637041416,1.062029839,0.902549565,-1.758702397,-0.540219188,-0.175565958,-0.249770463,1,0.243479013,0.570939183,0.684202731,-0.382900625,-0.770403981,-0.594819784,-0.229492843,0,0,0,-1,10239.243,3,1,1562003750,1562003627,7,3.676008,0,0,7.126037,0,0,1562003755,10243.08632,0,-0.8666992,75.3082,3232235528,182473588,1,1,0.31,-19.91724,-27.62701,0
1562003757,77,0,0,1562003752,4.634792986,-74.15098759,2563.801,-1,-1,10,65,-9999,1562003757,-25.60361862,9.484784126,10.23022461,30.91794968,38.41191864,15,10245.8459,-1.131134033,-0.726760864,-0.364730835,10245.8459,0.437141381,1.245616635,-1.966354578,10245.83897,-27.46514893,18.98336792,-531.1344604,10245.84083,-1.633953656,-1.262356695,0.677587553,0.519267738,1.222875953,-1.945340395,-0.459522247,-0.116370797,-0.155397415,1,0.222128168,0.576545238,0.689380348,-0.378165841,-0.742321014,-0.626915336,-0.236509323,0,0,0,-1,10239.243,3,1,1562003750,1562003627,7,3.676008,0,0,7.126037,0,0,1562003755,10243.08632,0,-0.8666992,75.3082,3232235528,182473588,1,1,0.31,-19.91724,-27.62701,0
1562003757,78,0,0,1562003752,4.634792986,-74.15098759,2563.801,-1,-1,10,65,-9999,1562003757,-26.26047897,8.651246071,9.463806152,31.01078415,38.50475311,15,10245.86613,-0.966201782,-0.676254272,-0.326065063,10245.86613,0.484249239,1.175617309,-1.973029259,10245.85908,-27.77401733,17.96647644,-531.8115845,10245.86109,-1.639986689,-1.233540373,0.718225404,0.419857502,1.204423428,-1.980827093,-0.346099138,-0.046769202,-0.100130439,1,0.200330094,0.579041123,0.697062671,-0.372401416,-0.710556746,-0.658049464,-0.249158457,0,0,0,-1,10239.243,3,1,1562003750,1562003627,7,3.676008,0,0,7.126037,0,0,1562003755,10243.08632,0,-0.8666992,75.3082,3232235528,182473588,1,1,0.31,-19.91724,-27.81055,0
1562003757,79,0,0,1562003752,4.634792986,-74.15098759,2563.801,-1,-1,10,65,-9999,1562003757,-26.63759613,7.61701107,8.711730957,31.38545609,38.87942505,15,10245.88639,-0.815490723,-0.618225098,-0.282821655,10245.88639,0.83404666,0.907871349,-1.879110753,10245.87916,-28.41723633,16.84680176,-532.3668213,10245.88136,-1.643640967,-1.20855465,0.759478141,0.749513447,0.986607134,-1.913984418,-0.198483646,0.046376944,-0.044494629,1,0.178779006,0.582703888,0.703155756,-0.366150647,-0.678133786,-0.688543081,-0.256988496,0,0,0,-1,10239.243,3,1,1562003750,1562003627,7,3.676008,0,0,7.126037,0,0,1562003755,10243.08632,0,-0.8666992,75.3082,3232235528,182473588,1,1,0.31,-19.91724,-27.92015,0
1562003757,80,0,0,1562003752,4.634792986,-74.15098759,2563.801,-1,-1,10,65,-9999,1562003757,-27.7326889,5.711197853,7.651062012,31.08646774,38.58043671,15,10245.90666,-0.74887085,-0.602493286,-0.266113281,10245.90666,1.033590662,0.694803016,-1.87417991,10245.89924,-28.97187805,16.04716492,-532.8401489,10245.90159,-1.639158346,-1.194878829,0.801136534,0.998801589,0.709321499,-1.842838287,-0.12954241,0.110664546,-0.020643234,1,0.158538595,0.589173675,0.706139684,-0.359314293,-0.647297859,-0.718147457,-0.255479783,0,0,0,-1,10239.243,3,1,1562003750,1562003627,7,3.676008,0,0,7.126037,0,0,1562003755,10243.08632,0,-0.8666992,75.3082,3232235528,182473588,1,1,0.31,-19.91724,-28.08333,0
1562003757,81,0,0,1562003752,4.634792986,-74.15098759,2563.801,-1,-1,10,65,-9999,1562003757,-27.7326889,5.711197853,7.651062012,31.08646774,38.58043671,15,10245.92692,-0.706832886,-0.598861694,-0.227081299,10245.92692,1.045954388,0.743851785,-2.112668649,10245.91935,-29.07316589,15.35250854,-533.0831299,10245.92185,-1.631683378,-1.186221216,0.845489279,1.062600255,0.716438532,-2.057726145,-0.115083992,0.148457527,0.003372967,1,0.138122946,0.597064674,0.70788753,-0.351185322,-0.614911735,-0.748295784,-0.248871654,0,0,0,-1,10239.243,3,1,1562003750,1562003627,7,3.676008,0,0,7.126037,0,0,1562003755,10243.08632,0,-0.8666992,75.3082,3232235528,182473588,1,1,0.31,-19.91724,-28.58008,0
1562003757,82,0,0,1562003752,4.634792986,-74.15098759,2563.801,-1,-1,10,65,-9999,1562003757,-27.94946289,4.939929962,7.362670898,30.59027481,38.08424377,15,10245.94718,-0.629608154,-0.555618286,-0.202560425,10245.94718,0.993770545,0.844952837,-2.289084162,10245.93943,-29.07669067,13.92140198,-533.8216553,10245.94212,-1.627899565,-1.173492375,0.89401393,0.991755426,0.828993022,-2.266033649,-0.101770699,0.195546508,0.022040784,1,0.115793683,0.604504645,0.71025604,-0.341617316,-0.577504814,-0.779591918,-0.242331922,0,0,0,-1,10239.243,3,1,1562003750,1562003627,7,3.676008,0,0,7.126037,0,0,1562003755,10243.08632,0,-0.8666992,75.3082,3232235528,182473588,1,1,0.31,-19.91724,-28.58008,0
1562003757,83,0,0,1562003752,4.634792986,-74.15098759,2563.801,-1,-1,10,65,-9999,1562003757,-27.9666481,3.5782938,6.667480469,30.46021271,37.95418167,15,10245.96745,-0.501724243,-0.525161743,-0.178451538,10245.96745,1.113139284,0.67100128,-2.23210157,10245.95951,-29.37528992,12.70742798,-534.3043213,10245.96238,-1.626781571,-1.157937126,0.94478448,1.074772239,0.735755503,-2.269477367,-0.028681397,0.276831865,0.049723864,1,0.092369497,0.611493289,0.712643445,-0.331184506,-0.536687255,-0.810370684,-0.235087663,0,0,0,-1,10239.243,3,1,1562003750,1562003627,7,3.676008,0,0,7.126037,0,0,1562003755,10243.08632,0,-0.8666992,75.3082,3232235528,182473588,1,1,0.31,-19.91724,-28.87773,0
1562003757,84,0,0,1562003752,4.634792986,-74.15098759,2563.801,-1,-1,10,65,-9999,1562003757,-28.30604935,2.375581741,6.153747559,30.1693573,37.66332626,15,10245.98771,-0.451324463,-0.522750854,-0.184738159,10245.98771,1.236816751,0.415102924,-2.109479513,10245.97962,-29.76411438,11.36885071,-534.7735596,10245.98265,-1.62113547,-1.150582511,0.994807386,1.203919888,0.458301008,-2.117618084,0.03272596,0.318222523,0.042862535,1,0.070634991,0.61960566,0.713241816,-0.31997782,-0.497279793,-0.838654101,-0.222199053,0,0,0,-1,10239.243,3,1,1562003750,1562003627,7,3.676008,0,0,7.126037,0,0,1562003755,10243.08632,0,-0.8666992,75.3082,3232235528,182473588,1,1,0.31,-19.91724,-27.35382,0
1562003757,85,0,0,1562003752,4.634792986,-74.15098759,2563.801,-1,-1,10,65,-9999,1562003757,-28.49253464,-0.227514267,5.326721191,29.33452988,36.82849884,15,10246.00797,-0.428604126,-0.499923706,-0.161453247,10246.00797,1.492944405,0.326732315,-2.310613689,10245.9997,-29.52722168,10.01898193,-535.1226807,10246.00291,-1.609408573,-1.152784754,1.045232179,1.409893513,0.334074408,-2.233028889,0.017463714,0.35619092,0.024936438,1,0.050159514,0.629009306,0.712156951,-0.307674974,-0.458503723,-0.865041018,-0.203662634,0,0,0,-1,10239.243,3,1,1562003750,1562003627,7,3.676008,0,0,7.126037,0,0,1562003755,10243.08632,0,-0.8666992,75.3082,3232235528,182473588,1,1,0.31,-19.91724,-27.35382,0
1562003757,86,0,0,1562003752,4.634792986,-74.15098759,2563.801,-1,-1,10,65,-9999,1562003757,-28.49253464,-0.227514267,5.326721191,29.33452988,36.82849884,15,10246.02821,-0.34979248,-0.455123901,-0.118347168,10246.02821,1.814285683,0.326373854,-2.630854283,10246.01982,-29.71350098,8.898971558,-535.192749,10246.02317,-1.589144627,-1.163948684,1.102698505,1.740652323,0.335168958,-2.57666254,0.011161804,0.406695127,0.026641667,1,0.027527088,0.640289605,0.709493697,-0.293070078,-0.414360046,-0.89242816,-0.178542957,0,0,0,-1,10239.243,3,1,1562003750,1562003627,7,3.676008,0,0,7.126037,0,0,1562003755,10243.08632,0,-0.8666992,75.3082,3232235528,182473588,1,1,0.31,-20.47452,-28.18173,0
1562003757,87,0,0,1562003752,4.634792986,-74.15098759,2563.801,-1,-1,10,65,-9999,1562003757,-28.53071213,-1.331627846,5.204772949,96.82556915,104.3195419,15,10246.04847,-0.231628418,-0.398696899,-0.055252075,10246.04847,1.94411159,0.311133115,-2.575611533,10246.0399,-29.28027344,7.728347778,-535.4532471,10246.04341,-1.555264439,-1.188392518,1.166460333,1.947887182,0.300842166,-2.625354767,0.069917947,0.498343289,0.057140291,1,0.002682006,0.653140366,0.704938114,-0.276518762,-0.36499244,-0.919363797,-0.146800935,0,0,0,-1,10239.243,3,1,1562003750,1562003627,7,3.676008,0,0,7.126037,0,0,1562003755,10243.08632,0,-0.8666992,75.3082,3232235528,182473588,1,1,0.31,-21.0318,-28.37597,0
1562003757,88,0,0,1562003752,4.634792986,-74.15098759,2563.801,-1,-1,10,65,-9999,1562003757,-28.2422905,-2.582145214,4.925048828,95.36618042,102.8601532,15,10246.06874,-0.101104736,-0.338699341,-0.000305176,10246.06874,1.789356365,0.318258137,-2.250151943,10246.05998,-29.16351318,6.616531372,-535.3795166,10246.06367,-1.505859889,-1.22797434,1.227706236,1.826580286,0.332825929,-2.357540846,0.152333915,0.571190476,0.086284697,1,-0.021522989,0.665580332,0.699015141,-0.260609746,-0.316823661,-0.941719651,-0.113079168,0,0,0,-1,10239.243,3,1,1562003750,1562003627,7,3.676008,0,0,7.126037,0,0,1562003755,10243.08632,0,-0.8666992,75.3082,3232235528,182473588,1,1,0.31,-21.58907,-26.40394,0
1562003757,89,0,0,1562003752,4.634792986,-74.15098759,2563.801,-1,-1,10,65,-9999,1562003757,-27.79722214,-5.026284218,4.889404297,94.14057922,101.634552,15,10246.089,-0.02293396,-0.323638916,0.031036377,10246.089,1.651685051,0.16831764,-1.797169014,10246.08009,-28.86712646,5.187103271,-535.4401855,10246.08393,-1.440115385,-1.284958516,1.279878835,1.69191134,0.191239491,-1.900233388,0.219132692,0.638111115,0.100269318,1,-0.042471267,0.676578522,0.692465007,-0.246839955,-0.275193483,-0.95798111,-0.080875389,0,0,0,-1,10239.243,3,1,1562003750,1562003627,7,3.676008,0,0,7.126037,0,0,1562003755,10243.08632,0,-0.8666992,75.3082,3232235528,182473588,1,1,0.31,-22.14635,-26.75156,0
1562003757,90,0,0,1562003752,4.634792986,-74.15098759,2563.801,-1,-1,10,65,-9999,1562003757,-27.79722214,-5.026284218,4.889404297,94.14057922,101.634552,15,10246.10926,0.051269531,-0.305465698,0.08694458,10246.10926,1.486718201,0.21069306,-1.579199932,10246.10017,-28.67138672,4.40486145,-535.5483398,10246.1042,-1.353703795,-1.364951195,1.3219808,1.524679184,0.178725302,-1.619595051,0.254836202,0.647442698,0.101313055,1,-0.059530593,0.686505198,0.685518324,-0.235013604,-0.2410575,-0.969204783,-0.05033344,0,0,0,-1,10239.243,3,1,1562003750,1562003627,7,3.676008,0,0,7.126037,0,0,1562003755,10243.08632,0,-0.8666992,75.3082,3232235528,182473588,1,1,0.31,-22.14635,-26.75156,0
1562003757,91,0,0,1562003752,4.634792986,-74.15098759,2563.801,-1,-1,10,65,-9999,1562003757,-27.60645676,-5.962667465,4.856872559,93.29201508,100.7859879,15,10246.12953,0.124450684,-0.254577637,0.142074585,10246.12953,1.279883795,0.252274858,-1.351155844,10246.12028,-28.08203125,3.705322266,-535.1760254,10246.12446,-1.249258909,-1.462201676,1.357276235,1.336658955,0.23766239,-1.425135016,0.297765613,0.698589325,0.143556356,1,-0.075125121,0.694890738,0.67887634,-0.224966675,-0.210653186,-0.977291048,-0.022966158,0,0,0,-1,10239.243,3,1,1562003750,1562003627,7,3.676008,0,0,7.126037,0,0,1562003755,10243.08632,0,-0.8666992,75.3082,3232235528,182473588,1,1,0.31,-22.70363,-27.51557,0
1562003757,92,0,0,1562003752,4.634792986,-74.15098759,2563.801,-1,-1,10,65,-9999,1562003757,-27.60645676,-5.962667465,4.856872559,93.29201508,100.7859879,15,10246.14979,0.226516724,-0.221588135,0.198577881,10246.14979,1.069432549,0.344794406,-0.991304724,10246.14036,-27.89273071,3.093719482,-535.0635986,10246.14472,-1.131334134,-1.572317681,1.384416496,1.120407701,0.317415267,-1.104015827,0.353988409,0.748153925,0.166786551,1,-0.08872775,0.701618373,0.672836244,-0.217141524,-0.185302481,-0.982681513,0.000281911,0,0,0,-1,10239.243,3,1,1562003750,1562003627,7,3.676008,0,0,7.126037,0,0,1562003755,10243.08632,0,-0.8666992,75.3082,3232235528,182473588,1,1,0.31,-23.26091,-27.85214,0
1562003757,93,0,0,1562003752,4.634792986,-74.15098759,2563.801,-1,-1,10,65,-9999,1562003757,-26.8575325,-7.337369919,5.271118164,91.7731781,99.26715088,15,10246.17002,0.322845459,-0.215835571,0.257369995,10246.17002,0.878034358,0.401461681,-0.456669276,10246.16047,-27.5526886,2.774047852,-535.3981934,10246.16499,-1.009732739,-1.684800473,1.40074162,0.914274216,0.383920789,-0.601145566,0.449051678,0.76426208,0.205433846,1,-0.09951748,0.706910312,0.667137265,-0.212842435,-0.168137386,-0.985575497,0.019251836,0,0,0,-1,10239.243,3,1,1562003750,1562003627,7,3.676008,0,0,7.126037,0,0,1562003755,10243.08632,0,-0.8666992,75.3082,3232235528,182473588,1,1,0.31,-23.81819,-28.0649,0
1562003757,94,0,0,1562003752,4.634792986,-74.15098759,2563.801,-1,-1,10,65,-9999,1562003757,-26.58990097,-7.899546623,4.854492188,91.00187683,98.49584961,15,10246.19029,0.404083252,-0.226852417,0.336334229,10246.19029,0.715541584,0.387288604,0.082884497,10246.18055,-27.60449219,2.587203979,-535.5722656,10246.18525,-0.902272867,-1.782769979,1.404455831,0.773329854,0.387432426,-0.056019936,0.527301073,0.773627102,0.262970567,1,-0.106322214,0.711416304,0.661348462,-0.212604359,-0.161868349,-0.986197293,0.034835141,0,0,0,-1,10239.243,3,1,1562003750,1562003627,7,3.676008,0,0,7.126037,0,0,1562003755,10243.08632,0,-0.8666992,75.3082,3232235528,182473588,1,1,0.31,-23.49904,-28.40146,0
1562003757,95,0,0,1562003752,4.634792986,-74.15098759,2563.801,-1,-1,10,65,-9999,1562003757,-26.56154633,-7.851930618,4.739746094,90.31731415,97.81128693,15,10246.21055,0.467346191,-0.268234253,0.387893677,10246.21055,0.253359031,0.374480397,0.709216044,10246.20063,-27.61056519,2.73588562,-535.6789551,10246.20548,-0.837330409,-1.839207163,1.397078643,0.397482157,0.365613431,0.526022971,0.607513845,0.735711932,0.321165681,1,-0.108525597,0.714941621,0.656023264,-0.216134816,-0.166656926,-0.984948993,0.045838654,0,0,0,-1,10239.243,3,1,1562003750,1562003627,7,3.676008,0,0,7.126037,0,0,1562003755,10243.08632,0,-0.8666992,75.3082,3232235528,182473588,1,1,0.31,-23.49904,-29.02427,0
1562003757,96,0,0,1562003752,4.634792986,-74.15098759,2563.801,-1,-1,10,65,-9999,1562003757,-26.56154633,-7.851930618,4.739746094,90.31731415,97.81128693,15,10246.23081,0.48085022,-0.313110352,0.41178894,10246.23081,-0.523054425,0.341538426,1.525021115,10246.22074,-28.19636536,2.981811523,-535.6734009,10246.22575,-0.855737137,-1.813526165,1.378853884,-0.31298396,0.372548819,1.321435213,0.665002286,0.686332226,0.355363131,1,-0.104549132,0.715538383,0.653092861,-0.224820212,-0.185174391,-0.981635511,0.045851395,0,0,0,-1,10239.243,3,1,1562003750,1562003627,7,3.676008,0,0,7.126037,0,0,1562003755,10243.08632,0,-0.8666992,75.3082,3232235528,182473588,1,1,0.31,-23.49904,-29.14593,0
1562003757,97,0,0,1562003752,4.634792986,-74.15098759,2563.801,-1,-1,10,65,-9999,1562003757,-26.99800873,-7.579362392,4.662475586,89.82388306,97.31785583,15,10246.25108,0.417449951,-0.275558472,0.423858643,10246.25108,-1.158486526,-0.070034212,2.248379077,10246.24082,-28.45639038,4.036361694,-536.0559082,10246.24601,-0.955912059,-1.710326786,1.347528948,-1.047906876,0.073113374,2.077643156,0.677379787,0.671239376,0.388364673,1,-0.09221369,0.711964726,0.653936446,-0.23868385,-0.219265178,-0.975179195,0.030794272,0,0,0,-1,10239.243,3,1,1562003750,1562003627,7,3.676008,0,0,7.126037,0,0,1562003755,10243.08632,0,-0.8666992,75.3082,3232235528,182473588,1,1,0.31,-23.49904,-29.14593,0
1562003757,98,0,0,1562003752,4.634792986,-74.15098759,2563.801,-1,-1,10,65,-9999,1562003757,-27.28976822,-6.703855038,4.393615723,90.07043457,97.56440735,15,10246.27134,0.29473877,-0.180160522,0.385650635,10246.27134,-1.274757476,-0.812802624,2.785509906,10246.26094,-28.77883911,4.992874146,-535.9649658,10246.26628,-1.072846009,-1.602130466,1.301310125,-1.289127827,-0.625898778,2.663112402,0.630103707,0.730555177,0.401449203,1,-0.070316501,0.7065593,0.656867564,-0.253681868,-0.266105324,-0.963907838,0.008340911,0,0,0,-1,10239.243,3,1,1562003750,1562003627,7,3.676008,0,0,7.126037,0,0,1562003755,10243.08632,0,-0.8666992,75.3082,3232235528,182473588,1,1,0.31,-22.45481,-24.00095,0
1562003757,99,0,0,1562003752,4.634792986,-74.15098759,2563.801,-1,-1,10,65,-9999,1562003757,-28.05571365,-4.213993549,4.762573242,91.68845367,99.18242645,15,10246.29161,0.125030518,-0.102294922,0.298980713,10246.29161,-1.221243917,-1.412295631,3.35125001,10246.28102,-29.26132202,6.607208252,-535.512085,10246.28654,-1.158634007,-1.540288986,1.242244725,-1.206148028,-1.322037935,3.182129622,0.539761782,0.817741811,0.358780324,1,-0.039603107,0.702502966,0.658636212,-0.266682476,-0.322522372,-0.946510673,-0.009842354,0,0,0,-1,10239.243,3,1,1562003750,1562003627,7,3.676008,0,0,7.126037,0,0,1562003755,10243.08632,0,-0.8666992,75.3082,3232235528,182473588,1,1,0.31,-22.45481,-24.69776,0
1562003757,100,0,0,1562003752,4.634792986,-74.15098759,2563.801,-1,-1,10,65,-9999,1562003757,-28.34355164,-2.341570854,5.331848145,94.28371429,101.7776871,15,10246.31187,-0.113525391,-0.141906738,0.18006897,10246.31187,-1.842936769,-1.236658826,4.16546331,10246.30113,-29.52801514,8.592773438,-534.8841553,10246.3068,-1.224652974,-1.507450399,1.16909192,-1.598086476,-1.385385752,3.959162712,0.401647776,0.812607825,0.269425631,1,-0.001213794,0.698300123,0.658538401,-0.280540079,-0.390203685,-0.920395911,-0.024750929,0,0,0,-1,10239.243,3,1,1562003750,1562003627,7,3.676008,0,0,7.126037,0,0,1562003755,10243.08632,0,-0.8666992,75.3082,3232235528,182473588,1,1,0.31,-16.5746,-16.5746,0
1562003757,101,0,0,1562003752,4.634792986,-74.15098759,2563.801,-1,-1,10,65,-9999,1562003757,-28.34355164,-2.341570854,5.331848145,94.28371429,101.7776871,15,10246.3321,-0.416702271,-0.226287842,0.028457642,10246.3321,-3.133563756,-0.394648782,4.483256992,10246.32121,-29.60707092,10.95527649,-534.2623291,10246.32707,-1.307642277,-1.453620939,1.078468607,-2.801980257,-0.623910546,4.503078461,0.214859366,0.705636859,0.161491275,1,0.04222421,0.685993671,0.660862207,-0.301481068,-0.469436973,-0.881235003,-0.055259597,0,0,0,-1,10239.243,3,1,1562003750,1562003627,7,3.676008,0,0,7.126037,0,0,1562003755,10243.08632,0,-0.8666992,75.3082,3232235528,182473588,1,1,0.31,-16.5746,-16.5746,0
1562003757,102,0,0,1562003752,4.634792986,-74.15098759,2563.801,-1,-1,10,65,-9999,1562003757,-28.43660355,-0.059355736,6.026855469,97.0042038,104.4981766,15,10246.35237,-0.742355347,-0.319610596,-0.098953247,10246.35237,-3.956909301,0.311828999,3.744982665,10246.34129,-29.52671814,13.07855225,-533.8656006,10246.3473,-1.412694997,-1.367328999,0.980896399,-3.876938105,0.21245946,3.997395277,-0.046459973,0.542269528,0.071297824,1,0.083849035,0.660883367,0.67020756,-0.327145725,-0.544802845,-0.830996335,-0.112405032,0,0,0,-1,10239.243,3,1,1562003750,1562003627,7,3.676008,0,0,7.126037,0,0,1562003755,10243.08632,0,-0.8666992,75.3082,3232235528,182473588,1,1,0.31,-16.5746,-16.90311,0
1562003757,103,0,0,1562003752,4.634792986,-74.15098759,2563.801,-1,-1,10,65,-9999,1562003757,-27.70169449,5.441365242,7.119445801,102.9034119,110.3973846,15,10246.37263,-0.853179932,-0.428421021,-0.256881714,10246.37263,-3.138743071,-0.153713397,2.884005055,10246.3614,-29.23518372,14.82771301,-533.5066528,10246.36756,-1.510869771,-1.283062303,0.893285748,-3.496899366,0.078447066,3.031105757,-0.208058119,0.434119105,0.00851655,1,0.11811021,0.630163014,0.683577776,-0.34880653,-0.601085007,-0.779135644,-0.177889109,0,0,0,-1,10239.243,3,1,1562003750,1562003627,7,3.676008,0,0,7.126037,0,0,1562003755,10243.08632,0,-0.8666992,75.3082,3232235528,182473588,1,1,0.31,-16.5746,-18.38018,0
1562003757,104,0,0,1562003752,4.634792986,-74.15098759,2563.801,-1,-1,10,65,-9999,1562003757,-27.70169449,5.441365242,7.119445801,102.9034119,110.3973846,15,10246.39289,-1.02230835,-0.662216187,-0.467178345,10246.39289,-1.286578183,-1.214397995,2.560168661,10246.38148,-28.6973114,16.16955566,-533.2093506,10246.38783,-1.564013952,-1.251886357,0.823045801,-1.751911998,-1.002513528,2.614622355,-0.284425557,0.18153882,-0.149395823,1,0.148393124,0.60940963,0.689690888,-0.361836821,-0.645704448,-0.733220339,-0.213198766,0,0,0,-1,10239.243,3,1,1562003750,1562003627,7,3.676008,0,0,7.126037,0,0,1562003755,10243.08632,0,-0.8666992,75.3082,3232235528,182473588,1,1,0.31,-16.5746,-18.38018,0
1562003757,105,0,0,1562003752,4.634792986,-74.15098759,2563.801,-1,-1,10,65,-9999,1562003757,-27.19102097,6.96965313,7.943664551,105.2896347,112.7836075,15,10246.41316,-1.253341675,-0.879013062,-0.705688477,10246.41316,0.028363997,-1.471752833,2.385954783,10246.40159,-28.20545959,17.71749878,-532.2045898,10246.40809,-1.567233737,-1.276623113,0.768911566,-0.212649345,-1.521252513,2.4152174,-0.440698802,-0.071110785,-0.374524236,1,0.176506042,0.603868544,0.683787584,-0.3696253,-0.68779546,-0.695353448,-0.208376795,0,0,0,-1,10239.243,3,1,1562003750,1562003627,7,3.676008,0,0,7.126037,0,0,1562003755,10243.08632,0,-0.8666992,75.3082,3232235528,182473588,1,1,0.31,-16.5746,-18.38018,0
1562003757,106,0,0,1562003752,4.634792986,-74.15098759,2563.801,-1,-1,10,65,-9999,1562003757,-27.19102097,6.96965313,7.943664551,105.2896347,112.7836075,15,10246.43342,-1.686798096,-1.161972046,-0.851455688,10246.43342,0.256619539,-0.563092123,2.217921835,10246.42167,-27.61611938,18.98991394,-531.7687378,10246.42835,-1.545872076,-1.317756939,0.723621105,0.312223762,-0.916641772,2.297016859,-0.712591887,-0.351096153,-0.597374499,1,0.199454799,0.605318785,0.671475589,-0.378057748,-0.725548983,-0.662102699,-0.187613904,0,0,0,-1,10239.243,3,1,1562003750,1562003627,7,3.676008,0,0,7.126037,0,0,1562003755,10243.08632,0,-0.8666992,75.3082,3232235528,182473588,1,1,0.31,-16.5746,-19.03631,0
1562003757,107,0,0,1562003752,4.634792986,-74.15098759,2563.801,-1,-1,10,65,-9999,1562003757,-25.7922287,9.329007149,8.72277832,106.216835,113.7108078,15,10246.45368,-2.092102051,-1.453292847,-0.966049194,10246.45368,-0.252669273,0.323628667,1.650664262,10246.44178,-26.728302,20.07899475,-531.607605,10246.44862,-1.529729504,-1.333654164,0.683334254,-0.162361935,0.236744031,1.79873848,-1.151443362,-0.67800504,-0.713237941,1,0.213562027,0.602745473,0.662172675,-0.390661716,-0.75376904,-0.631382167,-0.182178304,0,0,0,-1,10239.243,3,1,1562003750,1562003627,7,3.676008,0,0,7.126037,0,0,1562003755,10244.03045,0,-0.7397461,75.30699,3232235528,182473588,1,1,0.31,-16.5746,-21.3723,0
1562003757,108,0,0,1562003752,4.634792986,-74.15098759,2563.801,-1,-1,10,65,-9999,1562003757,-25.46344376,10.70628643,8.260314941,105.8933945,113.3873672,15,10246.47392,-2.405517578,-1.629943848,-1.084533691,10246.45368,-0.252669273,0.323628667,1.650664262,10246.46186,-26.39562988,20.84616089,-531.949646,10246.46888,-1.526817447,-1.328990131,0.653507983,-0.165709004,0.335383534,1.042904019,-1.520264983,-0.963481545,-0.857016325,1,0.221238986,0.596652567,0.658483326,-0.401819348,-0.770857453,-0.607975304,-0.190118045,0,0,0,-1,10239.243,3,1,1562003750,1562003627,7,3.676008,0,0,7.126037,0,0,1562003755,10244.03045,0,-0.7397461,75.30699,3232235528,182473588,1,1,0.31,-16.5746,-21.3723,0
1562003757,109,0,0,1562003752,4.634792986,-74.15098759,2563.801,-1,-1,10,65,-9999,1562003757,-25.46344376,10.70628643,8.260314941,105.8933945,113.3873672,15,10246.49417,-2.395263672,-1.579421997,-1.02897644,10246.49417,0.714206009,0.656458023,-0.23763919,10246.48197,-26.58822632,21.30169678,-532.1690674,10246.48914,-1.519984063,-1.325101707,0.644404555,0.521409452,0.522432745,-0.021603275,-1.660769463,-1.026718855,-0.877050519,1,0.221001595,0.594922006,0.656396151,-0.407885104,-0.775448859,-0.600722492,-0.194452196,0,0,0,-1,10239.243,3,1,1562003750,1562003627,7,3.676008,0,0,7.126037,0,0,1562003755,10244.03045,0,-0.7397461,75.30699,3232235528,182473588,1,1,0.31,-16.5746,-21.3723,0
1562003757,110,0,0,1562003752,4.634792986,-74.15098759,2563.801,-1,-1,10,65,-9999,1562003757,-25.70301437,10.6859293,7.908203125,104.1697769,111.6637497,15,10246.51444,-2.061645508,-1.392715454,-0.791320801,10246.51444,1.310800964,1.207107591,-0.767179745,10246.50205,-26.82345581,21.20333862,-532.5782471,10246.50937,-1.500833,-1.320331048,0.656719825,1.193678379,1.101880908,-0.699111462,-1.497316241,-0.887646675,-0.733356297,1,0.209544122,0.598281622,0.654529154,-0.411997437,-0.767286479,-0.61052227,-0.19630073,0,0,0,-1,10239.243,3,1,1562003750,1562003627,7,3.676008,0,0,7.126037,0,0,1562003755,10244.03045,0,-0.7397461,75.30699,3232235528,182473588,1,1,0.31,-16.5746,-21.53632,0
1562003757,111,0,0,1562003752,4.634792986,-74.15098759,2563.801,-1,-1,10,65,-9999,1562003757,-25.69288635,10.66001606,7.000793457,101.2936172,108.78759,15,10246.5347,-1.67741394,-1.194091797,-0.511459351,10246.5347,1.622580429,1.355835551,-0.830256182,10246.52216,-26.77090454,21.24650574,-533.6148071,10246.52964,-1.471171855,-1.313459975,0.679244325,1.555654407,1.331358075,-0.820199788,-1.101560831,-0.662672997,-0.455028176,1,0.190659478,0.603854477,0.651887059,-0.417195588,-0.752427757,-0.62820524,-0.198017463,0,0,0,-1,10239.243,3,1,1562003750,1562003627,7,3.676008,0,0,7.126037,0,0,1562003755,10244.03045,0,-0.7397461,75.30699,3232235528,182473588,1,1,0.31,-16.5746,-21.09394,0
1562003757,112,0,0,1562003752,4.634792986,-74.15098759,2563.801,-1,-1,10,65,-9999,1562003757,-25.69288635,10.66001606,7.000793457,101.2936172,108.78759,15,10246.55497,-1.340164185,-0.997756958,-0.243484497,10246.55497,1.746208361,1.329167987,-0.92802269,10246.54224,-26.93563843,20.64315796,-534.442688,10246.5499,-1.434656406,-1.309320401,0.70475972,1.737165093,1.350596428,-0.914583862,-0.770503759,-0.450965166,-0.167503774,1,0.169363737,0.610618532,0.647782743,-0.422893018,-0.735874414,-0.647850811,-0.19692187,0,0,0,-1,10239.243,3,1,1562003750,1562003627,7,3.676008,0,0,7.126037,0,0,1562003755,10244.03045,0,-0.7397461,75.30699,3232235528,182473588,1,1,0.31,-16.5746,-21.09394,0
1562003757,113,0,0,1562003752,4.634792986,-74.15098759,2563.801,-1,-1,10,65,-9999,1562003757,-26.08604813,10.17949009,5.213317871,98.07920074,105.5731735,15,10246.57523,-1.02935791,-0.803253174,-0.085464478,10246.57523,1.663745975,1.10089327,-0.798946729,10246.56235,-27.22918701,20.61421204,-535.2663574,10246.57016,-1.395998088,-1.308973041,0.731713511,1.700691819,1.16435039,-0.859001815,-0.462524295,-0.224859834,0.040669978,1,0.147897109,0.617926538,0.642984807,-0.427625775,-0.718673825,-0.668145537,-0.192586482,0,0,0,-1,10239.243,3,1,1562003750,1562003627,7,3.676008,0,0,7.126037,0,0,1562003755,10244.03045,0,-0.7397461,75.30699,3232235528,182473588,1,1,0.31,-16.5746,-21.09394,0
1562003757,114,0,0,1562003752,4.634792986,-74.15098759,2563.801,-1,-1,10,65,-9999,1562003757,-26.6499939,10.37108517,4.413879395,95.18963623,102.683609,15,10246.59549,-0.747665405,-0.644104004,0.016036987,10246.59549,1.380157136,0.824242765,-0.566202163,10246.58243,-27.94616699,20.8959198,-536.1329346,10246.59043,-1.35871132,-1.31347722,0.754588474,1.464887023,0.883728087,-0.627653539,-0.180214524,-0.037331641,0.153182149,1,0.129622176,0.624894977,0.637587905,-0.431492716,-0.7045663,-0.684988916,-0.185408726,0,0,0,-1,10239.243,3,1,1562003750,1562003627,7,3.676008,0,0,7.126037,0,0,1562003755,10244.03045,0,-0.7397461,75.30699,3232235528,182473588,1,1,0.31,-16.5746,-21.46369,0
1562003758,115,0,0,1562003752,4.634792986,-74.15098759,2563.801,-1,-1,10,65,-9999,1562003757,-26.6499939,10.37108517,4.413879395,95.18963623,102.683609,15,10246.61576,-0.505203247,-0.527557373,0.089981079,10246.61576,1.038559855,0.652256088,-0.276119738,10246.60254,-28.27349854,20.87443542,-536.722168,10246.61069,-1.327278202,-1.319517447,0.771029507,1.11522305,0.686490417,-0.362139016,0.071821749,0.11676532,0.233973861,1,0.115785353,0.63042146,0.632557869,-0.434779286,-0.69467026,-0.696873963,-0.178325072,0,0,0,-1,10239.243,3,1,1562003750,1562003627,7,3.676008,0,0,7.126037,0,0,1562003755,10244.03045,0,-0.7397461,75.30699,3232235528,182473588,1,1,0.31,-16.5746,-23.28205,0
1562003758,116,0,0,1562003752,4.634792986,-74.15098759,2563.801,-1,-1,10,65,-9999,1562003758,-27.06474304,10.33775043,3.799377441,93.01511383,100.5090866,15,10246.63599,-0.317169189,-0.404708862,0.124603271,10246.61576,1.038559855,0.652256088,-0.276119738,10246.62262,-28.75663757,20.56874084,-537.1477051,10246.63095,-1.301547851,-1.325360563,0.77968819,0.89302963,0.51113534,-0.016384812,0.288392901,0.235375822,0.28442359,1,0.106372714,0.634263098,0.627775192,-0.438512653,-0.689821064,-0.703057706,-0.172790334,0,0,0,-1,10239.243,3,1,1562003750,1562003627,7,3.676008,0,0,7.126037,0,0,1562003755,10244.03045,0,-0.7397461,75.30699,3232235528,182473588,1,1,0.31,-16.5746,-23.28205,0
1562003758,117,0,0,1562003752,4.634792986,-74.15098759,2563.801,-1,-1,10,65,-9999,1562003758,-27.06474304,10.33775043,3.799377441,93.01511383,100.5090866,15,10246.65625,-0.186355591,-0.311737061,0.154022217,10246.65625,0.935524016,0.439130763,0.435280098,10246.64273,-28.91487122,20.20854187,-537.6165771,10246.65119,-1.275806597,-1.333953052,0.780737647,0.913331985,0.443910271,0.348441631,0.440044045,0.351783395,0.312343955,1,0.100492567,0.637620151,0.621799588,-0.443516701,-0.690562844,-0.703803658,-0.16668357,0,0,0,-1,10239.243,3,1,1562003750,1562003627,7,3.676008,0,0,7.126037,0,0,1562003755,10244.03045,0,-0.7397461,75.30699,3232235528,182473588,1,1,0.31,-16.5746,-23.28205,0
1562003758,118,0,0,1562003752,4.634792986,-74.15098759,2563.801,-1,-1,10,65,-9999,1562003758,-27.06474304,10.33775043,3.799377441,93.01511383,100.5090866,15,10246.67652,-0.07321167,-0.250595093,0.167984009,10246.67652,1.063834052,0.255409665,0.663345491,10246.66281,-28.88116455,20.34481812,-538.2521362,10246.67145,-1.245848336,-1.346858982,0.775390758,1.024732471,0.321846128,0.618690908,0.574169219,0.422971904,0.318075895,1,0.09683726,0.641347826,0.613696456,-0.450191319,-0.696315825,-0.69999516,-0.158591017,0,0,0,-1,10239.243,3,1,1562003750,1562003627,7,3.676008,0,0,7.126037,0,0,1562003755,10244.03045,0,-0.7397461,75.30699,3232235528,182473588,1,1,0.31,-16.5746,-23.85942,0
1562003758,119,0,0,1562003752,4.634792986,-74.15098759,2563.801,-1,-1,10,65,-9999,1562003758,-27.45804596,10.02425289,1.734375,88.68216705,96.17613983,15,10246.69678,0.015518188,-0.212493896,0.195968628,10246.69678,1.307725812,-0.230461705,0.817661561,10246.68293,-28.51733398,20.59495544,-538.7232666,10246.69171,-1.210879599,-1.368304827,0.766395106,1.2267977,-0.083575122,0.772324681,0.676918447,0.464981377,0.328965187,1,0.095363647,0.646888077,0.603358865,-0.456508249,-0.705696464,-0.693542719,-0.144883186,0,0,0,-1,10239.243,3,1,1562003750,1562003627,7,3.676008,0,0,7.126037,0,0,1562003755,10244.03045,0,-0.7397461,75.30699,3232235528,182473588,1,1,0.31,-16.5746,-24.42766,0
1562003758,120,0,0,1562003752,4.634792986,-74.15098759,2563.801,-1,-1,10,65,-9999,1562003758,-27.1869812,10.63859844,1.590270996,87.62834167,95.12231445,15,10246.71704,0.113327026,-0.203613281,0.191482544,10246.71704,1.649952665,-0.917965529,0.944420306,10246.70301,-28.22140503,21.28973389,-538.8305664,10246.71198,-1.168236885,-1.406069762,0.754650482,1.568313241,-0.764465809,0.918096304,0.778631568,0.481527627,0.313829601,1,0.096989155,0.656400442,0.589819551,-0.460265607,-0.718649268,-0.685034096,-0.119463123,0,0,0,-1,10239.243,3,1,1562003750,1562003627,7,3.676008,0,0,7.126037,0,0,1562003755,10244.03045,0,-0.7397461,75.30699,3232235528,182473588,1,1,0.31,-16.5746,-25.08222,0
1562003758,121,0,0,1562003752,4.634792986,-74.15098759,2563.801,-1,-1,10,65,-9999,1562003758,-27.1869812,10.63859844,1.590270996,87.62834167,95.12231445,15,10246.73731,0.170516968,-0.205474854,0.171768188,10246.71704,1.649952665,-0.917965529,0.944420306,10246.72312,-28.16146851,21.69694519,-538.9910889,10246.73224,-1.11772662,-1.461228217,0.74026604,1.826800704,-1.188510776,0.972736597,0.889104962,0.471878171,0.262524426,1,0.101448059,0.670330286,0.572820663,-0.460697472,-0.733862042,-0.674484372,-0.080731198,0,0,0,-1,10239.243,3,1,1562003750,1562003627,7,3.676008,0,0,7.126037,0,0,1562003755,10244.03045,0,-0.7397461,75.30699,3232235528,182473588,1,1,0.31,-16.5746,-25.08222,0
1562003758,122,0,0,1562003752,4.634792986,-74.15098759,2563.801,-1,-1,10,65,-9999,1562003758,-27.06911087,11.02715397,1.406616211,86.82601929,94.31999207,15,10246.75757,0.175369263,-0.219802856,0.175003052,10246.75757,1.660713167,-0.778941329,0.838089871,10246.7432,-28.05570984,22.11598206,-538.5918579,10246.75251,-1.0663748,-1.517774588,0.724322666,1.73969245,-0.918926477,0.87505722,0.922166407,0.455490232,0.213336945,1,0.105674565,0.684826195,0.554841518,-0.460431069,-0.747895777,-0.662628293,-0.039691936,0,0,0,-1,10239.243,3,1,1562003750,1562003627,7,3.676008,0,0,7.126037,0,0,1562003755,10244.03045,0,-0.7397461,75.30699,3232235528,182473588,1,1,0.31,-16.5746,-25.82272,0
1562003758,123,0,0,1562003752,4.634792986,-74.15098759,2563.801,-1,-1,10,65,-9999,1562003758,-26.48447037,13.20205021,1.714599609,84.64066315,92.13463593,15,10246.7778,0.162078857,-0.258773804,0.189697266,10246.7778,1.240246637,-0.159827749,0.619967124,10246.76328,-27.93621826,23.01942444,-538.7335815,10246.77277,-1.023957664,-1.558414422,0.709560972,1.344455957,-0.320687801,0.663267195,0.928694904,0.409359038,0.188989222,1,0.107359827,0.695540965,0.539656699,-0.462025315,-0.758589983,-0.651500762,-0.009393268,0,0,0,-1,10239.243,3,1,1562003750,1562003627,7,3.676008,0,0,7.126037,0,0,1562003755,10244.03045,0,-0.7397461,75.30699,3232235528,182473588,1,1,0.31,-16.5746,-26.76182,0
1562003758,124,0,0,1562003752,4.634792986,-74.15098759,2563.801,-1,-1,10,65,-9999,1562003758,-26.48447037,13.20205021,1.714599609,84.64066315,92.13463593,15,10246.79807,0.143585205,-0.278594971,0.243972778,10246.79807,0.757576918,0.132843801,0.828548031,10246.78339,-27.49404907,23.88677979,-538.5983887,10246.79303,-0.993887426,-1.578983656,0.69674136,0.90307796,0.129677773,0.706070304,0.921162844,0.369428813,0.210410953,1,0.106835753,0.701231539,0.528610051,-0.466295928,-0.766911745,-0.641721904,0.006279099,0,0,0,-1,10239.243,3,1,1562003750,1562003627,7,3.676008,0,0,7.126037,0,0,1562003755,10244.03045,0,-0.7397461,75.30699,3232235528,182473588,1,1,0.31,-16.5746,-26.9704,0
1562003758,125,0,0,1562003752,4.634792986,-74.15098759,2563.801,-1,-1,10,65,-9999,1562003758,-25.8069191,13.63505268,1.336364746,83.94166565,91.43563843,15,10246.81833,0.080978394,-0.26423645,0.253646851,10246.79807,0.757576918,0.132843801,0.828548031,10246.80347,-26.80506897,24.19831848,-539.0916748,10246.81327,-0.979021681,-1.587542211,0.676091335,0.241045445,-0.133232161,1.403878212,0.90522027,0.35397464,0.239746094,1,0.11104843,0.702992916,0.519717097,-0.472613245,-0.779915035,-0.625748932,0.013061588,0,0,0,-1,10239.243,3,1,1562003750,1562003627,7,3.676008,0,0,7.126037,0,0,1562003755,10244.03045,0,-0.7397461,75.30699,3232235528,182473588,1,1,0.31,-16.5746,-26.9704,0
1562003758,126,0,0,1562003752,4.634792986,-74.15098759,2563.801,-1,-1,10,65,-9999,1562003758,-25.8069191,13.63505268,1.336364746,83.94166565,91.43563843,15,10246.8386,-0.168731689,-0.24067688,0.201950073,10246.8386,-0.096119875,-0.697325296,2.637463716,10246.82358,-25.52043152,24.78257751,-539.2717896,10246.83353,-0.979188767,-1.595386088,0.637615443,-0.085127607,-0.635826349,2.399338722,0.782721162,0.35301733,0.218570709,1,0.126456127,0.702770948,0.509852469,-0.479762852,-0.803274751,-0.595281124,0.019756315,0,0,0,-1,10239.243,3,1,1562003750,1562003627,7,3.676008,0,0,7.126037,0,0,1562003755,10244.03045,0,-0.7397461,75.30699,3232235528,182473588,1,1,0.31,-16.5746,-24.92908,0
1562003758,127,0,0,1562003752,4.634792986,-74.15098759,2563.801,-1,-1,10,65,-9999,1562003758,-23.07443619,15.82133389,1.204284668,84.86685181,92.36082458,15,10246.85886,-0.638916016,-0.257888794,0.119995117,10246.85886,-0.209741513,-0.089880089,3.171786242,10246.84366,-24.79936218,25.75650024,-539.1784668,10246.85379,-0.983895587,-1.605253803,0.580784088,-0.14326787,-0.371229261,3.115565777,0.447841167,0.297733545,0.120841146,1,0.150124937,0.701329768,0.495955765,-0.489517123,-0.83553654,-0.54867965,0.028801879,0,0,0,-1,10239.243,3,1,1562003750,1562003627,7,3.676008,0,0,7.126037,0,0,1562003755,10244.03045,0,-0.7397461,75.30699,3232235528,182473588,1,1,0.31,-16.5746,-21.23018,0
1562003758,128,0,0,1562003752,4.634792986,-74.15098759,2563.801,-1,-1,10,65,-9999,1562003758,-23.07443619,15.82133389,1.204284668,84.86685181,92.36082458,15,10246.87912,-0.995620728,-0.263473511,0.102157593,10246.87912,-0.821271476,0.778833471,3.106078069,10246.86374,-24.03587341,26.53102112,-539.194519,10246.87406,-0.994450523,-1.596164972,0.517218077,-0.634980381,0.670988917,3.114778996,0.026190817,0.242755026,0.088181496,1,0.17326884,0.693543017,0.482842833,-0.505805135,-0.868918478,-0.49446401,0.022048015,0,0,0,-1,10239.243,3,1,1562003750,1562003627,7,3.676008,0,0,7.126037,0,0,1562003755,10244.03045,0,-0.7397461,75.30699,3232235528,182473588,1,1,0.31,-16.5746,-21.23018,0
1562003758,129,0,0,1562003752,4.634792986,-74.15098759,2563.801,-1,-1,10,65,-9999,1562003758,-22.34166718,17.051548,1.468017578,355.3432007,2.837176323,15,10246.89939,-1.186386108,-0.293151855,0.038497925,10246.89939,-1.402836349,0.537704475,3.070197033,10246.88385,-23.32460022,27.82243347,-538.8557129,10246.89432,-1.018128295,-1.570318184,0.454803925,-1.309363365,0.637706578,3.065572977,-0.222685754,0.15176481,0.072801948,1,0.196428731,0.679117799,0.474992245,-0.524020076,-0.898346961,-0.439286172,-0.000429538,0,0,0,-1,10239.243,3,1,1562003750,1562003627,7,3.676008,0,0,7.126037,0,0,1562003755,10244.03045,0,-0.7397461,75.30699,3232235528,182473588,1,1,0.31,-16.5746,-21.23018,0
1562003758,130,0,0,1562003752,4.634792986,-74.15098759,2563.801,-1,-1,10,65,-9999,1562003758,-21.29137039,18.57857132,1.682800293,357.5441284,5.038096905,15,10246.91965,-1.314620972,-0.297576904,-0.07182312,10246.91965,-1.391675041,-0.165063523,3.261129704,10246.90393,-22.16563416,29.39575195,-538.6495972,10246.91458,-1.049217759,-1.549902559,0.391391939,-1.464748621,0.040449355,3.211596727,-0.301347733,0.079381973,0.026422918,1,0.223520696,0.663613081,0.468778044,-0.538426697,-0.92417717,-0.381475478,-0.019312354,0,0,0,-1,10239.243,3,1,1562003750,1562003627,7,3.676008,0,0,7.126037,0,0,1562003755,10244.03045,0,-0.7397461,75.30699,3232235528,182473588,1,1,0.31,-16.5746,-21.86886,0
1562003758,131,0,0,1562003752,4.634792986,-74.15098759,2563.801,-1,-1,10,65,-9999,1562003758,-20.1380043,20.09607697,2.176086426,359.1260681,6.620031357,15,10246.93988,-1.60508728,-0.367324829,-0.208618164,10246.93988,-0.726336707,-0.532466836,2.982585691,10246.92404,-20.93945313,30.93319702,-538.1239014,10246.93485,-1.074482226,-1.547695323,0.325249579,-0.926326156,-0.582223296,3.140183449,-0.488930523,0.012340069,-0.130822062,1,0.253463387,0.651776314,0.458416313,-0.548451006,-0.947318256,-0.319545299,-0.021887897,0,0,0,-1,10239.243,3,1,1562003750,1562003627,7,3.676008,0,0,7.126037,0,0,1562003755,10244.03045,0,-0.7397461,75.30699,3232235528,182473588,1,1,0.31,-16.5746,-23.47156,0
1562003758,132,0,0,1562003752,4.634792986,-74.15098759,2563.801,-1,-1,10,65,-9999,1562003758,-20.1380043,20.09607697,2.176086426,359.1260681,6.620031357,15,10246.96015,-2.072525024,-0.501678467,-0.26902771,10246.96015,0.088473141,0.33589572,1.886527656,10246.94413,-19.74841309,32.19148254,-537.5464478,10246.95511,-1.084255125,-1.551552971,0.269857898,-0.10222856,0.09097138,2.189843893,-0.869942069,-0.176322401,-0.218194306,1,0.275766224,0.643956602,0.4456774,-0.557354927,-0.963630319,-0.26659447,-0.018545771,0,0,0,-1,10239.243,3,1,1562003750,1562003627,7,3.676008,0,0,7.126037,0,0,1562003755,10244.03045,0,-0.7397461,75.30699,3232235528,182473588,1,1,0.31,-16.5746,-23.47156,0
1562003758,133,0,0,1562003752,4.634792986,-74.15098759,2563.801,-1,-1,10,65,-9999,1562003758,-17.88220596,22.26445389,3.009765625,359.2684326,6.762393951,15,10246.98041,-2.307281494,-0.566116333,-0.379257202,10246.96015,0.088473141,0.33589572,1.886527656,10246.96424,-18.81712341,32.88491821,-537.3269653,10246.97534,-1.078275891,-1.544168143,0.237662593,0.586404145,0.561328769,1.053261042,-1.265483499,-0.307994932,-0.298601508,1,0.282745659,0.638056874,0.436206847,-0.568033457,-0.971546471,-0.235431567,-0.025876634,0,0,0,-1,10239.243,3,1,1562003750,1562003627,7,3.676008,0,0,7.126037,0,0,1562003755,10244.03045,0,-0.7397461,75.30699,3232235528,182473588,1,1,0.31,-16.5746,-24.30995,0
1562003758,134,0,0,1562003752,4.634792986,-74.15098759,2563.801,-1,-1,10,65,-9999,1562003758,-17.47230148,23.04920578,2.51159668,358.0885315,5.582503319,15,10247.00067,-2.353347778,-0.52003479,-0.367752075,10247.00067,1.605595054,-0.238498592,0.173369656,10246.98432,-18.59976196,33.68595886,-538.0093994,10246.99561,-1.057453936,-1.543760031,0.224967068,1.41031158,-0.105952337,0.317780912,-1.355159879,-0.334146172,-0.366836667,1,0.280159026,0.639010966,0.426793307,-0.575346351,-0.974445224,-0.223074257,-0.026351811,0,0,0,-1,10239.243,3,1,1562003750,1562003627,7,3.676008,0,0,7.126037,0,0,1562003755,10244.03045,0,-0.7397461,75.30699,3232235528,182473588,1,1,0.31,-16.5746,-24.79272,0
1562003758,135,0,0,1562003752,4.634792986,-74.15098759,2563.801,-1,-1,10,65,-9999,1562003758,-16.99008179,23.13589859,2.032226563,355.5632935,3.057257175,15,10247.02094,-2.319702148,-0.384811401,-0.312850952,10247.00067,1.605595054,-0.238498592,0.173369656,10247.0044,-18.00624084,33.75982666,-538.4888306,10247.01587,-1.0215988,-1.557757386,0.225392123,1.929339886,-0.372108132,-0.299610108,-1.376389623,-0.239173174,-0.326265216,1,0.271427155,0.648053169,0.41464138,-0.578296483,-0.974623621,-0.223488584,-0.012708779,0,0,0,-1,10239.243,3,1,1562003750,1562003627,13,2.371436,0,0,12.09702,0,0,1562003758,10244.03045,0,-0.7397461,75.30699,3232235528,182473588,1,1,0.31,-16.5746,-26.01007,0
1562003758,136,0,0,1562003752,4.634792986,-74.15098759,2563.801,-1,-1,10,65,-9999,1562003758,-17.10276413,23.1433754,1.475097656,352.7576904,0.251671255,15,10247.0412,-2.226333618,-0.206085205,-0.208480835,10247.02094,1.955701401,-0.326260403,-0.451978384,10247.02451,-18.20144653,33.6592865,-538.9949341,10247.03614,-0.981668519,-1.572620545,0.237238104,1.842430592,-0.20340246,-0.788176656,-1.301936626,-0.057949781,-0.262545824,1,0.257529557,0.65921551,0.40452683,-0.579199016,-0.971989155,-0.235018983,0.001773122,0,0,0,-1,10239.243,3,1,1562003750,1562003627,13,2.371436,0,0,12.09702,0,0,1562003758,10244.03045,0,-0.7397461,75.30699,3232235528,182473588,1,1,0.31,-16.5746,-26.01007,0
1562003758,137,0,0,1562003752,4.634792986,-74.15098759,2563.801,-1,-1,10,65,-9999,1562003758,-17.10276413,23.1433754,1.475097656,352.7576904,0.251671255,15,10247.06147,-2.073913574,-0.123962402,-0.124481201,10247.0412,1.761669609,-0.178469077,-0.840092834,10247.04459,-18.75743103,32.94648743,-539.8703003,10247.0564,-0.946974189,-1.584214788,0.254620549,1.43398869,-0.088663362,-0.912428796,-1.195719361,0.0967879,-0.181640863,1,0.242600575,0.66905731,0.398109049,-0.578805983,-0.967671692,-0.251878202,0.012985446,0,0,0,-1,10239.243,3,1,1562003750,1562003627,13,2.371436,0,0,12.09702,0,0,1562003758,10244.03045,0,-0.7397461,75.30699,3232235528,182473588,1,1,0.31,-16.5746,-26.01007,0
1562003758,138,0,0,1562003752,4.634792986,-74.15098759,2563.801,-1,-1,10,65,-9999,1562003758,-18.11001205,22.31388855,0.125183105,350.5903625,358.0843201,15,10247.0817,-1.889083862,-0.081466675,-0.056121826,10247.0817,0.730680856,0.07938031,-0.831076969,10247.06467,-19.32269287,32.76226807,-540.3383179,10247.07666,-0.922319075,-1.590794131,0.272094644,0.870325923,0.055046137,-0.845052719,-1.017939568,0.167049795,-0.10524404,1,0.229825124,0.67587781,0.395352691,-0.577984273,-0.963017464,-0.268749595,0.019260801,0,0,0,-1,10239.243,3,1,1562003750,1562003627,13,2.371436,0,0,12.09702,0,0,1562003758,10244.03045,0,-0.7397461,75.30699,3232235528,182473588,1,1,0.31,-16.5746,-26.7376,0
1562003758,139,0,0,1562003752,4.634792986,-74.15098759,2563.801,-1,-1,10,65,-9999,1562003758,-18.30031204,21.77146912,-0.440124512,349.4350281,356.9289856,15,10247.10196,-1.609664917,-0.088912964,-0.010864258,10247.10196,0.193621931,0.148334611,-0.728246726,10247.08478,-19.56977844,32.21697998,-540.8936768,10247.09693,-0.909333241,-1.592438684,0.288472175,0.336698204,0.139422268,-0.780504346,-0.803980768,0.208712727,-0.05085206,1,0.220299751,0.679589033,0.396261245,-0.576718152,-0.958455145,-0.284487873,0.020746468,0,0,0,-1,10239.243,3,1,1562003750,1562003627,13,2.371436,0,0,12.09702,0,0,1562003758,10244.03045,0,-0.7397461,75.30699,3232235528,182473588,1,1,0.31,-16.5746,-27.40653,0
1562003758,140,0,0,1562003752,4.634792986,-74.15098759,2563.801,-1,-1,10,65,-9999,1562003758,-18.52084351,21.41976547,-0.744689941,349.3473511,356.8413086,15,10247.12223,-1.321853638,-0.095275879,-0.036697388,10247.12223,-0.441334795,0.136226016,-0.532373891,10247.10486,-19.6620636,31.8785553,-541.2098389,10247.11716,-0.908374031,-1.590106278,0.302032467,-0.290839225,0.106027566,-0.563345373,-0.509082317,0.200308561,-0.040117502,1,0.21497944,0.680441916,0.400236785,-0.574972391,-0.954555988,-0.297461271,0.018434722,0,0,0,-1,10239.243,3,1,1562003750,1562003627,13,2.371436,0,0,12.09702,0,0,1562003758,10244.03045,0,-0.7397461,75.30699,3232235528,182473588,1,1,0.31,-16.5746,-27.40653,0
1562003758,141,0,0,1562003752,4.634792986,-74.15098759,2563.801,-1,-1,10,65,-9999,1562003758,-18.52084351,21.41976547,-0.744689941,349.3473511,356.8413086,15,10247.14249,-1.059677124,-0.126296997,0.003005981,10247.14249,-0.817113216,0.385670733,-0.449077669,10247.12497,-19.6065979,31.34725952,-541.0603027,10247.13742,-0.920014934,-1.582606262,0.312781279,-0.762400866,0.320368886,-0.483406574,-0.23053056,0.201962739,-0.031012058,1,0.213816315,0.678159952,0.407522887,-0.572980702,-0.951415241,-0.307706147,0.011236674,0,0,0,-1,10239.243,3,1,1562003750,1562003627,13,2.371436,0,0,12.09702,0,0,1562003758,10244.03045,0,-0.7397461,75.30699,3232235528,182473588,1,1,0.31,-15.43743,-20.17158,0
1562003758,142,0,0,1562003752,4.634792986,-74.15098759,2563.801,-1,-1,10,65,-9999,1562003758,-18.5619812,20.9284935,-0.719299316,350.3150635,357.809021,15,10247.16275,-0.815811157,-0.150009155,0.044326782,10247.16275,-0.837872557,0.564280958,-0.260601764,10247.14505,-19.74591064,31.3710022,-540.958252,10247.15769,-0.937704041,-1.568374026,0.321114206,-0.848720074,0.527400851,-0.316736639,0.005461216,0.169429541,0.015787244,1,0.214056194,0.673075557,0.416510135,-0.572423458,-0.948881626,-0.315623999,-0.002298482,0,0,0,-1,10239.243,3,1,1562003750,1562003627,13,2.371436,0,0,12.09702,0,0,1562003758,10244.03045,0,-0.7397461,75.30699,3232235528,182473588,1,1,0.31,-15.43743,-20.56848,0
1562003758,143,0,0,1562003752,4.634792986,-74.15098759,2563.801,-1,-1,10,65,-9999,1562003758,-18.78607178,20.75559235,-0.450256348,351.6045532,359.0985107,15,10247.18302,-0.562179565,-0.179351807,0.106048584,10247.18302,-0.788365191,0.560480095,0.013008743,10247.16516,-19.8913269,31.26994324,-540.739563,10247.17795,-0.955384201,-1.551235111,0.325038776,-0.801473439,0.576707721,-0.073152758,0.264290392,0.163171828,0.096813381,1,0.215047717,0.666698277,0.424524456,-0.573625982,-0.947456956,-0.319345534,-0.018535774,0,0,0,-1,10239.243,3,1,1562003750,1562003627,13,2.371436,0,0,12.09702,0,0,1562003758,10244.03045,0,-0.7397461,75.30699,3232235528,182473588,1,1,0.31,-14.73013,-21.09015,0
1562003758,144,0,0,1562003752,4.634792986,-74.15098759,2563.801,-1,-1,10,65,-9999,1562003758,-18.78607178,20.75559235,-0.450256348,351.6045532,359.0985107,15,10247.20328,-0.392944336,-0.244918823,0.148574829,10247.20328,-0.834996609,0.370051826,0.398424612,10247.18524,-19.90107727,31.56446838,-540.4251099,10247.19821,-0.972222122,-1.535427266,0.322444898,-0.807775021,0.424706489,0.297809064,0.484109938,0.103003949,0.164246082,1,0.218134657,0.660036087,0.430353582,-0.575817227,-0.947870374,-0.316886395,-0.033539269,0,0,0,-1,10239.243,3,1,1562003750,1562003627,13,2.371436,0,0,12.09702,0,0,1562003758,10244.03045,0,-0.7397461,75.30699,3232235528,182473588,1,1,0.31,-14.73013,-21.09015,0
1562003758,145,0,0,1562003752,4.634792986,-74.15098759,2563.801,-1,-1,10,65,-9999,1562003758,-18.39706802,21.26462173,-0.037780762,354.1213379,1.615322232,15,10247.22354,-0.311218262,-0.311676025,0.171173096,10247.22354,-1.005994454,0.246255049,0.722093759,10247.20533,-19.40542603,31.82904053,-540.3563843,10247.21848,-0.990423035,-1.523286249,0.312026512,-0.95183444,0.238844201,0.644088447,0.606538534,0.032238185,0.205019534,1,0.225029141,0.653270543,0.434088081,-0.578071773,-0.950639486,-0.306987911,-0.04519897,0,0,0,-1,10239.243,3,1,1562003750,1562003627,13,2.371436,0,0,12.09702,0,0,1562003758,10244.03045,0,-0.7397461,75.30699,3232235528,182473588,1,1,0.31,-14.73013,-21.72472,0
1562003758,146,0,0,1562003752,4.634792986,-74.15098759,2563.801,-1,-1,10,65,-9999,1562003758,-18.39706802,21.26462173,-0.037780762,354.1213379,1.615322232,15,10247.24378,-0.282577515,-0.364257813,0.165466309,10247.24378,-1.495760964,0.710576919,1.006333208,10247.22544,-19.26594543,32.251297,-539.8137207,10247.23874,-1.012962748,-1.509986982,0.294794032,-1.330578566,0.525775552,0.936934948,0.663833857,-0.056457341,0.231291831,1,0.235299155,0.644638777,0.437466681,-0.581118107,-0.955093622,-0.290542781,-0.05815031,0,0,0,-1,10239.243,3,1,1562003750,1562003627,13,2.371436,0,0,12.09702,0,0,1562003758,10244.03045,0,-0.7397461,75.30699,3232235528,182473588,1,1,0.31,-14.73013,-21.82266,0
1562003758,147,0,0,1562003752,4.634792986,-74.15098759,2563.801,-1,-1,10,65,-9999,1562003758,-17.38158035,22.09430695,0.980957031,358.8468018,6.340785027,15,10247.26404,-0.282119751,-0.373382568,0.149093628,10247.26404,-2.310227265,1.78163373,1.157315268,10247.24552,-18.61236572,32.50935364,-539.6810303,10247.25901,-1.046915224,-1.481108091,0.27094164,-2.091862202,1.486151695,1.14147985,0.678991735,-0.099045098,0.239590347,1,0.247839347,0.628828585,0.444497526,-0.587853909,-0.959646642,-0.267638832,-0.086300537,0,0,0,-1,10239.243,3,1,1562003750,1562003627,13,2.371436,0,0,12.09702,0,0,1562003758,10244.03045,0,-0.7397461,75.30699,3232235528,182473588,1,1,0.31,-14.73013,-22.48751,0
1562003758,148,0,0,1562003752,4.634792986,-74.15098759,2563.801,-1,-1,10,65,-9999,1562003758,-17.38158035,22.09430695,0.980957031,358.8468018,6.340785027,15,10247.2843,-0.293640137,-0.327209473,0.147689819,10247.2843,-2.900490022,2.310731135,1.093274499,10247.26563,-18.41003418,32.60066223,-539.3253784,10247.27924,-1.096254857,-1.42828862,0.242172075,-2.846194983,2.334822893,1.112754822,0.675638676,-0.121058494,0.28175652,1,0.260895878,0.602488697,0.45840463,-0.599003971,-0.960977972,-0.239811882,-0.137881428,0,0,0,-1,10239.243,3,1,1562003750,1562003627,13,2.371436,0,0,12.09702,0,0,1562003758,10244.03045,0,-0.7397461,75.30699,3232235528,182473588,1,1,0.31,-14.73013,-22.48751,0
1562003758,149,0,0,1562003752,4.634792986,-74.15098759,2563.801,-1,-1,10,65,-9999,1562003758,-16.92941284,22.74382019,1.465759277,2.733086109,10.22705555,15,10247.30457,-0.312042236,-0.36517334,0.101516724,10247.30457,-2.329208945,1.395974715,0.87592034,10247.28571,-18.02078247,33.37797546,-538.8383789,10247.2995,-1.150196216,-1.373268732,0.211599263,-2.576269865,1.700495124,0.944267571,0.652288318,-0.111860394,0.324925244,1,0.27434814,0.573409796,0.474481106,-0.608935177,-0.958684802,-0.210023761,-0.191868603,0,0,0,-1,10239.243,3,1,1562003750,1562003627,13,2.371436,0,0,12.09702,0,0,1562003758,10244.03045,0,-0.7397461,75.30699,3232235528,182473588,1,1,0.31,-14.73013,-23.09319,0
1562003758,150,0,0,1562003752,4.634792986,-74.15098759,2563.801,-1,-1,10,65,-9999,1562003758,-16.22033691,22.8973999,2.127502441,5.447412014,12.94138145,15,10247.32483,-0.32043457,-0.43927002,0.062744141,10247.32483,-1.085415777,-0.084195305,0.491557219,10247.30579,-17.18481445,33.47026062,-538.1038818,10247.31977,-1.187633987,-1.34477862,0.187484341,-1.403550386,0.319230646,0.591090858,0.644606948,-0.221693128,0.303056955,1,0.286282003,0.554938734,0.484139055,-0.612939537,-0.957488358,-0.186387911,-0.220171228,0,0,0,-1,10239.243,3,1,1562003750,1562003627,13,2.371436,0,0,12.09702,0,0,1562003758,10244.03045,0,-0.7397461,75.30699,3232235528,182473588,1,1,0.31,-14.73013,-23.57257,0
1562003758,151,0,0,1562003752,4.634792986,-74.15098759,2563.801,-1,-1,10,65,-9999,1562003758,-15.89322567,23.1925087,3.239624023,6.099141598,13.59311104,15,10247.3451,-0.340744019,-0.483016968,-0.007125854,10247.3451,0.076300098,-1.610113906,0.118222514,10247.3259,-17.06806946,33.69700623,-537.4473877,10247.34003,-1.201631897,-1.352461654,0.176220179,-0.192685395,-1.304775357,0.197494537,0.628209054,-0.281172365,0.238380909,1,0.295822382,0.553049982,0.484628767,-0.609721124,-0.961140573,-0.175309554,-0.213249668,0,0,0,-1,10239.243,3,1,1562003750,1562003627,13,2.371436,0,0,12.09702,0,0,1562003758,10244.03045,0,-0.7397461,75.30699,3232235528,182473588,1,1,0.31,-14.73013,-24.14614,0
1562003758,152,0,0,1562003752,4.634792986,-74.15098759,2563.801,-1,-1,10,65,-9999,1562003758,-15.89322567,23.1925087,3.239624023,6.099141598,13.59311104,15,10247.36536,-0.375823975,-0.493392944,-0.021011353,10247.36536,0.64564479,-2.079345313,-0.041797514,10247.34598,-16.98445129,33.66781616,-537.0159302,10247.36029,-1.196061188,-1.389602013,0.176100587,0.590296209,-2.072130203,-0.039237048,0.620424628,-0.331308424,0.164554358,1,0.303237379,0.565100312,0.477351546,-0.600703001,-0.968416572,-0.175191805,-0.177417457,0,0,0,-1,10239.243,3,1,1562003750,1562003627,13,2.371436,0,0,12.09702,0,0,1562003758,10244.03045,0,-0.7397461,75.30699,3232235528,182473588,1,1,0.31,-14.73013,-24.14614,0
1562003758,153,0,0,1562003752,4.634792986,-74.15098759,2563.801,-1,-1,10,65,-9999,1562003758,-15.87094784,23.06676483,3.714904785,5.35361433,12.84758377,15,10247.38559,-0.491088867,-0.457015991,-0.046981812,10247.38559,0.361273781,-1.60105463,0.124253775,10247.36609,-16.98051453,33.51197815,-536.5949097,10247.38056,-1.183835699,-1.432083693,0.17844322,0.495468229,-1.772710323,0.049458466,0.552854657,-0.290702969,0.100260317,1,0.309001744,0.580070317,0.467788726,-0.590939999,-0.974668562,-0.17749773,-0.136072695,0,0,0,-1,10239.243,3,1,1562003750,1562003627,13,2.371436,0,0,12.09702,0,0,1562003758,10244.97456,0,-0.4360352,75.30412,3232235528,182473588,1,1,0.31,-14.73013,-24.68136,0
1562003758,154,0,0,1562003752,4.634792986,-74.15098759,2563.801,-1,-1,10,65,-9999,1562003758,-15.56838131,23.19633484,4.158996582,4.83858633,12.33255577,15,10247.40586,-0.687255859,-0.413284302,-0.10105896,10247.40586,-0.404595689,-0.805440048,0.366123131,10247.38617,-16.66624451,33.70272827,-536.1245117,10247.40082,-1.179808222,-1.461391463,0.175005577,-0.20301421,-1.0147475,0.325777382,0.390977979,-0.266804338,0.033773243,1,0.315753043,0.588676929,0.461150199,-0.584037662,-0.978838146,-0.174113631,-0.107518978,0,0,0,-1,10239.243,3,1,1562003750,1562003627,13,2.371436,0,0,12.09702,0,0,1562003758,10244.97456,0,-0.4360352,75.30412,3232235528,182473588,1,1,0.31,-14.73013,-25.14516,0
1562003758,155,0,0,1562003752,4.634792986,-74.15098759,2563.801,-1,-1,10,65,-9999,1562003758,-15.3765974,23.52697372,4.453308105,5.60443449,13.09840393,15,10247.42612,-0.821105957,-0.356826782,-0.105880737,10247.42612,-0.964596414,-0.303185444,0.257196646,10247.40628,-16.39187622,34.10671997,-535.894165,10247.42105,-1.191008931,-1.472690139,0.16666338,-0.90250355,-0.369430065,0.318246782,0.208421946,-0.218994826,-0.010464013,1,0.324346662,0.588645399,0.460441262,-0.579904795,-0.981401742,-0.165892884,-0.096591674,0,0,0,-1,10239.243,3,1,1562003750,1562003627,13,2.371436,0,0,12.09702,0,0,1562003758,10244.97456,0,-0.4360352,75.30412,3232235528,182473588,1,1,0.31,-14.73013,-26.36375,0
1562003758,156,0,0,1562003752,4.634792986,-74.15098759,2563.801,-1,-1,10,65,-9999,1562003758,-15.3765974,23.52697372,4.453308105,5.60443449,13.09840393,15,10247.44638,-0.779800415,-0.282028198,-0.076904297,10247.44638,-0.67517472,-0.476946052,-0.078197068,10247.42636,-16.26272583,33.73477173,-535.4060669,10247.44132,-1.20967542,-1.476360048,0.161553067,-0.815134048,-0.399446011,-0.012102097,0.162268162,-0.157126695,0.000294626,1,0.332310319,0.585692585,0.463905931,-0.575608492,-0.982580721,-0.16085124,-0.093068093,0,0,0,-1,10239.243,3,1,1562003750,1562003627,13,2.371436,0,0,12.09702,0,0,1562003758,10244.97456,0,-0.4360352,75.30412,3232235528,182473588,1,1,0.31,-14.73013,-26.36375,0
1562003758,157,0,0,1562003752,4.634792986,-74.15098759,2563.801,-1,-1,10,65,-9999,1562003758,-15.21188641,23.32973862,5.360046387,6.86541605,14.35938549,15,10247.46665,-0.704956055,-0.173248291,-0.049957275,10247.46665,-0.01056476,-0.789446435,-0.133958068,10247.44648,-16.3311615,33.78366089,-534.8538818,10247.46158,-1.220264724,-1.486276848,0.162950599,-0.1734723,-0.740949273,-0.162764311,0.242675662,-0.07817179,0.019335747,1,0.337275565,0.587022066,0.465640575,-0.569937766,-0.983230472,-0.162230417,-0.083300576,0,0,0,-1,10239.243,3,1,1562003750,1562003627,13,2.371436,0,0,12.09702,0,0,1562003758,10244.97456,0,-0.4360352,75.30412,3232235528,182473588,1,1,0.31,-14.73013,-27.12774,0
1562003758,158,0,0,1562003752,4.634792986,-74.15098759,2563.801,-1,-1,10,65,-9999,1562003758,-15.4216013,23.19198227,6.001953125,7.176665783,14.67063522,15,10247.48693,-0.644882202,-0.077362061,-0.033233643,10247.48693,0.342683319,-0.747101907,0.205430121,10247.48666,-16.3327179,33.51092529,-534.484375,10247.48187,-1.218255693,-1.502891834,0.164426439,0.305768073,-0.796580315,0.091737218,0.314210057,0.048284322,0.028317094,1,0.340073317,0.592352569,0.462641358,-0.565182626,-0.984238744,-0.163686529,-0.066937149,0,0,0,-1,10239.243,3,1,1562003750,1562003627,13,2.371436,0,0,12.09702,0,0,1562003758,10244.97456,0,-0.4360352,75.30412,3232235528,182473588,1,1,0.31,-14.73013,-27.85627,0
1562003758,159,0,0,1562003752,4.634792986,-74.15098759,2563.801,-1,-1,10,65,-9999,1562003758,-15.23636913,23.02793121,5.908691406,6.730185986,14.22415543,15,10247.5072,-0.634689331,-0.01335144,-0.037536621,10247.5072,0.161896758,-0.477523958,0.598034128,10247.50677,-16.0025177,33.89109802,-534.2366943,10247.50213,-1.211622786,-1.517851964,0.158479064,0.227151558,-0.543180227,0.51984036,0.350174725,0.114130586,0.013438106,1,0.343405813,0.596610606,0.456644893,-0.563563347,-0.986084759,-0.157816514,-0.052256465,0,0,0,-1,10239.243,3,1,1562003750,1562003627,13,2.371436,0,0,12.09702,0,0,1562003758,10244.97456,0,-0.4360352,75.30412,3232235528,182473588,1,1,0.31,-14.73013,-28.50303,0
1562003758,160,0,0,1562003752,4.634792986,-74.15098759,2563.801,-1,-1,10,65,-9999,1562003758,-14.98525333,23.31650162,6.065246582,6.493745327,13.98771477,15,10247.52746,-0.618118286,-0.008224487,-0.013977051,10247.52746,0.117442741,-0.476035251,0.668805504,10247.52685,-15.71392822,34.00427246,-534.1500854,10247.5224,-1.208545167,-1.527828354,0.145855245,0.071990207,-0.454918861,0.678073943,0.353031814,0.146956056,0.013827443,1,0.348685145,0.597636461,0.450677246,-0.564038455,-0.988468826,-0.14533864,-0.042498659,0,0,0,-1,10239.243,3,1,1562003750,1562003627,13,2.371436,0,0,12.09702,0,0,1562003758,10244.97456,0,-0.4360352,75.30412,3232235528,182473588,1,1,0.31,-14.73013,-28.50303,0
1562003758,161,0,0,1562003752,4.634792986,-74.15098759,2563.801,-1,-1,10,65,-9999,1562003758,-14.98525333,23.31650162,6.065246582,6.493745327,13.98771477,15,10247.54769,-0.578125,-0.021438599,0.020095825,10247.54769,0.293318698,-0.634494135,0.769747032,10247.54693,-15.53941345,34.42562866,-534.0942993,10247.54266,-1.204281026,-1.539148856,0.132596005,0.295517027,-0.621792793,0.684600055,0.407092214,0.119710863,0.045082092,1,0.354044974,0.599141002,0.443895072,-0.564481497,-0.990725636,-0.132207796,-0.031364433,0,0,0,-1,10239.243,3,1,1562003750,1562003627,13,2.371436,0,0,12.09702,0,0,1562003758,10244.97456,0,-0.4360352,75.30412,3232235528,182473588,1,1,0.31,-14.73013,-29.19517,0
1562003758,162,0,0,1562003752,4.634792986,-74.15098759,2563.801,-1,-1,10,65,-9999,1562003758,-14.51460648,23.8002739,6.207824707,6.136458874,13.63042831,15,10247.56796,-0.697128296,-0.009658813,-0.026489258,10247.56796,-0.210405705,-0.09864615,1.46327173,10247.56704,-14.93795776,34.60250854,-534.093689,10247.56292,-1.199657078,-1.550800854,0.114171569,-0.007589312,-0.32302767,1.235101223,0.374043584,0.082337976,0.014096141,1,0.360875785,0.599863887,0.435442984,-0.565969467,-0.993290961,-0.113923691,-0.019863969,0,0,0,-1,10239.243,3,1,1562003750,1562003627,13,2.371436,0,0,12.09702,0,0,1562003758,10244.97456,0,-0.4360352,75.30412,3232235528,182473588,1,1,0.31,-14.73013,-29.35077,0
1562003758,163,0,0,1562003752,4.634792986,-74.15098759,2563.801,-1,-1,10,65,-9999,1562003758,-13.9026804,24.04679489,6.293212891,6.172054768,13.66602421,15,10247.58822,-0.866653442,0.075408936,-0.093612671,10247.58822,-1.484031071,1.208664475,2.562022488,10247.58712,-13.85377502,35.31196594,-533.5368042,10247.58316,-1.209211688,-1.545867266,0.078827223,-1.120509624,0.836393654,2.294652462,0.209109306,0.102213621,-0.042991519,1,0.373389781,0.590047061,0.429244578,-0.572864354,-0.996584952,-0.078745611,-0.024849074,0,0,0,-1,10239.243,3,1,1562003750,1562003627,13,2.371436,0,0,12.09702,0,0,1562003758,10244.97456,0,-0.4360352,75.30412,3232235528,182473588,1,1,0.31,-14.73013,-30.06429,0
1562003758,164,0,0,1562003752,4.634792986,-74.15098759,2563.801,-1,-1,10,65,-9999,1562003758,-12.96273327,24.64514923,6.724609375,8.123683929,15.61765289,15,10247.60849,-0.981384277,0.271087646,-0.024185181,10247.60849,-2.304533426,2.136074106,3.139280231,10247.60723,-12.45002747,35.7713623,-532.9191895,10247.60342,-1.243020804,-1.513664347,0.021972605,-2.261484861,2.032876492,3.054455042,0.094135821,0.189634413,-0.006069064,1,0.393277407,0.562840402,0.429421514,-0.586635172,-0.99812752,-0.021970836,-0.057087127,0,0,0,-1,10239.243,3,1,1562003750,1562003627,13,2.371436,0,0,12.09702,0,0,1562003758,10244.97456,0,-0.4360352,75.30412,3232235528,182473588,1,1,0.31,-14.73013,-30.06429,0
1562003759,165,0,0,1562003752,4.634792986,-74.15098759,2563.801,-1,-1,10,65,-9999,1562003758,-12.96273327,24.64514923,6.724609375,8.123683929,15.61765289,15,10247.62875,-1.305282593,0.316238403,-0.13873291,10247.62875,-1.640835067,1.509489826,3.164638052,10247.62731,-11.0827179,36.51971436,-532.2966919,10247.62368,-1.282186457,-1.472714701,-0.045395536,-1.903084874,1.789001822,3.199952364,-0.135286927,0.255538642,0.042586684,1,0.415034622,0.5280478,0.430793375,-0.602767706,-0.994168639,0.045379948,-0.097823568,0,0,0,-1,10239.243,3,1,1562003750,1562003627,13,2.371436,0,0,12.09702,0,0,1562003758,10244.97456,0,-0.4360352,75.30412,3232235528,182473588,1,1,0.31,-14.73013,-30.30526,0
1562003759,166,0,0,1562003752,4.634792986,-74.15098759,2563.801,-1,-1,10,65,-9999,1562003759,-11.71717358,25.18829346,7.281982422,10.90504456,18.39901352,15,10247.64901,-1.651626587,0.364501953,-0.251266479,10247.64901,-0.578625543,0.100378803,2.653666122,10247.6474,-9.659179688,37.20381165,-532.0894775,10247.64395,-1.302593027,-1.450400259,-0.110061032,-0.800726593,0.484383374,2.827476501,-0.473313451,0.22240594,-0.076452613,1,0.434223026,0.50175792,0.42397213,-0.616390288,-0.986754358,0.109838963,-0.119378708,0,0,0,-1,10239.243,3,1,1562003750,1562003627,13,2.371436,0,0,12.09702,0,0,1562003758,10244.97456,0,-0.4360352,75.30412,3232235528,182473588,1,1,0.31,-14.73013,-30.72186,0
1562003759,167,0,0,1562003752,4.634792986,-74.15098759,2563.801,-1,-1,10,65,-9999,1562003759,-8.853471756,26.58060074,8.254577637,12.02552795,19.51949692,15,10247.66928,-2.248855591,0.54914856,-0.502639771,10247.66928,-0.041626539,-1.281382622,1.816264944,10247.66751,-8.708465576,37.18434143,-531.760376,10247.66421,-1.305330595,-1.456508766,-0.16028704,-0.144036114,-1.017385125,2.025456667,-0.968782306,0.29895556,-0.269380867,1,0.450375468,0.490788519,0.409468055,-0.623397648,-0.98074156,0.159601569,-0.112577133,0,0,0,-1,10239.243,3,1,1562003750,1562003627,13,2.371436,0,0,12.09702,0,0,1562003758,10244.97456,0,-0.4360352,75.30412,3232235528,182473588,1,1,0.31,-14.73013,-31.40136,0
1562003759,168,0,0,1562003759,4.634780674,-74.15098181,2563.985,-1,-1,10,65,-9999,1562003759,-7.751567841,26.64851761,8.640014648,11.9414711,19.43544006,15,10247.68954,-2.548156738,0.619827271,-0.588378906,10247.66928,-0.041626539,-1.281382622,1.816264944,10247.68759,-7.355316162,37.55685425,-531.1700439,10247.68447,-1.301594102,-1.484174443,-0.191579062,0.129917681,-1.536459923,1.010991931,-1.486102581,0.384145141,-0.477111399,1,0.46363917,0.492517322,0.393052667,-0.622876406,-0.978024065,0.190409303,-0.084930815,0,0,0,-1,10239.243,3,1,1562003750,1562003627,13,2.371436,0,0,12.09702,0,0,1562003758,10244.97456,0,-0.4360352,75.30412,3232235528,182473588,1,1,0.31,-14.73013,-31.40136,0
1562003759,169,0,0,1562003759,4.634780674,-74.15098181,2563.985,-1,-1,10,65,-9999,1562003759,-6.446053982,27.01455307,9.075378418,11.72677612,19.22074509,15,10247.70977,-2.484451294,0.614700317,-0.589385986,10247.68954,0.121329625,-1.403018776,0.724489805,10247.7077,-7.253601074,37.79360962,-531.1488037,10247.70474,-1.299886511,-1.50752202,-0.201546474,-0.120341159,-0.656586707,0.080094412,-1.566468358,0.443919241,-0.526548862,1,0.470445454,0.497699708,0.384168506,-0.619185328,-0.977797389,0.200184733,-0.061952151,0,0,0,-1,10239.243,3,1,1562003750,1562003627,13,2.371436,0,0,12.09702,0,0,1562003758,10244.97456,0,-0.4360352,75.30412,3232235528,182473588,1,1,0.31,-14.73013,-31.44457,0
1562003759,170,0,0,1562003759,4.634780674,-74.15098181,2563.985,-1,-1,10,65,-9999,1562003759,-6.297220707,26.9954567,9.226318359,12.14709663,19.6410656,15,10247.73004,-2.116409302,0.587219238,-0.49230957,10247.70977,-0.217489714,-0.314618927,-0.074772775,10247.72778,-7.498199463,37.47554016,-531.0822144,10247.72497,-1.306068601,-1.50826466,-0.197528705,-0.395163149,0.680143595,-0.481001139,-1.34995997,0.397518575,-0.496799231,1,0.471051008,0.497466654,0.387080908,-0.617094934,-0.978637993,0.196246698,-0.061275754,0,0,0,-1,10239.243,3,1,1562003750,1562003627,13,2.371436,0,0,12.09702,0,0,1562003758,10244.97456,0,-0.4360352,75.30412,3232235528,182473588,1,1,0.31,-14.73013,-31.87386,0
1562003759,171,0,0,1562003759,4.634780674,-74.15098181,2563.985,-1,-1,10,65,-9999,1562003759,-6.297220707,26.9954567,9.226318359,12.14709663,19.6410656,15,10247.7503,-1.678985596,0.505584717,-0.352111816,10247.7503,0.012569321,1.340278962,-0.745262195,10247.74789,-7.990402222,37.37802124,-531.5274658,10247.74523,-1.313398885,-1.487586821,-0.184981576,-0.128384709,1.33873105,-0.741533101,-0.916121662,0.376954138,-0.343322754,1,0.465428352,0.492471993,0.397826135,-0.61853224,-0.979538739,0.18392843,-0.081695572,0,0,0,-1,10239.243,3,1,1562003750,1562003627,13,2.371436,0,0,12.09702,0,0,1562003758,10244.97456,0,-0.4360352,75.30412,3232235528,182473588,1,1,0.31,-14.73013,-32.19708,0
1562003759,172,0,0,1562003759,4.634780674,-74.15098181,2563.985,-1,-1,10,65,-9999,1562003759,-6.751660824,26.87310028,8.973632813,12.55752563,20.0514946,15,10247.77056,-1.326004028,0.411178589,-0.21673584,10247.77056,0.625555235,0.817820818,-0.644428258,10247.76797,-8.739242554,37.23965454,-531.6626587,10247.7655,-1.311417465,-1.462364222,-0.169896862,0.478376865,0.99329114,-0.685507119,-0.505049467,0.2823506,-0.171887517,1,0.455733508,0.488851875,0.407324463,-0.622428834,-0.979813814,0.169080704,-0.106661625,0,0,0,-1,10239.243,3,1,1562003750,1562003627,13,2.371436,0,0,12.09702,0,0,1562003758,10244.97456,0,-0.4360352,75.30412,3232235528,182473588,1,1,0.31,-14.73013,-32.70493,0
