loggingTime,loggingSample,identifierForVendor,deviceID,locationTimestamp_since1970,locationLatitude,locationLongitude,locationAltitude,locationSpeed,locationCourse,locationVerticalAccuracy,locationHorizontalAccuracy,locationFloor,locationHeadingTimestamp_since1970,locationHeadingX,locationHeadingY,locationHeadingZ,locationTrueHeading,locationMagneticHeading,locationHeadingAccuracy,accelerometerTimestamp_sinceReboot,accelerometerAccelerationX,accelerometerAccelerationY,accelerometerAccelerationZ,gyroTimestamp_sinceReboot,gyroRotationX,gyroRotationY,gyroRotationZ,magnetometerTimestamp_sinceReboot,magnetometerX,magnetometerY,magnetometerZ,motionTimestamp_sinceReboot,motionYaw,motionRoll,motionPitch,motionRotationRateX,motionRotationRateY,motionRotationRateZ,motionUserAccelerationX,motionUserAccelerationY,motionUserAccelerationZ,motionAttitudeReferenceFrame,motionQuaternionX,motionQuaternionY,motionQuaternionZ,motionQuaternionW,motionGravityX,motionGravityY,motionGravityZ,motionMagneticFieldX,motionMagneticFieldY,motionMagneticFieldZ,motionMagneticFieldCalibrationAccuracy,activityTimestamp_sinceReboot,activity,activityActivityConfidence,activityActivityStartDate,pedometerStartDate,pedometerNumberofSteps,pedometerAverageActivePace,pedometerCurrentPace,pedometerCurrentCadence,pedometerDistance,pedometerFloorAscended,pedometerFloorDescended,pedometerEndDate,altimeterTimestamp_sinceReboot,altimeterReset,altimeterRelativeAltitude,altimeterPressure,IP_en0,IP_pdp_ip0,deviceOrientation,batteryState,batteryLevel,avAudioRecorderPeakPower,avAudioRecorderAveragePower,label
1562003819.064805,1,0,0,1562003814.28196,4.634790702957257,-74.15101065109592,2564.098,-1,-1,10,65,-9999,1562003819.045623,-17.75938034057617,18.21850967407227,12.8951416015625,42.36357879638672,49.85754776000977,15,10308.165485375,-0.8525390625,0.08074951171875,-0.51458740234375,10308.165485375,0.05651733833755258,-0.04076340890918885,-0.01337546025881397,10308.149555375,-18.6927490234375,28.81358337402344,-527.5457763671875,10308.160450375,-1.795058099655369,-1.043475376103766,-0.08130571745237306,0.04219774529337883,-0.0379498079419136,-0.01049765106290579,0.004400491714477539,-0.008508026599884033,-0.01421993970870972,1,0.4112818837165833,0.2829636037349701,0.6645849943161011,-0.5559725761413574,-0.8613035678863525,0.08121616393327713,-0.5015576481819153,0,0,0,-1,10306.335828875,3,2,1562003817.209821,1562003626.666006,17,1.949214,0,0,16.02699,0,0,1562003776.051151,10305.398192,0,-0.4624023,75.30437,3232235528,182473588,1,1,0.31,-24.95901,-31.26437,3
1562003819.069545,2,0,0,1562003814.28196,4.634790702957257,-74.15101065109592,2564.098,-1,-1,10,65,-9999,1562003819.06769,-17.55219841003418,18.18581771850586,12.906005859375,42.30624008178711,49.80020904541016,15,10308.185749375,-0.8541717529296875,0.0965423583984375,-0.5041351318359375,10308.185749375,0.09033389154326975,-0.09297361681575629,-0.01094718997687972,10308.169636375,-18.42584228515625,28.73681640625,-527.5675048828125,10308.180714375,-1.794074299919696,-1.044670157410485,-0.08030673345052072,0.08386929333209991,-0.09006094932556152,-0.01386708207428455,0.01005852222442627,0.01182055473327637,-0.009990334510803223,1,0.4112773835659027,0.2838424742221832,0.6642347574234009,-0.5559465885162354,-0.8619719743728638,0.08022044599056244,-0.5005687475204468,0,0,0,-1,10306.335828875,3,2,1562003817.209821,1562003626.666006,17,1.949214,0,0,16.02699,0,0,1562003776.051151,10305.398192,0,-0.4624023,75.30437,3232235528,182473588,1,1,0.31,-24.95901,-31.26437,3
1562003819.090308,3,0,0,1562003814.28196,4.634790702957257,-74.15101065109592,2564.098,-1,-1,10,65,-9999,1562003819.088084,-17.71367645263672,18.07035446166992,13.00262451171875,42.20793914794922,49.70190811157227,15,10308.206013375,-0.8599853515625,0.0954132080078125,-0.4815521240234375,10308.206013375,0.08557295846253508,-0.07578557514038488,-0.01757979267172206,10308.189747375,-18.65196228027344,28.64002990722656,-527.454833984375,10308.200947375,-1.792701002251154,-1.046481757479337,-0.07906838120035081,0.08708798885345459,-0.08406297862529755,-0.02073324471712112,0.005769729614257812,0.01828876137733459,0.005281329154968262,1,0.411358505487442,0.2850549519062042,0.6636899709701538,-0.5559168457984924,-0.8629627227783203,0.07898601889610291,-0.4990557134151459,0,0,0,-1,10306.335828875,3,2,1562003817.209821,1562003626.666006,17,1.949214,0,0,16.02699,0,0,1562003776.051151,10305.398192,0,-0.4624023,75.30437,3232235528,182473588,1,1,0.31,-24.95901,-29.25498,3
1562003819.114516,4,0,0,1562003814.28196,4.634790702957257,-74.15101065109592,2564.098,-1,-1,10,65,-9999,1562003819.112503,-17.69474220275879,17.98277282714844,12.7821044921875,42.12496948242188,49.61893844604492,15,10308.226276375,-0.8605499267578125,0.0863800048828125,-0.4634246826171875,10308.226276375,0.05744092260359206,-0.03860784632287872,0.0004548679141855339,10308.209827375,-18.60957336425781,28.51628112792969,-527.7116088867188,10308.221211375,-1.791465983721131,-1.047902352029978,-0.07789538083897884,0.06860165297985077,-0.06023913621902466,-0.008253937587141991,0.004756927490234375,0.01031813025474548,0.0255851149559021,1,0.4113453924655914,0.2861073017120361,0.6632530689239502,-0.5559071898460388,-0.8637503981590271,0.07781662791967392,-0.4978751540184021,0,0,0,-1,10306.335828875,3,2,1562003817.209821,1562003626.666006,17,1.949214,0,0,16.02699,0,0,1562003776.051151,10305.398192,0,-0.4624023,75.30437,3232235528,182473588,1,1,0.31,-24.95901,-29.90931,3
1562003819.130478,5,0,0,1562003814.28196,4.634790702957257,-74.15101065109592,2564.098,-1,-1,10,65,-9999,1562003819.112503,-17.69474220275879,17.98277282714844,12.7821044921875,42.12496948242188,49.61893844604492,15,10308.246540375,-0.871795654296875,0.07550048828125,-0.4621429443359375,10308.246540375,-0.0178767351332659,0.02918078869621623,0.01400662943716274,10308.229939375,-18.80766296386719,28.50099182128906,-527.7489013671875,10308.241474375,-1.790782416074841,-1.048354323448377,-0.07757557847701678,-0.001626169541850686,0.009419303387403488,0.01216505095362663,-0.003221094608306885,0.005281150341033936,0.03837543725967407,1,0.4113133251667023,0.2864834666252136,0.6630243062973022,-0.5560101866722107,-0.8639969229698181,0.07749779522418976,-0.4974971413612366,0,0,0,-1,10306.335828875,3,2,1562003817.209821,1562003626.666006,17,1.949214,0,0,16.02699,0,0,1562003776.051151,10305.398192,0,-0.4624023,75.30437,3232235528,182473588,1,1,0.31,-24.95901,-29.90931,3
1562003819.150684,6,0,0,1562003814.28196,4.634790702957257,-74.15101065109592,2564.098,-1,-1,10,65,-9999,1562003819.138736,-17.50906181335449,18.09680938720703,13.02508544921875,42.11644744873047,49.61041641235352,15,10308.266804375,-0.8666534423828125,0.07550048828125,-0.472137451171875,10308.266804375,-0.05191885808331276,0.07365797574552058,-0.002131327820390414,10308.250019375,-18.38591003417969,28.70907592773438,-527.41162109375,10308.261738375,-1.791237124464445,-1.047591469112092,-0.07804445643853801,-0.04927358031272888,0.06123563274741173,-0.00023302948102355,-0.008515298366546631,-0.004234790802001953,0.03173774480819702,1,0.4112487137317657,0.2860167026519775,0.6632281541824341,-0.5560551285743713,-0.8635855317115784,0.07796525210142136,-0.498137891292572,0,0,0,-1,10306.335828875,3,2,1562003817.209821,1562003626.666006,17,1.949214,0,0,16.02699,0,0,1562003776.051151,10305.398192,0,-0.4624023,75.30437,3232235528,182473588,1,1,0.31,-24.95901,-30.30198,3
1562003819.171042,7,0,0,1562003814.28196,4.634790702957257,-74.15101065109592,2564.098,-1,-1,10,65,-9999,1562003819.163501,-17.58112716674805,18.08856201171875,12.953125,42.1836051940918,49.67757415771484,15,10308.287067375,-0.8569183349609375,0.08050537109375,-0.4899749755859375,10308.287067375,-0.03779984324814867,0.09004387330056011,0.0007949535853886526,10308.270130375,-18.57026672363281,28.65997314453125,-527.473388671875,10308.282002375,-1.792289887286606,-1.046202492425139,-0.07845557723509589,-0.05075323209166527,0.08258645236492157,-0.01157063897699118,0.001994609832763672,0.0006959140300750732,0.01546460390090942,1,0.4110463261604309,0.2852727174758911,0.6637367606163025,-0.5559800267219543,-0.8628649711608887,0.07837511599063873,-0.499320775270462,0,0,0,-1,10306.335828875,3,2,1562003817.209821,1562003626.666006,17,1.949214,0,0,16.02699,0,0,1562003776.051151,10305.398192,0,-0.4624023,75.30437,3232235528,182473588,1,1,0.31,-20.98039,-24.83673,3
1562003819.199049,8,0,0,1562003814.28196,4.634790702957257,-74.15101065109592,2564.098,-1,-1,10,65,-9999,1562003819.189395,-17.52693939208984,18.1184196472168,12.99365234375,42.21822357177734,49.71219253540039,15,10308.307331375,-0.85174560546875,0.0771026611328125,-0.49652099609375,10308.307331375,-0.002363555467445324,0.04752357702024599,0.03430364536909265,10308.290211375,-18.39755249023438,28.71957397460938,-527.4671630859375,10308.302265375,-1.792747668366584,-1.044732197464211,-0.07889407694827637,-0.0113704102113843,0.05603554099798203,0.02210023999214172,0.008676111698150635,-0.002792984247207642,0.01044410467147827,1,0.410738617181778,0.2846189737319946,0.6640920042991638,-0.5561184287071228,-0.8621001839637756,0.07881225645542145,-0.5005716681480408,0,0,0,-1,10306.335828875,3,2,1562003817.209821,1562003626.666006,17,1.949214,0,0,16.02699,0,0,1562003776.051151,10305.398192,0,-0.4624023,75.30437,3232235528,182473588,1,1,0.31,-20.98039,-25.39763,3
1562003819.211497,9,0,0,1562003814.28196,4.634790702957257,-74.15101065109592,2564.098,-1,-1,10,65,-9999,1562003819.189395,-17.52693939208984,18.1184196472168,12.99365234375,42.21822357177734,49.71219253540039,15,10308.327595375,-0.8555145263671875,0.067840576171875,-0.504852294921875,10308.327595375,0.01023346280473848,0.006445382470209773,0.05204802139618161,10308.310322375,-18.59111022949219,28.40167236328125,-527.705322265625,10308.322529375,-1.792390774395725,-1.044193871221299,-0.079564801065068,0.007227776106446981,0.005289273802191019,0.04701704159379005,0.01154971122741699,-0.006559133529663086,-0.001478195190429688,1,0.4106853306293488,0.2843115627765656,0.6639899015426636,-0.5564368367195129,-0.8617846965789795,0.07948087900876999,-0.5010089874267578,0,0,0,-1,10306.335828875,3,2,1562003817.209821,1562003626.666006,17,1.949214,0,0,16.02699,0,0,1562003776.051151,10305.398192,0,-0.4624023,75.30437,3232235528,182473588,1,1,0.31,-20.98039,-26.01323,3
1562003819.231817,10,0,0,1562003814.28196,4.634790702957257,-74.15101065109592,2564.098,-1,-1,10,65,-9999,1562003819.21385,-17.66254234313965,17.9825325012207,12.82220458984375,42.18465423583984,49.67862319946289,15,10308.347828375,-0.85888671875,0.0700836181640625,-0.5022125244140625,10308.347828375,0.03773938949140387,-0.02897359476340806,0.06056907161999914,10308.330402375,-18.42369079589844,28.86062622070312,-527.65087890625,10308.342793375,-1.791627915504417,-1.044416154281574,-0.08030952185328924,0.02740228548645973,-0.02862288616597652,0.05630294978618622,0.0005775094032287598,-0.01146712899208069,-0.002523601055145264,1,0.4108463525772095,0.2842736542224884,0.6636059284210205,-0.5567952394485474,-0.8618445992469788,0.08022322505712509,-0.5007875561714172,0,0,0,-1,10306.335828875,3,2,1562003817.209821,1562003626.666006,17,1.949214,0,0,16.02699,0,0,1562003776.051151,10305.398192,0,-0.4624023,75.30437,3232235528,182473588,1,1,0.31,-20.98039,-26.8519,3
1562003819.252091,11,0,0,1562003814.28196,4.634790702957257,-74.15101065109592,2564.098,-1,-1,10,65,-9999,1562003819.240085,-17.67337799072266,18.20845413208008,12.919189453125,42.10968780517578,49.60365676879883,15,10308.368092375,-0.86138916015625,0.077484130859375,-0.498779296875,10308.368092375,0.07882264404751124,-0.04086327745006682,0.04892759554693576,10308.350513375,-18.60556030273438,28.72735595703125,-527.534912109375,10308.363026375,-1.790263388871672,-1.045105534900393,-0.08079787228776852,0.0678197517991066,-0.04351022467017174,0.04758376255631447,0.0009953975677490234,-0.007330477237701416,-0.001611709594726562,1,0.4110092520713806,0.2845779359340668,0.663001537322998,-0.5572395324707031,-0.8621556758880615,0.08070998638868332,-0.5001735687255859,0,0,0,-1,10306.335828875,3,2,1562003817.209821,1562003626.666006,17,1.949214,0,0,16.02699,0,0,1562003776.051151,10305.398192,0,-0.4624023,75.30437,3232235528,182473588,1,1,0.31,-20.98039,-27.74739,3
1562003819.286926,12,0,0,1562003814.28196,4.634790702957257,-74.15101065109592,2564.098,-1,-1,10,65,-9999,1562003819.264985,-17.73681449890137,18.13668441772461,12.75384521484375,41.98320388793945,49.4771728515625,15,10308.388355375,-0.8522796630859375,0.0811920166015625,-0.4896697998046875,10308.388355375,0.07569369608277715,-0.04221909276102617,0.04747217801120746,10308.370594375,-18.70510864257812,28.59797668457031,-527.7600708007812,10308.383289375,-1.788364153098041,-1.045910543769851,-0.08076750010092039,0.08408447355031967,-0.05080488696694374,0.04618613421916962,0.006877720355987549,-0.001578152179718018,0.005599319934844971,1,0.4109975099563599,0.2852030396461487,0.6623117923736572,-0.5577483773231506,-0.8625600337982178,0.08067971467971802,-0.4994805455207825,0,0,0,-1,10306.335828875,3,2,1562003817.209821,1562003626.666006,17,1.949214,0,0,16.02699,0,0,1562003776.051151,10305.398192,0,-0.4624023,75.30437,3232235528,182473588,1,1,0.31,-20.98039,-28.5273,3
1562003819.292494,13,0,0,1562003814.28196,4.634790702957257,-74.15101065109592,2564.098,-1,-1,10,65,-9999,1562003819.29091,-17.52855491638184,18.33069229125977,12.84246826171875,41.87762069702148,49.37158966064453,15,10308.408619375,-0.8510894775390625,0.0858154296875,-0.4850311279296875,10308.408619375,0.01199274702084483,-0.01412061273181814,0.05034413093074891,10308.390705375,-18.37765502929688,28.86573791503906,-527.592041015625,10308.403553375,-1.786935762345288,-1.046628296219902,-0.08099110215602547,0.02209274098277092,-0.02768944762647152,0.04718668386340141,0.01341551542282104,0.003905743360519409,0.01182234287261963,1,0.4110900461673737,0.2856200337409973,0.6617278456687927,-0.5581600069999695,-0.862902820110321,0.0809025838971138,-0.4988523423671722,0,0,0,-1,10306.335828875,3,2,1562003817.209821,1562003626.666006,17,1.949214,0,0,16.02699,0,0,1562003776.051151,10305.398192,0,-0.4624023,75.30437,3232235528,182473588,1,1,0.31,-20.98039,-28.5273,3
1562003819.312764,14,0,0,1562003814.28196,4.634790702957257,-74.15101065109592,2564.098,-1,-1,10,65,-9999,1562003819.29091,-17.52855491638184,18.33069229125977,12.84246826171875,41.87762069702148,49.37158966064453,15,10308.428883375,-0.84735107421875,0.084320068359375,-0.4755859375,10308.428883375,-0.01706260678802867,-0.01017087851912162,0.05123176252207232,10308.410786375,-18.61460876464844,28.98291015625,-527.5282592773438,10308.423817375,-1.78640711659785,-1.046939185776968,-0.08175094814189089,-0.01183300092816353,-0.01608632318675518,0.04842505231499672,0.01411211490631104,0.002095580101013184,0.01913726329803467,1,0.4113174974918365,0.2855544686317444,0.6613869667053223,-0.5584298372268677,-0.8630043268203735,0.08165992051362991,-0.4985531270503998,0,0,0,-1,10306.335828875,3,2,1562003817.209821,1562003626.666006,17,1.949214,0,0,16.02699,0,0,1562003776.051151,10305.398192,0,-0.4624023,75.30437,3232235528,182473588,1,1,0.31,-20.98039,-29.07736,3
1562003819.333142,15,0,0,1562003814.28196,4.634790702957257,-74.15101065109592,2564.098,-1,-1,10,65,-9999,1562003819.315124,-17.62229156494141,18.38044738769531,12.89056396484375,41.84685516357422,49.34082412719727,15,10308.449146375,-0.864471435546875,0.08837890625,-0.4870758056640625,10308.449146375,-0.04738216316636278,-0.0003398193550941108,0.03339337690850357,10308.430897375,-18.71369934082031,29.02456665039062,-527.869873046875,10308.444080375,-1.786426624474248,-1.047234882193764,-0.08284826154239421,-0.04351263120770454,-0.01380106434226036,0.04039615765213966,0.01041251420974731,0.004511475563049316,0.01752471923828125,1,0.4117068648338318,0.2852560877799988,0.6611445546150208,-0.5585825443267822,-0.8630736470222473,0.08275351673364639,-0.4982528388500214,0,0,0,-1,10306.335828875,3,2,1562003817.209821,1562003626.666006,17,1.949214,0,0,16.02699,0,0,1562003776.051151,10305.398192,0,-0.4624023,75.30437,3232235528,182473588,1,1,0.31,-20.98039,-29.62922,3
1562003819.365958,16,0,0,1562003814.28196,4.634790702957257,-74.15101065109592,2564.098,-1,-1,10,65,-9999,1562003819.341315,-17.51675033569336,18.41043853759766,12.7659912109375,41.86921691894531,49.36318588256836,15,10308.469410375,-0.8751068115234375,0.0818939208984375,-0.4887847900390625,10308.469410375,-0.04152187718764342,0.02261449871251686,0.004576908649410179,10308.450977375,-18.43386840820312,28.97201538085938,-527.68994140625,10308.464344375,-1.787047552720678,-1.047167880830842,-0.08366181820393884,-0.04702436923980713,0.02041953057050705,0.002950751921162009,-0.009317517280578613,0.003395587205886841,0.009553074836730957,1,0.4119872450828552,0.2848299443721771,0.6611929535865784,-0.5585359334945679,-0.8629816174507141,0.08356425911188126,-0.4982768297195435,0,0,0,-1,10306.335828875,3,2,1562003817.209821,1562003626.666006,17,1.949214,0,0,16.02699,0,0,1562003776.051151,10305.398192,0,-0.4624023,75.30437,3232235528,182473588,1,1,0.31,-20.98039,-30.61253,3
1562003819.373936,17,0,0,1562003814.28196,4.634790702957257,-74.15101065109592,2564.098,-1,-1,10,65,-9999,1562003819.366054,-17.73923301696777,18.4632682800293,12.6419677734375,41.92021942138672,49.41418838500977,15,10308.489674375,-0.867218017578125,0.0777130126953125,-0.493133544921875,10308.489674375,-0.02667608569099671,-0.02011458939725948,0.01090271518667539,10308.471088375,-18.68894958496094,29.01318359375,-527.8671875,10308.484608375,-1.78775138048322,-1.047129860905096,-0.08412249722961282,-0.03356768563389778,-0.01658402755856514,0.005783822387456894,-0.009659945964813232,-0.003777354955673218,0.008376359939575195,1,0.412196010351181,0.284515917301178,0.6613186597824097,-0.5583929419517517,-0.8629291653633118,0.08402331918478012,-0.4982902705669403,0,0,0,-1,10306.335828875,3,2,1562003817.209821,1562003626.666006,17,1.949214,0,0,16.02699,0,0,1562003776.051151,10305.398192,0,-0.4624023,75.30437,3232235528,182473588,1,1,0.31,-20.98039,-30.61253,3
1562003819.393883,18,0,0,1562003814.28196,4.634790702957257,-74.15101065109592,2564.098,-1,-1,10,65,-9999,1562003819.391932,-17.51103973388672,18.35197830200195,12.888427734375,41.94348907470703,49.43745803833008,15,10308.509907375,-0.85833740234375,0.0776824951171875,-0.489990234375,10308.509907375,-0.009345564897306063,-0.03172703701444099,0.002943591952864582,10308.491169375,-18.41038513183594,28.93141174316406,-527.5332641601562,10308.504871375,-1.788075670399558,-1.047761750063631,-0.0844633655937808,-0.01274735853075981,-0.03536037728190422,0.003038636175915599,0.0001056194305419922,-0.008679360151290894,0.005512595176696777,1,0.41254061460495,0.2845082581043243,0.6612207293510437,-0.5582583546638489,-0.8632190227508545,0.08436297625303268,-0.4977305829524994,0,0,0,-1,10306.335828875,3,2,1562003817.209821,1562003626.666006,17,1.949214,0,0,16.02699,0,0,1562003776.051151,10305.398192,0,-0.4624023,75.30437,3232235528,182473588,1,1,0.31,-20.98039,-31.31636,3
1562003819.414144,19,0,0,1562003814.28196,4.634790702957257,-74.15101065109592,2564.098,-1,-1,10,65,-9999,1562003819.391932,-17.51103973388672,18.35197830200195,12.888427734375,41.94348907470703,49.43745803833008,15,10308.530170375,-0.84783935546875,0.087799072265625,-0.4877471923828125,10308.530170375,-0.03562723643086203,-0.03212118485577271,-0.01182629945271487,10308.511280375,-18.41868591308594,29.06573486328125,-527.354248046875,10308.525135375,-1.788379516317015,-1.048587476468865,-0.08457311061076185,-0.02647275850176811,-0.04008376225829124,-0.01016957685351372,0.009160101413726807,-0.002639442682266235,0.00845712423324585,1,0.4128856062889099,0.2846382856369019,0.6611164212226868,-0.5580606460571289,-0.8636217713356018,0.08447232842445374,-0.4970130324363708,0,0,0,-1,10306.335828875,3,2,1562003817.209821,1562003626.666006,17,1.949214,0,0,16.02699,0,0,1562003776.051151,10305.398192,0,-0.4624023,75.30437,3232235528,182473588,1,1,0.31,-20.98039,-31.69427,3
1562003819.448523,20,0,0,1562003814.28196,4.634790702957257,-74.15101065109592,2564.098,-1,-1,10,65,-9999,1562003819.442705,-17.31314849853516,18.28065872192383,12.86322021484375,42.06753540039062,49.56150436401367,15,10308.55043375,-0.8426513671875,0.090179443359375,-0.48455810546875,10308.55043375,-0.0728182810538186,-0.003885818346534617,-0.01888048054811676,10308.531361375,-18.53533935546875,29.10624694824219,-527.72314453125,10308.54536775,-1.789391824903605,-1.049316947978755,-0.08472868438182622,-0.06549632549285889,-0.01726473122835159,-0.02120145596563816,0.01978009939193726,0.006650716066360474,0.009681999683380127,1,0.4133116602897644,0.2845791578292847,0.6612215042114258,-0.5576506853103638,-0.8639726638793945,0.08462734520435333,-0.4963763356208801,0,0,0,-1,10306.335828875,3,2,1562003817.209821,1562003626.666006,17,1.949214,0,0,16.02699,0,0,1562003776.051151,10305.398192,0,-0.4624023,75.30437,3232235528,182473588,1,1,0.31,-20.98039,-31.96531,3
1562003819.454669,21,0,0,1562003814.28196,4.634790702957257,-74.15101065109592,2564.098,-1,-1,10,65,-9999,1562003819.442705,-17.31314849853516,18.28065872192383,12.86322021484375,42.06753540039062,49.56150436401367,15,10308.57069775,-0.84722900390625,0.0815277099609375,-0.4827423095703125,10308.57069775,-0.09586980450121746,0.006268282257719503,0.006862433496916181,10308.55147175,-18.19537353515625,28.77903747558594,-527.6026611328125,10308.56563175,-1.7910210839262,-1.049607433271465,-0.08527225486030518,-0.09602013975381851,-0.0003917403519153595,-0.006411324255168438,0.02151703834533691,0.003209978342056274,0.01313126087188721,1,0.4137817919254303,0.2841362655162811,0.6615226864814758,-0.5571706295013428,-0.8640768527984619,0.08516895025968552,-0.4961024224758148,0,0,0,-1,10306.335828875,3,2,1562003817.209821,1562003626.666006,17,1.949214,0,0,16.02699,0,0,1562003776.051151,10305.398192,0,-0.4624023,75.30437,3232235528,182473588,1,1,0.31,-20.98039,-31.96531,3
1562003819.474882,22,0,0,1562003814.28196,4.634790702957257,-74.15101065109592,2564.098,-1,-1,10,65,-9999,1562003819.469519,-17.39140701293945,18.24853515625,12.97479248046875,42.18731689453125,49.6812858581543,15,10308.59096075,-0.8602752685546875,0.0675201416015625,-0.488006591796875,10308.59096075,-0.09053655810222477,0.02393782345817723,0.01898247961786679,10308.57158275,-18.37913513183594,28.72726440429688,-527.4529418945312,10308.58589575,-1.792667107429028,-1.049613414487356,-0.0864027029410703,-0.09571760892868042,0.01691827550530434,0.01854409277439117,0.008740544319152832,-0.01348030567169189,0.01141452789306641,1,0.4143131971359253,0.283407986164093,0.661786675453186,-0.5568329691886902,-0.8639957308769226,0.0862952396273613,-0.4960489869117737,0,0,0,-1,10306.335828875,3,2,1562003817.209821,1562003626.666006,17,1.949214,0,0,16.02699,0,0,1562003776.051151,10305.398192,0,-0.4624023,75.30437,3232235528,182473588,1,1,0.31,-20.98039,-32.46142,3
1562003819.495226,23,0,0,1562003814.28196,4.634790702957257,-74.15101065109592,2564.098,-1,-1,10,65,-9999,1562003819.493162,-17.3599796295166,18.19155120849609,13.15521240234375,42.28081893920898,49.77478790283203,15,10308.61122475,-0.8708648681640625,0.0609283447265625,-0.4958038330078125,10308.61122475,-0.05859806609723149,0.01073653393465445,0.03222904287992093,10308.59166275,-18.25750732421875,28.73208618164062,-527.2390747070312,10308.60615875,-1.793972568021579,-1.049395901864711,-0.08758246844876637,-0.06919199228286743,0.01004465576261282,0.02518947795033455,-0.002824008464813232,-0.02376511693000793,0.002548754215240479,1,0.4147343039512634,0.2826703786849976,0.6619935035705566,-0.5566484928131104,-0.8637989163398743,0.08747053891420364,-0.496185839176178,0,0,0,-1,10308.60469375,3,2,1562003819.478686,1562003626.666006,17,1.949214,0,0,16.02699,0,0,1562003776.051151,10305.398192,0,-0.4624023,75.30437,3232235528,182473588,1,1,0.31,-20.98039,-32.80363,3
1562003819.522868,24,0,0,1562003814.28196,4.634790702957257,-74.15101065109592,2564.098,-1,-1,10,65,-9999,1562003819.517713,-17.37897682189941,18.36973190307617,12.9066162109375,42.29994201660156,49.79391098022461,15,10308.63148875,-0.8625335693359375,0.0677947998046875,-0.49359130859375,10308.63148875,-0.0002625876834818129,-0.02167200600273782,0.03500831779352762,10308.61177375,-18.26570129394531,28.68414306640625,-527.5420532226562,10308.62642275,-1.794481245941482,-1.049544624878365,-0.0885473762781816,-0.01731893979012966,-0.0232243537902832,0.0294761024415493,-0.004700660705566406,-0.0247262716293335,0.0009436607360839844,1,0.4151073098182678,0.2822735905647278,0.6619392037391663,-0.5566363334655762,-0.8637990951538086,0.0884317085146904,-0.4960150718688965,0,0,0,-1,10308.60469375,3,2,1562003819.478686,1562003626.666006,17,1.949214,0,0,16.02699,0,0,1562003776.051151,10305.398192,0,-0.4624023,75.30437,3232235528,182473588,1,1,0.31,-20.98039,-31.91156,3
1562003819.535637,25,0,0,1562003814.28196,4.634790702957257,-74.15101065109592,2564.098,-1,-1,10,65,-9999,1562003819.517713,-17.37897682189941,18.36973190307617,12.9066162109375,42.29994201660156,49.79391098022461,15,10308.65175275,-0.8549652099609375,0.071746826171875,-0.4845428466796875,10308.65175275,0.04474882948049243,-0.03765257043986729,0.05717354123014811,10308.63185475,-18.33006286621094,29.01345825195312,-527.6268310546875,10308.64668675,-1.793913664908694,-1.050126465399322,-0.08908016237470502,0.03580073639750481,-0.03985739126801491,0.04898189380764961,0.007311344146728516,-0.01698669791221619,0.006826221942901611,1,0.4153587222099304,0.2823697328567505,0.6615692377090454,-0.5568399429321289,-0.864046573638916,0.08896239846944809,-0.4954889416694641,0,0,0,-1,10308.60469375,3,2,1562003819.478686,1562003626.666006,17,1.949214,0,0,16.02699,0,0,1562003776.051151,10305.398192,0,-0.4624023,75.30437,3232235528,182473588,1,1,0.31,-20.98039,-30.1847,3
1562003819.556646,26,0,0,1562003814.28196,4.634790702957257,-74.15101065109592,2564.098,-1,-1,10,65,-9999,1562003819.543884,-17.38620185852051,18.16469573974609,13.1181640625,42.22595596313477,49.71992492675781,15,10308.67198575,-0.8615264892578125,0.068023681640625,-0.484649658203125,10308.67198575,0.0469390131609736,-0.04018843242984074,0.06896735011756401,10308.65196575,-18.29753112792969,28.74748229980469,-527.3451538085938,10308.66694975,-1.792562643290508,-1.050955107402131,-0.0896299585426024,0.04361099004745483,-0.04984424635767937,0.06465938687324524,0.008670926094055176,-0.02192884683609009,0.01138049364089966,1,0.4155853688716888,0.2826917171478271,0.6609265208244324,-0.5572704672813416,-0.8644142746925354,0.0895100012421608,-0.4947483837604523,0,0,0,-1,10308.60469375,3,2,1562003819.478686,1562003626.666006,17,1.949214,0,0,16.02699,0,0,1562003776.051151,10305.398192,0,-0.4624023,75.30437,3232235528,182473588,1,1,0.31,-20.98039,-30.27328,3
1562003819.601766,27,0,0,1562003814.28196,4.634790702957257,-74.15101065109592,2564.098,-1,-1,10,65,-9999,1562003819.594687,-17.11892509460449,18.21577835083008,12.93536376953125,42.03183746337891,49.52580642700195,15,10308.69224875,-0.8647003173828125,0.07568359375,-0.4813995361328125,10308.69224875,0.04618533857248117,-0.01333577915857178,0.06022445857494289,10308.67204675,-18.18452453613281,28.88223266601562,-527.468017578125,10308.68721375,-1.791122495939145,-1.051636022970386,-0.09025562559078883,0.04685099050402641,-0.02612400054931641,0.05819856002926826,0.0008715391159057617,-0.02047675848007202,0.01184725761413574,1,0.415770024061203,0.282965362071991,0.6602760553359985,-0.5577646493911743,-0.8647021055221558,0.09013313800096512,-0.4941317737102509,0,0,0,-1,10308.60469375,3,2,1562003819.478686,1562003626.666006,17,1.949214,0,0,16.02699,0,0,1562003776.051151,10305.398192,0,-0.4624023,75.30437,3232235528,182473588,1,1,0.31,-20.98039,-27.33964,3
1562003819.603802,28,0,0,1562003814.28196,4.634790702957257,-74.15101065109592,2564.098,-1,-1,10,65,-9999,1562003819.594687,-17.11892509460449,18.21577835083008,12.93536376953125,42.03183746337891,49.52580642700195,15,10308.71251275,-0.8649749755859375,0.085723876953125,-0.47894287109375,10308.71251275,0.02676849738082246,0.01331420755374214,0.04674966240746897,10308.71223775,-18.34622192382812,28.94654846191406,-527.4984741210938,10308.70744675,-1.789879294415222,-1.05172658249804,-0.09074070800950736,0.03107868693768978,0.005662423558533192,0.04740343615412712,-0.003607809543609619,-0.008478164672851562,0.01280003786087036,1,0.4157507121562958,0.2830820977687836,0.659826934337616,-0.5582511425018311,-0.8647088408470154,0.09061623364686966,-0.4940317571163177,0,0,0,-1,10308.60469375,3,2,1562003819.478686,1562003626.666006,17,1.949214,0,0,16.02699,0,0,1562003776.051151,10305.398192,0,-0.4624023,75.30437,3232235528,182473588,1,1,0.31,-20.98039,-27.33964,3
1562003819.6166,29,0,0,1562003814.28196,4.634790702957257,-74.15101065109592,2564.098,-1,-1,10,65,-9999,1562003819.594687,-17.11892509460449,18.21577835083008,12.93536376953125,42.03183746337891,49.52580642700195,15,10308.73277675,-0.866424560546875,0.0936431884765625,-0.484619140625,10308.73277675,0.01033919030001463,0.02308934033487799,0.04031573152994653,10308.73231875,-18.16433715820312,28.91328430175781,-527.46142578125,10308.72771075,-1.789103086554638,-1.05144439373947,-0.09124762216804737,0.01026980951428413,0.01488042343407869,0.03953965380787849,-0.0004913806915283203,-0.001109451055526733,0.01262444257736206,1,0.415680319070816,0.2829901874065399,0.6595815420150757,-0.5586399435997009,-0.8645293712615967,0.09112105518579483,-0.4942528605461121,0,0,0,-1,10308.60469375,3,2,1562003819.478686,1562003626.666006,17,1.949214,0,0,16.02699,0,0,1562003776.051151,10305.398192,0,-0.4624023,75.30437,3232235528,182473588,1,1,0.31,-20.98039,-27.33964,3
1562003819.636982,30,0,0,1562003814.28196,4.634790702957257,-74.15101065109592,2564.098,-1,-1,10,65,-9999,1562003819.618902,-17.24988555908203,18.32411956787109,13.00592041015625,41.98082733154297,49.47479629516602,15,10308.75303975,-0.8589324951171875,0.0975799560546875,-0.4789276123046875,10308.75303975,0.01118767342331387,0.01695794455718856,0.01918061880296869,10308.75242975,-18.20872497558594,28.76126098632812,-527.4241943359375,10308.74797375,-1.788618825112648,-1.051070309638899,-0.09169027214003693,0.01047513913363218,0.01479946356266737,0.02286959812045097,0.001592636108398438,0.004141271114349365,0.01181387901306152,1,0.4156042039394379,0.282833993434906,0.6594477295875549,-0.5589336156845093,-0.8643093705177307,0.09156185388565063,-0.4945561587810516,0,0,0,-1,10308.60469375,3,2,1562003819.478686,1562003626.666006,17,1.949214,0,0,16.02699,0,0,1562003776.051151,10306.342588,0,-0.4624023,75.30437,3232235528,182473588,1,1,0.31,-20.98039,-27.9019,3
1562003819.685946,31,0,0,1562003814.28196,4.634790702957257,-74.15101065109592,2564.098,-1,-1,10,65,-9999,1562003819.669605,-17.22894859313965,18.34420394897461,13.04302978515625,41.97111892700195,49.465087890625,15,10308.77330375,-0.864898681640625,0.092041015625,-0.480743408203125,10308.77330375,-0.008966863390296795,-0.01723731015553787,-0.00967819371745696,10308.77251075,-18.17955017089844,28.89805603027344,-527.39892578125,10308.76823775,-1.788411931484855,-1.050977262914855,-0.09176498902247911,-0.002492856932803988,-0.01274081878364086,-0.004151099361479282,0.005614757537841797,0.002861440181732178,0.01723140478134155,1,0.4155638217926025,0.2828252613544464,0.6593963503837585,-0.5590286254882812,-0.8642573952674866,0.09163625538349152,-0.4946331679821014,0,0,0,-1,10308.60469375,3,2,1562003819.478686,1562003626.666006,17,1.949214,0,0,16.02699,0,0,1562003776.051151,10306.342588,0,-0.4624023,75.30437,3232235528,182473588,1,1,0.31,-20.98039,-28.71453,3
1562003819.68906,32,0,0,1562003814.28196,4.634790702957257,-74.15101065109592,2564.098,-1,-1,10,65,-9999,1562003819.669605,-17.22894859313965,18.34420394897461,13.04302978515625,41.97111892700195,49.465087890625,15,10308.79356775,-0.8736114501953125,0.09710693359375,-0.48779296875,10308.79356775,-0.01866396555149332,-0.03831409965464298,-0.04044010115285323,10308.79262175,-18.05810546875,28.96229553222656,-527.574462890625,10308.78850175,-1.788845044074775,-1.051650037093177,-0.0914868832565916,-0.01749657280743122,-0.04195143654942513,-0.03705605119466782,-0.006084918975830078,0.004404842853546143,0.008148074150085449,1,0.4157741665840149,0.283018946647644,0.6594254970550537,-0.5587397813796997,-0.8646120429039001,0.09135931730270386,-0.4940642416477203,0,0,0,-1,10308.60469375,3,2,1562003819.478686,1562003626.666006,17,1.949214,0,0,16.02699,0,0,1562003776.051151,10306.342588,0,-0.4624023,75.30437,3232235528,182473588,1,1,0.31,-20.98039,-28.71453,3
1562003819.697667,33,0,0,1562003814.28196,4.634790702957257,-74.15101065109592,2564.098,-1,-1,10,65,-9999,1562003819.695734,-17.15298080444336,18.43648910522461,12.92596435546875,42.04058456420898,49.53455352783203,15,10308.81383075,-0.8722991943359375,0.0962371826171875,-0.4884185791015625,10308.81383075,-0.03363039824552062,-0.04042252428965871,-0.06681897806619709,10308.81270175,-18.34327697753906,28.83798217773438,-527.341796875,10308.80876475,-1.78984117549833,-1.052671941988822,-0.09080632564435999,-0.03551392257213593,-0.04616855084896088,-0.06614496558904648,-0.00877678394317627,0.009477108716964722,0.003617644309997559,1,0.416074275970459,0.2833313047885895,0.6596084237098694,-0.5581419467926025,-0.8651703596115112,0.09068158268928528,-0.4932111501693726,0,0,0,-1,10308.60469375,3,2,1562003819.478686,1562003626.666006,17,1.949214,0,0,16.02699,0,0,1562003776.051151,10306.342588,0,-0.4624023,75.30437,3232235528,182473588,1,1,0.31,-20.98039,-28.94775,3
1562003819.718044,34,0,0,1562003814.28196,4.634790702957257,-74.15101065109592,2564.098,-1,-1,10,65,-9999,1562003819.695734,-17.15298080444336,18.43648910522461,12.92596435546875,42.04058456420898,49.53455352783203,15,10308.83406475,-0.867462158203125,0.0824432373046875,-0.479278564453125,10308.83406475,-0.04378183568868466,-0.02115215695795435,-0.05332553977109262,10308.83281275,-18.09605407714844,28.58802795410156,-527.7310180664062,10308.82902875,-1.791136219805146,-1.053709826881281,-0.0899996228697571,-0.038077212870121,-0.03753777965903282,-0.06021756306290627,-0.003517627716064453,-0.002246946096420288,0.008874177932739258,1,0.4163895547389984,0.2836287915706635,0.6598924994468689,-0.5574193596839905,-0.8657450675964355,0.08987817168235779,-0.4923489093780518,0,0,0,-1,10308.60469375,3,2,1562003819.478686,1562003626.666006,17,1.949214,0,0,16.02699,0,0,1562003776.051151,10306.342588,0,-0.4624023,75.30437,3232235528,182473588,1,1,0.31,-20.98039,-29.25866,3
1562003819.767321,35,0,0,1562003814.28196,4.634790702957257,-74.15101065109592,2564.098,-1,-1,10,65,-9999,1562003819.746311,-17.14743423461914,18.12843704223633,12.901123046875,42.25591278076172,49.74988174438477,15,10308.85432775,-0.86663818359375,0.0732269287109375,-0.480987548828125,10308.85432775,-0.07604283650168654,-0.004870921633754926,-0.0411346535651459,10308.85292375,-17.99327087402344,28.71908569335938,-527.5211181640625,10308.84929275,-1.792630414293054,-1.054272297118403,-0.08961288369351728,-0.07193398475646973,-0.01152348704636097,-0.04693318530917168,-0.002371430397033691,-0.01377889513969421,0.01495027542114258,1,0.4166861772537231,0.2836073637008667,0.6602581143379211,-0.5567752718925476,-0.866051971912384,0.08949299156665802,-0.4918789863586426,0,0,0,-1,10308.60469375,3,2,1562003819.478686,1562003626.666006,17,1.949214,0,0,16.02699,0,0,1562003776.051151,10306.342588,0,-0.4624023,75.30437,3232235528,182473588,1,1,0.31,-20.98039,-30.08772,3
1562003819.769991,36,0,0,1562003814.28196,4.634790702957257,-74.15101065109592,2564.098,-1,-1,10,65,-9999,1562003819.746311,-17.14743423461914,18.12843704223633,12.901123046875,42.25591278076172,49.74988174438477,15,10308.87459175,-0.86004638671875,0.07342529296875,-0.4847259521484375,10308.87459175,-0.06916788614764698,-0.02226562460971648,-0.03810823730237985,10308.87300475,-18.14088439941406,28.71501159667969,-527.3969116210938,10308.86952575,-1.794486221572845,-1.054759852526309,-0.08968415292265869,-0.08098126947879791,-0.02433675527572632,-0.04037195444107056,0.002776026725769043,-0.0153452455997467,0.00924527645111084,1,0.4171287715435028,0.2833316326141357,0.6606605648994446,-0.5561065077781677,-0.8662862181663513,0.08956397324800491,-0.4914535582065582,0,0,0,-1,10308.60469375,3,2,1562003819.478686,1562003626.666006,17,1.949214,0,0,16.02699,0,0,1562003776.051151,10306.342588,0,-0.4624023,75.30437,3232235528,182473588,1,1,0.31,-20.98039,-30.08772,3
1562003819.779016,37,0,0,1562003814.28196,4.634790702957257,-74.15101065109592,2564.098,-1,-1,10,65,-9999,1562003819.771055,-17.22270584106445,18.13291168212891,13.06353759765625,42.37075805664062,49.86472702026367,15,10308.89485575,-0.85931396484375,0.0696258544921875,-0.488861083984375,10308.89485575,-0.003155845891743897,-0.06791220569367462,-0.01865144869436994,10308.89311575,-18.26239013671875,28.72203063964844,-527.4298706054688,10308.88978975,-1.79586133294637,-1.05569842999552,-0.08959305549044629,-0.02358242869377136,-0.06486526876688004,-0.02969134785234928,0.00843203067779541,-0.01523920893669128,0.002424061298370361,1,0.4176099598407745,0.283336877822876,0.6608625054359436,-0.5555024147033691,-0.8667541742324829,0.08947324752807617,-0.4906442761421204,0,0,0,-1,10308.60469375,3,2,1562003819.478686,1562003626.666006,17,1.949214,0,0,16.02699,0,0,1562003776.051151,10306.342588,0,-0.4624023,75.30437,3232235528,182473588,1,1,0.31,-20.98039,-30.08772,3
1562003819.799048,38,0,0,1562003814.28196,4.634790702957257,-74.15101065109592,2564.098,-1,-1,10,65,-9999,1562003819.797239,-17.31046295166016,18.16870880126953,13.0867919921875,42.3648567199707,49.85882568359375,15,10308.91511875,-0.864715576171875,0.059234619140625,-0.4798431396484375,10308.91511875,0.05937597545164364,-0.08337025792493055,0.01478773458488299,10308.91319675,-18.17008972167969,28.74722290039062,-527.271728515625,10308.91005275,-1.79574169176792,-1.057295142370961,-0.0892680545442484,0.04786672070622444,-0.08923079818487167,0.006232032552361488,0.005501151084899902,-0.02466589212417603,0.004059731960296631,1,0.4180359542369843,0.2839171886444092,0.6605516076087952,-0.5552554130554199,-0.8675617575645447,0.08914954215288162,-0.4892739355564117,0,0,0,-1,10308.60469375,3,2,1562003819.478686,1562003626.666006,17,1.949214,0,0,16.02699,0,0,1562003776.051151,10306.342588,0,-0.4624023,75.30437,3232235528,182473588,1,1,0.31,-20.98039,-30.37605,3
1562003819.844496,39,0,0,1562003814.28196,4.634790702957257,-74.15101065109592,2564.098,-1,-1,10,65,-9999,1562003819.821563,-17.3775806427002,18.18736267089844,12.9549560546875,42.26514434814453,49.75911331176758,15,10308.93538275,-0.8643341064453125,0.0624237060546875,-0.4770355224609375,10308.93538275,0.07062197210283025,-0.06875829197199279,0.0429799578844618,10308.93330775,-18.41729736328125,28.76997375488281,-527.5512084960938,10308.93031675,-1.794481817406385,-1.058952830164144,-0.08895737414889443,0.06792911142110825,-0.0790569856762886,0.03139171376824379,0.003039181232452393,-0.03128394484519958,0.008631110191345215,1,0.4183233082294464,0.2847477793693542,0.659908652305603,-0.5553780198097229,-0.8683956861495972,0.08884009718894958,-0.4878486096858978,0,0,0,-1,10308.60469375,3,2,1562003819.478686,1562003626.666006,17,1.949214,0,0,16.02699,0,0,1562003776.051151,10306.342588,0,-0.4624023,75.30437,3232235528,182473588,1,1,0.31,-20.98039,-31.06832,3
1562003819.846976,40,0,0,1562003814.28196,4.634790702957257,-74.15101065109592,2564.098,-1,-1,10,65,-9999,1562003819.821563,-17.3775806427002,18.18736267089844,12.9549560546875,42.26514434814453,49.75911331176758,15,10308.95564675,-0.85723876953125,0.07147216796875,-0.465972900390625,10308.95564675,0.07677307527258627,-0.04411526345716258,0.08333190840523341,10308.95338775,-18.15785217285156,28.74081420898438,-527.374267578125,10308.95058075,-1.792705355201674,-1.060194581428028,-0.08908471298262828,0.07562005519866943,-0.05733145773410797,0.06791750341653824,0.007311880588531494,-0.01973780989646912,0.01445913314819336,1,0.4185126721858978,0.2854206264019012,0.6591334342956543,-0.5558105111122131,-0.868990957736969,0.08896692842245102,-0.4867644309997559,0,0,0,-1,10308.60469375,3,2,1562003819.478686,1562003626.666006,17,1.949214,0,0,16.02699,0,0,1562003776.051151,10306.342588,0,-0.4624023,75.30437,3232235528,182473588,1,1,0.31,-20.98039,-31.06832,3
1562003819.859911,41,0,0,1562003814.28196,4.634790702957257,-74.15101065109592,2564.098,-1,-1,10,65,-9999,1562003819.847894,-17.27680969238281,18.16467666625977,13.1107177734375,42.12229156494141,49.61626052856445,15,10308.97590975,-0.8614349365234375,0.0764923095703125,-0.469573974609375,10308.97590975,0.03859133472412023,-0.01820164078625556,0.1143878288249744,10308.97349875,-18.2064208984375,28.77935791015625,-527.01611328125,10308.97084375,-1.790634164334506,-1.0609433112183,-0.0900177062436306,0.04703794419765472,-0.03364503383636475,0.1094526946544647,0.0122571587562561,-0.01486873626708984,0.02219045162200928,1,0.4187065064907074,0.2857418656349182,0.6582393646240234,-0.5565584301948547,-0.8692823052406311,0.08989618718624115,-0.4860728979110718,0,0,0,-1,10308.60469375,3,2,1562003819.478686,1562003626.666006,17,1.949214,0,0,16.02699,0,0,1562003776.051151,10306.342588,0,-0.4624023,75.30437,3232235528,182473588,1,1,0.31,-20.98039,-31.4332,3
1562003819.880138,42,0,0,1562003814.28196,4.634790702957257,-74.15101065109592,2564.098,-1,-1,10,65,-9999,1562003819.872441,-17.29647254943848,18.24332046508789,13.35430908203125,41.9948844909668,49.48885345458984,15,10308.99614275,-0.864288330078125,0.083221435546875,-0.4735565185546875,10308.99614275,0.02975603149167334,-0.002229864780723346,0.08878046967942653,10308.99357975,-17.97821044921875,28.94146728515625,-527.3074951171875,10308.99110775,-1.789035179586786,-1.061177939110928,-0.0915024068025045,0.02227986790239811,-0.01233681663870811,0.08975888043642044,0.003525733947753906,-0.01276147365570068,0.01453554630279541,1,0.4189421236515045,0.2856323719024658,0.6574875712394714,-0.5573254823684692,-0.8692788481712341,0.09137476980686188,-0.4858032763004303,0,0,0,-1,10308.60469375,3,2,1562003819.478686,1562003626.666006,17,1.949214,0,0,16.02699,0,0,1562003776.051151,10306.342588,0,-0.4624023,75.30437,3232235528,182473588,1,1,0.31,-20.98039,-30.63304,3
1562003819.927588,43,0,0,1562003814.28196,4.634790702957257,-74.15101065109592,2564.098,-1,-1,10,65,-9999,1562003819.89851,-17.32796287536621,18.33366394042969,13.11407470703125,41.88748931884766,49.3814582824707,15,10309.01640675,-0.8650970458984375,0.09375,-0.46917724609375,10309.01640675,0.0455443156980991,-0.008211058272932307,0.1037277276136053,10309.01369075,-18.35003662109375,28.81007385253906,-527.2879028320312,10309.01137175,-1.787554047172885,-1.06123120161313,-0.0926594102825801,0.04347410425543785,-0.01178261265158653,0.09356533735990524,0.005884826183319092,-0.003583401441574097,0.01417797803878784,1,0.4190497398376465,0.2855604588985443,0.6568623781204224,-0.5580181479454041,-0.8692118525505066,0.092526875436306,-0.4857050776481628,0,0,0,-1,10308.60469375,3,2,1562003819.478686,1562003626.666006,17,1.949214,0,0,16.02699,0,0,1562003776.051151,10306.342588,0,-0.4624023,75.30437,3232235528,182473588,1,1,0.31,-20.98039,-31.30273,3
1562003819.930067,44,0,0,1562003814.28196,4.634790702957257,-74.15101065109592,2564.098,-1,-1,10,65,-9999,1562003819.922984,-17.0247974395752,18.23385238647461,13.09722900390625,41.75207138061523,49.24604034423828,15,10309.03667075,-0.8614501953125,0.0952606201171875,-0.4701080322265625,10309.03667075,0.04956116157026561,0.004676510874179142,0.1118112204703228,10309.03377175,-17.94361877441406,28.73124694824219,-527.3935546875,10309.03160475,-1.785716337675602,-1.0612971000954,-0.09394219270415877,0.04875515401363373,-0.00557158887386322,0.104595884680748,0.006087183952331543,0.003058731555938721,0.01610708236694336,1,0.4191435575485229,0.285523921251297,0.6561121344566345,-0.55884850025177,-0.869139552116394,0.09380407631397247,-0.4855895340442657,0,0,0,-1,10308.60469375,3,2,1562003819.478686,1562003626.666006,17,1.949214,0,0,16.02699,0,0,1562003776.051151,10306.342588,0,-0.4624023,75.30437,3232235528,182473588,1,1,0.31,-20.98039,-31.30273,3
1562003819.940995,45,0,0,1562003814.28196,4.634790702957257,-74.15101065109592,2564.098,-1,-1,10,65,-9999,1562003819.922984,-17.0247974395752,18.23385238647461,13.09722900390625,41.75207138061523,49.24604034423828,15,10309.05693375,-0.8642730712890625,0.0835113525390625,-0.4654693603515625,10309.05693375,0.0284436257064823,0.02490242040500393,0.1335873560716827,10309.05388275,-17.78321838378906,29.13182067871094,-527.577392578125,10309.05186775,-1.783810372006301,-1.061086897505025,-0.09549998128737447,0.03341321274638176,0.01339864078909159,0.1252071559429169,0.005612373352050781,-0.00567898154258728,0.01582121849060059,1,0.419209212064743,0.2853304445743561,0.6553513407707214,-0.5597900152206421,-0.8689088821411133,0.09535488486289978,-0.4857003390789032,0,0,0,-1,10308.60469375,3,2,1562003819.478686,1562003626.666006,17,1.949214,0,0,16.02699,0,0,1562003776.051151,10306.342588,0,-0.4624023,75.30437,3232235528,182473588,1,1,0.31,-20.98039,-31.30273,3
1562003819.961261,46,0,0,1562003814.28196,4.634790702957257,-74.15101065109592,2564.098,-1,-1,10,65,-9999,1562003819.949112,-16.82523155212402,18.54111862182617,12.97808837890625,41.61874771118164,49.11271667480469,15,10309.07719775,-0.866943359375,0.067840576171875,-0.4589385986328125,10309.07719775,0.02580443306621377,0.01812254490188021,0.1672651585846067,10309.07399375,-17.9293212890625,29.16584777832031,-527.1156005859375,10309.07213175,-1.781993520123834,-1.060560577362089,-0.09766470073992327,0.02215816080570221,0.01685196161270142,0.1541948616504669,0.003923237323760986,-0.02184116840362549,0.02421784400939941,1,0.4193432331085205,0.2848217487335205,0.6545739769935608,-0.5608571767807007,-0.8684709668159485,0.09750951081514359,-0.4860556423664093,0,0,0,-1,10308.60469375,3,2,1562003819.478686,1562003626.666006,17,1.949214,0,0,16.02699,0,0,1562003776.051151,10306.342588,0,-0.4624023,75.30437,3232235528,182473588,1,1,0.31,-20.98039,-31.89792,3
1562003820.00669,47,0,0,1562003814.28196,4.634790702957257,-74.15101065109592,2564.098,-1,-1,10,65,-9999,1562003819.973591,-16.97200393676758,18.56646347045898,13.2769775390625,41.47284317016602,48.96681213378906,15,10309.09746175,-0.872528076171875,0.05023193359375,-0.4789581298828125,10309.09746175,0.02674905630486488,-0.009162605730417619,0.2016596177468711,10309.09407375,-17.97132873535156,29.17048645019531,-527.4686279296875,10309.09239575,-1.779872695347112,-1.060275493414962,-0.1004977847304261,0.02151420898735523,-0.005712470039725304,0.1901853531599045,0.0001832246780395508,-0.0433523952960968,0.02049857378005981,1,0.419688493013382,0.2842154502868652,0.6535412669181824,-0.5621094703674316,-0.8680878877639771,0.1003286987543106,-0.4861662983894348,0,0,0,-1,10308.60469375,3,2,1562003819.478686,1562003626.666006,17,1.949214,0,0,16.02699,0,0,1562003776.051151,10306.342588,0,-0.4624023,75.30437,3232235528,182473588,1,1,0.31,-20.98039,-32.44592,3
1562003820.009595,48,0,0,1562003814.28196,4.634790702957257,-74.15101065109592,2564.098,-1,-1,10,65,-9999,1562003819.973591,-16.97200393676758,18.56646347045898,13.2769775390625,41.47284317016602,48.96681213378906,15,10309.11772475,-0.8855133056640625,0.0466461181640625,-0.4952850341796875,10309.11772475,0.08558920374518457,-0.05920446787744254,0.244275521510319,10309.11415475,-17.82487487792969,29.52091979980469,-527.5023803710938,10309.11265875,-1.777234410443751,-1.060527119332172,-0.1037737962089978,0.05829273164272308,-0.04774274677038193,0.2226807177066803,-0.01146066188812256,-0.05520200729370117,-0.002786517143249512,1,0.4202523231506348,0.2837175726890564,0.6521687507629395,-0.5635318160057068,-0.8679186105728149,0.1035876423120499,-0.485784649848938,0,0,0,-1,10308.60469375,3,2,1562003819.478686,1562003626.666006,17,1.949214,0,0,16.02699,0,0,1562003776.051151,10306.342588,0,-0.4624023,75.30437,3232235528,182473588,1,1,0.31,-20.98039,-32.44592,3
1562003820.021973,49,0,0,1562003814.28196,4.634790702957257,-74.15101065109592,2564.098,-1,-1,10,65,-9999,1562003820.019696,-16.87585830688477,18.88396453857422,12.9490966796875,41.28118515014648,48.77515411376953,15,10309.13798875,-0.8867645263671875,0.033966064453125,-0.486480712890625,10309.13798875,0.2570768042381119,-0.1263004146970079,0.3629238754472022,10309.13426575,-17.53346252441406,29.506103515625,-527.222900390625,10309.13292275,-1.772398643456936,-1.061737745746356,-0.1072796060103283,0.2030443251132965,-0.1157353743910789,0.3229098618030548,-0.02068650722503662,-0.06616511940956116,-0.01134169101715088,1,0.42087721824646,0.2838759124279022,0.649928092956543,-0.5655708909034729,-0.8681837320327759,0.1070739477872849,-0.4845536649227142,0,0,0,-1,10308.60469375,3,2,1562003819.478686,1562003626.666006,17,1.949214,0,0,16.02699,0,0,1562003776.051151,10306.342588,0,-0.4624023,75.30437,3232235528,182473588,1,1,0.31,-20.98039,-33.09545,3
1562003820.042245,50,0,0,1562003814.28196,4.634790702957257,-74.15101065109592,2564.098,-1,-1,10,65,-9999,1562003820.019696,-16.87585830688477,18.88396453857422,12.9490966796875,41.28118515014648,48.77515411376953,15,10309.15825275,-0.9019622802734375,-0.0076141357421875,-0.4616546630859375,10309.15825275,0.4855440678338296,-0.1890455552437108,0.5481480608427582,10309.15437675,-17.61825561523438,29.60226440429688,-527.4589233398438,10309.15318675,-1.762846256105875,-1.06367172887426,-0.1113402881933363,0.4241977334022522,-0.1751696765422821,0.49952432513237,-0.02120637893676758,-0.089946448802948,0.009330928325653076,1,0.4212102293968201,0.2850485444068909,0.6460857391357422,-0.5691243410110474,-0.8687319755554199,0.1111103892326355,-0.4826585352420807,0,0,0,-1,10308.60469375,3,2,1562003819.478686,1562003626.666006,17,1.949214,0,0,16.02699,0,0,1562003776.051151,10306.342588,0,-0.4624023,75.30437,3232235528,182473588,1,1,0.31,-20.98039,-33.44147,3
1562003820.078516,51,0,0,1562003814.28196,4.634790702957257,-74.15101065109592,2564.098,-1,-1,10,65,-9999,1562003820.075287,-16.29507446289062,19.55101776123047,12.86956787109375,39.09848022460938,46.59244918823242,15,10309.17848575,-1.00872802734375,-0.1110076904296875,-0.453338623046875,10309.17848575,0.6631430903962708,-0.5152604182252608,0.2034636430692907,10309.17445775,-17.15919494628906,30.23896789550781,-527.56591796875,10309.17345075,-1.748043597004597,-1.067229842993307,-0.1153017386147822,0.6415228247642517,-0.3998999893665314,0.4240734875202179,-0.06509870290756226,-0.1620282530784607,0.02518570423126221,1,0.421279102563858,0.2878363728523254,0.640389621257782,-0.5740864872932434,-0.8700515031814575,0.115046426653862,-0.4793482720851898,0,0,0,-1,10308.60469375,3,2,1562003819.478686,1562003626.666006,17,1.949214,0,0,16.02699,0,0,1562003776.051151,10306.342588,0,-0.4624023,75.30437,3232235528,182473588,1,1,0.31,-20.98039,-32.31656,3
1562003820.082662,52,0,0,1562003814.28196,4.634790702957257,-74.15101065109592,2564.098,-1,-1,10,65,-9999,1562003820.075287,-16.29507446289062,19.55101776123047,12.86956787109375,39.09848022460938,46.59244918823242,15,10309.19874975,-1.212799072265625,-0.5666046142578125,-0.3310546875,10309.19874975,0.5757165718150405,-0.6294447815429531,-1.815948827252179,10309.19453775,-17.3133544921875,29.83689880371094,-527.5234375,10309.19368375,-1.738576151456369,-1.076968342619693,-0.1047949512423031,0.6342670917510986,-0.5323501825332642,-1.189963221549988,-0.2450942993164062,-0.3824352920055389,0.03879767656326294,1,0.420218825340271,0.2961694300174713,0.6375381946563721,-0.5737985372543335,-0.8756942749023438,0.1046032458543777,-0.4713996052742004,0,0,0,-1,10308.60469375,3,2,1562003819.478686,1562003626.666006,17,1.949214,0,0,16.02699,0,0,1562003776.051151,10306.342588,0,-0.4624023,75.30437,3232235528,182473588,1,1,0.31,-20.98039,-32.31656,3
1562003820.103002,53,0,0,1562003814.28196,4.634790702957257,-74.15101065109592,2564.098,-1,-1,10,65,-9999,1562003820.101032,-17.09438896179199,18.82723999023438,12.84967041015625,40.00645446777344,47.50042343139648,15,10309.21901275,-1.392135620117188,-0.845306396484375,-0.314727783203125,10309.21901275,0.141429832849748,-1.559718375608494,-3.3652523787857,10309.21464875,-18.26481628417969,29.2242431640625,-527.6153564453125,10309.21394675,-1.752097958769359,-1.097084258483915,-0.05890937490962239,0.2494014501571655,-1.464927673339844,-3.176968812942505,-0.4323108196258545,-0.8328468799591064,0.1541318297386169,1,0.4164952039718628,0.3143740594387054,0.6453916430473328,-0.5578264594078064,-0.8883373737335205,0.05887530744075775,-0.4554013907909393,0,0,0,-1,10308.60469375,3,2,1562003819.478686,1562003626.666006,17,1.949214,0,0,16.02699,0,0,1562003776.051151,10306.342588,0,-0.4624023,75.30437,3232235528,182473588,1,1,0.31,-21.53767,-27.47301,3
1562003820.123296,54,0,0,1562003814.28196,4.634790702957257,-74.15101065109592,2564.098,-1,-1,10,65,-9999,1562003820.101032,-17.09438896179199,18.82723999023438,12.84967041015625,40.00645446777344,47.50042343139648,15,10309.23927675,-1.446319580078125,-0.939300537109375,-0.39923095703125,10309.23927675,0.04783676476443931,-1.264257164262961,-3.003103483215711,10309.23472975,-18.9747314453125,27.91357421875,-526.8489990234375,10309.23421075,-1.780629955339449,-1.128379421411725,0.002530304309320579,-0.008740899153053761,-1.374276399612427,-3.222864151000977,-0.4976810812950134,-0.8824336528778076,0.09464269876480103,1,0.4149576127529144,0.3372660875320435,0.6572354435920715,-0.5311339497566223,-0.9037166237831116,-0.002530301688238978,-0.4281235337257385,0,0,0,-1,10308.60469375,3,2,1562003819.478686,1562003626.666006,17,1.949214,0,0,16.02699,0,0,1562003776.051151,10306.342588,0,-0.4624023,75.30437,3232235528,182473588,1,1,0.31,-22.09494,-28.11127,3
1562003820.164493,55,0,0,1562003814.28196,4.634790702957257,-74.15101065109592,2564.098,-1,-1,10,65,-9999,1562003820.151743,-18.38590431213379,16.56928253173828,13.82330322265625,43.14420700073242,50.63817596435547,15,10309.25954075,-1.379196166992188,-0.9373016357421875,-0.3533935546875,10309.25954075,0.5146920996486378,-0.8580936727250142,-2.727984561540639,10309.25484075,-19.34896850585938,26.94306945800781,-526.5377807617188,10309.25447475,-1.801505416753385,-1.151366952390975,0.05635049735665456,0.4163896143436432,-0.9340789914131165,-2.63555383682251,-0.5743037462234497,-0.8788905143737793,0.008491158485412598,1,0.4118596315383911,0.3564760386943817,0.6667264103889465,-0.5086967349052429,-0.9118717908859253,-0.0563206784427166,-0.4065929651260376,0,0,0,-1,10308.60469375,3,2,1562003819.478686,1562003626.666006,17,1.949214,0,0,16.02699,0,0,1562003776.051151,10306.342588,0,-0.4624023,75.30437,3232235528,182473588,1,1,0.31,-23.2095,-29.03586,3
1562003820.167148,56,0,0,1562003814.28196,4.634790702957257,-74.15101065109592,2564.098,-1,-1,10,65,-9999,1562003820.151743,-18.38590431213379,16.56928253173828,13.82330322265625,43.14420700073242,50.63817596435547,15,10309.27980375,-1.233001708984375,-1.017547607421875,-0.4283447265625,10309.27980375,0.6783063306948549,-1.171602061513578,-3.524836714470409,10309.27492075,-20.35694885253906,25.74040222167969,-526.4915161132812,10309.27473775,-1.814811542559299,-1.168994054313375,0.1153255670549875,0.6515040993690491,-1.065633058547974,-3.320841550827026,-0.3256698846817017,-0.878216028213501,0.006109952926635742,1,0.4044326543807983,0.3770865499973297,0.6755976676940918,-0.4876553416252136,-0.9142440557479858,-0.1150700971484184,-0.3884799182415009,0,0,0,-1,10308.60469375,3,2,1562003819.478686,1562003626.666006,17,1.949214,0,0,16.02699,0,0,1562003776.051151,10306.342588,0,-0.4624023,75.30437,3232235528,182473588,1,1,0.31,-23.2095,-29.03586,3
1562003820.183996,57,0,0,1562003814.28196,4.634790702957257,-74.15101065109592,2564.098,-1,-1,10,65,-9999,1562003820.176311,-19.2856559753418,15.4892053604126,13.928466796875,44.2051887512207,51.69915771484375,15,10309.30006775,-1.346343994140625,-0.94049072265625,-0.4770050048828125,10309.30006775,0.7999728450951249,-1.513137823930245,-4.046220006357871,10309.29503275,-21.55876159667969,24.305908203125,-526.2537841796875,10309.29500175,-1.83018407233389,-1.192392898827251,0.1898208697708173,0.7665606737136841,-1.443730473518372,-3.969632148742676,-0.3918178081512451,-0.8012920022010803,-0.08348751068115234,1,0.3952386379241943,0.4029710292816162,0.6853665709495544,-0.4600799679756165,-0.9125645160675049,-0.1886829882860184,-0.3628015518188477,0,0,0,-1,10308.60469375,3,2,1562003819.478686,1562003626.666006,17,1.949214,0,0,16.02699,0,0,1562003776.051151,10306.342588,0,-0.4624023,75.30437,3232235528,182473588,1,1,0.31,-23.76678,-29.29468,3
1562003820.204339,58,0,0,1562003814.28196,4.634790702957257,-74.15101065109592,2564.098,-1,-1,10,65,-9999,1562003820.202661,-21.20830917358398,12.63734722137451,14.60076904296875,45.2459716796875,52.73994064331055,15,10309.32033175,-1.265838623046875,-0.8782958984375,-0.5670166015625,10309.32033175,0.858960531659835,-1.86230593971497,-4.157756122287589,10309.31511275,-22.394287109375,22.88323974609375,-525.7486572265625,10309.31526575,-1.844641772225705,-1.221668116519223,0.2731660295318397,0.8451292514801025,-1.785359501838684,-4.162476539611816,-0.4202587604522705,-0.6383606791496277,-0.1885798573493958,1,0.3855007290840149,0.4320783317089081,0.6939692497253418,-0.4279067516326904,-0.9048298001289368,-0.2697814106941223,-0.3293949961662292,0,0,0,-1,10308.60469375,3,2,1562003819.478686,1562003626.666006,17,1.949214,0,0,16.02699,0,0,1562003776.051151,10306.342588,0,-0.4624023,75.30437,3232235528,182473588,1,1,0.31,-24.32406,-29.42933,3
1562003820.242043,59,0,0,1562003814.28196,4.634790702957257,-74.15101065109592,2564.098,-1,-1,10,65,-9999,1562003820.226902,-21.77794075012207,11.16864681243896,15.1929931640625,45.92868041992188,53.42264938354492,15,10309.34056475,-1.252243041992188,-0.7956085205078125,-0.6006622314453125,10309.34056475,1.016348824709665,-2.034792491932786,-4.189712723787994,10309.33522375,-22.86203002929688,21.47621154785156,-525.2239379882812,10309.33552875,-1.855455513451276,-1.257312990473956,0.358478026898449,0.9658665657043457,-2.02373218536377,-4.140201091766357,-0.3427712917327881,-0.4874531924724579,-0.3070234060287476,1,0.3765921592712402,0.4623772203922272,0.6997625231742859,-0.3933420777320862,-0.8907949924468994,-0.3508494198322296,-0.2887713015079498,0,0,0,-1,10308.60469375,3,2,1562003819.478686,1562003626.666006,17,1.949214,0,0,16.02699,0,0,1562003776.051151,10306.342588,0,-0.4624023,75.30437,3232235528,182473588,1,1,0.31,-24.67764,-30.03871,3
1562003820.244792,60,0,0,1562003814.28196,4.634790702957257,-74.15101065109592,2564.098,-1,-1,10,65,-9999,1562003820.226902,-21.77794075012207,11.16864681243896,15.1929931640625,45.92868041992188,53.42264938354492,15,10309.36082775,-1.38201904296875,-0.7396087646484375,-0.6007080078125,10309.36082775,1.153337037493379,-1.744516188913528,-4.759082716409267,10309.35530475,-23.05067443847656,19.67669677734375,-524.4179077148438,10309.35579275,-1.860675916593677,-1.295835062894046,0.4483301450282271,1.131423354148865,-1.883896946907043,-4.580466270446777,-0.4409377574920654,-0.3257092237472534,-0.359967827796936,1,0.3658997714519501,0.4937396943569183,0.703499436378479,-0.3569691777229309,-0.8673202991485596,-0.4334613084793091,-0.244676947593689,0,0,0,-1,10308.60469375,3,2,1562003819.478686,1562003626.666006,17,1.949214,0,0,16.02699,0,0,1562003776.051151,10306.342588,0,-0.4624023,75.30437,3232235528,182473588,1,1,0.31,-24.67764,-30.03871,3
1562003820.265499,61,0,0,1562003814.28196,4.634790702957257,-74.15101065109592,2564.098,-1,-1,10,65,-9999,1562003820.252963,-22.06999778747559,9.489932060241699,15.9525146484375,46.215087890625,53.70905685424805,15,10309.38109175,-1.467437744140625,-0.6962432861328125,-0.6393890380859375,10309.38109175,1.021841061825735,-1.137219053944001,-5.302135351138377,10309.37538475,-23.22171020507812,17.58412170410156,-523.7804565429688,10309.37602575,-1.86441040367894,-1.326286521975099,0.5505202613959375,1.084277749061584,-1.284823656082153,-5.219407558441162,-0.6187143921852112,-0.1895768642425537,-0.3997651934623718,1,0.3480046987533569,0.5251054763793945,0.708674430847168,-0.3177068531513214,-0.8269032835960388,-0.5231307148933411,-0.2063139379024506,0,0,0,-1,10308.60469375,3,2,1562003819.478686,1562003626.666006,17,1.949214,0,0,16.02699,0,0,1562003776.051151,10306.342588,0,-0.4624023,75.30437,3232235528,182473588,1,1,0.31,-24.27279,-28.22242,3
1562003820.28535,62,0,0,1562003814.28196,4.634790702957257,-74.15101065109592,2564.098,-1,-1,10,65,-9999,1562003820.27738,-22.25295257568359,7.464362144470215,16.61700439453125,46.68719863891602,54.18116760253906,15,10309.40135575,-1.383987426757812,-0.6842193603515625,-0.7417755126953125,10309.40135575,0.7153285309047005,-0.7977975751167482,-5.296012743792285,10309.39549575,-24.04960632324219,15.20942687988281,-523.4683227539062,10309.39628975,-1.872492031620819,-1.342811001496706,0.6599277022574154,0.7820969820022583,-0.8650096654891968,-5.344528198242188,-0.6769092679023743,-0.07991814613342285,-0.5124185681343079,1,0.3235774636268616,0.5531883835792542,0.7160120606422424,-0.2767797410488129,-0.7695934176445007,-0.6130597591400146,-0.1785604804754257,0,0,0,-1,10308.60469375,3,2,1562003819.478686,1562003626.666006,17,1.949214,0,0,16.02699,0,0,1562003776.051151,10306.342588,0,-0.4624023,75.30437,3232235528,182473588,1,1,0.31,-22.82566,-28.31351,3
1562003820.325263,63,0,0,1562003814.28196,4.634790702957257,-74.15101065109592,2564.098,-1,-1,10,65,-9999,1562003820.303722,-23.22686958312988,2.760199546813965,17.06121826171875,47.64223098754883,55.13619995117188,15,10309.42161875,-1.291091918945312,-0.6954803466796875,-0.75469970703125,10309.42161875,0.6636091435870346,-0.4291007653745813,-5.042039321172442,10309.41557675,-24.25099182128906,12.75721740722656,-523.4057006835938,10309.41655375,-1.886002092944124,-1.348774161689686,0.7663918972745742,0.634028434753418,-0.5646945834159851,-5.10493278503418,-0.6232848167419434,0.01382237672805786,-0.6041795611381531,1,0.2971734404563904,0.5765145421028137,0.7234342098236084,-0.2365626394748688,-0.7027344703674316,-0.6935403943061829,-0.1586378514766693,0,0,0,-1,10308.60469375,3,2,1562003819.478686,1562003626.666006,17,1.949214,0,0,16.02699,0,0,1562003776.051151,10306.342588,0,-0.4624023,75.30437,3232235528,182473588,1,1,0.31,-18.6575,-18.6575,3
1562003820.327845,64,0,0,1562003814.28196,4.634790702957257,-74.15101065109592,2564.098,-1,-1,10,65,-9999,1562003820.303722,-23.22686958312988,2.760199546813965,17.06121826171875,47.64223098754883,55.13619995117188,15,10309.44188275,-1.222793579101562,-0.728973388671875,-0.6832733154296875,10309.44188275,0.8787507480363228,0.1406849466928529,-4.947999907288436,10309.43568775,-24.0986328125,10.72261047363281,-523.5558471679688,10309.43681675,-1.898241327297208,-1.345738891597873,0.8686263262067033,0.8133441209793091,0.0007856427691876888,-4.957117080688477,-0.6357626914978027,0.04818671941757202,-0.57966548204422,1,0.2679419219493866,0.5967742800712585,0.7294326424598694,-0.1999889463186264,-0.629587709903717,-0.7634424567222595,-0.1441351771354675,0,0,0,-1,10308.60469375,3,2,1562003819.478686,1562003626.666006,17,1.949214,0,0,16.02699,0,0,1562003776.051151,10306.342588,0,-0.4624023,75.30437,3232235528,182473588,1,1,0.31,-18.6575,-18.6575,3
1562003820.346134,65,0,0,1562003814.28196,4.634790702957257,-74.15101065109592,2564.098,-1,-1,10,65,-9999,1562003820.328141,-23.18902206420898,0.6416015625,16.98193359375,48.44733428955078,55.94130325317383,15,10309.46214675,-1.114059448242188,-0.7393341064453125,-0.5753631591796875,10309.46214675,1.174094513977783,0.5449749044039289,-4.909923095286919,10309.45579875,-24.31379699707031,8.440948486328125,-523.5650024414062,10309.45708075,-1.905009879780516,-1.335477839602835,0.9705615395034262,1.092078328132629,0.44862961769104,-4.928031921386719,-0.6173260807991028,0.08542639017105103,-0.5047968029975891,1,0.2340131402015686,0.6159474849700928,0.7334019541740417,-0.1672366708517075,-0.5492693781852722,-0.825203001499176,-0.1316930949687958,0,0,0,-1,10308.60469375,3,2,1562003819.478686,1562003626.666006,17,1.949214,0,0,16.02699,0,0,1562003776.051151,10306.342588,0,-0.4624023,75.30437,3232235528,182473588,1,1,0.31,-18.6575,-19.25516,3
1562003820.36639,66,0,0,1562003814.28196,4.634790702957257,-74.15101065109592,2564.098,-1,-1,10,65,-9999,1562003820.354732,-23.3565845489502,-1.646377563476562,16.92559814453125,48.67341995239258,56.16738891601562,15,10309.48240975,-1.015167236328125,-0.689727783203125,-0.4064178466796875,10309.48240975,1.492233607269777,0.8060941208606721,-4.826291314942943,10309.47587975,-24.14541625976562,6.824966430664062,-524.0567626953125,10309.47734475,-1.902806669719943,-1.324980578038009,1.072898240888038,1.420310497283936,0.7465745210647583,-4.850969314575195,-0.6067534685134888,0.1556879281997681,-0.3737723827362061,1,0.1965259611606598,0.6350343227386475,0.7343090176582336,-0.1374742686748505,-0.4632233381271362,-0.8785883188247681,-0.1162179112434387,0,0,0,-1,10308.60469375,3,2,1562003819.478686,1562003626.666006,17,1.949214,0,0,16.02699,0,0,1562003776.051151,10306.342588,0,-0.4624023,75.30437,3232235528,182473588,1,1,0.31,-18.6575,-20.21455,3
1562003820.410944,67,0,0,1562003814.28196,4.634790702957257,-74.15101065109592,2564.098,-1,-1,10,65,-9999,1562003820.378705,-23.32670783996582,-3.474052906036377,16.51007080078125,124.6541900634766,132.1481628417969,15,10309.50264375,-0.83770751953125,-0.6193084716796875,-0.266845703125,10309.50264375,1.65379001374169,1.08218323212086,-4.660682109924148,10309.49599075,-24.10165405273438,4.815353393554688,-523.996337890625,10309.49760775,-1.88774760315146,-1.321062269755892,1.17482770660651,1.636916279792786,1.000404119491577,-4.722664356231689,-0.5591094493865967,0.2710731029510498,-0.2394073009490967,1,0.156833827495575,0.6540189385414124,0.7317849397659302,-0.1102409511804581,-0.3737366199493408,-0.9226233959197998,-0.09532475471496582,0,0,0,-1,10308.60469375,3,2,1562003819.478686,1562003626.666006,17,1.949214,0,0,16.02699,0,0,1562003776.051151,10306.342588,0,-0.4624023,75.30437,3232235528,182473588,1,1,0.31,-18.6575,-21.86704,3
1562003820.41369,68,0,0,1562003814.28196,4.634790702957257,-74.15101065109592,2564.098,-1,-1,10,65,-9999,1562003820.405162,-22.98121452331543,-7.364137172698975,15.86297607421875,122.3465881347656,129.8405609130859,15,10309.52290675,-0.6138458251953125,-0.53985595703125,-0.177490234375,10309.52290675,1.321590761474623,1.248488587448602,-4.475802271257539,10309.51607075,-23.92100524902344,2.830825805664062,-524.6859741210938,10309.51787175,-1.863045760689186,-1.321415386834063,1.273353674900188,1.461483478546143,1.217151522636414,-4.515493392944336,-0.4485031962394714,0.3751870393753052,-0.1413974165916443,1,0.115943655371666,0.6711116433143616,0.7271696925163269,-0.08596840500831604,-0.2840102314949036,-0.9560891389846802,-0.072332464158535,0,0,0,-1,10308.60469375,3,2,1562003819.478686,1562003626.666006,17,1.949214,0,0,16.02699,0,0,1562003776.051151,10306.342588,0,-0.4624023,75.30437,3232235528,182473588,1,1,0.31,-18.6575,-21.86704,3
1562003820.427733,69,0,0,1562003814.28196,4.634790702957257,-74.15101065109592,2564.098,-1,-1,10,65,-9999,1562003820.405162,-22.98121452331543,-7.364137172698975,15.86297607421875,122.3465881347656,129.8405609130859,15,10309.543172625,-0.38763427734375,-0.5038909912109375,-0.09588623046875,10309.543172625,0.6221194906485812,1.26292052371185,-4.266027469036978,10309.536183625,-23.44586181640625,1.268218994140625,-525.309814453125,10309.538106625,-1.867207999211557,-1.291668114381824,1.366191618174964,0.8076069355010986,1.302136778831482,-4.346811294555664,-0.2949937283992767,0.4670563936233521,-0.08408051729202271,1,0.07532148063182831,0.6828885078430176,0.7238786220550537,-0.06316529959440231,-0.1953169405460358,-0.9791413545608521,-0.05597992241382599,0,0,0,-1,10308.60469375,3,2,1562003819.478686,1562003626.666006,17,1.949214,0,0,16.02699,0,0,1562003776.051151,10306.342588,0,-0.4624023,75.30437,3232235528,182473588,1,1,0.31,-18.6575,-21.86704,3
1562003820.447347,70,0,0,1562003814.28196,4.634790702957257,-74.15101065109592,2564.098,-1,-1,10,65,-9999,1562003820.429273,-22.56646537780762,-8.930009841918945,15.26715087890625,120.2182846069336,127.7122573852539,15,10309.563436625,-0.199798583984375,-0.510711669921875,-0.0551605224609375,10309.563436625,0.03079626221345829,0.8569783408604891,-3.921330534406387,10309.556264625,-22.80972290039062,-0.40582275390625,-525.4747924804688,10309.558370625,-1.997355200675905,-1.139489593192437,1.449142991709053,0.1273093670606613,0.9689748287200928,-4.032891273498535,-0.1940653473138809,0.4707587361335754,-0.02479779720306396,1,0.03741469234228134,0.6879197359085083,0.723674476146698,-0.04076679795980453,-0.1102406829595566,-0.9926093816757202,-0.05073315650224686,0,0,0,-1,10308.60469375,3,2,1562003819.478686,1562003626.666006,17,1.949214,0,0,16.02699,0,0,1562003776.051151,10306.342588,0,-0.4624023,75.30437,3232235528,182473588,1,1,0.31,-18.6575,-22.1731,3
1562003820.493206,71,0,0,1562003814.28196,4.634790702957257,-74.15101065109592,2564.098,-1,-1,10,65,-9999,1562003820.455613,-22.02818298339844,-10.6112585067749,15.018798828125,118.7875366210938,126.2815093994141,15,10309.583699625,-0.0334930419921875,-0.4720306396484375,-0.017578125,10309.583699625,-0.04229632443263846,0.2657941294342683,-3.344406219036995,10309.576375625,-21.99830627441406,-2.416290283203125,-525.9818115234375,10309.578633625,-2.558199771499344,-0.5662991835271605,1.509026360361068,-0.07633668929338455,0.412848174571991,-3.503346920013428,-0.06766490638256073,0.5015107989311218,0.0287482738494873,1,0.005831473506987095,0.6884176731109619,0.7250698208808899,-0.01791277341544628,-0.03311939164996147,-0.9980928301811218,-0.05209420248866081,0,0,0,-1,10308.60469375,3,2,1562003819.478686,1562003626.666006,17,1.949214,0,0,16.02699,0,0,1562003776.051151,10306.342588,0,-0.4624023,75.30437,3232235528,182473588,1,1,0.31,-18.6575,-22.92867,3
1562003820.49594,72,0,0,1562003814.28196,4.634790702957257,-74.15101065109592,2564.098,-1,-1,10,65,-9999,1562003820.455613,-22.02818298339844,-10.6112585067749,15.018798828125,118.7875366210938,126.2815093994141,15,10309.603963625,0.0876007080078125,-0.424468994140625,-0.0009613037109375,10309.603963625,0.3852081421845492,-0.2461490553371898,-2.735668846549954,10309.596486625,-21.21379089355469,-3.705276489257812,-526.047607421875,10309.598897625,2.606157098705407,0.5531707240806751,1.510581038176652,0.2463105916976929,-0.1524192094802856,-2.885019779205322,-0.0036935955286026,0.5543399453163147,0.03606712818145752,1,-0.01728984899818897,0.6885485649108887,0.7249684929847717,0.004754919093102217,0.0316171757876873,-0.9981876015663147,-0.05120386928319931,0,0,0,-1,10308.60469375,3,2,1562003819.478686,1562003626.666006,17,1.949214,0,0,16.02699,0,0,1562003776.051151,10306.342588,0,-0.4624023,75.30437,3232235528,182473588,1,1,0.31,-18.6575,-22.92867,3
1562003820.508186,73,0,0,1562003814.28196,4.634790702957257,-74.15101065109592,2564.098,-1,-1,10,65,-9999,1562003820.502716,-21.22401428222656,-12.52640151977539,14.5360107421875,118.3867568969727,125.880729675293,15,10309.624227625,0.1941986083984375,-0.4592742919921875,0.012237548828125,10309.603963625,0.3852081421845492,-0.2461490553371898,-2.735668846549954,10309.616567625,-20.10255432128906,-4.592453002929688,-525.56298828125,10309.619161625,2.038099770184561,1.113387065173898,1.477632049343045,0.773129403591156,-0.4111679494380951,-2.25599217414856,0.06590212881565094,0.5663420557975769,0.05159753561019897,1,-0.03296375647187233,0.6916438937187195,0.7210183143615723,0.02597522549331188,0.08346615731716156,-0.9956633448600769,-0.04108422994613647,0,0,0,-1,10308.60469375,3,2,1562003819.478686,1562003626.666006,17,1.949214,0,0,16.02699,0,0,1562003776.051151,10306.342588,0,-0.4624023,75.30437,3232235528,182473588,1,1,0.31,-18.6575,-23.78665,3
1562003820.52837,74,0,0,1562003814.28196,4.634790702957257,-74.15101065109592,2564.098,-1,-1,10,65,-9999,1562003820.502716,-21.22401428222656,-12.52640151977539,14.5360107421875,118.3867568969727,125.880729675293,15,10309.644490625,0.2348175048828125,-0.5062255859375,-0.002593994140625,10309.644490625,0.7164664996384913,-0.206598716304532,-1.430969184289158,10309.636647625,-19.30363464355469,-4.879058837890625,-525.4102783203125,10309.639424625,1.773780493350469,1.368377235937977,1.446243675530342,0.7967716455459595,-0.2951667606830597,-1.578432321548462,0.09388232231140137,0.5008593201637268,0.02515828609466553,1,-0.04330617189407349,0.696876585483551,0.7145953774452209,0.0429064966738224,0.1216938495635986,-0.9922533631324768,-0.02497519925236702,0,0,0,-1,10308.60469375,3,2,1562003819.478686,1562003626.666006,17,1.949214,0,0,16.02699,0,0,1562003776.051151,10306.342588,0,-0.4624023,75.30437,3232235528,182473588,1,1,0.31,-18.6575,-24.39641,3
1562003820.55779,75,0,0,1562003814.28196,4.634790702957257,-74.15101065109592,2564.098,-1,-1,10,65,-9999,1562003820.531229,-18.58256340026855,-15.41413879394531,15.04388427734375,119.4851455688477,126.979118347168,15,10309.664723625,0.248291015625,-0.4676361083984375,0.0273284912109375,10309.664723625,0.3354453793197646,0.04484656749249834,-0.9334597999937116,10309.656758625,-18.88203430175781,-5.385330200195312,-525.1971435546875,10309.659688625,1.655220721007286,1.483093367531198,1.421868653537842,0.4198640286922455,-0.001083739567548037,-1.051697611808777,0.1009879112243652,0.4950800538063049,0.0256306529045105,1,-0.05125490203499794,0.7006245255470276,0.7096680998802185,0.05356556549668312,0.1478066295385361,-0.9889307618141174,-0.01299641840159893,0,0,0,-1,10308.60469375,3,2,1562003819.478686,1562003626.666006,17,1.949214,0,0,16.02699,0,0,1562003776.051151,10306.342588,0,-0.4624023,75.30437,3232235528,182473588,1,1,0.31,-18.6575,-25.1783,3
1562003820.568826,76,0,0,1562003820.549242,4.634790099031744,-74.15102884195791,2564.108,-1,-1,10,65,-9999,1562003820.531229,-18.58256340026855,-15.41413879394531,15.04388427734375,119.4851455688477,126.979118347168,15,10309.684987625,0.2499847412109375,-0.418731689453125,0.0560150146484375,10309.684987625,0.1619667995958941,0.02095455040507047,-0.4449258012040501,10309.676839625,-18.72175598144531,-6.018264770507812,-524.8406372070312,10309.679952625,1.613173118218943,1.525656201582492,1.405651334005468,0.1686070114374161,0.05078158900141716,-0.580577552318573,0.08232398331165314,0.5432945489883423,0.05098211765289307,1,-0.05729188770055771,0.7021456360816956,0.7072480916976929,0.05923869088292122,0.1642275303602219,-0.9863945245742798,-0.007418290711939335,0,0,0,-1,10308.60469375,3,2,1562003819.478686,1562003626.666006,17,1.949214,0,0,16.02699,0,0,1562003776.051151,10306.342588,0,-0.4624023,75.30437,3232235528,182473588,1,1,0.31,-18.6575,-25.1783,3
1562003820.588998,77,0,0,1562003820.549242,4.634790099031744,-74.15102884195791,2564.108,-1,-1,10,65,-9999,1562003820.566512,-18.07916641235352,-15.87686634063721,15.246826171875,119.6092910766602,127.1032638549805,15,10309.705251625,0.274688720703125,-0.3860321044921875,0.0571136474609375,10309.705251625,0.3768801711397625,-0.1309798550483861,0.1747827297096824,10309.696950625,-18.46980285644531,-6.237625122070312,-525.0941162109375,10309.700185625,1.588233424421044,1.549753850643984,1.399810366995883,0.2877493798732758,-0.09487414360046387,0.01216033473610878,0.09105357527732849,0.5934649705886841,0.06000721454620361,1,-0.0590980090200901,0.703361451625824,0.7056846618652344,0.06163740158081055,0.1701158583164215,-0.9854174852371216,-0.003580187447369099,0,0,0,-1,10308.60469375,3,2,1562003819.478686,1562003626.666006,17,1.949214,0,0,16.02699,0,0,1562003776.051151,10307.286987,0,-0.3962402,75.30374,3232235528,182473588,1,1,0.31,-18.6575,-25.88442,3
1562003820.609392,78,0,0,1562003820.549242,4.634790099031744,-74.15102884195791,2564.108,-1,-1,10,65,-9999,1562003820.60747,-17.40514373779297,-16.4298152923584,15.5714111328125,120.0560684204102,127.5500411987305,15,10309.725514625,0.2678375244140625,-0.3856201171875,0.0709228515625,10309.725514625,0.8113155144938814,-0.4181471838110853,0.6662853541664553,10309.717031625,-18.31953430175781,-5.893692016601562,-524.871826171875,10309.720449625,1.529053088852244,1.60380469759069,1.406020868102428,0.7038906812667847,-0.3588661253452301,0.5677726864814758,0.1189864873886108,0.5991871356964111,0.05084574222564697,1,-0.05507246777415276,0.7068760395050049,0.7025271654129028,0.0612286776304245,0.1639419794082642,-0.9864552021026611,0.005413423758000135,0,0,0,-1,10308.60469375,3,2,1562003819.478686,1562003626.666006,17,1.949214,0,0,16.02699,0,0,1562003776.051151,10307.286987,0,-0.3962402,75.30374,3232235528,182473588,1,1,0.31,-18.6575,-26.4965,3
1562003820.634262,79,0,0,1562003820.549242,4.634790099031744,-74.15102884195791,2564.108,-1,-1,10,65,-9999,1562003820.632593,-17.6220531463623,-15.63010597229004,15.9925537109375,121.0021209716797,128.49609375,15,10309.745778625,0.1678619384765625,-0.3777008056640625,0.118194580078125,10309.745778625,1.08926457745938,-0.571597726873124,0.9370034021401711,10309.737142625,-18.61595153808594,-4.928131103515625,-524.3680419921875,10309.740712625,1.406581243692086,1.715094623336368,1.419286234936107,1.039505958557129,-0.5674430131912231,0.8780469298362732,0.0711110532283783,0.6052282452583313,0.08133888244628906,1,-0.04585866257548332,0.7132663130760193,0.6968213319778442,0.05990230664610863,0.1493631899356842,-0.9885442852973938,0.02170370146632195,0,0,0,-1,10308.60469375,3,2,1562003819.478686,1562003626.666006,17,1.949214,0,0,16.02699,0,0,1562003776.051151,10307.286987,0,-0.3962402,75.30374,3232235528,182473588,1,1,0.31,-18.6575,-27.15008,3
1562003820.649901,80,0,0,1562003820.549242,4.634790099031744,-74.15102884195791,2564.108,-1,-1,10,65,-9999,1562003820.632593,-17.6220531463623,-15.63010597229004,15.9925537109375,121.0021209716797,128.49609375,15,10309.766042625,0.0955657958984375,-0.357940673828125,0.1309661865234375,10309.766042625,1.126055348970498,-0.419311251523559,1.137600684928209,10309.757222625,-18.50845336914062,-4.17388916015625,-523.9011840820312,10309.760976625,1.22298475032098,1.885710495011763,1.433734506325564,1.13309633731842,-0.4808119833469391,1.087871074676514,-0.006545782089233398,0.6265928149223328,0.08335161209106445,1,-0.03418374806642532,0.7211042642593384,0.6895987987518311,0.057389035820961,0.1299131065607071,-0.9906217455863953,0.04231977835297585,0,0,0,-1,10308.60469375,3,2,1562003819.478686,1562003626.666006,17,1.949214,0,0,16.02699,0,0,1562003776.051151,10307.286987,0,-0.3962402,75.30374,3232235528,182473588,1,1,0.31,-18.6575,-27.58786,3
1562003820.670305,81,0,0,1562003820.549242,4.634790099031744,-74.15102884195791,2564.108,-1,-1,10,65,-9999,1562003820.658071,-17.57821655273438,-14.97299385070801,16.4661865234375,121.8971710205078,129.3911437988281,15,10309.786306625,0.06341552734375,-0.347137451171875,0.138397216796875,10309.786306625,1.056050431292239,-0.0665065892703308,1.450947952470824,10309.777333625,-18.86692810058594,-3.717941284179688,-523.6696166992188,10309.781240625,0.9868617775155991,2.112783933752694,1.44666665678174,1.092474341392517,-0.1880901157855988,1.352243542671204,-0.02315110713243484,0.6376152634620667,0.06803011894226074,1,-0.02228910662233829,0.7289969921112061,0.6821832060813904,0.05189106613397598,0.1060673743486404,-0.9923058152198792,0.06386683881282806,0,0,0,-1,10308.60469375,3,2,1562003819.478686,1562003626.666006,17,1.949214,0,0,16.02699,0,0,1562003776.051151,10307.286987,0,-0.3962402,75.30374,3232235528,182473588,1,1,0.31,-18.6575,-28.2186,3
1562003820.691061,82,0,0,1562003820.549242,4.634790099031744,-74.15102884195791,2564.108,-1,-1,10,65,-9999,1562003820.682528,-17.99909591674805,-13.85598087310791,17.07916259765625,122.1317749023438,129.6257476806641,15,10309.806569625,-0.0645294189453125,-0.3250274658203125,0.1517486572265625,10309.806569625,0.5536136663479279,0.606750920629952,2.008680463760668,10309.797414625,-19.00155639648438,-3.210205078125,-523.3603515625,10309.801503625,0.6856524687626135,2.413592113407434,1.459145307031523,0.7209285497665405,0.4032946228981018,1.856649518013,-0.05370454490184784,0.6582632660865784,0.06361424922943115,1,-0.01067452318966389,0.7358489632606506,0.6758449673652649,0.04057042673230171,0.07413605600595474,-0.9937735199928284,0.08317528665065765,0,0,0,-1,10308.60469375,3,2,1562003819.478686,1562003626.666006,17,1.949214,0,0,16.02699,0,0,1562003776.051151,10307.286987,0,-0.3962402,75.30374,3232235528,182473588,1,1,0.31,-18.6575,-28.9561,3
1562003820.718939,83,0,0,1562003820.549242,4.634790099031744,-74.15102884195791,2564.108,-1,-1,10,65,-9999,1562003820.708975,-18.732177734375,-12.90242862701416,17.048095703125,121.0092163085938,128.5031890869141,15,10309.826833625,-0.2554931640625,-0.3386993408203125,0.1310272216796875,10309.826833625,-0.2461541153432609,1.399222972514869,2.332569854478361,10309.817494625,-19.80339050292969,-2.179824829101562,-523.4210205078125,10309.821767625,0.2919533819733607,2.821714255393043,1.474796403456622,-0.06036065518856049,1.23260486125946,2.296276807785034,-0.2073865681886673,0.6798132658004761,0.0520622730255127,1,-0.0003568523388821632,0.7385758757591248,0.6738710999488831,0.0200788676738739,0.03014048002660275,-0.9953955411911011,0.09098890423774719,0,0,0,-1,10308.60469375,3,2,1562003819.478686,1562003626.666006,17,1.949214,0,0,16.02699,0,0,1562003776.051151,10307.286987,0,-0.3962402,75.30374,3232235528,182473588,1,1,0.31,-18.6575,-28.22799,3
1562003820.731168,84,0,0,1562003820.549242,4.634790099031744,-74.15102884195791,2564.108,-1,-1,10,65,-9999,1562003820.708975,-18.732177734375,-12.90242862701416,17.048095703125,121.0092163085938,128.5031890869141,15,10309.847066625,-0.38226318359375,-0.4391632080078125,0.1854248046875,10309.847066625,-0.5562017262952669,1.564686502622037,2.342558306462812,10309.837606625,-21.02732849121094,-1.208419799804688,-524.2684936523438,10309.842031625,-0.2281250762498621,-2.913870108126171,1.484601024380884,-0.5453752875328064,1.566237688064575,2.326834440231323,-0.3005106747150421,0.6074783205986023,0.05787158012390137,1,0.007025870028883219,0.7361279129981995,0.6767724752426147,-0.006741885561496019,-0.01943561062216759,-0.99628746509552,0.08386733382940292,0,0,0,-1,10308.60469375,3,2,1562003819.478686,1562003626.666006,17,1.949214,0,0,16.02699,0,0,1562003776.051151,10307.286987,0,-0.3962402,75.30374,3232235528,182473588,1,1,0.31,-18.6575,-28.22799,3
1562003820.751426,85,0,0,1562003820.549242,4.634790099031744,-74.15102884195791,2564.108,-1,-1,10,65,-9999,1562003820.7338,-19.85062408447266,-12.03548431396484,16.36224365234375,118.8239822387695,126.3179550170898,15,10309.867330625,-0.5131683349609375,-0.5825653076171875,0.28985595703125,10309.867330625,-0.5365510595598992,1.281756529469763,2.326260026907636,10309.857686625,-22.14228820800781,-0.9681396484375,-525.129150390625,10309.862264625,-0.7401552059122062,-2.37329254424965,1.471260747415462,-0.5405296683311462,1.397495985031128,2.344125986099243,-0.3895020484924316,0.4921970367431641,0.1741324663162231,1,0.01414807606488466,0.7317982912063599,0.6805244088172913,-0.03402499109506607,-0.06905508041381836,-0.9950504302978516,0.07145781069993973,0,0,0,-1,10308.60469375,3,2,1562003819.478686,1562003626.666006,17,1.949214,0,0,16.02699,0,0,1562003776.051151,10307.286987,0,-0.3962402,75.30374,3232235528,182473588,1,1,0.31,-18.6575,-28.72497,3
1562003820.771559,86,0,0,1562003820.549242,4.634790099031744,-74.15102884195791,2564.108,-1,-1,10,65,-9999,1562003820.75964,-21.01527404785156,-11.58703136444092,15.53192138671875,116.8978042602539,124.3917770385742,15,10309.887593625,-0.588226318359375,-0.7230377197265625,0.3072967529296875,10309.887593625,-0.5986703572504335,0.2614193547115951,2.107355375838066,10309.877797625,-23.14924621582031,-0.090301513671875,-525.6351318359375,10309.882527625,-1.056454239700274,-2.037733589023633,1.440220524601581,-0.5627031326293945,0.5626661777496338,2.171927213668823,-0.4451487362384796,0.3323379158973694,0.2580680847167969,1,0.02396729215979576,0.7271395921707153,0.6836646199226379,-0.05741449818015099,-0.1162678897380829,-0.9914870858192444,0.05861283466219902,0,0,0,-1,10308.60469375,3,2,1562003819.478686,1562003626.666006,17,1.949214,0,0,16.02699,0,0,1562003776.051151,10307.286987,0,-0.3962402,75.30374,3232235528,182473588,1,1,0.31,-18.6575,-29.19799,3
1562003820.805544,87,0,0,1562003820.549242,4.634790099031744,-74.15102884195791,2564.108,-1,-1,10,65,-9999,1562003820.783921,-22.52162742614746,-10.03920555114746,14.81524658203125,116.57666015625,124.0706329345703,15,10309.907857625,-0.6134185791015625,-0.866546630859375,0.211517333984375,10309.907857625,-0.9415440917987562,-0.577007139679293,1.988753094588041,10309.897878625,-23.50297546386719,0.607574462890625,-525.69287109375,10309.902791625,-1.24540481292212,-1.850839317993753,1.406252668520203,-0.8200225234031677,-0.4635105133056641,1.976751446723938,-0.4378089606761932,0.1927462816238403,0.2185499668121338,1,0.03948956355452538,0.7218571901321411,0.6872106194496155,-0.07144477218389511,-0.1574211418628693,-0.9864932298660278,0.04527445882558823,0,0,0,-1,10308.60469375,3,2,1562003819.478686,1562003626.666006,17,1.949214,0,0,16.02699,0,0,1562003776.051151,10307.286987,0,-0.3962402,75.30374,3232235528,182473588,1,1,0.31,-18.6575,-29.62535,3
1562003820.812087,88,0,0,1562003820.549242,4.634790099031744,-74.15102884195791,2564.108,-1,-1,10,65,-9999,1562003820.810225,-22.78959274291992,-9.467094421386719,14.8087158203125,117.6702575683594,125.1642303466797,15,10309.928121625,-0.631317138671875,-0.95758056640625,0.07452392578125,10309.928121625,-1.764091754506156,-0.4113952714994074,1.928004525910571,10309.917989625,-23.8038330078125,1.22674560546875,-525.606689453125,10309.923055625,-1.414125765232978,-1.696812159614297,1.371195150769684,-1.520486950874329,-0.5406742095947266,1.979177594184875,-0.422602504491806,0.05393725633621216,0.1227849721908569,1,0.05896635353565216,0.7134304642677307,0.6935807466506958,-0.08053350448608398,-0.1967059671878815,-0.9801457524299622,0.02492011711001396,0,0,0,-1,10308.60469375,3,2,1562003819.478686,1562003626.666006,17,1.949214,0,0,16.02699,0,0,1562003776.051151,10307.286987,0,-0.3962402,75.30374,3232235528,182473588,1,1,0.31,-18.6575,-29.62535,3
1562003820.832375,89,0,0,1562003820.549242,4.634790099031744,-74.15102884195791,2564.108,-1,-1,10,65,-9999,1562003820.810225,-22.78959274291992,-9.467094421386719,14.8087158203125,117.6702575683594,125.1642303466797,15,10309.948384625,-0.68292236328125,-1.054244995117188,-0.0280609130859375,10309.948384625,-2.696750209327863,0.004558532837888632,1.528556195061259,10309.938069625,-24.20243835449219,1.558349609375,-525.70751953125,10309.943318625,-1.609795856140937,-1.511659383555212,1.335273279824313,-2.5082848072052,-0.05586283281445503,1.640913963317871,-0.4427915215492249,-0.02228224277496338,0.03216326236724854,1,0.07590734958648682,0.6980990171432495,0.7062487006187439,-0.09004811197519302,-0.2329439371824265,-0.9723924398422241,-0.01379167288541794,0,0,0,-1,10308.60469375,3,2,1562003819.478686,1562003626.666006,17,1.949214,0,0,16.02699,0,0,1562003776.051151,10307.286987,0,-0.3962402,75.30374,3232235528,182473588,1,1,0.31,-18.6575,-29.67831,3
1562003820.852663,90,0,0,1562003820.549242,4.634790099031744,-74.15102884195791,2564.108,-1,-1,10,65,-9999,1562003820.835156,-23.20545387268066,-9.045416831970215,14.75537109375,118.6736526489258,126.1676254272461,15,10309.968648625,-0.6122589111328125,-1.115570068359375,-0.109619140625,10309.968648625,-2.683118286656074,-0.3310599519527312,1.143069486226687,10309.958150625,-24.68016052246094,1.193801879882812,-526.4971923828125,10309.963582625,-1.812560711669032,-1.316431725688448,1.297951506886327,-2.826990127563477,-0.1923626214265823,1.217285990715027,-0.3889786601066589,-0.1355636119842529,0.001446962356567383,1,0.0888090655207634,0.6769115328788757,0.724134624004364,-0.09763621538877487,-0.2608016133308411,-0.9630081653594971,-0.06780745089054108,0,0,0,-1,10308.60469375,3,2,1562003819.478686,1562003626.666006,17,1.949214,0,0,16.02699,0,0,1562003776.051151,10307.286987,0,-0.3962402,75.30374,3232235528,182473588,1,1,0.31,-18.6575,-29.90721,3
1562003820.891775,91,0,0,1562003820.549242,4.634790099031744,-74.15102884195791,2564.108,-1,-1,10,65,-9999,1562003820.861161,-23.65811347961426,-9.325521469116211,14.11822509765625,120.0049819946289,127.4989547729492,15,10309.988912625,-0.623199462890625,-1.130050659179688,-0.236663818359375,10309.988912625,-1.492059170218377,-0.7485711728955056,0.6858342881481819,10309.978261625,-24.86613464355469,1.053329467773438,-526.6749267578125,10309.983846625,-1.952115492671574,-1.1923902517344,1.262619825410315,-1.845066666603088,-0.7148066163063049,0.8138647675514221,-0.3287476301193237,-0.1701128482818604,-0.06062453985214233,1,0.101807564496994,0.6584873795509338,0.7389689683914185,-0.09977263957262039,-0.2818633019924164,-0.9528882503509521,-0.1120591834187508,0,0,0,-1,10308.60469375,3,2,1562003819.478686,1562003626.666006,17,1.949214,0,0,16.02699,0,0,1562003776.051151,10307.286987,0,-0.3962402,75.30374,3232235528,182473588,1,1,0.31,-18.6575,-30.15274,3
1562003820.894416,92,0,0,1562003820.549242,4.634790099031744,-74.15102884195791,2564.108,-1,-1,10,65,-9999,1562003820.885238,-23.86853981018066,-9.504070281982422,14.1097412109375,121.6477355957031,129.1417083740234,15,10310.009145625,-0.6085205078125,-1.16192626953125,-0.3398590087890625,10310.009145625,-0.4549456784893642,-0.6477998204079972,0.2036758970081701,10309.998342625,-24.84797668457031,0.9253997802734375,-526.2633056640625,10310.004109625,-2.009276667416854,-1.153227190118017,1.242899968262991,-0.6346396207809448,-0.7149056792259216,0.3036190867424011,-0.3278572559356689,-0.2020055055618286,-0.1591746211051941,1,0.112292617559433,0.649682879447937,0.7454906702041626,-0.09770513325929642,-0.2943809032440186,-0.9467219114303589,-0.1306050419807434,0,0,0,-1,10308.60469375,3,2,1562003819.478686,1562003626.666006,17,1.949214,0,0,16.02699,0,0,1562003776.051151,10307.286987,0,-0.3962402,75.30374,3232235528,182473588,1,1,0.31,-18.6575,-30.15274,3
1562003820.913415,93,0,0,1562003820.549242,4.634790099031744,-74.15102884195791,2564.108,-1,-1,10,65,-9999,1562003820.911433,-23.66664123535156,-9.367074012756348,14.32220458984375,122.5819244384766,130.0758972167969,15,10310.029409625,-0.5666351318359375,-1.187957763671875,-0.364898681640625,10310.029409625,-0.1326062475260975,-0.1880231677012293,-0.04485109486635148,10310.018453625,-24.62838745117188,1.212448120117188,-526.0970458984375,10310.024373625,-2.026177537151104,-1.148358536594424,1.237587919213252,-0.1711588203907013,-0.3253539502620697,-0.00649377703666687,-0.2907871603965759,-0.2231845855712891,-0.2360358238220215,1,0.1176334619522095,0.6473901867866516,0.7470524311065674,-0.09466274082660675,-0.2983241975307465,-0.9449977874755859,-0.134096622467041,0,0,0,-1,10308.60469375,3,2,1562003819.478686,1562003626.666006,17,1.949214,0,0,16.02699,0,0,1562003776.051151,10307.286987,0,-0.3962402,75.30374,3232235528,182473588,1,1,0.31,-18.6575,-26.95582,3
1562003820.933666,94,0,0,1562003820.549242,4.634790099031744,-74.15102884195791,2564.108,-1,-1,10,65,-9999,1562003820.911433,-23.66664123535156,-9.367074012756348,14.32220458984375,122.5819244384766,130.0758972167969,15,10310.049672625,-0.469329833984375,-1.18951416015625,-0.2950439453125,10310.049672625,-0.06672869690524341,0.1186856381921443,-0.07353360612261388,10310.038533625,-24.6473388671875,1.205780029296875,-526.2581787109375,10310.044606625,-2.034805417268278,-1.1420158123674,1.237613717368885,-0.09817753732204437,0.08698593825101852,-0.07428213953971863,-0.2173098027706146,-0.258637547492981,-0.1978711485862732,1,0.1180460453033447,0.6465888619422913,0.7478296160697937,-0.09348195046186447,-0.2974454462528229,-0.945006251335144,-0.1359759569168091,0,0,0,-1,10308.60469375,3,2,1562003819.478686,1562003626.666006,17,1.949214,0,0,16.02699,0,0,1562003776.051151,10307.286987,0,-0.3962402,75.30374,3232235528,182473588,1,1,0.31,-18.6575,-27.27542,3
1562003820.969997,95,0,0,1562003820.549242,4.634790099031744,-74.15102884195791,2564.108,-1,-1,10,65,-9999,1562003820.963955,-23.74591636657715,-9.414770126342773,14.3721923828125,122.6110382080078,130.1050109863281,15,10310.069936625,-0.41070556640625,-1.14251708984375,-0.192108154296875,10310.069936625,0.1381091372865282,-0.04966662274943275,-0.1825876559163776,10310.058644625,-24.71739196777344,1.129806518554688,-526.1354370117188,10310.064870625,-2.038420878872086,-1.136797629939583,1.239247574598127,0.08284417539834976,0.01852085441350937,-0.1484983265399933,-0.1406437456607819,-0.2201406359672546,-0.1040900945663452,1,0.1167516186833382,0.646475613117218,0.7481531500816345,-0.0933014303445816,-0.2953303754329681,-0.9455393552780151,-0.1368766874074936,0,0,0,-1,10308.60469375,3,2,1562003819.478686,1562003626.666006,17,1.949214,0,0,16.02699,0,0,1562003776.051151,10307.286987,0,-0.3962402,75.30374,3232235528,182473588,1,1,0.31,-18.6575,-28.39182,3
1562003820.974326,96,0,0,1562003820.549242,4.634790099031744,-74.15102884195791,2564.108,-1,-1,10,65,-9999,1562003820.963955,-23.74591636657715,-9.414770126342773,14.3721923828125,122.6110382080078,130.1050109863281,15,10310.090200625,-0.38458251953125,-1.097015380859375,-0.14678955078125,10310.090200625,0.3346581489015372,-0.2734776154952559,-0.3069535503975519,10310.078725625,-24.53172302246094,0.977264404296875,-525.8187255859375,10310.085134625,-2.033327230200036,-1.144099381432291,1.244886862273274,0.2935572266578674,-0.2446679025888443,-0.2846569716930389,-0.103388249874115,-0.1688662767410278,-0.02993720769882202,1,0.1160646006464958,0.6482862830162048,0.746968150138855,-0.09106341004371643,-0.2914634346961975,-0.9473599195480347,-0.1325078010559082,0,0,0,-1,10308.60469375,3,2,1562003819.478686,1562003626.666006,17,1.949214,0,0,16.02699,0,0,1562003776.051151,10307.286987,0,-0.3962402,75.30374,3232235528,182473588,1,1,0.31,-18.6575,-28.39182,3
1562003820.99438,97,0,0,1562003820.549242,4.634790099031744,-74.15102884195791,2564.108,-1,-1,10,65,-9999,1562003820.963955,-23.74591636657715,-9.414770126342773,14.3721923828125,122.6110382080078,130.1050109863281,15,10310.110463625,-0.3531646728515625,-1.082199096679688,-0.1367034912109375,10310.110463625,0.3538960256679426,-0.2622246946252351,-0.3385476956735979,10310.098836625,-24.55740356445312,0.771026611328125,-525.7920532226562,10310.105397625,-2.021094495968855,-1.161487020058781,1.253641829906077,0.3694471716880798,-0.2883895635604858,-0.335092157125473,-0.0826256275177002,-0.1379775404930115,-0.01460319757461548,1,0.1158146932721138,0.6515594720840454,0.7446166276931763,-0.08719687908887863,-0.2861030101776123,-0.9501266479492188,-0.1241144239902496,0,0,0,-1,10308.60469375,3,2,1562003819.478686,1562003626.666006,17,1.949214,0,0,16.02699,0,0,1562003776.051151,10307.286987,0,-0.3962402,75.30374,3232235528,182473588,1,1,0.31,-18.6575,-28.89891,3
1562003821.014887,98,0,0,1562003820.549242,4.634790099031744,-74.15102884195791,2564.108,-1,-1,10,65,-9999,1562003820.993909,-23.59434509277344,-9.740530014038086,14.664794921875,122.8356781005859,130.3296508789062,15,10310.130727625,-0.3267364501953125,-1.1102294921875,-0.1197509765625,10310.130727625,0.2560014197899379,-0.1016531251244335,-0.2705523993539128,10310.118917625,-24.32688903808594,0.8269805908203125,-525.6260986328125,10310.125661625,-2.009867745043665,-1.176702832838696,1.262496709310633,0.2809319794178009,-0.1421119719743729,-0.3086616396903992,-0.05821517109870911,-0.137877881526947,-0.01488155126571655,1,0.1149961873888969,0.6546143293380737,0.742476761341095,-0.08357209712266922,-0.280178964138031,-0.9528509378433228,-0.1165119111537933,0,0,0,-1,10308.60469375,3,2,1562003819.478686,1562003626.666006,17,1.949214,0,0,16.02699,0,0,1562003776.051151,10307.286987,0,-0.3962402,75.30374,3232235528,182473588,1,1,0.31,-18.6575,-29.39473,3
1562003821.040367,99,0,0,1562003820.549242,4.634790099031744,-74.15102884195791,2564.108,-1,-1,10,65,-9999,1562003820.993909,-23.59434509277344,-9.740530014038086,14.664794921875,122.8356781005859,130.3296508789062,15,10310.150991625,-0.30029296875,-1.102645874023438,-0.11322021484375,10310.150991625,0.1989493187054974,-0.0709463451236019,-0.1395256726703414,10310.139028625,-24.34783935546875,0.7397613525390625,-525.5033569335938,10310.145925625,-2.001270961834814,-1.186769641443731,1.268745297235358,0.2009945064783096,-0.07080795615911484,-0.1682123690843582,-0.03627660870552063,-0.1546924114227295,-0.007657647132873535,1,0.1139182895421982,0.6567316055297852,0.7410073280334473,-0.08145094662904739,-0.2758114039897919,-0.954728364944458,-0.1114524453878403,0,0,0,-1,10308.60469375,3,2,1562003819.478686,1562003626.666006,17,1.949214,0,0,16.02699,0,0,1562003776.051151,10307.286987,0,-0.3962402,75.30374,3232235528,182473588,1,1,0.31,-18.6575,-29.52545,3
1562003821.055705,100,0,0,1562003820.549242,4.634790099031744,-74.15102884195791,2564.108,-1,-1,10,65,-9999,1562003821.042226,-23.39105796813965,-9.801298141479492,14.90277099609375,123.0413818359375,130.5353546142578,15,10310.171224625,-0.30859375,-1.08636474609375,-0.109039306640625,10310.171224625,0.185356810817842,-0.06407618845952448,-0.1003622909440721,10310.159108625,-24.36367797851562,0.855499267578125,-525.3890380859375,10310.166188625,-1.99198210272273,-1.197343330822055,1.272628638190432,0.1940665692090988,-0.08630329370498657,-0.108104020357132,-0.02921339869499207,-0.1400403380393982,-0.003174841403961182,1,0.1135337725281715,0.6584236621856689,0.7397046089172363,-0.08015969395637512,-0.2735209763050079,-0.955876350402832,-0.1071767285466194,0,0,0,-1,10308.60469375,3,2,1562003819.478686,1562003626.666006,17,1.949214,0,0,16.02699,0,0,1562003776.051151,10307.286987,0,-0.3962402,75.30374,3232235528,182473588,1,1,0.31,-18.6575,-29.52545,3
1562003821.075611,101,0,0,1562003820.549242,4.634790099031744,-74.15102884195791,2564.108,-1,-1,10,65,-9999,1562003821.063294,-23.30158042907715,-9.919502258300781,15.00872802734375,123.07421875,130.5681915283203,15,10310.191487625,-0.309661865234375,-1.060012817382812,-0.113677978515625,10310.191487625,0.07403214987867671,-0.0149461926697427,-0.1157803957589769,10310.179219625,-24.24554443359375,0.5656280517578125,-525.4384155273438,10310.186452625,-1.984457429143016,-1.205601100133906,1.275711940326638,0.09934645146131516,-0.02349344082176685,-0.1078765913844109,-0.04218527674674988,-0.1211642622947693,-0.00435405969619751,1,0.1131142824888229,0.6597533822059631,0.7386845946311951,-0.0792195051908493,-0.2716422379016876,-0.9567776322364807,-0.1038612648844719,0,0,0,-1,10308.60469375,3,2,1562003819.478686,1562003626.666006,17,1.949214,0,0,16.02699,0,0,1562003776.051151,10307.286987,0,-0.3962402,75.30374,3232235528,182473588,1,1,0.31,-18.6575,-29.84484,3
1562003821.095788,102,0,0,1562003820.549242,4.634790099031744,-74.15102884195791,2564.108,-1,-1,10,65,-9999,1562003821.087767,-23.22084808349609,-9.858102798461914,14.9473876953125,123.0857086181641,130.5796813964844,15,10310.211751625,-0.3066864013671875,-1.040084838867188,-0.1074066162109375,10310.211751625,0.1245086399156026,-0.112926552334848,-0.1635383309551498,10310.199300625,-24.12161254882812,0.7063751220703125,-525.5751953125,10310.206685625,-1.982878018113898,-1.207944904929235,1.278746053054522,0.09022193402051926,-0.08837070316076279,-0.1559828668832779,-0.03449538350105286,-0.09105044603347778,-0.01023328304290771,1,0.112480066716671,0.6604933738708496,0.7382452487945557,-0.07804320007562637,-0.2691697776317596,-0.9576556086540222,-0.1021934747695923,0,0,0,-1,10308.60469375,3,2,1562003819.478686,1562003626.666006,17,1.949214,0,0,16.02699,0,0,1562003776.051151,10307.286987,0,-0.3962402,75.30374,3232235528,182473588,1,1,0.31,-18.6575,-30.11115,3
1562003821.121076,103,0,0,1562003820.549242,4.634790099031744,-74.15102884195791,2564.108,-1,-1,10,65,-9999,1562003821.114202,-23.44580841064453,-9.966814994812012,15.18109130859375,123.2053833007812,130.6993560791016,15,10310.232015625,-0.3071136474609375,-1.019668579101562,-0.1075439453125,10310.232015625,0.2296739418856326,-0.1533450818828715,-0.2071393380058181,10310.219411625,-24.45890808105469,0.521026611328125,-525.195068359375,10310.226949625,-1.976937933737179,-1.216297737404598,1.283265178710381,0.2166810631752014,-0.1562669426202774,-0.2000983953475952,-0.046028733253479,-0.07071614265441895,-0.007747650146484375,1,0.1121371015906334,0.661971390247345,0.7371858954429626,-0.07600078731775284,-0.265952467918396,-0.9589469432830811,-0.09843830019235611,0,0,0,-1,10308.60469375,3,2,1562003819.478686,1562003626.666006,17,1.949214,0,0,16.02699,0,0,1562003776.051151,10307.286987,0,-0.3962402,75.30374,3232235528,182473588,1,1,0.31,-18.6575,-30.45634,3
1562003821.136231,104,0,0,1562003820.549242,4.634790099031744,-74.15102884195791,2564.108,-1,-1,10,65,-9999,1562003821.114202,-23.44580841064453,-9.966814994812012,15.18109130859375,123.2053833007812,130.6993560791016,15,10310.252278625,-0.280242919921875,-0.9826202392578125,-0.1077728271484375,10310.252278625,0.1787391218251041,-0.1103451502902341,-0.1437662240740746,10310.239492625,-24.01274108886719,0.514739990234375,-524.9341430664062,10310.247212625,-1.967013078803237,-1.228882889739999,1.288557982666746,0.1956010758876801,-0.1328636109828949,-0.170185774564743,-0.03568047285079956,-0.0400691032409668,-0.0145145058631897,1,0.1117645725607872,0.6639416217803955,0.7356974482536316,-0.07375262677669525,-0.2623847126960754,-0.9604344367980957,-0.093380406498909,0,0,0,-1,10308.60469375,3,2,1562003819.478686,1562003626.666006,17,1.949214,0,0,16.02699,0,0,1562003776.051151,10307.286987,0,-0.3962402,75.30374,3232235528,182473588,1,1,0.31,-18.6575,-30.65952,3
1562003821.156466,105,0,0,1562003820.549242,4.634790099031744,-74.15102884195791,2564.108,-1,-1,10,65,-9999,1562003821.138798,-23.14699363708496,-10.08984088897705,15.44757080078125,123.3253631591797,130.8193359375,15,10310.272542625,-0.25518798828125,-0.9572601318359375,-0.088836669921875,10310.272542625,0.1431928454913805,-0.1137553280660806,-0.08371220780889672,10310.259603625,-24.05154418945312,0.545501708984375,-525.0252685546875,10310.267476625,-1.959048625526752,-1.238789993005497,1.292021661468899,0.1353057771921158,-0.1056945696473122,-0.08913033455610275,-0.0008505880832672119,-0.007966995239257812,-0.01124513149261475,1,0.1116310060024261,0.6653515100479126,0.7345923185348511,-0.0722508579492569,-0.2601509988307953,-0.9613933563232422,-0.08969177305698395,0,0,0,-1,10308.60469375,3,2,1562003819.478686,1562003626.666006,17,1.949214,0,0,16.02699,0,0,1562003776.051151,10307.286987,0,-0.3962402,75.30374,3232235528,182473588,1,1,0.31,-18.6575,-30.37376,3
1562003821.203394,106,0,0,1562003820.549242,4.634790099031744,-74.15102884195791,2564.108,-1,-1,10,65,-9999,1562003821.189187,-22.89087104797363,-10.14079093933105,15.547607421875,123.6667022705078,131.1606750488281,15,10310.292806625,-0.2761077880859375,-0.957061767578125,-0.0518035888671875,10310.292806625,0.2310252298227388,-0.2190231617380787,-0.1815636704772421,10310.279683625,-24.04666137695312,0.50421142578125,-525.0728759765625,10310.287740625,-1.950249941885686,-1.250150111224327,1.295134823671482,0.2043881714344025,-0.192983403801918,-0.1531665772199631,-0.009282410144805908,0.009578108787536621,0.01439094543457031,1,0.1118523627519608,0.6667800545692444,0.7334161400794983,-0.07066971808671951,-0.2583109736442566,-0.9622453451156616,-0.08578681200742722,0,0,0,-1,10308.60469375,3,2,1562003819.478686,1562003626.666006,17,1.949214,0,0,16.02699,0,0,1562003776.051151,10307.286987,0,-0.3962402,75.30374,3232235528,182473588,1,1,0.31,-18.6575,-29.75964,3
1562003821.206274,107,0,0,1562003820.549242,4.634790099031744,-74.15102884195791,2564.108,-1,-1,10,65,-9999,1562003821.189187,-22.89087104797363,-10.14079093933105,15.547607421875,123.6667022705078,131.1606750488281,15,10310.313069625,-0.273468017578125,-0.973052978515625,-0.021392822265625,10310.313069625,0.2382266837264221,-0.3906841340179702,-0.2994034887071773,10310.299794625,-23.80601501464844,0.3905181884765625,-524.9262084960938,10310.308004625,-1.938119893729715,-1.267220258209787,1.300807837043302,0.2519527673721313,-0.3533975780010223,-0.2813245356082916,-0.0250774621963501,-0.005418539047241211,0.04601013660430908,1,0.1121905371546745,0.6689897179603577,0.7316457629203796,-0.06753251701593399,-0.2545245885848999,-0.9637739658355713,-0.07973208278417587,0,0,0,-1,10308.60469375,3,2,1562003819.478686,1562003626.666006,17,1.949214,0,0,16.02699,0,0,1562003776.051151,10307.286987,0,-0.3962402,75.30374,3232235528,182473588,1,1,0.31,-18.6575,-29.75964,3
1562003821.217301,108,0,0,1562003820.549242,4.634790099031744,-74.15102884195791,2564.108,-1,-1,10,65,-9999,1562003821.215337,-22.63839530944824,-10.15739345550537,15.8739013671875,124.1997680664062,131.6937408447266,15,10310.333303625,-0.253265380859375,-0.96893310546875,-0.0063934326171875,10310.333303625,0.07682074585609869,-0.5514256131963188,-0.3408832879495974,10310.319905625,-23.48358154296875,0.3823089599609375,-524.4744262695312,10310.328267625,-1.930347706215328,-1.283547521119037,1.308070171100666,0.1239535287022591,-0.5164818167686462,-0.3376642465591431,-0.0192982405424118,-0.007001221179962158,0.0610840916633606,1,0.1131562516093254,0.6711223125457764,0.7299907803535461,-0.06248287111520767,-0.2490733414888382,-0.9656855463981628,-0.07358101010322571,0,0,0,-1,10308.60469375,3,2,1562003819.478686,1562003626.666006,17,1.949214,0,0,16.02699,0,0,1562003776.051151,10307.286987,0,-0.3962402,75.30374,3232235528,182473588,1,1,0.31,-18.6575,-29.75964,3
1562003821.237512,109,0,0,1562003820.549242,4.634790099031744,-74.15102884195791,2564.108,-1,-1,10,65,-9999,1562003821.215337,-22.63839530944824,-10.15739345550537,15.8739013671875,124.1997680664062,131.6937408447266,15,10310.353566625,-0.230804443359375,-0.95281982421875,-0.0026397705078125,10310.353566625,-0.05992778242950806,-0.6649790736517714,-0.3169563834518895,10310.339986625,-23.6119384765625,0.29876708984375,-524.5902709960938,10310.348531625,-1.935460565699986,-1.290682347518477,1.314870394636498,-0.0399445965886116,-0.6631378531455994,-0.3324092924594879,0.007175832986831665,0.00620192289352417,0.06879466772079468,1,0.1152275577187538,0.6721087694168091,0.7292888760566711,-0.05594833195209503,-0.2432750761508942,-0.9674293398857117,-0.06998482346534729,0,0,0,-1,10308.60469375,3,2,1562003819.478686,1562003626.666006,17,1.949214,0,0,16.02699,0,0,1562003776.051151,10307.286987,0,-0.3962402,75.30374,3232235528,182473588,1,1,0.31,-18.6575,-29.92217,3
1562003821.289865,110,0,0,1562003820.549242,4.634790099031744,-74.15102884195791,2564.108,-1,-1,10,65,-9999,1562003821.266217,-22.00116920471191,-10.54335498809814,16.67724609375,125.9035186767578,133.3974914550781,15,10310.373830625,-0.2398223876953125,-0.942108154296875,-0.0253753662109375,10310.373830625,-0.1132184347903206,-0.496113088935918,-0.2410115512783179,10310.360097625,-23.17460632324219,0.4350433349609375,-524.0289916992188,10310.368764625,-1.947746453151356,-1.291738343279837,1.320216498856503,-0.09782653301954269,-0.5662786364555359,-0.2576495707035065,0.002488121390342712,0.02241873741149902,0.05583590269088745,1,0.1179758533835411,0.6722577810287476,0.7291901111602783,-0.04932638630270958,-0.2383737415075302,-0.968768835067749,-0.06830234825611115,0,0,0,-1,10308.60469375,3,2,1562003819.478686,1562003626.666006,17,1.949214,0,0,16.02699,0,0,1562003776.051151,10307.286987,0,-0.3962402,75.30374,3232235528,182473588,1,1,0.31,-19.77206,-30.57074,3
1562003821.292742,111,0,0,1562003820.549242,4.634790099031744,-74.15102884195791,2564.108,-1,-1,10,65,-9999,1562003821.290522,-22.08004379272461,-10.55542182922363,16.69024658203125,126.4131164550781,133.9070892333984,15,10310.394094625,-0.234222412109375,-0.9272613525390625,-0.034393310546875,10310.394094625,-0.1552641557643827,-0.3047407298478051,-0.1709523051138214,10310.380178625,-22.93309020996094,-0.0872344970703125,-523.7688598632812,10310.389028625,-1.962942629642362,-1.286043841102623,1.32388120574402,-0.1520847231149673,-0.340978741645813,-0.1948921829462051,-0.001191630959510803,0.03301024436950684,0.03797537088394165,1,0.1197985336184502,0.6718019843101501,0.7296249270439148,-0.04447435960173607,-0.2345719188451767,-0.9696710109710693,-0.06866081058979034,0,0,0,-1,10308.60469375,3,2,1562003819.478686,1562003626.666006,17,1.949214,0,0,16.02699,0,0,1562003776.051151,10307.286987,0,-0.3962402,75.30374,3232235528,182473588,1,1,0.31,-20.32934,-30.89808,3
1562003821.298181,112,0,0,1562003820.549242,4.634790099031744,-74.15102884195791,2564.108,-1,-1,10,65,-9999,1562003821.290522,-22.08004379272461,-10.55542182922363,16.69024658203125,126.4131164550781,133.9070892333984,15,10310.414357625,-0.217254638671875,-0.91058349609375,-0.0452423095703125,10310.414357625,-0.1350478336134821,-0.2583673721023643,-0.0963220092543129,10310.400289625,-23.10009765625,-0.0361480712890625,-523.8306884765625,10310.409291625,-1.97873267451485,-1.276702465297592,1.325970490392216,-0.1530250906944275,-0.2656466960906982,-0.1183539927005768,0.0004285573959350586,0.04976940155029297,0.02907806634902954,1,0.1210047230124474,0.6709896326065063,0.7303679585456848,-0.04115170612931252,-0.2319806814193726,-0.970179557800293,-0.07026153802871704,0,0,0,-1,10308.60469375,3,2,1562003819.478686,1562003626.666006,17,1.949214,0,0,16.02699,0,0,1562003776.051151,10307.286987,0,-0.3962402,75.30374,3232235528,182473588,1,1,0.31,-20.32934,-30.89808,3
1562003821.318635,113,0,0,1562003820.549242,4.634790099031744,-74.15102884195791,2564.108,-1,-1,10,65,-9999,1562003821.316645,-21.72593879699707,-10.49856758117676,16.86761474609375,126.8090209960938,134.3029937744141,15,10310.434621625,-0.2098388671875,-0.902313232421875,-0.0568389892578125,10310.434621625,0.03018986043324725,-0.2103851987424067,0.012065717634713,10310.420369625,-22.64549255371094,0.1185760498046875,-523.6067504882812,10310.429555625,-1.987842867216049,-1.273104124228025,1.32678590741636,-0.0164153017103672,-0.2356038391590118,-0.01778318360447884,0.02197009325027466,0.06809413433074951,0.01846498250961304,1,0.1224794164299965,0.6704975366592407,0.7307047843933105,-0.03876013308763504,-0.2309697419404984,-0.9703768491744995,-0.07086369395256042,0,0,0,-1,10308.60469375,3,2,1562003819.478686,1562003626.666006,17,1.949214,0,0,16.02699,0,0,1562003776.051151,10307.286987,0,-0.3962402,75.30374,3232235528,182473588,1,1,0.31,-20.88662,-31.24698,3
1562003821.367494,114,0,0,1562003820.549242,4.634790099031744,-74.15102884195791,2564.108,-1,-1,10,65,-9999,1562003821.341422,-21.68968200683594,-10.53348827362061,16.68994140625,127.0010986328125,134.4950714111328,15,10310.454885625,-0.2266845703125,-0.9143829345703125,-0.057891845703125,10310.454885625,0.1441752856175107,-0.07896725369470255,0.06925736836027364,10310.440480625,-22.64060974121094,0.062255859375,-523.82470703125,10310.449819625,-1.981557373331015,-1.283020891668495,1.326664084880058,0.132567510008812,-0.1247758492827415,0.05835019797086716,0.01619845628738403,0.06359386444091797,0.009017765522003174,1,0.1240323930978775,0.6710546016693115,0.7299829721450806,-0.03777007386088371,-0.231774628162384,-0.9703474640846252,-0.06860337406396866,0,0,0,-1,10308.60469375,3,2,1562003819.478686,1562003626.666006,17,1.949214,0,0,16.02699,0,0,1562003776.051151,10307.286987,0,-0.3962402,75.30374,3232235528,182473588,1,1,0.31,-20.72401,-27.62764,3
1562003821.371024,115,0,0,1562003820.549242,4.634790099031744,-74.15102884195791,2564.108,-1,-1,10,65,-9999,1562003821.36787,-21.72453117370605,-10.62641429901123,16.99267578125,126.9537658691406,134.4477386474609,15,10310.475148625,-0.240936279296875,-0.92431640625,-0.055755615234375,10310.475148625,0.06022019751719876,0.05342620726029761,0.07299245178910978,10310.460561625,-22.59783935546875,-0.0672760009765625,-523.345703125,10310.470082625,-1.969480857109188,-1.29576015594002,1.326059360597784,0.09304285049438477,0.0187617689371109,0.07096754759550095,-0.005574822425842285,0.04792934656143188,0.01091879606246948,1,0.1248224526643753,0.6719501614570618,0.7290067672729492,-0.03809946775436401,-0.2331947088241577,-0.9702010750770569,-0.06580467522144318,0,0,0,-1,10308.60469375,3,2,1562003819.478686,1562003626.666006,17,1.949214,0,0,16.02699,0,0,1562003776.051151,10307.286987,0,-0.3962402,75.30374,3232235528,182473588,1,1,0.31,-20.72401,-27.62764,3
1562003821.379452,116,0,0,1562003820.549242,4.634790099031744,-74.15102884195791,2564.108,-1,-1,10,65,-9999,1562003821.36787,-21.72453117370605,-10.62641429901123,16.99267578125,126.9537658691406,134.4477386474609,15,10310.495381625,-0.22271728515625,-0.9291534423828125,-0.0465545654296875,10310.495381625,0.02494742782742627,0.0794735206179266,0.08050309869535124,10310.480672625,-22.70974731445312,-0.097564697265625,-523.5230102539062,10310.490346625,-1.964723250857552,-1.299123850674063,1.324920577509889,0.01232855953276157,0.08094871044158936,0.07222428917884827,1.184642314910889e-05,0.04365503787994385,0.01552677154541016,1,0.1248242557048798,0.6721315383911133,0.7287870645523071,-0.03908297792077065,-0.2344784140586853,-0.9699245095252991,-0.06531620025634766,0,0,0,-1,10308.60469375,3,2,1562003819.478686,1562003626.666006,17,1.949214,0,0,16.02699,0,0,1562003776.051151,10307.286987,0,-0.3962402,75.30374,3232235528,182473588,1,1,0.31,-20.72401,-27.62764,3
1562003821.399553,117,0,0,1562003820.549242,4.634790099031744,-74.15102884195791,2564.108,-1,-1,10,65,-9999,1562003821.391666,-21.66983604431152,-10.34370040893555,16.96295166015625,126.8449554443359,134.3389282226562,15,10310.515645625,-0.21380615234375,-0.9241485595703125,-0.0451507568359375,10310.515645625,0.1607771655369557,0.0240073319626283,0.1016206345591346,10310.500753625,-22.62095642089844,0.245819091796875,-523.5831909179688,10310.510610625,-1.958447176856485,-1.304024020793787,1.323599662315898,0.1231807768344879,0.03274922445416451,0.0933479517698288,0.02224048972129822,0.04176098108291626,0.01932287216186523,1,0.1249347701668739,0.6724129915237427,0.7284496426582336,-0.04016430675983429,-0.2360313832759857,-0.9696021676063538,-0.06450414657592773,0,0,0,-1,10308.60469375,3,2,1562003819.478686,1562003626.666006,17,1.949214,0,0,16.02699,0,0,1562003776.051151,10307.286987,0,-0.3962402,75.30374,3232235528,182473588,1,1,0.31,-20.72401,-27.73432,3
1562003821.450771,118,0,0,1562003820.549242,4.634790099031744,-74.15102884195791,2564.108,-1,-1,10,65,-9999,1562003821.41795,-21.72047233581543,-10.33871459960938,16.961669921875,126.748779296875,134.2427520751953,15,10310.53591366667,-0.220550537109375,-0.9322357177734375,-0.0462493896484375,10310.53591366667,0.2467546581690738,0.04309953381740636,0.1442621046690473,10310.520864625,-22.64691162109375,0.2380218505859375,-523.513916015625,10310.530843625,-1.941141406302596,-1.32038453080492,1.322491391013697,0.2383254766464233,0.02647002227604389,0.1280342936515808,0.02055177092552185,0.04122978448867798,0.01420849561691284,1,0.1254308670759201,0.6736593246459961,0.7271466255187988,-0.0413287989795208,-0.2380963265895844,-0.969330370426178,-0.06090042367577553,0,0,0,-1,10308.60469375,3,2,1562003819.478686,1562003626.666006,17,1.949214,0,0,16.02699,0,0,1562003776.051151,10307.286987,0,-0.3962402,75.30374,3232235528,182473588,1,1,0.31,-20.72401,-28.74315,3
1562003821.454026,119,0,0,1562003820.549242,4.634790099031744,-74.15102884195791,2564.108,-1,-1,10,65,-9999,1562003821.44253,-21.80550956726074,-10.208984375,16.8436279296875,126.5881042480469,134.0820770263672,15,10310.55617666667,-0.2379608154296875,-0.942047119140625,-0.0355682373046875,10310.55617666667,0.1909989839032839,0.09099808391913551,0.1219336294576049,10310.54094866667,-22.76164245605469,0.3997344970703125,-523.739501953125,10310.55111166667,-1.919532338812254,-1.340367266213073,1.320841448461488,0.2125197052955627,0.07170221954584122,0.1338711380958557,0.01250484585762024,0.03310203552246094,0.01078057289123535,1,0.1259499490261078,0.6751952767372131,0.7255338430404663,-0.04299511015415192,-0.2408220916986465,-0.9689235687255859,-0.05649589747190475,0,0,0,-1,10308.60469375,3,2,1562003819.478686,1562003626.666006,17,1.949214,0,0,16.02699,0,0,1562003776.051151,10307.286987,0,-0.3962402,75.30374,3232235528,182473588,1,1,0.31,-20.72401,-28.74315,3
1562003821.46039,120,0,0,1562003820.549242,4.634790099031744,-74.15102884195791,2564.108,-1,-1,10,65,-9999,1562003821.44253,-21.80550956726074,-10.208984375,16.8436279296875,126.5881042480469,134.0820770263672,15,10310.57644066667,-0.24444580078125,-0.9654693603515625,-0.0276947021484375,10310.57644066667,0.0922013000996333,0.07524042606524566,0.0593645238589563,10310.56105966667,-22.6224365234375,0.7067718505859375,-523.31591796875,10310.57137466667,-1.904734562372403,-1.352961609237877,1.319594556924223,0.1104687079787254,0.08335967361927032,0.06605853885412216,-0.001583278179168701,0.01271229982376099,0.02488064765930176,1,0.1259324848651886,0.6762256622314453,0.7244841456413269,-0.04452839493751526,-0.2426946610212326,-0.968614399433136,-0.05371972545981407,0,0,0,-1,10308.60469375,3,2,1562003819.478686,1562003626.666006,17,1.949214,0,0,16.02699,0,0,1562003776.051151,10307.286987,0,-0.3962402,75.30374,3232235528,182473588,1,1,0.31,-20.72401,-29.15745,3
1562003821.480775,121,0,0,1562003820.549242,4.634790099031744,-74.15102884195791,2564.108,-1,-1,10,65,-9999,1562003821.476818,-21.74110221862793,-9.927437782287598,16.96832275390625,126.4368591308594,133.9308319091797,15,10310.59670466667,-0.239654541015625,-0.9738311767578125,-0.0252838134765625,10310.59670466667,0.06730180917182846,-0.002354767035848063,0.04604152787361689,10310.58114066667,-22.71617126464844,0.6200103759765625,-523.51806640625,10310.59163866667,-1.89724136135144,-1.35923600731405,1.318897127051853,0.06877879053354263,0.008834037929773331,0.04842761531472206,0.00136229395866394,-0.002567470073699951,0.02687078714370728,1,0.1259039044380188,0.6767417192459106,0.7239556312561035,-0.0453566238284111,-0.2436871230602264,-0.96844083070755,-0.05233770608901978,0,0,0,-1,10308.60469375,3,2,1562003819.478686,1562003626.666006,17,1.949214,0,0,16.02699,0,0,1562003776.051151,10307.286987,0,-0.3962402,75.30374,3232235528,182473588,1,1,0.31,-20.72401,-29.58584,3
1562003821.516291,122,0,0,1562003820.549242,4.634790099031744,-74.15102884195791,2564.108,-1,-1,10,65,-9999,1562003821.476818,-21.74110221862793,-9.927437782287598,16.96832275390625,126.4368591308594,133.9308319091797,15,10310.61696766667,-0.2369384765625,-0.972259521484375,-0.0412139892578125,10310.61696766667,0.0445123407756934,-0.002639991588595549,0.05360197589224285,10310.60122066667,-22.6041259765625,0.592681884765625,-523.5023803710938,10310.61190266667,-1.891653014064081,-1.364918988057731,1.318334998781854,0.05076276883482933,-0.01674296148121357,0.04529440775513649,0.0101684033870697,-0.006461381912231445,0.01967579126358032,1,0.1262578666210175,0.6771464943885803,0.7234970331192017,-0.04564632102847099,-0.2445128709077835,-0.9683005213737488,-0.05106315389275551,0,0,0,-1,10308.60469375,3,2,1562003819.478686,1562003626.666006,17,1.949214,0,0,16.02699,0,0,1562003776.051151,10307.286987,0,-0.3962402,75.30374,3232235528,182473588,1,1,0.31,-20.72401,-30.23453,3
