loggingTime,loggingSample,identifierForVendor,deviceID,locationTimestamp_since1970,locationLatitude,locationLongitude,locationAltitude,locationSpeed,locationCourse,locationVerticalAccuracy,locationHorizontalAccuracy,locationFloor,locationHeadingTimestamp_since1970,locationHeadingX,locationHeadingY,locationHeadingZ,locationTrueHeading,locationMagneticHeading,locationHeadingAccuracy,accelerometerTimestamp_sinceReboot,accelerometerAccelerationX,accelerometerAccelerationY,accelerometerAccelerationZ,gyroTimestamp_sinceReboot,gyroRotationX,gyroRotationY,gyroRotationZ,magnetometerTimestamp_sinceReboot,magnetometerX,magnetometerY,magnetometerZ,motionTimestamp_sinceReboot,motionYaw,motionRoll,motionPitch,motionRotationRateX,motionRotationRateY,motionRotationRateZ,motionUserAccelerationX,motionUserAccelerationY,motionUserAccelerationZ,motionAttitudeReferenceFrame,motionQuaternionX,motionQuaternionY,motionQuaternionZ,motionQuaternionW,motionGravityX,motionGravityY,motionGravityZ,motionMagneticFieldX,motionMagneticFieldY,motionMagneticFieldZ,motionMagneticFieldCalibrationAccuracy,activityTimestamp_sinceReboot,activity,activityActivityConfidence,activityActivityStartDate,pedometerStartDate,pedometerNumberofSteps,pedometerAverageActivePace,pedometerCurrentPace,pedometerCurrentCadence,pedometerDistance,pedometerFloorAscended,pedometerFloorDescended,pedometerEndDate,altimeterTimestamp_sinceReboot,altimeterReset,altimeterRelativeAltitude,altimeterPressure,IP_en0,IP_pdp_ip0,deviceOrientation,batteryState,batteryLevel,avAudioRecorderPeakPower,avAudioRecorderAveragePower,label
1561775787.234394,1,0,0,1561775786.999407,4.634683756162072,-74.15108333348682,2553.529,0.15,136.7578125,3,10,-9999,1561775787.22447,-18.36524200439453,-16.17626571655273,15.21551513671875,143.6137542724609,151.1065216064453,15,143562.5638829167,-0.8935699462890625,0.4304656982421875,0.14129638671875,143562.5506999167,-0.1303886332863885,0.1135441393916373,-0.005295962143731573,143562.5360509167,-96.14057922363281,-46.71990966796875,-549.3472900390625,143562.5557659167,-2.248768684026419,-1.710718721155893,-0.439131094514569,-0.1220561489462852,0.1082133948802948,0.0001248521730303764,-0.004603445529937744,0.004076570272445679,0.008699536323547363,1,0.7261728048324585,0.1891824752092361,0.5064839124679565,-0.4246846735477448,-0.8962754607200623,0.4251531660556793,0.1262339055538177,0,0,0,-1,143558.6217724167,3,2,1561775783.274179,1561774855.646675,295,1.774414,0,0,252.7749,0,0,1561775769.99275,143559.71552,0,-1.400391,75.40172,3232235528,177669985,1,1,0.94,-31.87575,-36.27624,2
1561775787.246266,2,0,0,1561775786.999407,4.634683756162072,-74.15108333348682,2553.529,0.15,136.7578125,3,10,-9999,1561775787.22447,-18.36524200439453,-16.17626571655273,15.21551513671875,143.6137542724609,151.1065216064453,15,143562.5841469167,-0.890106201171875,0.4164581298828125,0.14703369140625,143562.5709629167,-0.09443995331195391,0.086813458898294,0.03124607012157268,143562.5561619167,-96.09410095214844,-46.67759704589844,-549.2777099609375,143562.5760289167,-2.251191107229111,-1.70998172534385,-0.4392244876363099,-0.08717832714319229,0.07068067044019699,0.03218265250325203,0.004834115505218506,0.002130478620529175,0.02036726474761963,1,0.7262204885482788,0.188116192817688,0.5072447061538696,-0.4241684079170227,-0.896328866481781,0.4252376854419708,0.1255677938461304,0,0,0,-1,143558.6217724167,3,2,1561775783.274179,1561774855.646675,295,1.774414,0,0,252.7749,0,0,1561775769.99275,143559.71552,0,-1.400391,75.40172,3232235528,177669985,1,1,0.94,-31.87575,-36.39702,2
1561775787.266081,3,0,0,1561775786.999407,4.634683756162072,-74.15108333348682,2553.529,0.15,136.7578125,3,10,-9999,1561775787.22447,-18.36524200439453,-16.17626571655273,15.21551513671875,143.6137542724609,151.1065216064453,15,143562.6044109167,-0.8820037841796875,0.4054718017578125,0.146881103515625,143562.5912269167,-0.0741930048085175,0.0608503014311115,0.01991245547052246,143562.5762429167,-95.91860961914062,-46.55207824707031,-549.4284057617188,143562.5962929167,-2.253036084780944,-1.70965413455286,-0.4394282548825253,-0.0827936977148056,0.04625361785292625,0.005189385265111923,0.01278495788574219,-0.017203688621521,0.02595245838165283,1,0.7263234853744507,0.1873106360435486,0.5077093243598938,-0.4237924516201019,-0.8962841033935547,0.4254221022129059,0.1252621561288834,0,0,0,-1,143558.6217724167,3,2,1561775783.274179,1561774855.646675,295,1.774414,0,0,252.7749,0,0,1561775769.99275,143559.71552,0,-1.400391,75.40172,3232235528,177669985,1,1,0.94,-31.87575,-36.39702,2
1561775787.28618,4,0,0,1561775786.999407,4.634683756162072,-74.15108333348682,2553.529,0.15,136.7578125,3,10,-9999,1561775787.268121,-18.51260375976562,-16.33049774169922,15.168212890625,143.9221649169922,151.4149322509766,15,143562.6246439167,-0.8809661865234375,0.406219482421875,0.1302947998046875,143562.6114909167,-0.1227972925991176,0.03882116552619407,-0.008874185384362037,143562.5963539167,-96.18095397949219,-46.62413024902344,-549.3681640625,143562.6165569167,-2.255457668099079,-1.709964872447697,-0.4389501729993996,-0.1374422907829285,0.03003603219985962,-0.01313635893166065,0.01535820960998535,-0.02105873823165894,0.01191282272338867,1,0.7265985608100891,0.1866519898176193,0.5082155466079712,-0.4230040609836578,-0.8964464664459229,0.4249894022941589,0.1255688667297363,0,0,0,-1,143558.6217724167,3,2,1561775783.274179,1561774855.646675,295,1.774414,0,0,252.7749,0,0,1561775769.99275,143559.71552,0,-1.400391,75.40172,3232235528,177669985,1,1,0.94,-31.87575,-36.91681,2
1561775787.307097,5,0,0,1561775786.999407,4.634683756162072,-74.15108333348682,2553.529,0.15,136.7578125,3,10,-9999,1561775787.292844,-18.49131011962891,-16.30427169799805,14.93023681640625,144.1388397216797,151.6316070556641,15,143562.6449069167,-0.8841705322265625,0.4178009033203125,0.1248321533203125,143562.6317539167,-0.1456578673963578,0.05090206317912051,-0.008145810826225366,143562.6164649167,-96.16777038574219,-46.65509033203125,-549.6357421875,143562.6368199167,-2.258663947025265,-1.710579518374127,-0.4382795509893926,-0.1471354067325592,0.04578010737895966,-0.005135689862072468,0.01710408926010132,-0.01173883676528931,0.0001374483108520508,1,0.7270112633705139,0.1858343034982681,0.5088184475898743,-0.421928882598877,-0.8966512084007263,0.4243822693824768,0.1261595338582993,0,0,0,-1,143558.6217724167,3,2,1561775783.274179,1561774855.646675,295,1.774414,0,0,252.7749,0,0,1561775769.99275,143559.71552,0,-1.400391,75.40172,3232235528,177669985,1,1,0.94,-31.87575,-37.50406,2
1561775787.326775,6,0,0,1561775786.999407,4.634683756162072,-74.15108333348682,2553.529,0.15,136.7578125,3,10,-9999,1561775787.318796,-18.66255950927734,-16.29598617553711,14.9649658203125,144.3496704101562,151.8424377441406,15,143562.6651709167,-0.89105224609375,0.4181060791015625,0.1298675537109375,143562.6520179167,-0.1116146791818749,0.05178436844826376,0.02633147264594045,143562.6365759167,-96.16825866699219,-47.17875671386719,-549.5122680664062,143562.6570839167,-2.261510110899518,-1.710918887212671,-0.4382012911359003,-0.09199278801679611,0.036844402551651,0.02727285027503967,0.007557332515716553,-0.005106687545776367,-0.001605749130249023,1,0.7273565530776978,0.1848963797092438,0.5093122720718384,-0.4211492836475372,-0.8966411948204041,0.4243113994598389,0.1264684498310089,0,0,0,-1,143558.6217724167,3,2,1561775783.274179,1561774855.646675,295,1.774414,0,0,252.7749,0,0,1561775769.99275,143559.71552,0,-1.400391,75.40172,3232235528,177669985,1,1,0.94,-31.87575,-36.67279,2
1561775787.362397,7,0,0,1561775786.999407,4.634683756162072,-74.15108333348682,2553.529,0.15,136.7578125,3,10,-9999,1561775787.343284,-18.5013427734375,-16.2509765625,14.83270263671875,144.4298553466797,151.9226226806641,15,143562.6854349167,-0.888031005859375,0.40533447265625,0.137939453125,143562.6722509167,-0.02631815684049005,0.02334473748341659,0.03410870197729885,143562.6566869167,-96.16236877441406,-46.92701721191406,-549.7404174804688,143562.6773479167,-2.262757960920794,-1.711069686397891,-0.4386361194043568,-0.01873748749494553,0.01147832721471786,0.0286712758243084,0.00857621431350708,-0.01081043481826782,0.008721828460693359,1,0.7275370955467224,0.1843331456184387,0.5094239115715027,-0.4209493398666382,-0.8964394330978394,0.4247050881385803,0.1265778690576553,0,0,0,-1,143558.6217724167,3,2,1561775783.274179,1561774855.646675,295,1.774414,0,0,252.7749,0,0,1561775769.99275,143559.71552,0,-1.400391,75.40172,3232235528,177669985,1,1,0.94,-31.87575,-38.15336,2
1561775787.367846,8,0,0,1561775786.999407,4.634683756162072,-74.15108333348682,2553.529,0.15,136.7578125,3,10,-9999,1561775787.343284,-18.5013427734375,-16.2509765625,14.83270263671875,144.4298553466797,151.9226226806641,15,143562.7056979167,-0.895233154296875,0.4049530029296875,0.133880615234375,143562.6925149167,-0.01960725720959938,-0.01552862600014303,0.02054841833883339,143562.6767679167,-96.16001892089844,-46.87333679199219,-549.8613891601562,143562.6976109167,-2.263251037962849,-1.711548875275877,-0.4389590663424924,-0.02692590840160847,-0.02578835189342499,0.01492723356932402,0.005450069904327393,-0.02025806903839111,0.00666356086730957,1,0.7277244925498962,0.1841498166322708,0.5092819333076477,-0.4208775460720062,-0.8962429165840149,0.4249974489212036,0.1269881874322891,0,0,0,-1,143558.6217724167,3,2,1561775783.274179,1561774855.646675,295,1.774414,0,0,252.7749,0,0,1561775769.99275,143559.71552,0,-1.400391,75.40172,3232235528,177669985,1,1,0.94,-31.87575,-38.15336,2
1561775787.389857,9,0,0,1561775786.999407,4.634683756162072,-74.15108333348682,2553.529,0.15,136.7578125,3,10,-9999,1561775787.36944,-18.59029388427734,-16.20122528076172,14.64947509765625,144.476806640625,151.9695739746094,15,143562.7259619167,-0.8961181640625,0.4080810546875,0.129913330078125,143562.7127779167,-0.0429258957143332,-0.01303670616815589,0.008227303555581791,143562.6968789167,-96.41136169433594,-46.60055541992188,-549.75732421875,143562.7178439167,-2.264151588562966,-1.712409202468719,-0.4389953978506797,-0.04863706231117249,-0.0146707184612751,0.005187521688640118,0.001113831996917725,-0.02029091119766235,0.004521369934082031,1,0.7280286550521851,0.1839912831783295,0.5091502666473389,-0.420580118894577,-0.8961181044578552,0.4250303208827972,0.1277570277452469,0,0,0,-1,143558.6217724167,3,2,1561775783.274179,1561774855.646675,295,1.774414,0,0,252.7749,0,0,1561775769.99275,143559.71552,0,-1.400391,75.40172,3232235528,177669985,1,1,0.94,-31.87575,-37.39026,2
1561775787.407834,10,0,0,1561775786.999407,4.634683756162072,-74.15108333348682,2553.529,0.15,136.7578125,3,10,-9999,1561775787.393787,-18.51713562011719,-16.38940811157227,14.777099609375,144.5526580810547,152.0454254150391,15,143562.7462259167,-0.886627197265625,0.4140167236328125,0.126434326171875,143562.7330419167,-0.03867655587900276,0.009181780490266189,0.006118612604457049,143562.7169899167,-96.3582763671875,-46.90426635742188,-550.0523071289062,143562.7381079167,-2.265130451181318,-1.712880949400406,-0.4389245859008781,-0.02947535365819931,0.01133797690272331,0.0008769289124757051,-0.0006257295608520508,-0.01281106472015381,-0.002176880836486816,1,0.7282344102859497,0.1837570369243622,0.5091999173164368,-0.4202660322189331,-0.8960874676704407,0.4249662458896637,0.1281840056180954,0,0,0,-1,143558.6217724167,3,2,1561775783.274179,1561774855.646675,295,1.774414,0,0,252.7749,0,0,1561775769.99275,143559.71552,0,-1.400391,75.40172,3232235528,177669985,1,1,0.94,-31.87575,-37.55866,2
1561775787.441119,11,0,0,1561775786.999407,4.634683756162072,-74.15108333348682,2553.529,0.15,136.7578125,3,10,-9999,1561775787.420159,-18.64368438720703,-16.56484603881836,14.80657958984375,144.5838928222656,152.07666015625,15,143562.7664889167,-0.890594482421875,0.4239654541015625,0.1330718994140625,143562.7533059167,-0.003595267471606971,0.02210290546711264,0.01203189548886899,143562.7572119167,-96.17167663574219,-47.25132751464844,-549.731689453125,143562.7583719167,-2.265454926016688,-1.71272949011035,-0.438971421862018,2.794503234326839e-05,0.01377556845545769,0.01393493916839361,0.0117182731628418,-0.005422443151473999,0.001486420631408691,1,0.7282285094261169,0.1835918575525284,0.5093128681182861,-0.420211523771286,-0.896087110042572,0.425008624792099,0.1280454695224762,0,0,0,-1,143558.6217724167,3,2,1561775783.274179,1561774855.646675,295,1.774414,0,0,252.7749,0,0,1561775769.99275,143559.71552,0,-1.400391,75.40172,3232235528,177669985,1,1,0.94,-31.87575,-38.33376,2
1561775787.448368,12,0,0,1561775786.999407,4.634683756162072,-74.15108333348682,2553.529,0.15,136.7578125,3,10,-9999,1561775787.444539,-18.56475830078125,-16.58711624145508,14.79693603515625,144.5746765136719,152.0674438476562,15,143562.7867529167,-0.8922576904296875,0.425079345703125,0.136871337890625,143562.7735689167,0.01657338409578112,0.002079662495242877,0.03379365002034248,143562.7773229167,-96.1121826171875,-47.20794677734375,-549.8909912109375,143562.7786349167,-2.265311275335118,-1.712639207867537,-0.4394656545409324,0.01757524721324444,-0.01299399323761463,0.0345829613506794,0.005463957786560059,-0.001292139291763306,0.009653687477111816,1,0.7282225489616394,0.1834648251533508,0.5092062950134277,-0.4204064011573792,-0.8958905935287476,0.4254559576511383,0.1279348433017731,0,0,0,-1,143558.6217724167,3,2,1561775783.274179,1561774855.646675,295,1.774414,0,0,252.7749,0,0,1561775769.99275,143559.71552,0,-1.400391,75.40172,3232235528,177669985,1,1,0.94,-31.87575,-38.33376,2
1561775787.468679,13,0,0,1561775786.999407,4.634683756162072,-74.15108333348682,2553.529,0.15,136.7578125,3,10,-9999,1561775787.444539,-18.56475830078125,-16.58711624145508,14.79693603515625,144.5746765136719,152.0674438476562,15,143562.8070169167,-0.8969268798828125,0.4224700927734375,0.1335906982421875,143562.7938329167,0.007128483289815097,-0.02767130899035932,0.03023353627512455,143562.7974039167,-96.20947265625,-47.0113525390625,-549.6651000976562,143562.7988989167,-2.265211972234465,-1.713177218970499,-0.4400072083456253,0.005741224624216557,-0.03465774282813072,0.0231619942933321,0.001031637191772461,-0.0007445812225341797,0.006076335906982422,1,0.7283834218978882,0.1834384053945541,0.5088697671890259,-0.4205467104911804,-0.8955934643745422,0.4259459972381592,0.1283841133117676,0,0,0,-1,143558.6217724167,3,2,1561775783.274179,1561774855.646675,295,1.774414,0,0,252.7749,0,0,1561775769.99275,143559.71552,0,-1.400391,75.40172,3232235528,177669985,1,1,0.94,-31.87575,-38.89201,2
1561775787.491253,14,0,0,1561775786.999407,4.634683756162072,-74.15108333348682,2553.529,0.15,136.7578125,3,10,-9999,1561775787.474022,-18.44852447509766,-16.43333053588867,14.89404296875,144.5705261230469,152.0632934570312,15,143562.8272499167,-0.8951873779296875,0.4245452880859375,0.135101318359375,143562.8140969167,0.022686404061949,-0.02067784796781124,0.02332875851687611,143562.8175149167,-96.27436828613281,-47.03775024414062,-549.975341796875,143562.8191629167,-2.264926892055868,-1.713678825269334,-0.44042919862312,0.02513329684734344,-0.02628929167985916,0.02270792610943317,0.0007433295249938965,-0.004330694675445557,0.006034255027770996,1,0.7285105586051941,0.1835108250379562,0.5085337162017822,-0.420701265335083,-0.8953508138656616,0.4263277351856232,0.1288077086210251,0,0,0,-1,143558.6217724167,3,2,1561775783.274179,1561774855.646675,295,1.774414,0,0,252.7749,0,0,1561775769.99275,143559.71552,0,-1.400391,75.40172,3232235528,177669985,1,1,0.94,-31.87575,-39.5933,2
1561775787.510717,15,0,0,1561775786.999407,4.634683756162072,-74.15108333348682,2553.529,0.15,136.7578125,3,10,-9999,1561775787.495383,-18.62168884277344,-16.51974487304688,14.73321533203125,144.5444793701172,152.0372467041016,15,143562.84749975,-0.881561279296875,0.4136810302734375,0.133148193359375,143562.8343609167,0.0193121789608186,-0.009787915954368225,0.03591006413862845,143562.83761175,-96.23445129394531,-46.83868408203125,-549.8963623046875,143562.8394259167,-2.264567989692025,-1.713929819786213,-0.441058444955851,0.01644313707947731,-0.0146760456264019,0.03015545755624771,0.002078115940093994,-0.004915058612823486,0.004886507987976074,1,0.7285796999931335,0.1834903508424759,0.5082275867462158,-0.4209605157375336,-0.895052969455719,0.426896870136261,0.1289941817522049,0,0,0,-1,143558.6217724167,3,2,1561775783.274179,1561774855.646675,295,1.774414,0,0,252.7749,0,0,1561775769.99275,143559.71552,0,-1.400391,75.40172,3232235528,177669985,1,1,0.94,-31.87575,-39.97598,2
1561775787.537352,16,0,0,1561775786.999407,4.634683756162072,-74.15108333348682,2553.529,0.15,136.7578125,3,10,-9999,1561775787.523829,-18.65227508544922,-16.34445953369141,14.7171630859375,144.5285034179688,152.0212707519531,15,143562.86776275,-0.8702239990234375,0.4151153564453125,0.1317901611328125,143562.85457975,0.01740215982701377,0.002494316676968214,0.02678394371514491,143562.85772275,-96.1392822265625,-46.83627319335938,-549.941650390625,143562.85967575,-2.264324759688642,-1.714035348323182,-0.4416122715892371,0.01735180616378784,-0.002695282455533743,0.02175211720168591,0.01927089691162109,-0.01638686656951904,0.004017114639282227,1,0.7286178469657898,0.1834214925765991,0.5080151557922363,-0.4211806058883667,-0.8948049545288086,0.427397608757019,0.1290548145771027,0,0,0,-1,143558.6217724167,3,2,1561775783.274179,1561774855.646675,295,1.774414,0,0,252.7749,0,0,1561775769.99275,143559.71552,0,-1.400391,75.40172,3232235528,177669985,1,1,0.94,-31.87575,-40.81206,2
1561775787.549546,17,0,0,1561775786.999407,4.634683756162072,-74.15108333348682,2553.529,0.15,136.7578125,3,10,-9999,1561775787.545879,-18.68105316162109,-16.27408599853516,14.68890380859375,144.4897613525391,151.9825286865234,15,143562.88802675,-0.878875732421875,0.4269256591796875,0.1361236572265625,143562.87484275,0.03287113101873903,-0.004443750594906217,0.0224006468769835,143562.87783375,-96.37094116210938,-46.81005859375,-549.8106689453125,143562.87993975,-2.26383130653804,-1.713992393461086,-0.4420858002561499,0.04047603532671928,-0.01837996952235699,0.02244986593723297,0.02447766065597534,-0.007308661937713623,0.002787351608276367,1,0.7285904288291931,0.183438628911972,0.5078219175338745,-0.4214535057544708,-0.8946101069450378,0.4278256595134735,0.1289874911308289,0,0,0,-1,143558.6217724167,3,2,1561775783.274179,1561774855.646675,295,1.774414,0,0,252.7749,0,0,1561775769.99275,143559.71552,0,-1.400391,75.40172,3232235528,177669985,1,1,0.94,-31.87575,-41.33203,2
1561775787.570082,18,0,0,1561775786.999407,4.634683756162072,-74.15108333348682,2553.529,0.15,136.7578125,3,10,-9999,1561775787.545879,-18.68105316162109,-16.27408599853516,14.68890380859375,144.4897613525391,151.9825286865234,15,143562.90829075,-0.8986358642578125,0.433990478515625,0.13433837890625,143562.89510675,0.06218001776338807,-0.02400466880153822,0.03201918578602268,143562.89794475,-96.29866027832031,-46.74031066894531,-549.9071044921875,143562.90017275,-2.262748944599761,-1.714108312072298,-0.4427471825182922,0.06170063093304634,-0.0363890640437603,0.0279354453086853,0.004223942756652832,0.00420910120010376,0.007439017295837402,1,0.7285606861114502,0.1836428642272949,0.5074048042297363,-0.421918123960495,-0.8943148851394653,0.4284233748912811,0.1290507465600967,0,0,0,-1,143558.6217724167,3,2,1561775783.274179,1561774855.646675,295,1.774414,0,0,252.7749,0,0,1561775769.99275,143559.71552,0,-1.400391,75.40172,3232235528,177669985,1,1,0.94,-31.87575,-36.40142,2
1561775787.60851,19,0,0,1561775786.999407,4.634683756162072,-74.15108333348682,2553.529,0.15,136.7578125,3,10,-9999,1561775787.597002,-18.63211059570312,-16.32183456420898,14.7969970703125,144.3676605224609,151.8604278564453,15,143562.92855375,-0.8978729248046875,0.43310546875,0.1233673095703125,143562.91537075,0.04585856870672845,-0.02747956139187361,0.01702798569385764,143562.91805575,-96.12535095214844,-46.78648376464844,-549.6568603515625,143562.92043675,-2.261677097925962,-1.714378544724765,-0.4432432312046004,0.03325647115707397,-0.02676653116941452,0.007084757089614868,-0.00709909200668335,0.004966378211975098,-0.000325322151184082,1,0.7285608649253845,0.1839295476675034,0.5069701075553894,-0.4223155081272125,-0.8940697312355042,0.4288715422153473,0.1292620301246643,0,0,0,-1,143558.6217724167,3,2,1561775783.274179,1561774855.646675,295,1.774414,0,0,252.7749,0,0,1561775769.99275,143559.71552,0,-1.400391,75.40172,3232235528,177669985,1,1,0.94,-31.87575,-32.24294,2
1561775787.611138,20,0,0,1561775786.999407,4.634683756162072,-74.15108333348682,2553.529,0.15,136.7578125,3,10,-9999,1561775787.597002,-18.63211059570312,-16.32183456420898,14.7969970703125,144.3676605224609,151.8604278564453,15,143562.94881775,-0.8907623291015625,0.4388885498046875,0.117156982421875,143562.93563375,0.003108974256558503,0.009135175171189803,0.0006617955308846907,143562.93816675,-96.32171630859375,-47.07649230957031,-549.8375244140625,143562.94069975,-2.261397427611357,-1.714454474589451,-0.4432547465978891,-0.005609434098005295,0.01119789481163025,-0.0001095058396458626,-0.001361250877380371,0.005901992321014404,-0.009898662567138672,1,0.7285550832748413,0.1840437203645706,0.5068808197975159,-0.4223828911781311,-0.8940550088882446,0.4288819432258606,0.1293292045593262,0,0,0,-1,143558.6217724167,3,2,1561775783.274179,1561774855.646675,295,1.774414,0,0,252.7749,0,0,1561775769.99275,143559.71552,0,-1.400391,75.40172,3232235528,177669985,1,1,0.94,-31.87575,-32.24294,2
1561775787.630689,21,0,0,1561775786.999407,4.634683756162072,-74.15108333348682,2553.529,0.15,136.7578125,3,10,-9999,1561775787.623629,-18.86018371582031,-16.27064514160156,14.7799072265625,144.3915710449219,151.8843383789062,15,143562.96908175,-0.884368896484375,0.4369354248046875,0.1190032958984375,143562.95589775,-0.01655687249702262,0.03861929791556606,0.01409797586255246,143562.95827775,-96.15451049804688,-46.78988647460938,-549.8482666015625,143562.96096375,-2.261762147678355,-1.714119036724147,-0.4433623744330156,-0.01574276201426983,0.03664732724428177,0.01838135533034801,0.009073436260223389,0.009833097457885742,-0.01343739032745361,1,0.7285101413726807,0.1838051229715347,0.5070561170578003,-0.4223538935184479,-0.8940526843070984,0.4289791584014893,0.1290227025747299,0,0,0,-1,143558.6217724167,3,2,1561775783.274179,1561774855.646675,295,1.774414,0,0,252.7749,0,0,1561775769.99275,143559.71552,0,-1.400391,75.40172,3232235528,177669985,1,1,0.94,-31.87575,-32.71865,2
1561775787.65103,22,0,0,1561775786.999407,4.634683756162072,-74.15108333348682,2553.529,0.15,136.7578125,3,10,-9999,1561775787.647159,-18.65592956542969,-16.16870498657227,14.711181640625,144.4056701660156,151.8984375,15,143562.98934475,-0.882476806640625,0.4288482666015625,0.12408447265625,143562.97616175,0.002345712288141793,0.04564471687119509,0.02838050878864742,143562.97838875,-96.25762939453125,-46.83853149414062,-549.99658203125,143562.98122775,-2.261983154483592,-1.713452500550543,-0.4438343595833851,0.004395795054733753,0.04185007885098457,0.02359662391245365,0.01246833801269531,0.003700017929077148,-0.006831169128417969,1,0.728390097618103,0.1834307760000229,0.5072407722473145,-0.4225020408630371,-0.8939380645751953,0.4294054806232452,0.1283979713916779,0,0,0,-1,143558.6217724167,3,2,1561775783.274179,1561774855.646675,295,1.774414,0,0,252.7749,0,0,1561775769.99275,143559.71552,0,-1.400391,75.40172,3232235528,177669985,1,1,0.94,-31.87575,-33.195,2
1561775787.677893,23,0,0,1561775786.999407,4.634683756162072,-74.15108333348682,2553.529,0.15,136.7578125,3,10,-9999,1561775787.673495,-18.55728149414062,-16.25954437255859,14.90399169921875,144.3922729492188,151.8850402832031,15,143563.00957775,-0.8835601806640625,0.427398681640625,0.1311798095703125,143562.99642475,0.01870178243897244,0.06321119373746675,0.02383422649177315,143562.99850075,-96.32208251953125,-46.84396362304688,-549.7592163085938,143563.00149075,-2.261774242073412,-1.71234655426695,-0.4443051929576478,0.01660372503101826,0.06106452271342278,0.02417719177901745,0.01044094562530518,-0.002554059028625488,0.002318978309631348,1,0.7281190156936646,0.1831202805042267,0.5074946284294128,-0.4227988421916962,-0.8938790559768677,0.4298306405544281,0.1273806691169739,0,0,0,-1,143558.6217724167,3,2,1561775783.274179,1561774855.646675,295,1.774414,0,0,252.7749,0,0,1561775769.99275,143559.71552,0,-1.400391,75.40172,3232235528,177669985,1,1,0.94,-31.87575,-33.99667,2
1561775787.691499,24,0,0,1561775786.999407,4.634683756162072,-74.15108333348682,2553.529,0.15,136.7578125,3,10,-9999,1561775787.673495,-18.55728149414062,-16.25954437255859,14.90399169921875,144.3922729492188,151.8850402832031,15,143563.02984175,-0.885467529296875,0.42291259765625,0.129638671875,143563.01668875,0.007444067878989487,0.06190118479725677,0.03936578196911527,143563.01861175,-96.29241943359375,-46.58674621582031,-549.7078857421875,143563.02175475,-2.261663446286462,-1.711120612567472,-0.4450110173038988,7.881142664700747e-05,0.04908775165677071,0.04073566198348999,0.008922457695007324,-0.004839181900024414,0.004281401634216309,1,0.7278406620025635,0.1826721131801605,0.5077605247497559,-0.4231525063514709,-0.8937338590621948,0.430467814207077,0.1262422651052475,0,0,0,-1,143558.6217724167,3,2,1561775783.274179,1561774855.646675,295,1.774414,0,0,252.7749,0,0,1561775769.99275,143559.71552,0,-1.400391,75.40172,3232235528,177669985,1,1,0.94,-31.87575,-34.33485,2
1561775787.71169,25,0,0,1561775786.999407,4.634683756162072,-74.15108333348682,2553.529,0.15,136.7578125,3,10,-9999,1561775787.698282,-18.68989562988281,-16.24750518798828,14.9090576171875,144.3993377685547,151.8921051025391,15,143563.05010575,-0.8930511474609375,0.424407958984375,0.1284332275390625,143563.03695275,-0.002684466378799872,0.05343020200193273,0.03587570936056642,143563.03872275,-96.059814453125,-46.88243103027344,-549.7258911132812,143563.04201875,-2.261819569738958,-1.710164074054783,-0.445762999982762,-0.00471008475869894,0.04462509602308273,0.03014879673719406,0.004831194877624512,-0.009027332067489624,0.004677891731262207,1,0.7276577353477478,0.182168573141098,0.5079745650291443,-0.423427402973175,-0.8935335874557495,0.4311464428901672,0.1253423392772675,0,0,0,-1,143558.6217724167,3,2,1561775783.274179,1561774855.646675,295,1.774414,0,0,252.7749,0,0,1561775769.99275,143559.71552,0,-1.400391,75.40172,3232235528,177669985,1,1,0.94,-31.87575,-35.18674,2
1561775787.731974,26,0,0,1561775786.999407,4.634683756162072,-74.15108333348682,2553.529,0.15,136.7578125,3,10,-9999,1561775787.724361,-18.82144165039062,-16.33106231689453,14.78692626953125,144.409423828125,151.9021911621094,15,143563.07036875,-0.9065704345703125,0.4245147705078125,0.1246795654296875,143563.05718575,0.003857855155088785,0.04233813606175271,0.02897226318286302,143563.05880275,-96.17276000976562,-46.74334716796875,-549.8057861328125,143563.06228175,-2.261916943919401,-1.709430998017314,-0.4463187344223049,0.00672456668689847,0.03690055757761002,0.02539465762674809,-0.006133079528808594,-0.004889965057373047,0.0003153085708618164,1,0.7275141477584839,0.1817972362041473,0.5081382989883423,-0.423637181520462,-0.8933877348899841,0.4316478073596954,0.1246541440486908,0,0,0,-1,143558.6217724167,3,2,1561775783.274179,1561774855.646675,295,1.774414,0,0,252.7749,0,0,1561775769.99275,143559.71552,0,-1.400391,75.40172,3232235528,177669985,1,1,0.94,-31.87575,-35.18674,2
1561775787.763541,27,0,0,1561775786.999407,4.634683756162072,-74.15108333348682,2553.529,0.15,136.7578125,3,10,-9999,1561775787.748469,-18.54067993164062,-16.18243026733398,14.77423095703125,144.3755035400391,151.8682708740234,15,143563.09063275,-0.9194793701171875,0.4317169189453125,0.1287841796875,143563.07744975,0.03350682757094094,0.08226051869869454,0.03408233668250707,143563.07891375,-96.36869812011719,-46.57670593261719,-549.8861694335938,143563.08251475,-2.261463993248929,-1.708023316699046,-0.4469725221247652,0.03890327736735344,0.09396624565124512,0.04216564446687698,-0.02041381597518921,-0.005250781774520874,0.003915786743164062,1,0.7271550297737122,0.1814509481191635,0.508408784866333,-0.4240773618221283,-0.8932824730873108,0.4322374761104584,0.1233577653765678,0,0,0,-1,143558.6217724167,3,2,1561775783.274179,1561774855.646675,295,1.774414,0,0,252.7749,0,0,1561775769.99275,143560.660666,0,-1.569336,75.40332,3232235528,177669985,1,1,0.94,-31.87575,-36.60727,2
1561775787.773041,28,0,0,1561775786.999407,4.634683756162072,-74.15108333348682,2553.529,0.15,136.7578125,3,10,-9999,1561775787.748469,-18.54067993164062,-16.18243026733398,14.77423095703125,144.3755035400391,151.8682708740234,15,143563.11089675,-0.8961944580078125,0.427947998046875,0.12030029296875,143563.09771275,0.03510658843775154,0.158467139607421,0.08784783066568078,143563.09902475,-96.61964416503906,-46.42839050292969,-550.0834350585938,143563.10277875,-2.26091677116886,-1.70512308948699,-0.4484634546360498,0.02917181886732578,0.1646649092435837,0.09019815176725388,-0.02053153514862061,-0.003253042697906494,0.004167318344116211,1,0.7264586687088013,0.1805487424135208,0.5090147852897644,-0.4249280989170074,-0.8929968476295471,0.4335814416408539,0.1206800937652588,0,0,0,-1,143558.6217724167,3,2,1561775783.274179,1561774855.646675,295,1.774414,0,0,252.7749,0,0,1561775769.99275,143560.660666,0,-1.569336,75.40332,3232235528,177669985,1,1,0.94,-31.87575,-36.60727,2
1561775787.792821,29,0,0,1561775786.999407,4.634683756162072,-74.15108333348682,2553.529,0.15,136.7578125,3,10,-9999,1561775787.774809,-18.81759643554688,-16.17601013183594,14.66656494140625,144.3502044677734,151.8429718017578,15,143563.13115975,-0.8826751708984375,0.4335784912109375,0.1222381591796875,143563.11797675,0.007946073744469423,0.1724660458774225,0.07826471179913964,143563.11913675,-96.69668579101562,-46.82821655273438,-549.8754272460938,143563.12304275,-2.260835470075598,-1.701719215363,-0.4501183875273528,0.003512527793645859,0.1524953246116638,0.06532183289527893,0.007268130779266357,-0.003980815410614014,0.001426815986633301,1,0.7256853580474854,0.1793145835399628,0.5098646879196167,-0.4257523417472839,-0.8926898837089539,0.435072124004364,0.1175459176301956,0,0,0,-1,143558.6217724167,3,2,1561775783.274179,1561774855.646675,295,1.774414,0,0,252.7749,0,0,1561775769.99275,143560.660666,0,-1.569336,75.40332,3232235528,177669985,1,1,0.94,-31.87575,-33.98717,2
1561775787.813081,30,0,0,1561775786.999407,4.634683756162072,-74.15108333348682,2553.529,0.15,136.7578125,3,10,-9999,1561775787.799102,-18.95532989501953,-16.28444671630859,14.74072265625,144.354736328125,151.8475036621094,15,143563.15142375,-0.897247314453125,0.437255859375,0.124481201171875,143563.13824075,0.01485324834769894,0.1550484397160862,0.07656375081090604,143563.13924775,-96.59283447265625,-46.95707702636719,-550.1268310546875,143563.14330575,-2.260846870602056,-1.698747024513969,-0.4514703339714072,0.009326474741101265,0.158526599407196,0.08092982321977615,0.002131164073944092,-0.003030955791473389,0.01303637027740479,1,0.7250107526779175,0.1782355159521103,0.5106437802314758,-0.4264203906059265,-0.8924509882926941,0.4362890124320984,0.1148169785737991,0,0,0,-1,143558.6217724167,3,2,1561775783.274179,1561774855.646675,295,1.774414,0,0,252.7749,0,0,1561775769.99275,143560.660666,0,-1.569336,75.40332,3232235528,177669985,1,1,0.94,-31.87575,-34.52351,2
1561775787.844164,31,0,0,1561775786.999407,4.634683756162072,-74.15108333348682,2553.529,0.15,136.7578125,3,10,-9999,1561775787.828005,-19.00170135498047,-16.20657348632812,14.52252197265625,144.3795013427734,151.8722686767578,15,143563.17168775,-0.8917388916015625,0.434967041015625,0.111114501953125,143563.15850375,-0.01328278225287921,0.2177613560135991,0.0946881599255493,143563.15935875,-96.66690063476562,-47.08404541015625,-550.063720703125,143563.16356975,-2.261252009080071,-1.695023805881442,-0.4531629794633608,-0.02359419129788876,0.2292534857988358,0.09586802124977112,-0.002759277820587158,0.001260221004486084,0.007906675338745117,1,0.7241986989974976,0.1767402440309525,0.5117019414901733,-0.4271535575389862,-0.8921381831169128,0.4378114640712738,0.1114017367362976,0,0,0,-1,143558.6217724167,3,2,1561775783.274179,1561774855.646675,295,1.774414,0,0,252.7749,0,0,1561775769.99275,143560.660666,0,-1.569336,75.40332,3232235528,177669985,1,1,0.94,-31.87575,-35.27651,2
1561775787.853541,32,0,0,1561775786.999407,4.634683756162072,-74.15108333348682,2553.529,0.15,136.7578125,3,10,-9999,1561775787.849986,-19.2889404296875,-16.35625457763672,14.34710693359375,144.5045318603516,151.9972991943359,15,143563.19195075,-0.8777008056640625,0.438385009765625,0.101318359375,143563.17876775,-0.07431604285087916,0.2672831027997316,0.08959433170855474,143563.17946975,-96.61448669433594,-46.65435791015625,-550.078857421875,143563.18383375,-2.262807920172231,-1.690673828887163,-0.4547767979243234,-0.09158629179000854,0.2625264823436737,0.07872924953699112,0.006108760833740234,-0.003455519676208496,-0.003767132759094238,1,0.7233195304870605,0.1747183799743652,0.5132491588592529,-0.4276187121868134,-0.8919119834899902,0.4392618238925934,0.1074353083968163,0,0,0,-1,143558.6217724167,3,2,1561775783.274179,1561774855.646675,295,1.774414,0,0,252.7749,0,0,1561775769.99275,143560.660666,0,-1.569336,75.40332,3232235528,177669985,1,1,0.94,-31.87575,-35.72369,2
1561775787.873856,33,0,0,1561775786.999407,4.634683756162072,-74.15108333348682,2553.529,0.15,136.7578125,3,10,-9999,1561775787.849986,-19.2889404296875,-16.35625457763672,14.34710693359375,144.5045318603516,151.9972991943359,15,143563.21218475,-0.874481201171875,0.4428863525390625,0.1099090576171875,143563.19903175,-0.08563607538036996,0.2304393343829214,0.06856281594798098,143563.19958075,-97.05816650390625,-46.59243774414062,-550.2117919921875,143563.20409675,-2.265038851731285,-1.686874119596912,-0.4559122668318045,-0.07321127504110336,0.2061319351196289,0.05931560695171356,0.01706171035766602,-0.001530379056930542,-0.001036643981933594,1,0.7226060628890991,0.1727261394262314,0.5148469209671021,-0.4277134239673615,-0.891817569732666,0.4402815699577332,0.1039876863360405,0,0,0,-1,143558.6217724167,3,2,1561775783.274179,1561774855.646675,295,1.774414,0,0,252.7749,0,0,1561775769.99275,143560.660666,0,-1.569336,75.40332,3232235528,177669985,1,1,0.94,-31.87575,-36.66944,2
1561775787.894096,34,0,0,1561775786.999407,4.634683756162072,-74.15108333348682,2553.529,0.15,136.7578125,3,10,-9999,1561775787.875978,-19.48912811279297,-16.00197982788086,14.40679931640625,144.6417541503906,152.134521484375,15,143563.23244775,-0.8715972900390625,0.4430389404296875,0.1111602783203125,143563.21929475,-0.02206162647021641,0.1358784735574778,0.03410577250009977,143563.21969175,-96.88319396972656,-46.86729431152344,-550.369873046875,143563.22436075,-2.266073391899818,-1.684248629580791,-0.4566325950413699,-0.01185231283307076,0.1078066900372505,0.02007712423801422,0.02076995372772217,0.002949953079223633,0.01124405860900879,1,0.7220625281333923,0.1715537011623383,0.5158562660217285,-0.4278869926929474,-0.8917721509933472,0.4409282207489014,0.10160993039608,0,0,0,-1,143558.6217724167,3,2,1561775783.274179,1561774855.646675,295,1.774414,0,0,252.7749,0,0,1561775769.99275,143560.660666,0,-1.569336,75.40332,3232235528,177669985,1,1,0.94,-31.87575,-36.66944,2
1561775787.924405,35,0,0,1561775786.999407,4.634683756162072,-74.15108333348682,2553.529,0.15,136.7578125,3,10,-9999,1561775787.900455,-19.34092712402344,-16.09966278076172,14.30828857421875,144.6687469482422,152.1615142822266,15,143563.25271175,-0.885345458984375,0.44580078125,0.1016693115234375,143563.23952775,0.005432049675434622,0.0712590002355772,0.02431039969467932,143563.23980275,-97.02194213867188,-46.90931701660156,-550.5111083984375,143563.24462475,-2.266175914489868,-1.682776315724809,-0.4569692509848721,0.004186041187494993,0.06367091834545135,0.03054574318230152,0.01265347003936768,0.003303945064544678,0.007919788360595703,1,0.7217119336128235,0.1710906773805618,0.5163348317146301,-0.4280866682529449,-0.8917732834815979,0.4412303566932678,0.1002802699804306,0,0,0,-1,143558.6217724167,3,2,1561775783.274179,1561774855.646675,295,1.774414,0,0,252.7749,0,0,1561775769.99275,143560.660666,0,-1.569336,75.40332,3232235528,177669985,1,1,0.94,-31.87575,-37.74992,2
1561775787.93454,36,0,0,1561775786.999407,4.634683756162072,-74.15108333348682,2553.529,0.15,136.7578125,3,10,-9999,1561775787.926823,-19.36869812011719,-15.96294784545898,14.22161865234375,144.6641998291016,152.1569671630859,15,143563.27297575,-0.8777313232421875,0.446533203125,0.0944061279296875,143563.25979175,0.01739709982094262,0.07897231370077369,0.06848398637971463,143563.25991375,-97.00987243652344,-46.63288879394531,-550.4814453125,143563.26488875,-2.266068030759628,-1.681351671680438,-0.4580794176155901,0.01662273705005646,0.07619097083806992,0.07301650196313858,0.008966326713562012,0.0020790696144104,-0.002520084381103516,1,0.721402645111084,0.1704582870006561,0.5165789127349854,-0.4285655617713928,-0.8914278745651245,0.4422263503074646,0.09895560890436172,0,0,0,-1,143558.6217724167,3,2,1561775783.274179,1561774855.646675,295,1.774414,0,0,252.7749,0,0,1561775769.99275,143560.660666,0,-1.569336,75.40332,3232235528,177669985,1,1,0.94,-31.87575,-37.74992,2
1561775787.956307,37,0,0,1561775786.999407,4.634683756162072,-74.15108333348682,2553.529,0.15,136.7578125,3,10,-9999,1561775787.951619,-19.45307922363281,-16.23271179199219,14.06268310546875,144.6659545898438,152.1587219238281,15,143563.29323875,-0.88055419921875,0.4506072998046875,0.09490966796875,143563.28005575,0.008340221585801151,0.08517055482182412,0.07993531275094636,143563.28002475,-97.26211547851562,-46.57624816894531,-550.408447265625,143563.28512175,-2.266020921445781,-1.679762857968748,-0.4596565364938845,0.00413464242592454,0.07233577966690063,0.07815799862146378,0.01198321580886841,0.006860136985778809,-0.004720211029052734,1,0.7210844159126282,0.169613853096962,0.5167908668518066,-0.4291800558567047,-0.8908894658088684,0.4436403214931488,0.09746319055557251,0,0,0,-1,143558.6217724167,3,2,1561775783.274179,1561774855.646675,295,1.774414,0,0,252.7749,0,0,1561775769.99275,143560.660666,0,-1.569336,75.40332,3232235528,177669985,1,1,0.94,-31.87575,-38.46332,2
1561775787.97525,38,0,0,1561775786.999407,4.634683756162072,-74.15108333348682,2553.529,0.15,136.7578125,3,10,-9999,1561775787.951619,-19.45307922363281,-16.23271179199219,14.06268310546875,144.6659545898438,152.1587219238281,15,143563.31350275,-0.8836669921875,0.4492034912109375,0.1000823974609375,143563.30031875,0.002853843424128912,0.05570320999231537,0.08067433995344334,143563.30013575,-97.48782348632812,-46.37275695800781,-550.34033203125,143563.30538475,-2.266193519783809,-1.67872683656693,-0.4612268640477501,0.002668305765837431,0.04269186779856682,0.07232115417718887,0.006797194480895996,0.004354745149612427,0.000245213508605957,1,0.7209268808364868,0.1688103526830673,0.5168519020080566,-0.4296878278255463,-0.8902963399887085,0.4450471103191376,0.09646500647068024,0,0,0,-1,143558.6217724167,3,2,1561775783.274179,1561774855.646675,295,1.774414,0,0,252.7749,0,0,1561775769.99275,143560.660666,0,-1.569336,75.40332,3232235528,177669985,1,1,0.94,-32.43303,-39.09249,2
1561775788.006551,39,0,0,1561775786.999407,4.634683756162072,-74.15108333348682,2553.529,0.15,136.7578125,3,10,-9999,1561775788.001844,-19.37851715087891,-16.00886535644531,14.08740234375,144.7220916748047,152.2148590087891,15,143563.33376675,-0.8903350830078125,0.4507293701171875,0.1028900146484375,143563.32058275,-0.008825449536413588,0.02396924875904017,0.04397677908047846,143563.32024675,-97.01165771484375,-46.56388854980469,-550.386962890625,143563.32564875,-2.266463797756601,-1.678355665206252,-0.4622868615525767,-0.01726572215557098,0.01811941340565681,0.0283662136644125,0.006561636924743652,0.00291752815246582,0.005066752433776855,1,0.7209180593490601,0.1682827025651932,0.5168076157569885,-0.4299626350402832,-0.8898624181747437,0.445996105670929,0.09608383476734161,0,0,0,-1,143558.6217724167,3,2,1561775783.274179,1561774855.646675,295,1.774414,0,0,252.7749,0,0,1561775769.99275,143560.660666,0,-1.569336,75.40332,3232235528,177669985,1,1,0.94,-32.99031,-39.31841,2
1561775788.015584,40,0,0,1561775786.999407,4.634683756162072,-74.15108333348682,2553.529,0.15,136.7578125,3,10,-9999,1561775788.001844,-19.37851715087891,-16.00886535644531,14.08740234375,144.7220916748047,152.2148590087891,15,143563.35402975,-0.8952484130859375,0.4490814208984375,0.1015167236328125,143563.34084675,-0.03315315977817842,0.03819558898613445,0.009819607571340167,143563.34035775,-97.02476501464844,-46.52777099609375,-550.4153442382812,143563.34591275,-2.267159092664293,-1.678127196357153,-0.4625087592345268,-0.03651132062077522,0.03419744968414307,-0.0006776901427656412,-0.005737006664276123,0.003573358058929443,0.008118748664855957,1,0.7209308743476868,0.1679096221923828,0.516990065574646,-0.4298677742481232,-0.8897860646247864,0.4461946785449982,0.09586993604898453,0,0,0,-1,143558.6217724167,3,2,1561775783.274179,1561774855.646675,295,1.774414,0,0,252.7749,0,0,1561775769.99275,143560.660666,0,-1.569336,75.40332,3232235528,177669985,1,1,0.94,-33.54758,-40.34484,2
1561775788.035848,41,0,0,1561775786.999407,4.634683756162072,-74.15108333348682,2553.529,0.15,136.7578125,3,10,-9999,1561775788.027884,-19.47866058349609,-15.89175033569336,14.0887451171875,144.7816925048828,152.2744598388672,15,143563.37429375,-0.8892364501953125,0.4496917724609375,0.105316162109375,143563.36110975,-0.03617638024763637,0.06197442172723396,-0.0200751746131263,143563.36046975,-97.47769165039062,-46.3829345703125,-550.5328369140625,143563.36617575,-2.26796637750751,-1.677518227360234,-0.4621411107694668,-0.04030818864703178,0.05892063677310944,-0.02205408364534378,-0.0005413293838500977,0.002773314714431763,0.008063316345214844,1,0.7208188772201538,0.1676094084978104,0.5174648761749268,-0.4296014010906219,-0.8900073766708374,0.4458656311035156,0.09534553438425064,0,0,0,-1,143558.6217724167,3,2,1561775783.274179,1561774855.646675,295,1.774414,0,0,252.7749,0,0,1561775769.99275,143560.660666,0,-1.569336,75.40332,3232235528,177669985,1,1,0.94,-34.10486,-40.81748,2
1561775788.056085,42,0,0,1561775787.999394,4.63468903676107,-74.15108794353357,2553.555,0.48,253.4765625,3,10,-9999,1561775788.052304,-19.50511169433594,-15.89400100708008,14.0733642578125,144.8531494140625,152.3459167480469,15,143563.39452675,-0.8829193115234375,0.4490966796875,0.1090087890625,143563.38137375,-0.04581222970376107,0.04892120396031958,-0.003689010741977761,143563.38058075,-97.1143798828125,-46.377197265625,-550.334716796875,143563.38643975,-2.26895651398126,-1.676924373042149,-0.4618002735216641,-0.04138250648975372,0.03911950439214706,-0.003636462148278952,0.002031326293945312,0.0062674880027771,0.009155631065368652,1,0.7207274436950684,0.1672378182411194,0.5179672837257385,-0.4292940199375153,-0.8902148604393005,0.4455605149269104,0.09483306854963303,0,0,0,-1,143558.6217724167,3,2,1561775783.274179,1561774855.646675,295,1.774414,0,0,252.7749,0,0,1561775769.99275,143560.660666,0,-1.569336,75.40332,3232235528,177669985,1,1,0.94,-34.10486,-40.81748,2
1561775788.076382,43,0,0,1561775787.999394,4.63468903676107,-74.15108794353357,2553.555,0.48,253.4765625,3,10,-9999,1561775788.052304,-19.50511169433594,-15.89400100708008,14.0733642578125,144.8531494140625,152.3459167480469,15,143563.41479075,-0.8884429931640625,0.4423370361328125,0.114288330078125,143563.40163775,-0.01141084632266251,0.02736371388445516,-0.00141866591268521,143563.40066075,-97.50849914550781,-46.3919677734375,-550.6539916992188,143563.40670375,-2.269479850784868,-1.676607184687058,-0.4617053686322607,-0.004994673654437065,0.01352652534842491,-0.004013033118098974,0.01077032089233398,-0.0006361007690429688,0.02023673057556152,1,0.7206832766532898,0.1670125722885132,0.518215000629425,-0.4291568994522095,-0.8902869820594788,0.4454755485057831,0.09455516934394836,0,0,0,-1,143558.6217724167,3,2,1561775783.274179,1561774855.646675,295,1.774414,0,0,252.7749,0,0,1561775769.99275,143560.660666,0,-1.569336,75.40332,3232235528,177669985,1,1,0.94,-34.66214,-41.23335,2
1561775788.096568,44,0,0,1561775787.999394,4.63468903676107,-74.15108794353357,2553.555,0.48,253.4765625,3,10,-9999,1561775788.078586,-19.59688568115234,-15.70705795288086,14.03802490234375,144.8750610351562,152.3678283691406,15,143563.43505475,-0.9047393798828125,0.431854248046875,0.1067657470703125,143563.42187075,0.001218928830929267,0.002378735485658776,0.008484032284665429,143563.42077175,-97.24705505371094,-46.62350463867188,-550.4016723632812,143563.42696675,-2.269545884766274,-1.676652810873584,-0.4617617768647867,-0.0003016513073816895,-0.003346996614709496,0.005509898066520691,-0.01068234443664551,-0.008666902780532837,0.01675021648406982,1,0.7207040190696716,0.1669798791408539,0.518200159072876,-0.429152637720108,-0.8902575969696045,0.4455260634422302,0.09459312260150909,0,0,0,-1,143558.6217724167,3,2,1561775783.274179,1561774855.646675,295,1.774414,0,0,252.7749,0,0,1561775769.99275,143560.660666,0,-1.569336,75.40332,3232235528,177669985,1,1,0.94,-35.21942,-39.99162,2
1561775788.116824,45,0,0,1561775787.999394,4.63468903676107,-74.15108794353357,2553.555,0.48,253.4765625,3,10,-9999,1561775788.102907,-19.75700378417969,-15.84495544433594,14.0347900390625,144.8856201171875,152.3783874511719,15,143563.45531775,-0.906951904296875,0.434478759765625,0.096588134765625,143563.44213475,-0.0136385805745138,0.0201489441753215,-0.009092830909857543,143563.44088275,-97.299072265625,-46.62562561035156,-550.38330078125,143563.44723075,-2.269776315496949,-1.676637287235768,-0.4616282367866562,-0.02111185900866985,0.03001176007091999,-0.02043967694044113,-0.01492458581924438,-0.01639041304588318,0.004520177841186523,1,0.7207111716270447,0.1669377386569977,0.5182849168777466,-0.4290547668933868,-0.8903183341026306,0.4454064965248108,0.0945856049656868,0,0,0,-1,143558.6217724167,3,2,1561775783.274179,1561774855.646675,295,1.774414,0,0,252.7749,0,0,1561775769.99275,143560.660666,0,-1.569336,75.40332,3232235528,177669985,1,1,0.94,-35.7767,-40.18758,2
1561775788.137096,46,0,0,1561775787.999394,4.63468903676107,-74.15108794353357,2553.555,0.48,253.4765625,3,10,-9999,1561775788.129194,-19.72495269775391,-15.99539566040039,14.2666015625,144.9170989990234,152.4098663330078,15,143563.47558175,-0.8974456787109375,0.4544830322265625,0.0946807861328125,143563.46239775,-0.01893720587933545,0.08493912612309623,-0.01782187401481026,143563.46099375,-97.46705627441406,-46.52471923828125,-550.5758666992188,143563.46746375,-2.270210525846176,-1.675639971017563,-0.4611799172009423,-0.02018081769347191,0.0921371802687645,-0.01387152262032032,-0.01295363903045654,-0.001035332679748535,0.002121925354003906,1,0.7204617261886597,0.1667158156633377,0.5188369750976562,-0.4288928210735321,-0.8906108140945435,0.4450050592422485,0.093718521296978,0,0,0,-1,143558.6217724167,3,2,1561775783.274179,1561774855.646675,295,1.774414,0,0,252.7749,0,0,1561775769.99275,143560.660666,0,-1.569336,75.40332,3232235528,177669985,1,1,0.94,-36.33398,-40.96936,2
1561775788.157469,47,0,0,1561775787.999394,4.63468903676107,-74.15108794353357,2553.555,0.48,253.4765625,3,10,-9999,1561775788.153375,-19.84785461425781,-15.90903854370117,14.09814453125,144.9849090576172,152.4776763916016,15,143563.49584575,-0.8942108154296875,0.4583892822265625,0.09716796875,143563.48266175,-0.03786482437874661,0.1379099328369903,0.02386591810874509,143563.48110575,-97.59597778320312,-46.30807495117188,-550.5225830078125,143563.48772775,-2.271001662706889,-1.673671884666818,-0.4613313646731885,-0.04819886758923531,0.1402234882116318,0.03530960530042648,-0.005239427089691162,0.01774993538856506,0.002874851226806641,1,0.7200257182121277,0.1659586131572723,0.5196816325187683,-0.4288957715034485,-0.8907261490821838,0.4451406896114349,0.09195858985185623,0,0,0,-1,143558.6217724167,3,2,1561775783.274179,1561774855.646675,295,1.774414,0,0,252.7749,0,0,1561775769.99275,143560.660666,0,-1.569336,75.40332,3232235528,177669985,1,1,0.94,-36.89126,-39.22001,2
1561775788.178159,48,0,0,1561775787.999394,4.63468903676107,-74.15108794353357,2553.555,0.48,253.4765625,3,10,-9999,1561775788.153375,-19.84785461425781,-15.90903854370117,14.09814453125,144.9849090576172,152.4776763916016,15,143563.51610875,-0.8794708251953125,0.4482269287109375,0.0924072265625,143563.50292575,-0.07367475366038807,0.1615777117606335,0.07551233481254276,143563.50121675,-97.47743225097656,-46.59588623046875,-550.5840454101562,143563.50799175,-2.272679410096296,-1.671474552846177,-0.4624058625620712,-0.08388948440551758,0.1448043882846832,0.07169423997402191,0.004539847373962402,0.004886209964752197,0.004590392112731934,1,0.7196577787399292,0.1645272076129913,0.5205941200256348,-0.4289583265781403,-0.8904498219490051,0.4461025893688202,0.08995304256677628,0,0,0,-1,143558.6217724167,3,2,1561775783.274179,1561774855.646675,295,1.774414,0,0,252.7749,0,0,1561775769.99275,143560.660666,0,-1.569336,75.40332,3232235528,177669985,1,1,0.94,-37.44854,-40.00898,2
1561775788.19788,49,0,0,1561775787.999394,4.63468903676107,-74.15108794353357,2553.555,0.48,253.4765625,3,10,-9999,1561775788.179851,-19.94196319580078,-16.05948257446289,14.05316162109375,145.1248626708984,152.6176300048828,15,143563.53637275,-0.8818359375,0.44476318359375,0.0948028564453125,143563.52318875,-0.09017383556175598,0.1382542795659375,0.03174594545818055,143563.52132775,-97.40969848632812,-46.66883850097656,-550.7644653320312,143563.52825475,-2.274850326985263,-1.669739526157443,-0.4630550313157017,-0.09604734927415848,0.1220796406269073,0.003411060897633433,0.008709073066711426,0.00253528356552124,0.006347179412841797,1,0.7194226384162903,0.1631585955619812,0.5215399861335754,-0.4287264049053192,-0.8903161287307739,0.4466834962368011,0.08837932348251343,0,0,0,-1,143558.6217724167,3,2,1561775783.274179,1561774855.646675,295,1.774414,0,0,252.7749,0,0,1561775769.99275,143560.660666,0,-1.569336,75.40332,3232235528,177669985,1,1,0.94,-37.42722,-40.7207,2
1561775788.218196,50,0,0,1561775787.999394,4.63468903676107,-74.15108794353357,2553.555,0.48,253.4765625,3,10,-9999,1561775788.204214,-20.00041961669922,-16.09819030761719,13.67791748046875,145.2802276611328,152.7729949951172,15,143563.55663675,-0.8951873779296875,0.4349365234375,0.08538818359375,143563.54345275,-0.09864108993155392,0.08946596734401292,-0.07037163496036279,143563.54140775,-97.54547119140625,-46.44407653808594,-550.931640625,143563.54851875,-2.276961816375111,-1.668759202496174,-0.4618403897618082,-0.1008929684758186,0.07614942640066147,-0.09692619740962982,0.004619777202606201,-0.007608175277709961,0.00124657154083252,1,0.7192658185958862,0.1625928282737732,0.5226134061813354,-0.4278966188430786,-0.8909417390823364,0.4455964267253876,0.08755949139595032,0,0,0,-1,143558.6217724167,3,2,1561775783.274179,1561774855.646675,295,1.774414,0,0,252.7749,0,0,1561775769.99275,143560.660666,0,-1.569336,75.40332,3232235528,177669985,1,1,0.94,-37.42722,-40.7207,2
1561775788.238916,51,0,0,1561775787.999394,4.63468903676107,-74.15108794353357,2553.555,0.48,253.4765625,3,10,-9999,1561775788.230529,-19.87841796875,-16.03782653808594,13.614501953125,145.4224090576172,152.9151763916016,15,143563.57686975,-0.8850860595703125,0.426910400390625,0.076507568359375,143563.56371675,-0.09370119242556593,0.1032411680824478,-0.1495663226121581,143563.56151875,-97.45909118652344,-46.4742431640625,-550.8041381835938,143563.56878275,-2.278885674202989,-1.667845910167786,-0.4589564116447542,-0.09001955389976501,0.1093758270144463,-0.1563152074813843,0.009026408195495605,-0.0147290825843811,-0.007539510726928711,1,0.7190098762512207,0.1626645624637604,0.5239887833595276,-0.4266155362129211,-0.8922966718673706,0.4430127441883087,0.08686992526054382,0,0,0,-1,143558.6217724167,3,2,1561775783.274179,1561774855.646675,295,1.774414,0,0,252.7749,0,0,1561775769.99275,143560.660666,0,-1.569336,75.40332,3232235528,177669985,1,1,0.94,-36.71205,-40.82155,2
1561775788.258669,52,0,0,1561775787.999394,4.63468903676107,-74.15108794353357,2553.555,0.48,253.4765625,3,10,-9999,1561775788.254907,-19.68116760253906,-16.25484466552734,13.4449462890625,145.5517272949219,153.0444946289062,15,143563.59713275,-0.8849029541015625,0.436614990234375,0.0752410888671875,143563.58397975,-0.08827233854343941,0.1703858507499616,-0.1158405831996127,143563.58162975,-97.48689270019531,-46.6392822265625,-551.0333251953125,143563.58904575,-2.280626909670746,-1.665713366177843,-0.4561394953216652,-0.08941980451345444,0.1834649592638016,-0.0958247110247612,0.005855560302734375,-0.006418794393539429,-0.01004207134246826,1,0.7184213399887085,0.1625213176012039,0.5257453322410583,-0.4254990816116333,-0.8937186598777771,0.4404855966567993,0.08508480340242386,0,0,0,-1,143558.6217724167,3,2,1561775783.274179,1561774855.646675,295,1.774414,0,0,252.7749,0,0,1561775769.99275,143560.660666,0,-1.569336,75.40332,3232235528,177669985,1,1,0.94,-36.71205,-40.56651,2
1561775788.278922,53,0,0,1561775787.999394,4.63468903676107,-74.15108794353357,2553.555,0.48,253.4765625,3,10,-9999,1561775788.254907,-19.68116760253906,-16.25484466552734,13.4449462890625,145.5517272949219,153.0444946289062,15,143563.61739675,-0.8831787109375,0.4454803466796875,0.0770721435546875,143563.60424375,-0.08223814814553787,0.2084163237485111,-0.005227785219825544,143563.60174175,-97.28587341308594,-46.92665100097656,-551.242919921875,143563.60930975,-2.282487548783607,-1.662561819914116,-0.455237428360672,-0.08214564621448517,0.1993065178394318,0.01602911949157715,0.008498072624206543,0.002447843551635742,-0.006193280220031738,1,0.7176873683929443,0.161483496427536,0.5274701714515686,-0.4249977469444275,-0.894377589225769,0.4396755695343018,0.08230415731668472,0,0,0,-1,143558.6217724167,3,2,1561775783.274179,1561774855.646675,295,1.774414,0,0,252.7749,0,0,1561775769.99275,143560.660666,0,-1.569336,75.40332,3232235528,177669985,1,1,0.94,-36.71205,-40.80255,2
1561775788.299165,54,0,0,1561775787.999394,4.63468903676107,-74.15108794353357,2553.555,0.48,253.4765625,3,10,-9999,1561775788.28116,-19.79907989501953,-16.31858825683594,13.47021484375,145.6856689453125,153.1784362792969,15,143563.63766075,-0.883941650390625,0.4539642333984375,0.077911376953125,143563.62447675,-0.06035681768111982,0.1980893839895108,0.07956753020440641,143563.62185275,-97.71583557128906,-46.84713745117188,-551.2349243164062,143563.62957375,-2.284188048038798,-1.659422768743788,-0.4562736192998524,-0.05869412049651146,0.1981019675731659,0.09263014793395996,0.01220399141311646,0.009497761726379395,-0.0004305839538574219,1,0.7170581817626953,0.1598609089851379,0.5287306904792786,-0.4251068830490112,-0.894177258014679,0.4406059980392456,0.07945588976144791,0,0,0,-1,143558.6217724167,3,2,1561775783.274179,1561774855.646675,295,1.774414,0,0,252.7749,0,0,1561775769.99275,143560.660666,0,-1.569336,75.40332,3232235528,177669985,1,1,0.94,-35.78735,-40.9259,2
1561775788.319453,55,0,0,1561775787.999394,4.63468903676107,-74.15108794353357,2553.555,0.48,253.4765625,3,10,-9999,1561775788.307438,-19.99375152587891,-16.23456954956055,13.2181396484375,145.7903289794922,153.2830963134766,15,143563.65792375,-0.88323974609375,0.445220947265625,0.0773162841796875,143563.64474075,-0.04104597030084626,0.2128536827568011,0.1118788647620108,143563.64196375,-97.35145568847656,-46.93280029296875,-551.445556640625,143563.64980675,-2.285468221916188,-1.655867239031337,-0.4582959304424611,-0.04171247407793999,0.2104811370372772,0.1017613336443901,0.01258313655853271,0.004494190216064453,-0.001020312309265137,1,0.7163417339324951,0.1579704135656357,0.5298346877098083,-0.4256466627120972,-0.8935645818710327,0.4424205422401428,0.07620026171207428,0,0,0,-1,143558.6217724167,3,2,1561775783.274179,1561774855.646675,295,1.774414,0,0,252.7749,0,0,1561775769.99275,143560.660666,0,-1.569336,75.40332,3232235528,177669985,1,1,0.94,-35.41119,-37.38687,2
1561775788.339759,56,0,0,1561775787.999394,4.63468903676107,-74.15108794353357,2553.555,0.48,253.4765625,3,10,-9999,1561775788.33179,-19.85109710693359,-16.1356086730957,13.14422607421875,145.87939453125,153.3721618652344,15,143563.67818775,-0.8961029052734375,0.439727783203125,0.085601806640625,143563.66500375,-0.05090099791468448,0.1971556797113291,0.06026760178460216,143563.66204375,-97.77127075195312,-46.93138122558594,-551.208984375,143563.67006975,-2.286703162253337,-1.652395367773283,-0.4596700596180595,-0.05485916882753372,0.1811458915472031,0.0407286025583744,0.001279830932617188,0.00100398063659668,0.006801366806030273,1,0.7156012058258057,0.1563292741775513,0.5310400128364563,-0.4259960949420929,-0.8932170867919922,0.4436524510383606,0.07304785400629044,0,0,0,-1,143558.6217724167,3,2,1561775783.274179,1561774855.646675,295,1.774414,0,0,252.7749,0,0,1561775769.99275,143560.660666,0,-1.569336,75.40332,3232235528,177669985,1,1,0.94,-32.1452,-35.06619,2
1561775788.359998,57,0,0,1561775787.999394,4.63468903676107,-74.15108794353357,2553.555,0.48,253.4765625,3,10,-9999,1561775788.356251,-20.37953948974609,-16.32780456542969,13.0379638671875,145.9732360839844,153.4660034179688,15,143563.69845175,-0.89385986328125,0.437744140625,0.086334228515625,143563.68526775,-0.05175214419907381,0.1554758770710439,-0.007669903939428206,143563.68215475,-97.88682556152344,-46.74165344238281,-551.5096435546875,143563.69033375,-2.287985679621844,-1.649738749475738,-0.4596991556211325,-0.05214780196547508,0.1372303515672684,-0.0288145188242197,-0.001502513885498047,-0.006559967994689941,0.01538598537445068,1,0.7149966955184937,0.1552950143814087,0.5322568416595459,-0.4258706271648407,-0.893394947052002,0.4436785280704498,0.0706736296415329,0,0,0,-1,143558.6217724167,3,2,1561775783.274179,1561774855.646675,295,1.774414,0,0,252.7749,0,0,1561775769.99275,143560.660666,0,-1.569336,75.40332,3232235528,177669985,1,1,0.94,-31.97831,-31.97831,2
1561775788.380222,58,0,0,1561775787.999394,4.63468903676107,-74.15108794353357,2553.555,0.48,253.4765625,3,10,-9999,1561775788.356251,-20.37953948974609,-16.32780456542969,13.0379638671875,145.9732360839844,153.4660034179688,15,143563.71871475,-0.894805908203125,0.439483642578125,0.0798492431640625,143563.70553175,-0.06190065216503875,0.1128410648638564,-0.05036224042616145,143563.70226575,-97.93629455566406,-46.87055969238281,-551.6459350585938,143563.71059775,-2.289266150291067,-1.647963339276978,-0.4586582250238998,-0.06628172844648361,0.09520221501588821,-0.05442214757204056,0.001248300075531006,-0.005840510129928589,0.01321351528167725,1,0.71455979347229,0.154808834195137,0.533390998840332,-0.4253616631031036,-0.893979012966156,0.4427454173564911,0.06912294775247574,0,0,0,-1,143558.6217724167,3,2,1561775783.274179,1561774855.646675,295,1.774414,0,0,252.7749,0,0,1561775769.99275,143560.660666,0,-1.569336,75.40332,3232235528,177669985,1,1,0.94,-31.97831,-31.97831,2
1561775788.400499,59,0,0,1561775787.999394,4.63468903676107,-74.15108794353357,2553.555,0.48,253.4765625,3,10,-9999,1561775788.382458,-20.20912170410156,-16.25804138183594,12.7900390625,146.0730285644531,153.5657958984375,15,143563.73897875,-0.8853302001953125,0.4521331787109375,0.07763671875,143563.72579475,-0.05231194066020846,0.1238713454667466,-0.04121135260454018,143563.72237775,-97.67874145507812,-46.81401062011719,-551.6876220703125,143563.73086075,-2.290552161429651,-1.646410162784081,-0.4576529292361761,-0.04231754317879677,0.125957190990448,-0.03173760697245598,0.0006536245346069336,0.01089972257614136,0.01339352130889893,1,0.7141833901405334,0.1543569266796112,0.5344381332397461,-0.424843430519104,-0.8945287466049194,0.4418437778949738,0.06776794791221619,0,0,0,-1,143558.6217724167,3,2,1561775783.274179,1561774855.646675,295,1.774414,0,0,252.7749,0,0,1561775769.99275,143560.660666,0,-1.569336,75.40332,3232235528,177669985,1,1,0.94,-29.19533,-30.33595,2
1561775788.420748,60,0,0,1561775787.999394,4.63468903676107,-74.15108794353357,2553.555,0.48,253.4765625,3,10,-9999,1561775788.406976,-20.33943939208984,-16.12802505493164,12.8963623046875,146.1375427246094,153.6303100585938,15,143563.75924275,-0.886077880859375,0.452728271484375,0.07916259765625,143563.74605875,-0.02118810963267042,0.1394953126339145,0.01755023158362218,143563.74248875,-97.95291137695312,-46.72459411621094,-551.796142578125,143563.75112475,-2.291202487010198,-1.644088257380777,-0.4576058740012062,-0.01964871771633625,0.1317146867513657,0.02801148034632206,0.01118981838226318,0.009217739105224609,0.01028132438659668,1,0.7136095762252808,0.1536473482847214,0.5354152321815491,-0.4248344302177429,-0.8947042226791382,0.4418015778064728,0.06569226831197739,0,0,0,-1,143558.6217724167,3,2,1561775783.274179,1561774855.646675,295,1.774414,0,0,252.7749,0,0,1561775769.99275,143560.660666,0,-1.569336,75.40332,3232235528,177669985,1,1,0.94,-19.13832,-19.75541,2
1561775788.441042,61,0,0,1561775787.999394,4.63468903676107,-74.15108794353357,2553.555,0.48,253.4765625,3,10,-9999,1561775788.433631,-20.23490142822266,-16.29022216796875,12.88916015625,146.1764068603516,153.6691741943359,15,143563.77947575,-0.89202880859375,0.443939208984375,0.083984375,143563.76632275,-0.01499839062710825,0.115447500622717,0.0590249708199712,143563.76256875,-97.76666259765625,-46.87306213378906,-551.7452392578125,143563.77138875,-2.291725417359319,-1.642038741017954,-0.4585205109898232,-0.01552215032279491,0.09111186861991882,0.05617333948612213,0.005731284618377686,0.005910217761993408,0.01838469505310059,1,0.7131564617156982,0.152717649936676,0.5360585451126099,-0.4251192808151245,-0.8944336771965027,0.4426219165325165,0.06382963806390762,0,0,0,-1,143558.6217724167,3,2,1561775783.274179,1561774855.646675,295,1.774414,0,0,252.7749,0,0,1561775769.99275,143560.660666,0,-1.569336,75.40332,3232235528,177669985,1,1,0.94,-17.18991,-18.62578,2
1561775788.461275,62,0,0,1561775787.999394,4.63468903676107,-74.15108794353357,2553.555,0.48,253.4765625,3,10,-9999,1561775788.457482,-20.16248321533203,-16.45698547363281,12.74658203125,146.2134704589844,153.7062377929688,15,143563.79973975,-0.89813232421875,0.433197021484375,0.0806732177734375,143563.78658675,-0.01334456759016905,0.04544711031831121,0.04892679659860874,143563.78267975,-97.76473999023438,-46.78753662109375,-551.7852172851562,143563.79165175,-2.292197266269976,-1.641153090294598,-0.4594760622798784,-0.01702363975346088,0.01897854916751385,0.03584596514701843,-0.001775920391082764,-0.006131172180175781,0.01932871341705322,1,0.713013231754303,0.1520394086837769,0.5362668633460999,-0.4253399074077606,-0.8940675854682922,0.4434785842895508,0.06300769746303558,0,0,0,-1,143558.6217724167,3,2,1561775783.274179,1561774855.646675,295,1.774414,0,0,252.7749,0,0,1561775769.99275,143560.660666,0,-1.569336,75.40332,3232235528,177669985,1,1,0.94,-13.74467,-18.66011,2
1561775788.481523,63,0,0,1561775787.999394,4.63468903676107,-74.15108794353357,2553.555,0.48,253.4765625,3,10,-9999,1561775788.457482,-20.16248321533203,-16.45698547363281,12.74658203125,146.2134704589844,153.7062377929688,15,143563.82000275,-0.896148681640625,0.43731689453125,0.076995849609375,143563.80681975,-0.005983324021081025,-0.01314030313455997,0.004808337348138065,143563.80279075,-97.95381164550781,-47.03276062011719,-551.6986694335938,143563.81191575,-2.292499653705177,-1.641524747452028,-0.4597394578526677,-0.009861866012215614,-0.02289379946887493,-0.003488390473648906,-0.006081640720367432,-0.009571552276611328,0.0173567533493042,1,0.7131518721580505,0.1519219130277634,0.5361413359642029,-0.4253076314926147,-0.8939275145530701,0.4437146186828613,0.0633317232131958,0,0,0,-1,143558.6217724167,3,2,1561775783.274179,1561774855.646675,295,1.774414,0,0,252.7749,0,0,1561775769.99275,143560.660666,0,-1.569336,75.40332,3232235528,177669985,1,1,0.94,-12.49063,-18.89214,2
1561775788.50181,64,0,0,1561775787.999394,4.63468903676107,-74.15108794353357,2553.555,0.48,253.4765625,3,10,-9999,1561775788.483793,-20.29939270019531,-16.20441055297852,12.8790283203125,146.2311859130859,153.7239532470703,15,143563.84026675,-0.890472412109375,0.4422607421875,0.0680694580078125,143563.82708275,-0.006247775917325893,-0.01374510701811696,-0.00476013413240763,143563.82290175,-97.86515808105469,-46.88116455078125,-551.4951171875,143563.83217975,-2.292695950727767,-1.642093372724005,-0.4596430164755023,-0.01278841495513916,-0.0150902047753334,-0.00689324177801609,0.003949999809265137,-0.006326556205749512,0.006713509559631348,1,0.7133133411407471,0.1520053148269653,0.5360013246536255,-0.4251836240291595,-0.8939341306686401,0.443628191947937,0.06384307891130447,0,0,0,-1,143558.6217724167,3,2,1561775783.274179,1561774855.646675,295,1.774414,0,0,252.7749,0,0,1561775769.99275,143560.660666,0,-1.569336,75.40332,3232235528,177669985,1,1,0.94,-12.49063,-17.13694,2
1561775788.522129,65,0,0,1561775787.999394,4.63468903676107,-74.15108794353357,2553.555,0.48,253.4765625,3,10,-9999,1561775788.508896,-20.34497833251953,-16.38481903076172,12.9610595703125,146.2547912597656,153.74755859375,15,143563.860567125,-0.8954315185546875,0.4335479736328125,0.0625457763671875,143563.847383125,-0.01242417911743766,0.006155097911391135,0.01407214319997869,143563.843050125,-97.685302734375,-46.87570190429688,-551.6742553710938,143563.852449125,-2.293056990145712,-1.642411049289767,-0.4597358872572064,-0.01052898913621902,0.005826527718454599,0.01941506192088127,1.275539398193359e-05,-0.002442538738250732,0.001030921936035156,1,0.7134315371513367,0.1519127786159515,0.5359445214271545,-0.4250898957252502,-0.8938726186752319,0.4437114298343658,0.06412409991025925,0,0,0,-1,143558.6217724167,3,2,1561775783.274179,1561774855.646675,295,1.774414,0,0,252.7749,0,0,1561775769.99275,143560.660666,0,-1.569336,75.40332,3232235528,177669985,1,1,0.94,-12.49063,-17.87823,2
1561775788.542387,66,0,0,1561775787.999394,4.63468903676107,-74.15108794353357,2553.555,0.48,253.4765625,3,10,-9999,1561775788.534417,-20.34633636474609,-16.40948867797852,13.0919189453125,146.2764892578125,153.7692565917969,15,143563.880830125,-0.8944854736328125,0.430084228515625,0.063385009765625,143563.867647125,-0.007622233355915787,0.03742913122440965,0.02369494316676201,143563.863161125,-98.08065795898438,-46.83290100097656,-551.677490234375,143563.872713125,-2.293316103419722,-1.642171567215862,-0.4601523529900425,-0.004617569968104362,0.03875305503606796,0.0137601038441062,-0.0029335618019104,-0.01258131861686707,-0.002190351486206055,1,0.7134122252464294,0.1516292095184326,0.5359944105148315,-0.4251605272293091,-0.8937034606933594,0.4440846145153046,0.06389684230089188,0,0,0,-1,143558.6217724167,3,2,1561775783.274179,1561774855.646675,295,1.774414,0,0,252.7749,0,0,1561775769.99275,143560.660666,0,-1.569336,75.40332,3232235528,177669985,1,1,0.94,-12.49063,-17.87823,2
1561775788.562689,67,0,0,1561775787.999394,4.63468903676107,-74.15108794353357,2553.555,0.48,253.4765625,3,10,-9999,1561775788.558831,-20.24211883544922,-16.14786911010742,12.953369140625,146.2964630126953,153.7892303466797,15,143563.901094125,-0.9008941650390625,0.4285125732421875,0.0679931640625,143563.887910125,-0.008138087659064135,0.04621250281559998,-0.005241899973602964,143563.883241125,-97.82794189453125,-46.7191162109375,-551.5867919921875,143563.892976125,-2.293521010809638,-1.641498778303149,-0.4600819466086475,-0.01736692152917385,0.03689762949943542,-0.01324568036943674,-0.001348614692687988,-0.01692801713943481,0.002757549285888672,1,0.7132431268692017,0.1514368951320648,0.5362933874130249,-0.4251360595226288,-0.8937777280807495,0.4440215229988098,0.06329778581857681,0,0,0,-1,143558.6217724167,3,2,1561775783.274179,1561774855.646675,295,1.774414,0,0,252.7749,0,0,1561775769.99275,143560.660666,0,-1.569336,75.40332,3232235528,177669985,1,1,0.94,-12.49063,-18.61134,2
1561775788.582996,68,0,0,1561775787.999394,4.63468903676107,-74.15108794353357,2553.555,0.48,253.4765625,3,10,-9999,1561775788.558831,-20.24211883544922,-16.14786911010742,12.953369140625,146.2964630126953,153.7892303466797,15,143563.921358125,-0.951873779296875,0.44464111328125,0.0627899169921875,143563.908174125,-0.05255668516438674,0.07265103453736162,-0.007637147058020231,143563.903352125,-97.8663330078125,-46.95159912109375,-551.8001098632812,143563.913240125,-2.29443235779462,-1.640863170476062,-0.4597482599662314,-0.06461192667484283,0.07901978492736816,-0.01267922576516867,-0.02678042650222778,-0.00832819938659668,0.002826929092407227,1,0.7131213545799255,0.15108922123909,0.5367861390113831,-0.4248419404029846,-0.8939653635025024,0.4437225162982941,0.06274003535509109,0,0,0,-1,143558.6217724167,3,2,1561775783.274179,1561774855.646675,295,1.774414,0,0,252.7749,0,0,1561775769.99275,143560.660666,0,-1.569336,75.40332,3232235528,177669985,1,1,0.94,-12.49063,-19.2665,2
1561775788.603243,69,0,0,1561775787.999394,4.63468903676107,-74.15108794353357,2553.555,0.48,253.4765625,3,10,-9999,1561775788.585164,-20.31729888916016,-16.17997360229492,12.77069091796875,146.3795928955078,153.8723602294922,15,143563.941621125,-1.021636962890625,0.4388427734375,0.1231689453125,143563.928438125,-0.004878112168698141,0.1627859879472024,-0.05210234988241923,143563.923463125,-97.78376770019531,-46.91996765136719,-551.7359008789062,143563.933504125,-2.295068735268999,-1.638625637665434,-0.4589020934382665,0.04164739698171616,0.1850245147943497,-0.08130089938640594,-0.09819817543029785,0.007246494293212891,0.02129673957824707,1,0.7125169038772583,0.1506723910570145,0.537902295589447,-0.4245921075344086,-0.8944775462150574,0.4429640471935272,0.06076501682400703,0,0,0,-1,143558.6217724167,3,2,1561775783.274179,1561774855.646675,295,1.774414,0,0,252.7749,0,0,1561775769.99275,143560.660666,0,-1.569336,75.40332,3232235528,177669985,1,1,0.94,-12.49063,-20.21293,2
1561775788.623743,70,0,0,1561775787.999394,4.63468903676107,-74.15108794353357,2553.555,0.48,253.4765625,3,10,-9999,1561775788.609539,-20.312255859375,-16.24592971801758,12.74078369140625,146.2666931152344,153.7594604492188,15,143563.961854125,-1.138381958007812,0.4698638916015625,0.2458343505859375,143563.948701125,0.1643247624250502,0.2328966331207375,-0.2085614660279204,143563.943574125,-97.62774658203125,-46.67427062988281,-551.8701782226562,143563.953767125,-2.292026038924562,-1.632931156813378,-0.4556619991680636,0.1812883913516998,0.2332564890384674,-0.2638177275657654,-0.1731293201446533,0.007361352443695068,0.1194878816604614,1,0.7105527520179749,0.1516391932964325,0.5399847030639648,-0.4248963594436646,-0.8962371349334717,0.4400568604469299,0.05575931817293167,0,0,0,-1,143558.6217724167,3,2,1561775783.274179,1561774855.646675,295,1.774414,0,0,252.7749,0,0,1561775769.99275,143560.660666,0,-1.569336,75.40332,3232235528,177669985,1,1,0.94,-12.49063,-21.01354,2
1561775788.644178,71,0,0,1561775787.999394,4.63468903676107,-74.15108794353357,2553.555,0.48,253.4765625,3,10,-9999,1561775788.63602,-19.92459869384766,-16.413818359375,12.5147705078125,145.9651794433594,153.4579467773438,15,143563.982118125,-1.356842041015625,0.5741119384765625,0.3105316162109375,143563.968965125,0.1575329026970211,0.06935563900449757,-0.4112304218279315,143563.963685125,-97.63130187988281,-46.81428527832031,-551.89794921875,143563.974031125,-2.287762315253307,-1.628433860552527,-0.4485258694597027,0.1232599690556526,-0.1025172546505928,-0.4439771175384521,-0.3309235572814941,0.07229799032211304,0.2490872144699097,1,0.7085548639297485,0.1546087116003036,0.5422199964523315,-0.4243154525756836,-0.8995909690856934,0.4336376786231995,0.05190769955515862,0,0,0,-1,143558.6217724167,3,2,1561775783.274179,1561774855.646675,295,1.774414,0,0,252.7749,0,0,1561775769.99275,143560.660666,0,-1.569336,75.40332,3232235528,177669985,1,1,0.94,-12.49063,-21.86808,2
1561775788.664112,72,0,0,1561775787.999394,4.63468903676107,-74.15108794353357,2553.555,0.48,253.4765625,3,10,-9999,1561775788.660679,-19.66759490966797,-16.67190170288086,12.75726318359375,145.6654815673828,153.1582489013672,15,143564.002382125,-1.5703125,0.7081146240234375,0.2650146484375,143563.989229125,0.1454080628861084,-0.7386817905036053,-0.4476432907803669,143563.983797125,-97.44459533691406,-47.30815124511719,-551.93994140625,143563.994295125,-2.284287664758177,-1.637609138734835,-0.4395401949575023,0.2287475168704987,-0.9439980983734131,-0.4931776821613312,-0.5731152296066284,0.2160323858261108,0.2377395629882812,1,0.7101746797561646,0.1608119457960129,0.5401720404624939,-0.4219072163105011,-0.9029284715652466,0.4255234003067017,0.06041711568832397,0,0,0,-1,143558.6217724167,3,2,1561775783.274179,1561774855.646675,295,1.774414,0,0,252.7749,0,0,1561775769.99275,143560.660666,0,-1.569336,75.40332,3232235528,177669985,1,1,0.94,-12.49063,-22.66939,2
1561775788.684286,73,0,0,1561775787.999394,4.63468903676107,-74.15108794353357,2553.555,0.48,253.4765625,3,10,-9999,1561775788.660679,-19.66759490966797,-16.67190170288086,12.75726318359375,145.6654815673828,153.1582489013672,15,143564.022645125,-1.725418090820312,0.851776123046875,0.1275787353515625,143564.009462125,0.6727041050257643,-1.191383755774578,-0.9391168867812579,143564.003908125,-96.79136657714844,-47.60610961914062,-551.6410522460938,143564.014558125,-2.271463271259608,-1.655153815519105,-0.4246716584548175,0.8916330933570862,-1.105621099472046,-1.154287695884705,-0.7336217164993286,0.3667564392089844,0.1129087209701538,1,0.7128095626831055,0.1740377694368362,0.5344456434249878,-0.4195013046264648,-0.9079340696334839,0.4120216369628906,0.07677323371171951,0,0,0,-1,143558.6217724167,3,2,1561775783.274179,1561774855.646675,295,1.774414,0,0,252.7749,0,0,1561775769.99275,143561.605924,0,-1.569336,75.40332,3232235528,177669985,1,1,0.94,-12.49063,-22.66939,2
1561775788.704673,74,0,0,1561775787.999394,4.63468903676107,-74.15108794353357,2553.555,0.48,253.4765625,3,10,-9999,1561775788.690992,-19.00850677490234,-16.74261093139648,13.31829833984375,144.2508239746094,151.7435913085938,15,143564.042909125,-1.991668701171875,0.95751953125,-0.0175018310546875,143564.029726125,1.520898807978954,-0.5339882996429159,-1.661554992532034,143564.024019125,-95.94413757324219,-47.56103515625,-550.5455932617188,143564.034791125,-2.239731973180172,-1.657475154747599,-0.3967205137142549,1.620835065841675,-0.280840128660202,-1.77894139289856,-0.9279921650886536,0.5259426236152649,-0.02604424953460693,1,0.7084317207336426,0.1950585693120956,0.5330268740653992,-0.4194748401641846,-0.9188706278800964,0.3863956332206726,0.07984669506549835,0,0,0,-1,143558.6217724167,3,2,1561775783.274179,1561774855.646675,295,1.774414,0,0,252.7749,0,0,1561775769.99275,143561.605924,0,-1.569336,75.40332,3232235528,177669985,1,1,0.94,-12.49063,-23.50389,2
1561775788.728338,75,0,0,1561775787.999394,4.63468903676107,-74.15108794353357,2553.555,0.48,253.4765625,3,10,-9999,1561775788.715937,-17.98843383789062,-17.18783187866211,14.17529296875,141.6184387207031,149.1112060546875,15,143564.063173125,-2.261154174804688,1.001663208007812,-0.132843017578125,143564.049989125,1.35828246339319,0.763505913972561,-2.025236270993255,143564.044130125,-94.72994995117188,-47.82022094726562,-549.8408203125,143564.055055125,-2.204385475575643,-1.636249256096078,-0.3596652740575522,1.091559171676636,1.182551383972168,-2.112211942672729,-1.216883897781372,0.643873393535614,-0.1393766403198242,1,0.6959066390991211,0.2152313441038132,0.5411039590835571,-0.4202331006526947,-0.9340103268623352,0.3519609570503235,0.0612211637198925,0,0,0,-1,143558.6217724167,3,2,1561775783.274179,1561774855.646675,295,1.774414,0,0,252.7749,0,0,1561775769.99275,143561.605924,0,-1.569336,75.40332,3232235528,177669985,1,1,0.94,-12.49063,-24.2661,2
1561775788.745152,76,0,0,1561775787.999394,4.63468903676107,-74.15108794353357,2553.555,0.48,253.4765625,3,10,-9999,1561775788.737295,-16.9989013671875,-17.91158294677734,14.7635498046875,140.5351715087891,148.0279388427734,15,143564.083436125,-2.364532470703125,0.9686737060546875,-0.2350311279296875,143564.070253125,0.09547379244712267,2.584618344262294,-2.303836476845278,143564.064210125,-94.47468566894531,-48.37185668945312,-549.4641723632812,143564.075319125,-2.192854907519312,-1.589639426930721,-0.3146519498406662,-0.2247187942266464,3.03168511390686,-2.346031665802002,-1.375421285629272,0.6676263213157654,-0.2045624256134033,1,0.6772121787071228,0.2243705093860626,0.5642995834350586,-0.4154605567455292,-0.9507352709770203,0.309485524892807,0.01791692152619362,0,0,0,-1,143558.6217724167,3,2,1561775783.274179,1561774855.646675,295,1.774414,0,0,252.7749,0,0,1561775769.99275,143561.605924,0,-1.569336,75.40332,3232235528,177669985,1,1,0.94,-12.49063,-25.06919,2
1561775788.765411,77,0,0,1561775787.999394,4.63468903676107,-74.15108794353357,2553.555,0.48,253.4765625,3,10,-9999,1561775788.762132,-16.68362426757812,-18.82817077636719,13.43487548828125,141.6316833496094,149.1244506835938,15,143564.103700125,-2.28948974609375,0.852264404296875,-0.26629638671875,143564.090517125,-0.798528612835975,4.005007055856677,-2.52590815908317,143564.084321125,-94.58644104003906,-49.17762756347656,-550.645751953125,143564.095582125,-2.206967230091896,-1.518705518772187,-0.2649574705688902,-0.8098874092102051,4.163000106811523,-2.633208990097046,-1.382915496826172,0.6707947254180908,-0.2046020030975342,1,0.6524104475975037,0.2218906432390213,0.6008778810501099,-0.4050568044185638,-0.9637946486473083,0.2618682086467743,-0.05025029927492142,0,0,0,-1,143558.6217724167,3,2,1561775783.274179,1561774855.646675,295,1.774414,0,0,252.7749,0,0,1561775769.99275,143561.605924,0,-1.569336,75.40332,3232235528,177669985,1,1,0.94,-12.49063,-26.06616,2
1561775788.787046,78,0,0,1561775787.999394,4.63468903676107,-74.15108794353357,2553.555,0.48,253.4765625,3,10,-9999,1561775788.762132,-16.68362426757812,-18.82817077636719,13.43487548828125,141.6316833496094,149.1244506835938,15,143564.123964125,-1.872634887695312,0.5596466064453125,-0.410003662109375,143564.110780125,-0.6174914493062414,4.331530312892458,-3.202906877682797,143564.104433125,-94.48902893066406,-49.97251892089844,-552.251953125,143564.115846125,-2.22713758596395,-1.43665333752287,-0.2057141055700579,-0.525743305683136,4.350762844085693,-3.401010990142822,-1.178346872329712,0.5139496326446533,-0.1963036060333252,1,0.6215294003486633,0.219637468457222,0.6421676278114319,-0.3912561535835266,-0.9701211452484131,0.2042662650346756,-0.1309211701154709,0,0,0,-1,143558.6217724167,3,2,1561775783.274179,1561774855.646675,295,1.774414,0,0,252.7749,0,0,1561775769.99275,143561.605924,0,-1.569336,75.40332,3232235528,177669985,1,1,0.94,-12.49063,-26.82537,2
1561775788.810442,79,0,0,1561775787.999394,4.63468903676107,-74.15108794353357,2553.555,0.48,253.4765625,3,10,-9999,1561775788.789566,-16.48646545410156,-19.87075805664062,11.89813232421875,143.0751647949219,150.5679321289062,15,143564.144197125,-1.254440307617188,0.4272918701171875,-0.5608367919921875,143564.131044125,-0.204884705826957,4.274177540920947,-3.693085112129473,143564.124544125,-93.45433044433594,-50.90524291992188,-553.84326171875,143564.136110125,-2.246578066500704,-1.352720736305708,-0.1347230915617246,-0.07613598555326462,4.199902534484863,-3.693912982940674,-0.602263867855072,0.3595042824745178,-0.292689323425293,1,0.5857544541358948,0.2229267805814743,0.6832360029220581,-0.3746784329414368,-0.967468798160553,0.1343159228563309,-0.2143907397985458,0,0,0,-1,143558.6217724167,3,2,1561775783.274179,1561774855.646675,295,1.774414,0,0,252.7749,0,0,1561775769.99275,143561.605924,0,-1.569336,75.40332,3232235528,177669985,1,1,0.94,-12.49063,-27.493,2
1561775788.826208,80,0,0,1561775787.999394,4.63468903676107,-74.15108794353357,2553.555,0.48,253.4765625,3,10,-9999,1561775788.812669,-15.46334075927734,-20.73951721191406,10.54931640625,144.292236328125,151.7850036621094,15,143564.164461125,-0.4707794189453125,0.2419281005859375,-0.5346832275390625,143564.151308125,0.3310911109374851,3.935127573065761,-3.593227223895862,143564.144655125,-92.28042602539062,-52.04891967773438,-554.8355102539062,143564.156373125,-2.261639634525112,-1.272630263941919,-0.06255938064840104,0.4430339336395264,3.815781831741333,-3.553103923797607,0.09200745820999146,0.2513852417469025,-0.2694748640060425,1,0.548092246055603,0.2302137762308121,0.7194201350212097,-0.3592090904712677,-0.9540069699287415,0.06251858174800873,-0.2931930124759674,0,0,0,-1,143558.6217724167,3,2,1561775783.274179,1561774855.646675,295,1.774414,0,0,252.7749,0,0,1561775769.99275,143561.605924,0,-1.569336,75.40332,3232235528,177669985,1,1,0.94,-12.49063,-27.68023,2
1561775788.846381,81,0,0,1561775787.999394,4.63468903676107,-74.15108794353357,2553.555,0.48,253.4765625,3,10,-9999,1561775788.838508,-12.96417236328125,-22.76120376586914,8.82647705078125,145.0516662597656,152.54443359375,15,143564.184724125,0.0680084228515625,0.212646484375,-0.38641357421875,143564.171571125,0.6998153512388799,3.346058444177281,-3.135470845192028,143564.164766125,-91.19737243652344,-52.88536071777344,-555.568115234375,143564.176637125,-2.271682449505949,-1.201859381797945,0.004619306781766641,0.7338370680809021,3.11051869392395,-2.872096061706543,0.7750322818756104,0.2334858477115631,-0.1064969897270203,1,0.5119595527648926,0.2399734705686569,0.7485597133636475,-0.3463649153709412,-0.9327013492584229,-0.004619290586560965,-0.3606202900409698,0,0,0,-1,143558.6217724167,3,2,1561775783.274179,1561774855.646675,295,1.774414,0,0,252.7749,0,0,1561775769.99275,143561.605924,0,-1.569336,75.40332,3232235528,177669985,1,1,0.94,-12.49063,-27.68023,2
1561775788.867619,82,0,0,1561775787.999394,4.63468903676107,-74.15108794353357,2553.555,0.48,253.4765625,3,10,-9999,1561775788.863598,-12.13803863525391,-22.89915084838867,8.7259521484375,145.1809692382812,152.6737365722656,15,143564.204988125,0.5053253173828125,0.1260528564453125,-0.1918792724609375,143564.191804125,0.7329187099046739,2.302219405431382,-1.837041329401715,143564.184877125,-89.9752197265625,-53.48481750488281,-555.9069213867188,143564.196901125,-2.274910188773393,-1.149722586953026,0.05136558359053695,0.7454598546028137,1.94679844379425,-1.433992862701416,1.209161043167114,0.2241335213184357,0.1059706807136536,1,0.4842486381530762,0.2477952837944031,0.7673041224479675,-0.3396247923374176,-0.9114468097686768,-0.05134299769997597,-0.4082015156745911,0,0,0,-1,143558.6217724167,3,2,1561775783.274179,1561774855.646675,295,1.774414,0,0,252.7749,0,0,1561775769.99275,143561.605924,0,-1.569336,75.40332,3232235528,177669985,1,1,0.94,-12.49063,-18.10525,2
1561775788.896222,83,0,0,1561775787.999394,4.63468903676107,-74.15108794353357,2553.555,0.48,253.4765625,3,10,-9999,1561775788.889562,-12.03050231933594,-23.2340202331543,8.8753662109375,144.1584777832031,151.6512451171875,15,143564.225252125,0.74127197265625,-0.031646728515625,0.00042724609375,143564.212068125,0.8846752161973132,0.8202128693797271,-0.2782920781139012,143564.204988125,-89.35958862304688,-53.938232421875,-555.5744018554688,143564.217164125,-2.26528742697251,-1.126428825845784,0.07059698090558358,0.9007498621940613,0.3834089040756226,-0.01801379770040512,1.549223899841309,0.1273162961006165,0.3363478183746338,1,0.4705110192298889,0.2533995509147644,0.7731879353523254,-0.3414506614208221,-0.9006337523460388,-0.07053835690021515,-0.4288161098957062,0,0,0,-1,143558.6217724167,3,2,1561775783.274179,1561774855.646675,295,1.774414,0,0,252.7749,0,0,1561775769.99275,143561.605924,0,-1.569336,75.40332,3232235528,177669985,1,1,0.94,-12.49063,-17.42051,2
1561775788.907311,84,0,0,1561775787.999394,4.63468903676107,-74.15108794353357,2553.555,0.48,253.4765625,3,10,-9999,1561775788.889562,-12.03050231933594,-23.2340202331543,8.8753662109375,144.1584777832031,151.6512451171875,15,143564.245515125,0.6799468994140625,-0.129913330078125,0.3731536865234375,143564.232332125,1.128131549356324,-0.5896840527841791,0.2809917245109145,143564.225069125,-89.54483032226562,-53.62284851074219,-555.369140625,143564.237398125,-2.244640253994171,-1.134483275046165,0.07566380058077697,1.298768281936646,-0.7484025955200195,0.2171872705221176,1.655035018920898,-0.01683086156845093,0.6100513935089111,1,0.469994992017746,0.2615508735179901,0.7682507634162903,-0.3471118807792664,-0.903722882270813,-0.07559162378311157,-0.4213916957378387,0,0,0,-1,143558.6217724167,3,2,1561775783.274179,1561774855.646675,295,1.774414,0,0,252.7749,0,0,1561775769.99275,143561.605924,0,-1.569336,75.40332,3232235528,177669985,1,1,0.94,-12.49063,-17.42051,2
1561775788.927449,85,0,0,1561775787.999394,4.63468903676107,-74.15108794353357,2553.555,0.48,253.4765625,3,10,-9999,1561775788.913765,-11.95680999755859,-23.10157775878906,9.49847412109375,142.3159484863281,149.8087158203125,15,143564.265779125,0.618499755859375,-0.4142303466796875,0.93756103515625,143564.252595125,1.477922844836127,-0.8528222116633114,-0.2459320077083483,143564.245180125,-89.74958801269531,-53.34405517578125,-554.45458984375,143564.257661125,-2.218701094566241,-1.154399880900352,0.08901916654925913,1.158804297447205,-1.191254019737244,-0.454081654548645,1.532284259796143,-0.2022970914840698,1.058963298797607,1,0.4715214371681213,0.2761061191558838,0.7604151368141174,-0.3510009050369263,-0.9109310507774353,-0.08890163898468018,-0.4028658866882324,0,0,0,-1,143558.6217724167,3,2,1561775783.274179,1561774855.646675,295,1.774414,0,0,252.7749,0,0,1561775769.99275,143561.605924,0,-1.569336,75.40332,3232235528,177669985,1,1,0.94,-12.49063,-16.9014,2
1561775788.948548,86,0,0,1561775787.999394,4.63468903676107,-74.15108794353357,2553.555,0.48,253.4765625,3,10,-9999,1561775788.940015,-11.40364074707031,-22.77691650390625,10.88555908203125,142.0986022949219,149.5913696289062,15,143564.286043125,0.2619171142578125,-0.346710205078125,1.475830078125,143564.272859125,-0.2873220584220328,-1.890778327561225,-0.7883582669490714,143564.265291125,-89.35997009277344,-53.10133361816406,-553.763671875,143564.277925125,-2.220433928710293,-1.188492275998794,0.1036514101384734,-0.4877072870731354,-1.746063947677612,-0.7152828574180603,1.484061479568481,-0.3444405794143677,1.648263454437256,1,0.4817907810211182,0.2869654297828674,0.7541242241859436,-0.3417969644069672,-0.9228280186653137,-0.1034659147262573,-0.3710569739341736,0,0,0,-1,143558.6217724167,3,2,1561775783.274179,1561774855.646675,295,1.774414,0,0,252.7749,0,0,1561775769.99275,143561.605924,0,-1.569336,75.40332,3232235528,177669985,1,1,0.94,-12.49063,-17.06356,2
1561775788.982906,87,0,0,1561775787.999394,4.63468903676107,-74.15108794353357,2553.555,0.48,253.4765625,3,10,-9999,1561775788.964586,-11.08377838134766,-22.82422256469727,10.97613525390625,143.2035369873047,150.6963043212891,15,143564.306306125,-0.211395263671875,-0.190765380859375,0.64691162109375,143564.293123125,-0.7774659380906472,-0.5996775647747015,-0.093367498340979,143564.285402125,-88.66734313964844,-53.3267822265625,-553.714599609375,143564.298189125,-2.235622463504571,-1.207264370135572,0.1045295024407132,-0.9130585789680481,-0.2095822691917419,0.114151693880558,0.9068554639816284,-0.1698917150497437,1.442366600036621,1,0.4908674955368042,0.2867589890956879,0.7522144913673401,-0.3331543505191803,-0.9295452833175659,-0.1043392494320869,-0.353636771440506,0,0,0,-1,143558.6217724167,3,2,1561775783.274179,1561774855.646675,295,1.774414,0,0,252.7749,0,0,1561775769.99275,143561.605924,0,-1.569336,75.40332,3232235528,177669985,1,1,0.94,-12.49063,-17.8682,2
1561775788.991582,88,0,0,1561775787.999394,4.63468903676107,-74.15108794353357,2553.555,0.48,253.4765625,3,10,-9999,1561775788.964586,-11.08377838134766,-22.82422256469727,10.97613525390625,143.2035369873047,150.6963043212891,15,143564.326570125,-0.749481201171875,-0.02825927734375,-0.0149078369140625,143564.313386125,-1.139783411757638,0.6082446876853773,0.8363891761569775,143564.305513125,-88.64688110351562,-53.58692932128906,-553.7559204101562,143564.318452125,-2.251747281647265,-1.198547135035107,0.08572528374741918,-1.174066781997681,0.6382038593292236,1.038672924041748,0.4159449338912964,0.01883262395858765,0.7071939706802368,1,0.4934338629245758,0.2744723856449127,0.7550716400146484,-0.3332486152648926,-0.9280909299850464,-0.08562032878398895,-0.3623758554458618,0,0,0,-1,143558.6217724167,3,2,1561775783.274179,1561774855.646675,295,1.774414,0,0,252.7749,0,0,1561775769.99275,143561.605924,0,-1.569336,75.40332,3232235528,177669985,1,1,0.94,-12.49063,-18.32461,2
1561775789.008522,89,0,0,1561775787.999394,4.63468903676107,-74.15108794353357,2553.555,0.48,253.4765625,3,10,-9999,1561775788.991811,-11.31636810302734,-23.25549697875977,10.47100830078125,144.2655334472656,151.75830078125,15,143564.346803125,-1.063522338867188,-0.07403564453125,-0.6442108154296875,143564.333650125,-0.9860300672796578,0.08901589311978952,1.050195737951809,143564.325624125,-89.15786743164062,-53.33634948730469,-554.5607299804688,143564.338716125,-2.263741430120724,-1.191649759700665,0.05753117676294938,-0.7778463959693909,-0.2873042225837708,0.8193415999412537,-0.0188755989074707,0.0230603814125061,-0.005652427673339844,1,0.4976688623428345,0.2599384188652039,0.755777895450592,-0.3369830846786499,-0.9274439215660095,-0.05749944597482681,-0.36951544880867,0,0,0,-1,143558.6217724167,3,2,1561775783.274179,1561774855.646675,295,1.774414,0,0,252.7749,0,0,1561775769.99275,143561.605924,0,-1.569336,75.40332,3232235528,177669985,1,1,0.94,-12.49063,-18.32461,2
1561775789.049462,90,0,0,1561775787.999394,4.63468903676107,-74.15108794353357,2553.555,0.48,253.4765625,3,10,-9999,1561775789.041885,-11.43870544433594,-23.06524658203125,10.48114013671875,143.8703155517578,151.3630828857422,15,143564.367067125,-1.339279174804688,-0.0854949951171875,-0.8535003662109375,143564.353914125,0.3117166140071587,-1.158226867570873,-0.1908485153016944,143564.345735125,-89.72914123535156,-53.47845458984375,-555.0121459960938,143564.358980125,-2.263969377776992,-1.209713965607028,0.05405022150617562,0.6570855379104614,-1.246147155761719,-0.4646581411361694,-0.2577914595603943,-0.004691928625106812,-0.4207122325897217,1,0.5051377415657043,0.261630117893219,0.7509060502052307,-0.3354484736919403,-0.9341488480567932,-0.05402390658855438,-0.3527710735797882,0,0,0,-1,143558.6217724167,3,2,1561775783.274179,1561774855.646675,295,1.774414,0,0,252.7749,0,0,1561775769.99275,143561.605924,0,-1.569336,75.40332,3232235528,177669985,1,1,0.94,-12.49063,-19.71127,2
1561775789.05196,91,0,0,1561775787.999394,4.63468903676107,-74.15108794353357,2553.555,0.48,253.4765625,3,10,-9999,1561775789.041885,-11.43870544433594,-23.06524658203125,10.48114013671875,143.8703155517578,151.3630828857422,15,143564.387331125,-1.481369018554688,-0.141571044921875,-0.87396240234375,143564.374147125,0.9396015820996524,-0.8615006547075527,-0.7561963357286204,143564.365846125,-89.20384216308594,-53.49412536621094,-554.1375732421875,143564.379243125,-2.251829989457677,-1.231236081035151,0.07322331292369957,0.754325270652771,-0.6123284101486206,-0.7425948977470398,-0.5199525356292725,-0.0786670446395874,-0.5755653977394104,1,0.5080441832542419,0.2753200531005859,0.7455506324768066,-0.3320303559303284,-0.9403745532035828,-0.073157899081707,-0.3321799635887146,0,0,0,-1,143558.6217724167,3,2,1561775783.274179,1561774855.646675,295,1.774414,0,0,252.7749,0,0,1561775769.99275,143561.605924,0,-1.569336,75.40332,3232235528,177669985,1,1,0.94,-12.49063,-19.71127,2
1561775789.069237,92,0,0,1561775788.999382,4.634698214945043,-74.15109020664742,2553.564,0.55,330.46875,3,10,-9999,1561775789.065496,-11.11769866943359,-23.09067916870117,10.7802734375,144.0642395019531,151.5570068359375,15,143564.407594125,-1.17706298828125,-0.0141448974609375,-0.5089263916015625,143564.394411125,-0.118676849760547,0.09527671852645681,-0.5379723886336746,143564.385957125,-88.94413757324219,-53.7332763671875,-553.6779174804688,143564.399507125,-2.252365760922528,-1.233747870026634,0.08608121801275363,-0.3656042814254761,0.1728820204734802,-0.5152075886726379,-0.4320892095565796,0.01770710945129395,-0.4126020669937134,1,0.5066665410995483,0.2802672386169434,0.7464107275009155,-0.328040212392807,-0.9402405023574829,-0.08597494661808014,-0.3294785916805267,0,0,0,-1,143558.6217724167,3,2,1561775783.274179,1561774855.646675,295,1.774414,0,0,252.7749,0,0,1561775769.99275,143561.605924,0,-1.569336,75.40332,3232235528,177669985,1,1,0.94,-12.49063,-20.58941,2
1561775789.090874,93,0,0,1561775788.999382,4.634698214945043,-74.15109020664742,2553.564,0.55,330.46875,3,10,-9999,1561775789.065496,-11.11769866943359,-23.09067916870117,10.7802734375,144.0642395019531,151.5570068359375,15,143564.427858125,-0.9450531005859375,0.061492919921875,-0.1573333740234375,143564.414674125,-0.5516168281625865,0.1564303540057283,-0.4249912414964799,143564.406068125,-88.42520141601562,-53.97337341308594,-553.9420166015625,143564.419740125,-2.265329875572955,-1.229054058092237,0.09135171795362899,-0.5052846670150757,0.06465461105108261,-0.3900563418865204,-0.1242716312408447,0.1296463310718536,0.05039125680923462,1,0.5057409405708313,0.2781370878219604,0.7502701282501221,-0.3224290907382965,-0.9382436275482178,-0.09122471511363983,-0.3337317109107971,0,0,0,-1,143558.6217724167,3,2,1561775783.274179,1561774855.646675,295,1.774414,0,0,252.7749,0,0,1561775769.99275,143561.605924,0,-1.569336,75.40332,3232235528,177669985,1,1,0.94,-12.49063,-20.90933,2
1561775789.110607,94,0,0,1561775788.999382,4.634698214945043,-74.15109020664742,2553.564,0.55,330.46875,3,10,-9999,1561775789.091878,-10.97483825683594,-23.46139526367188,10.6214599609375,144.9526519775391,152.4454193115234,15,143564.448122125,-0.8128509521484375,0.0455474853515625,-0.08453369140625,143564.434938125,-0.3872273509230473,-0.1575856332866047,-0.277143190419641,143564.426149125,-88.56690979003906,-53.72842407226562,-554.2139892578125,143564.440004125,-2.275606978563006,-1.229955414312869,0.09449356126597951,-0.3914265632629395,-0.2135306745767593,-0.2377482950687408,0.07962667942047119,0.1549914181232452,0.2458285689353943,1,0.5069262981414795,0.2768239676952362,0.75201416015625,-0.3175985217094421,-0.9382692575454712,-0.09435299783945084,-0.3327884376049042,0,0,0,-1,143558.6217724167,3,2,1561775783.274179,1561774855.646675,295,1.774414,0,0,252.7749,0,0,1561775769.99275,143561.605924,0,-1.569336,75.40332,3232235528,177669985,1,1,0.94,-12.49063,-21.92733,2
1561775789.131074,95,0,0,1561775788.999382,4.634698214945043,-74.15109020664742,2553.564,0.55,330.46875,3,10,-9999,1561775789.116254,-10.83138275146484,-23.4289665222168,10.3323974609375,145.6233978271484,153.1161651611328,15,143564.468385125,-0.814239501953125,-0.0124053955078125,-0.202850341796875,143564.455202125,-0.4921383210089748,-0.2294576932051182,-0.07046830770793268,143564.446260125,-88.26173400878906,-53.95280456542969,-554.2500610351562,143564.460268125,-2.285232215426974,-1.233882158485277,0.09388257934927316,-0.540977954864502,-0.2078458815813065,-0.008912444114685059,0.1326467990875244,0.1125740706920624,0.1928748488426208,1,0.5098420381546021,0.2747741043567657,0.7524720430374146,-0.3136019706726074,-0.9396231770515442,-0.09374472498893738,-0.3291205763816833,0,0,0,-1,143564.457094125,3,2,1561775789.1095,1561774855.646675,295,1.774414,0,0,252.7749,0,0,1561775769.99275,143561.605924,0,-1.569336,75.40332,3232235528,177669985,1,1,0.94,-12.49063,-22.99934,2
1561775789.150678,96,0,0,1561775788.999382,4.634698214945043,-74.15109020664742,2553.564,0.55,330.46875,3,10,-9999,1561775789.142169,-10.53302001953125,-23.42289352416992,9.943359375,146.39306640625,153.8858337402344,15,143564.488649125,-0.897064208984375,-0.0732574462890625,-0.3271484375,143564.475465125,-0.6605928473364109,-0.05560973303805358,0.2024495113261886,143564.466371125,-88.2257080078125,-53.94413757324219,-554.4358520507812,143564.480531125,-2.296317586114512,-1.235191689523332,0.0872426637580509,-0.6837486624717712,0.009742893278598785,0.2651004493236542,0.08922559022903442,0.0481458306312561,0.05593180656433105,1,0.5130393505096436,0.2697162330150604,0.7531875967979431,-0.3110500276088715,-0.9406202435493469,-0.0871320366859436,-0.3280875682830811,0,0,0,-1,143564.457094125,3,2,1561775789.1095,1561774855.646675,295,1.774414,0,0,252.7749,0,0,1561775769.99275,143561.605924,0,-1.569336,75.40332,3232235528,177669985,1,1,0.94,-12.49063,-23.88026,2
1561775789.170358,97,0,0,1561775788.999382,4.634698214945043,-74.15109020664742,2553.564,0.55,330.46875,3,10,-9999,1561775789.166593,-10.89040374755859,-23.45782852172852,9.62628173828125,147.0459136962891,154.5386810302734,15,143564.508913125,-0.949920654296875,-0.1460113525390625,-0.357177734375,143564.495729125,-0.6126290497879748,0.2033914714037496,0.3916740309951526,143564.486482125,-88.76069641113281,-54.04881286621094,-554.6217651367188,143564.500795125,-2.306286264470141,-1.2316495778818,0.07622995222614619,-0.5224553942680359,0.2151780724525452,0.3936285972595215,0.01009392738342285,-0.0378727912902832,-0.02602589130401611,1,0.5149802565574646,0.262558788061142,0.7545173168182373,-0.3107441067695618,-0.9403002262115479,-0.07615614682435989,-0.3317164480686188,0,0,0,-1,143564.457094125,3,2,1561775789.1095,1561774855.646675,295,1.774414,0,0,252.7749,0,0,1561775769.99275,143561.605924,0,-1.569336,75.40332,3232235528,177669985,1,1,0.94,-12.49063,-23.88026,2
1561775789.195906,98,0,0,1561775788.999382,4.634698214945043,-74.15109020664742,2553.564,0.55,330.46875,3,10,-9999,1561775789.192834,-11.09353637695312,-23.62345886230469,9.42132568359375,146.9616851806641,154.4544525146484,15,143564.529146125,-0.9768524169921875,-0.1685791015625,-0.3552398681640625,143564.515993125,-0.1153681384222326,0.1148283156692735,0.319056019655308,143564.506593125,-88.43934631347656,-54.17088317871094,-555.166015625,143564.521059125,-2.308815604149407,-1.228277964012313,0.06794910867273626,0.0350792221724987,0.06714386492967606,0.270002543926239,-0.02978998422622681,-0.09470084309577942,-0.02505278587341309,1,0.5154849290847778,0.2583267390727997,0.7549244165420532,-0.3124606311321259,-0.9397382140159607,-0.06789683550596237,-0.3350851535797119,0,0,0,-1,143564.457094125,3,2,1561775789.1095,1561774855.646675,295,1.774414,0,0,252.7749,0,0,1561775769.99275,143561.605924,0,-1.569336,75.40332,3232235528,177669985,1,1,0.94,-12.49063,-25.6407,2
1561775789.211348,99,0,0,1561775788.999382,4.634698214945043,-74.15109020664742,2553.564,0.55,330.46875,3,10,-9999,1561775789.192834,-11.09353637695312,-23.62345886230469,9.42132568359375,146.9616851806641,154.4544525146484,15,143564.549409125,-0.96392822265625,-0.149200439453125,-0.3415985107421875,143564.536256125,0.3399666279023922,-0.0219034347014657,0.1886639242595024,143564.526704125,-88.84468078613281,-53.77351379394531,-555.1000366210938,143564.541322125,-2.302668780976714,-1.228624008042531,0.06561110530292555,0.3741006851196289,-0.03909788280725479,0.174628883600235,-0.03480672836303711,-0.09491264820098877,-0.01392734050750732,1,0.5152283906936646,0.2591014504432678,0.75362628698349,-0.3153623640537262,-0.9400010108947754,-0.06556404381990433,-0.3348122835159302,0,0,0,-1,143564.457094125,3,2,1561775789.1095,1561774855.646675,295,1.774414,0,0,252.7749,0,0,1561775769.99275,143561.605924,0,-1.569336,75.40332,3232235528,177669985,1,1,0.94,-12.49063,-25.6407,2
1561775789.231107,100,0,0,1561775788.999382,4.634698214945043,-74.15109020664742,2553.564,0.55,330.46875,3,10,-9999,1561775789.217231,-11.18257141113281,-23.51440048217773,9.55230712890625,146.3967132568359,153.8894805908203,15,143564.569673125,-0.9403076171875,-0.1062164306640625,-0.310546875,143564.556520125,0.2987954890303122,-0.01816728600819354,0.2310292245643739,143564.546815125,-88.89532470703125,-54.0882568359375,-555.18115234375,143564.561586125,-2.294986906416115,-1.229764936603846,0.06394469285511496,0.2527031600475311,-0.0188251007348299,0.2600556313991547,-0.01087081432342529,-0.05946618318557739,0.006001651287078857,1,0.5149521231651306,0.2606462240219116,0.7519388198852539,-0.3185528218746185,-0.9404841661453247,-0.06390112638473511,-0.3337756991386414,0,0,0,-1,143564.457094125,3,2,1561775789.1095,1561774855.646675,295,1.774414,0,0,252.7749,0,0,1561775769.99275,143561.605924,0,-1.569336,75.40332,3232235528,177669985,1,1,0.94,-12.49063,-26.53841,2
1561775789.251374,101,0,0,1561775788.999382,4.634698214945043,-74.15109020664742,2553.564,0.55,330.46875,3,10,-9999,1561775789.243531,-11.08253479003906,-23.42910766601562,9.58428955078125,145.9466857910156,153.439453125,15,143564.589937125,-0.930908203125,-0.0690765380859375,-0.29534912109375,143564.576753125,0.1778099449207755,0.001452221742420208,0.3488839564964135,143564.566926125,-89.02055358886719,-53.99774169921875,-554.9423217773438,143564.581850125,-2.289036517898801,-1.230285000542051,0.05927445913207321,0.1514599025249481,-0.01345004327595234,0.3661154806613922,0.008586108684539795,-0.02674353122711182,0.03722476959228516,1,0.5151956081390381,0.2605421245098114,0.7503505349159241,-0.3219709992408752,-0.9409286379814148,-0.05923975631594658,-0.3333825767040253,0,0,0,-1,143564.457094125,3,2,1561775789.1095,1561774855.646675,295,1.774414,0,0,252.7749,0,0,1561775769.99275,143561.605924,0,-1.569336,75.40332,3232235528,177669985,1,1,0.94,-12.49063,-27.54727,2
1561775789.274883,102,0,0,1561775788.999382,4.634698214945043,-74.15109020664742,2553.564,0.55,330.46875,3,10,-9999,1561775789.267872,-11.52275085449219,-23.43283843994141,9.74462890625,145.661376953125,153.1541442871094,15,143564.610200125,-0.929229736328125,-0.028778076171875,-0.3167724609375,143564.597017125,0.06301678297789097,-0.002608299971623606,0.3766679172008832,143564.587007125,-89.02261352539062,-53.87324523925781,-554.9391479492188,143564.602083125,-2.284759476163511,-1.230753937729944,0.05294734410260313,0.02330698445439339,-0.01683998107910156,0.3621987700462341,0.009565174579620361,0.005788207054138184,0.03040158748626709,1,0.5159323215484619,0.2593916058540344,0.7488471865653992,-0.3252042233943939,-0.9414194226264954,-0.05292261019349098,-0.3330596685409546,0,0,0,-1,143564.457094125,3,2,1561775789.1095,1561774855.646675,295,1.774414,0,0,252.7749,0,0,1561775769.99275,143561.605924,0,-1.569336,75.40332,3232235528,177669985,1,1,0.94,-12.49063,-28.28834,2
1561775789.291963,103,0,0,1561775788.999382,4.634698214945043,-74.15109020664742,2553.564,0.55,330.46875,3,10,-9999,1561775789.267872,-11.52275085449219,-23.43283843994141,9.74462890625,145.661376953125,153.1541442871094,15,143564.630464125,-0.91839599609375,-0.011199951171875,-0.337493896484375,143564.617280125,-0.06247855812158595,0.01010589738852368,0.2476920908727817,143564.607118125,-89.198486328125,-53.5081787109375,-554.707275390625,143564.622346125,-2.283495473321941,-1.230974960342796,0.04749909530478465,-0.06854891031980515,0.002185109537094831,0.1982793509960175,0.01783126592636108,0.0329243540763855,-3.451108932495117e-05,1,0.5168119072914124,0.2577480673789978,0.7479812502861023,-0.3271017968654633,-0.9417509436607361,-0.0474812351167202,-0.33294278383255,0,0,0,-1,143564.457094125,3,2,1561775789.1095,1561774855.646675,295,1.774414,0,0,252.7749,0,0,1561775769.99275,143561.605924,0,-1.569336,75.40332,3232235528,177669985,1,1,0.94,-12.49063,-28.78707,2
1561775789.312171,104,0,0,1561775788.999382,4.634698214945043,-74.15109020664742,2553.564,0.55,330.46875,3,10,-9999,1561775789.29418,-11.64993286132812,-23.10556793212891,9.7923583984375,145.6114501953125,153.1042175292969,15,143564.650728125,-0.9256134033203125,-0.042022705078125,-0.3251953125,143564.637544125,0.04694966580533391,0.01454645219012181,0.09574383698165671,143564.627229125,-89.35466003417969,-53.89186096191406,-554.9408569335938,143564.642610125,-2.28268595634784,-1.230963580697962,0.04536729944227875,0.06681637465953827,-0.01519334875047207,0.07879370450973511,0.01637953519821167,0.02557635307312012,0.00623476505279541,1,0.5170785784721375,0.2571702301502228,0.7476138472557068,-0.3279736638069153,-0.9418403506278992,-0.04535173997282982,-0.332986444234848,0,0,0,-1,143564.457094125,3,2,1561775789.1095,1561774855.646675,295,1.774414,0,0,252.7749,0,0,1561775769.99275,143561.605924,0,-1.569336,75.40332,3232235528,177669985,1,1,0.94,-12.49063,-29.66343,2
1561775789.332956,105,0,0,1561775788.999382,4.634698214945043,-74.15109020664742,2553.564,0.55,330.46875,3,10,-9999,1561775789.318487,-11.66858673095703,-23.21175384521484,9.712890625,145.4710083007812,152.9637756347656,15,143564.670991125,-0.937713623046875,-0.0543212890625,-0.3450164794921875,143564.657808125,0.1015969324254329,-0.01520878035322451,0.03536704559236129,143564.647340125,-89.44912719726562,-53.56918334960938,-554.79638671875,143564.662874125,-2.280592934635581,-1.231504318838158,0.04531863888946934,0.08562254905700684,-0.03428208827972412,0.04208522289991379,0.01228910684585571,0.005294591188430786,0.003376245498657227,1,0.5170197486877441,0.2577821910381317,0.7471250295639038,-0.3286991715431213,-0.9420223832130432,-0.04530312865972519,-0.3324778378009796,0,0,0,-1,143564.457094125,3,2,1561775789.1095,1561774855.646675,295,1.774414,0,0,252.7749,0,0,1561775769.99275,143561.605924,0,-1.569336,75.40332,3232235528,177669985,1,1,0.94,-12.49063,-29.66343,2
1561775789.35296,106,0,0,1561775788.999382,4.634698214945043,-74.15109020664742,2553.564,0.55,330.46875,3,10,-9999,1561775789.344777,-11.61112976074219,-23.0737190246582,9.91278076171875,145.3437347412109,152.8365020751953,15,143564.691255125,-0.9473876953125,-0.060211181640625,-0.357666015625,143564.678071125,0.04752118017526492,-0.04370380506874534,0.08661718392595516,143564.667451125,-89.25865173339844,-53.6258544921875,-554.7188720703125,143564.683137125,-2.278969818695498,-1.232596071907523,0.04442471780238287,0.04056107252836227,-0.04309502243995667,0.1021189987659454,-0.0007689595222473145,-0.015450119972229,-0.02397578954696655,1,0.5173757076263428,0.2580525875091553,0.7464752197265625,-0.3294024169445038,-0.9424225687980652,-0.0444101057946682,-0.3314624726772308,0,0,0,-1,143564.457094125,3,2,1561775789.1095,1561774855.646675,295,1.774414,0,0,252.7749,0,0,1561775769.99275,143561.605924,0,-1.569336,75.40332,3232235528,177669985,1,1,0.94,-12.49063,-30.57469,2
1561775789.373006,107,0,0,1561775788.999382,4.634698214945043,-74.15109020664742,2553.564,0.55,330.46875,3,10,-9999,1561775789.369207,-11.70758056640625,-23.16316604614258,9.96368408203125,145.2304382324219,152.7232055664062,15,143564.711488125,-0.9465179443359375,-0.0477752685546875,-0.3350372314453125,143564.698335125,0.02466220327467878,-0.03882755711281025,0.1558367353987497,143564.687562125,-89.19657897949219,-53.55123901367188,-554.4893798828125,143564.703401125,-2.277487343963369,-1.233603856169065,0.04191188883126595,0.02355492487549782,-0.04887115210294724,0.1549143046140671,-0.007870852947235107,-0.01768594980239868,-0.02148705720901489,1,0.518003523349762,0.2576783299446106,0.7456860542297363,-0.3304945230484009,-0.9428585767745972,-0.04189961776137352,-0.3305484652519226,0,0,0,-1,143564.457094125,3,2,1561775789.1095,1561774855.646675,295,1.774414,0,0,252.7749,0,0,1561775769.99275,143561.605924,0,-1.569336,75.40332,3232235528,177669985,1,1,0.94,-12.49063,-30.96159,2
1561775789.39327,108,0,0,1561775788.999382,4.634698214945043,-74.15109020664742,2553.564,0.55,330.46875,3,10,-9999,1561775789.369207,-11.70758056640625,-23.16316604614258,9.96368408203125,145.2304382324219,152.7232055664062,15,143564.731752125,-0.9393310546875,-0.035369873046875,-0.3095245361328125,143564.718599125,0.05329517973466572,-0.07025818429792542,0.1387972981122047,143564.707674125,-89.579345703125,-53.65121459960938,-554.5104370117188,143564.723665125,-2.275723205122795,-1.235039338430089,0.03935135306359012,0.06216596439480782,-0.08543582260608673,0.1153493151068687,-0.003026664257049561,-7.224082946777344e-05,0.00871807336807251,1,0.5187624096870422,0.2574317455291748,0.7447307109832764,-0.3316484093666077,-0.9434302449226379,-0.03934119641780853,-0.3292289078235626,0,0,0,-1,143564.457094125,3,2,1561775789.1095,1561774855.646675,295,1.774414,0,0,252.7749,0,0,1561775769.99275,143561.605924,0,-1.569336,75.40332,3232235528,177669985,1,1,0.94,-12.49063,-31.01068,2
1561775789.413454,109,0,0,1561775788.999382,4.634698214945043,-74.15109020664742,2553.564,0.55,330.46875,3,10,-9999,1561775789.395504,-11.99538421630859,-23.05451202392578,10.1353759765625,145.0872802734375,152.5800476074219,15,143564.752016125,-0.933624267578125,-0.0379486083984375,-0.2842254638671875,143564.738862125,0.1015969324254329,-0.09240716245189642,0.07281401999607447,143564.727785125,-89.52340698242188,-53.4002685546875,-554.668701171875,143564.743928125,-2.273497352683707,-1.237067428453328,0.0383352933360864,0.1168798059225082,-0.1074660196900368,0.06464672833681107,0.01061588525772095,0.002833962440490723,0.02836233377456665,1,0.5194093585014343,0.2579728960990906,0.7437184453010559,-0.3324858248233795,-0.9441332817077637,-0.03832590579986572,-0.3273278176784515,0,0,0,-1,143564.457094125,3,2,1561775789.1095,1561774855.646675,295,1.774414,0,0,252.7749,0,0,1561775769.99275,143561.605924,0,-1.569336,75.40332,3232235528,177669985,1,1,0.94,-13.0479,-31.68563,2
1561775789.434058,110,0,0,1561775788.999382,4.634698214945043,-74.15109020664742,2553.564,0.55,330.46875,3,10,-9999,1561775789.41986,-11.87686920166016,-22.92109298706055,10.21514892578125,144.8822326660156,152.375,15,143564.772279125,-0.9314727783203125,-0.050445556640625,-0.277801513671875,143564.759096125,0.1389160750968222,-0.05844786381175102,0.07022675899706249,143564.747896125,-89.44496154785156,-53.75791931152344,-554.5488891601562,143564.764192125,-2.270524468433285,-1.238768614160238,0.03803594922874953,0.14039047062397,-0.03909202292561531,0.06886091083288193,0.01247906684875488,-0.007612258195877075,0.04961705207824707,1,0.5197102427482605,0.2589185535907745,0.7427470684051514,-0.3334504365921021,-0.9446995258331299,-0.03802677989006042,-0.3257248997688293,0,0,0,-1,143564.457094125,3,2,1561775789.1095,1561774855.646675,295,1.774414,0,0,252.7749,0,0,1561775769.99275,143561.605924,0,-1.569336,75.40332,3232235528,177669985,1,1,0.94,-13.60518,-32.42709,2
1561775789.454026,111,0,0,1561775788.999382,4.634698214945043,-74.15109020664742,2553.564,0.55,330.46875,3,10,-9999,1561775789.446148,-12.02233123779297,-23.1695671081543,10.1654052734375,144.6575317382812,152.1502990722656,15,143564.792543125,-0.9390716552734375,-0.0395050048828125,-0.3057708740234375,143564.779359125,0.1213400108506263,-0.02470721069710112,0.106946424107075,143564.768007125,-89.47515869140625,-53.84445190429688,-554.306884765625,143564.784456125,-2.267474160786956,-1.239406898436282,0.03724155906282046,0.1054865419864655,-0.04595392569899559,0.1259175390005112,0.01413416862487793,-0.007063299417495728,0.03495520353317261,1,0.5196923613548279,0.2595266103744507,0.7419797778129578,-0.3347115218639374,-0.9449355602264404,-0.03723295032978058,-0.3251315653324127,0,0,0,-1,143564.457094125,3,2,1561775789.1095,1561774855.646675,295,1.774414,0,0,252.7749,0,0,1561775769.99275,143561.605924,0,-1.569336,75.40332,3232235528,177669985,1,1,0.94,-14.16246,-33.28377,2
1561775789.474307,112,0,0,1561775788.999382,4.634698214945043,-74.15109020664742,2553.564,0.55,330.46875,3,10,-9999,1561775789.470493,-12.25956726074219,-22.82864761352539,10.0677490234375,144.4899749755859,151.9827423095703,15,143564.812807125,-0.9626007080078125,-0.0370330810546875,-0.3451080322265625,143564.799623125,0.0415280024581506,-0.0884166818745217,0.1970046784775216,143564.788087125,-89.83695983886719,-53.35304260253906,-554.3031005859375,143564.804689125,-2.265155211557177,-1.24112278167673,0.03439521158843712,0.03157476708292961,-0.1165932044386864,0.2063133120536804,-0.006987154483795166,-0.001240849494934082,-0.00723731517791748,1,0.5205317735671997,0.2593748569488525,0.7408130168914795,-0.3361063897609711,-0.9455885291099548,-0.03438843041658401,-0.3235427141189575,0,0,0,-1,143564.457094125,3,2,1561775789.1095,1561774855.646675,295,1.774414,0,0,252.7749,0,0,1561775769.99275,143561.605924,0,-1.569336,75.40332,3232235528,177669985,1,1,0.94,-14.16246,-33.28377,2
1561775789.494661,113,0,0,1561775788.999382,4.634698214945043,-74.15109020664742,2553.564,0.55,330.46875,3,10,-9999,1561775789.470493,-12.25956726074219,-22.82864761352539,10.0677490234375,144.4899749755859,151.9827423095703,15,143564.833070125,-0.978424072265625,-0.038787841796875,-0.358184814453125,143564.819887125,0.06503279592308095,-0.1854052803496815,0.2151826171300754,143564.808198125,-89.80972290039062,-53.11700439453125,-554.2161865234375,143564.824953125,-2.262798497249515,-1.244624142510486,0.03066228768271663,0.08292370289564133,-0.2146313488483429,0.1958305835723877,-0.02805352210998535,-0.009228974580764771,-0.03205668926239014,1,0.522182285785675,0.2592127919197083,0.73906409740448,-0.3375183939933777,-0.9468305110931396,-0.03065748326480389,-0.3202687799930573,0,0,0,-1,143564.457094125,3,2,1561775789.1095,1561774855.646675,295,1.774414,0,0,252.7749,0,0,1561775769.99275,143561.605924,0,-1.569336,75.40332,3232235528,177669985,1,1,0.94,-14.71974,-34.06726,2
1561775789.51651,114,0,0,1561775788.999382,4.634698214945043,-74.15109020664742,2553.564,0.55,330.46875,3,10,-9999,1561775789.496765,-12.02386474609375,-22.79419326782227,10.3992919921875,144.2963409423828,151.7891082763672,15,143564.853317375,-0.964630126953125,-0.0330352783203125,-0.342010498046875,143564.840150125,0.09391371268055426,-0.2247510886106211,0.1225783807575131,143564.828310125,-89.81661987304688,-53.4974365234375,-554.0697021484375,143564.845199375,-2.26010091209329,-1.249452048376787,0.02848446693838694,0.09422030299901962,-0.2282198667526245,0.08871611207723618,-0.02656400203704834,-0.007453829050064087,-0.04181450605392456,1,0.5239989161491394,0.2599385380744934,0.7370864748954773,-0.3384680151939392,-0.9484267830848694,-0.02848061546683311,-0.3157141804695129,0,0,0,-1,143564.457094125,3,2,1561775789.1095,1561774855.646675,295,1.774414,0,0,252.7749,0,0,1561775769.99275,143561.605924,0,-1.569336,75.40332,3232235528,177669985,1,1,0.94,-15.27702,-34.19032,2
1561775789.535059,115,0,0,1561775788.999382,4.634698214945043,-74.15109020664742,2553.564,0.55,330.46875,3,10,-9999,1561775789.522682,-12.20463562011719,-22.81248474121094,10.443359375,144.1238861083984,151.6166534423828,15,143564.873581375,-0.9388427734375,-0.02386474609375,-0.29144287109375,143564.860397375,0.08056381876820505,-0.16959435927399,0.02899037267827556,143564.848404375,-89.88658142089844,-53.29106140136719,-554.0346069335938,143564.865463375,-2.258160254032792,-1.253552460230207,0.0282105860711136,0.0750892162322998,-0.1588003188371658,0.01359100081026554,-0.002564907073974609,0.003167182207107544,-0.004413366317749023,1,0.5253042578697205,0.2610419690608978,0.7356495261192322,-0.338721752166748,-0.9497208595275879,-0.02820684388279915,-0.3118250668048859,0,0,0,-1,143564.457094125,3,2,1561775789.1095,1561774855.646675,295,1.774414,0,0,252.7749,0,0,1561775769.99275,143561.605924,0,-1.569336,75.40332,3232235528,177669985,1,1,0.94,-15.8343,-34.76859,2
1561775789.556141,116,0,0,1561775788.999382,4.634698214945043,-74.15109020664742,2553.564,0.55,330.46875,3,10,-9999,1561775789.547437,-12.30487060546875,-22.59319305419922,10.53216552734375,144.0109252929688,151.5036926269531,15,143564.893844375,-0.9116363525390625,-0.0167694091796875,-0.2605438232421875,143564.880661375,0.07667187515116325,-0.09473929261847883,0.006076534659233798,143564.868515375,-89.56245422363281,-53.28688049316406,-554.1458740234375,143564.885727375,-2.256683403240261,-1.256006909658185,0.02863391665660971,0.06126608327031136,-0.09106840193271637,0.008949643932282925,0.02639949321746826,0.003468245267868042,0.04151445627212524,1,0.5259385704994202,0.2619999349117279,0.734805166721344,-0.3388302624225616,-0.9504717588424683,-0.02863000333309174,-0.3094893097877502,0,0,0,-1,143564.457094125,3,2,1561775789.1095,1561774855.646675,295,1.774414,0,0,252.7749,0,0,1561775769.99275,143561.605924,0,-1.569336,75.40332,3232235528,177669985,1,1,0.94,-16.39158,-35.05643,2
1561775789.575636,117,0,0,1561775788.999382,4.634698214945043,-74.15109020664742,2553.564,0.55,330.46875,3,10,-9999,1561775789.572928,-12.13121032714844,-22.49380111694336,10.50885009765625,143.9936218261719,151.4863891601562,15,143564.914077375,-0.913360595703125,-0.0146636962890625,-0.2776336669921875,143564.900924375,-0.01592117594482071,-0.0593948838953832,0.04233653816509866,143564.888626375,-89.72312927246094,-53.28233337402344,-553.8578491210938,143564.905990375,-2.256325748327323,-1.257399186913911,0.02815374479420588,-0.04382997378706932,-0.05652188137173653,0.05138604715466499,0.04399347305297852,0.01728576421737671,0.04303324222564697,1,0.5264880061149597,0.2621553242206573,0.7343204021453857,-0.3389079868793488,-0.9509148597717285,-0.02815002575516701,-0.3081699311733246,0,0,0,-1,143564.457094125,3,2,1561775789.1095,1561774855.646675,295,1.774414,0,0,252.7749,0,0,1561775769.99275,143561.605924,0,-1.569336,75.40332,3232235528,177669985,1,1,0.94,-16.94886,-35.41446,2
1561775789.598085,118,0,0,1561775788.999382,4.634698214945043,-74.15109020664742,2553.564,0.55,330.46875,3,10,-9999,1561775789.572928,-12.13121032714844,-22.49380111694336,10.50885009765625,143.9936218261719,151.4863891601562,15,143564.934341375,-0.939605712890625,-0.026275634765625,-0.299896240234375,143564.921188375,-0.05040724784858379,-0.03387114800806378,0.08353297706753439,143564.908737375,-89.89198303222656,-52.89845275878906,-554.0038452148438,143564.926254375,-2.256895435450322,-1.258131072266442,0.02650430853151781,-0.04242675378918648,-0.04641332104802132,0.08696614950895309,0.0251118540763855,0.005718708038330078,0.01871520280838013,1,0.5271227955818176,0.2615295052528381,0.734024703502655,-0.3390453159809113,-0.951183021068573,-0.02650120481848717,-0.3074877560138702,0,0,0,-1,143564.457094125,3,2,1561775789.1095,1561774855.646675,295,1.774414,0,0,252.7749,0,0,1561775769.99275,143561.605924,0,-1.569336,75.40332,3232235528,177669985,1,1,0.94,-17.50614,-35.78887,2
1561775789.616136,119,0,0,1561775788.999382,4.634698214945043,-74.15109020664742,2553.564,0.55,330.46875,3,10,-9999,1561775789.598089,-12.30427551269531,-22.71701431274414,10.44622802734375,144.0135803222656,151.50634765625,15,143564.954605375,-0.963592529296875,-0.0370941162109375,-0.3255767822265625,143564.941421375,-0.02435567343321067,-0.05716581806298688,0.09382529573236363,143564.928848375,-90.08042907714844,-53.32420349121094,-554.030517578125,143564.946518375,-2.256931937361058,-1.259240904242884,0.02457827799049961,-0.04509870335459709,-0.08072096109390259,0.0945042222738266,0.0001238584518432617,-0.00899350643157959,-0.005518972873687744,1,0.5278745293617249,0.2610076665878296,0.7335044741630554,-0.339403361082077,-0.9515703916549683,-0.02457580342888832,-0.3064469695091248,0,0,0,-1,143564.457094125,3,2,1561775789.1095,1561774855.646675,295,1.774414,0,0,252.7749,0,0,1561775769.99275,143561.605924,0,-1.569336,75.40332,3232235528,177669985,1,1,0.94,-18.06341,-36.51716,2
1561775789.636391,120,0,0,1561775788.999382,4.634698214945043,-74.15109020664742,2553.564,0.55,330.46875,3,10,-9999,1561775789.623613,-12.14332580566406,-22.58699417114258,10.500732421875,144.0143432617188,151.5071105957031,15,143564.974868375,-0.966278076171875,-0.0334320068359375,-0.3314666748046875,143564.961685375,-0.02985430213589727,-0.05342301146698952,0.06407432424676143,143564.948929375,-89.96101379394531,-53.05462646484375,-553.9894409179688,143564.966781375,-2.257169077886862,-1.260579501072757,0.02300907348427841,-0.02137846127152443,-0.06223196536302567,0.05974304676055908,-0.01281321048736572,0.002163529396057129,-0.02309328317642212,1,0.5286725163459778,0.2606016397476196,0.7330001592636108,-0.3395628035068512,-0.9520153403282166,-0.02300704270601273,-0.3051843047142029,0,0,0,-1,143564.457094125,3,2,1561775789.1095,1561774855.646675,295,1.774414,0,0,252.7749,0,0,1561775769.99275,143562.551158,0,-1.210205,75.39991,3232235528,177669985,1,1,0.94,-18.06341,-36.51716,2
