loggingTime,loggingSample,identifierForVendor,deviceID,locationTimestamp_since1970,locationLatitude,locationLongitude,locationAltitude,locationSpeed,locationCourse,locationVerticalAccuracy,locationHorizontalAccuracy,locationFloor,locationHeadingTimestamp_since1970,locationHeadingX,locationHeadingY,locationHeadingZ,locationTrueHeading,locationMagneticHeading,locationHeadingAccuracy,accelerometerTimestamp_sinceReboot,accelerometerAccelerationX,accelerometerAccelerationY,accelerometerAccelerationZ,gyroTimestamp_sinceReboot,gyroRotationX,gyroRotationY,gyroRotationZ,magnetometerTimestamp_sinceReboot,magnetometerX,magnetometerY,magnetometerZ,motionTimestamp_sinceReboot,motionYaw,motionRoll,motionPitch,motionRotationRateX,motionRotationRateY,motionRotationRateZ,motionUserAccelerationX,motionUserAccelerationY,motionUserAccelerationZ,motionAttitudeReferenceFrame,motionQuaternionX,motionQuaternionY,motionQuaternionZ,motionQuaternionW,motionGravityX,motionGravityY,motionGravityZ,motionMagneticFieldX,motionMagneticFieldY,motionMagneticFieldZ,motionMagneticFieldCalibrationAccuracy,activityTimestamp_sinceReboot,activity,activityActivityConfidence,activityActivityStartDate,pedometerStartDate,pedometerNumberofSteps,pedometerAverageActivePace,pedometerCurrentPace,pedometerCurrentCadence,pedometerDistance,pedometerFloorAscended,pedometerFloorDescended,pedometerEndDate,altimeterTimestamp_sinceReboot,altimeterReset,altimeterRelativeAltitude,altimeterPressure,IP_en0,IP_pdp_ip0,deviceOrientation,batteryState,batteryLevel,avAudioRecorderPeakPower,avAudioRecorderAveragePower,label
1561775801.25775,1,0,0,1561775800.999238,4.634708189409817,-74.15112725465944,2553.698,0.31,346.9921875,3,10,-9999,1561775801.256827,-17.20982360839844,-21.14474105834961,5.46722412109375,143.613525390625,151.1062927246094,15,143576.5842175,-0.8396759033203125,0.1666412353515625,-0.461334228515625,143576.5710335,0.001513474447492031,0.0713633961503083,0.01094852155742476,143576.5712165,-94.72129821777344,-51.6302490234375,-559.1880493164062,143576.5760995,-2.278149645647065,-1.052548728678614,-0.1524474917081668,-0.003745121415704489,0.06950090825557709,0.006274399347603321,0.01793086528778076,0.007932335138320923,0.03184998035430908,1,0.4824537038803101,0.1497718691825867,0.7670608758926392,-0.395505279302597,-0.8586138486862183,0.1518576890230179,-0.4896136224269867,0,0,0,-1,143568.9953400417,3,2,1561775793.647746,1561774855.646675,295,1.774414,0,0,252.7749,0,0,1561775769.99275,143573.894759,0,-0.657959,75.3947,3232235528,177669985,1,1,0.94,-32.53394,-37.94903,3
1561775801.265908,2,0,0,1561775800.999238,4.634708189409817,-74.15112725465944,2553.698,0.31,346.9921875,3,10,-9999,1561775801.256827,-17.20982360839844,-21.14474105834961,5.46722412109375,143.613525390625,151.1062927246094,15,143576.6044815,-0.848602294921875,0.1719818115234375,-0.4927978515625,143576.5912975,-0.03025777104104427,0.06622669103976347,0.01633716170709109,143576.5913275,-94.83694458007812,-51.38304138183594,-558.9228515625,143576.5963635,-2.278425390421698,-1.051278659527014,-0.1528764421603444,-0.04139769077301025,0.0522121973335743,0.01257730182260275,0.01583266258239746,0.01641952991485596,0.01409363746643066,1,0.4820570051670074,0.1492827981710434,0.767363965511322,-0.3955861330032349,-0.8579347729682922,0.1522816568613052,-0.4906713664531708,0,0,0,-1,143568.9953400417,3,2,1561775793.647746,1561774855.646675,295,1.774414,0,0,252.7749,0,0,1561775769.99275,143573.894759,0,-0.657959,75.3947,3232235528,177669985,1,1,0.94,-32.53394,-37.94903,3
1561775801.286103,3,0,0,1561775800.999238,4.634708189409817,-74.15112725465944,2553.698,0.31,346.9921875,3,10,-9999,1561775801.256827,-17.20982360839844,-21.14474105834961,5.46722412109375,143.613525390625,151.1062927246094,15,143576.6247445,-0.8575897216796875,0.165924072265625,-0.50347900390625,143576.6115615,-0.03532257080215697,0.02936667734030376,0.0001912149662676893,143576.6114395,-94.65632629394531,-51.34834289550781,-559.1179809570312,143576.6166275,-2.279089892845057,-1.050659683622092,-0.153355994492298,-0.02909548580646515,0.03902395814657211,-0.01705595850944519,0.003578662872314453,0.01652541756629944,-0.0148003101348877,1,0.4819471836090088,0.148808479309082,0.7675798535346985,-0.3954794108867645,-0.8575672507286072,0.1527555882930756,-0.4911659061908722,0,0,0,-1,143568.9953400417,3,2,1561775793.647746,1561774855.646675,295,1.774414,0,0,252.7749,0,0,1561775769.99275,143573.894759,0,-0.657959,75.3947,3232235528,177669985,1,1,0.94,-32.53394,-36.91996,3
1561775801.306972,4,0,0,1561775800.999238,4.634708189409817,-74.15112725465944,2553.698,0.31,346.9921875,3,10,-9999,1561775801.298458,-17.10942840576172,-20.83448028564453,5.40777587890625,143.6984710693359,151.1912384033203,15,143576.6450085,-0.869384765625,0.1451416015625,-0.5036773681640625,143576.6318245,-0.02686277328341126,-0.004489823281764588,-0.007004113666908397,143576.6315505,-94.75590515136719,-51.53691101074219,-559.12841796875,143576.6368905,-2.279800196637093,-1.050729322568084,-0.1533439662367126,-0.007801115978509188,-0.01783985644578934,-0.007026492618024349,0.0003948211669921875,-0.003955245018005371,-0.02650153636932373,1,0.482024759054184,0.148655891418457,0.7677051424980164,-0.3951990902423859,-0.857603132724762,0.1527437120676041,-0.4911071062088013,0,0,0,-1,143568.9953400417,3,2,1561775793.647746,1561774855.646675,295,1.774414,0,0,252.7749,0,0,1561775769.99275,143573.894759,0,-0.657959,75.3947,3232235528,177669985,1,1,0.94,-32.53394,-37.20536,3
1561775801.326702,5,0,0,1561775800.999238,4.634708189409817,-74.15112725465944,2553.698,0.31,346.9921875,3,10,-9999,1561775801.323431,-17.01495361328125,-20.99422454833984,5.47900390625,143.6951141357422,151.1878814697266,15,143576.6652725,-0.8636627197265625,0.1468658447265625,-0.5014190673828125,143576.6520885,0.01297279030199399,-0.03110598784823451,-0.00872238520222752,143576.6516615,-94.82632446289062,-51.53849792480469,-559.2894897460938,143576.6571545,-2.279787533470307,-1.051442152014378,-0.1530960208231315,0.007567187771201134,-0.04048072174191475,-0.01793533377349377,-0.01110899448394775,-0.004839375615119934,-0.01046210527420044,1,0.482257068157196,0.1488989293575287,0.7675641775131226,-0.3950980305671692,-0.8579858541488647,0.1524986624717712,-0.4905144572257996,0,0,0,-1,143568.9953400417,3,2,1561775793.647746,1561774855.646675,295,1.774414,0,0,252.7749,0,0,1561775769.99275,143573.894759,0,-0.657959,75.3947,3232235528,177669985,1,1,0.94,-32.53394,-37.18059,3
1561775801.360893,6,0,0,1561775800.999238,4.634708189409817,-74.15112725465944,2553.698,0.31,346.9921875,3,10,-9999,1561775801.349682,-16.92020416259766,-20.98254013061523,5.59039306640625,143.7503967285156,151.2431640625,15,143576.6855055,-0.8526763916015625,0.15997314453125,-0.4905853271484375,143576.6723525,-0.01835876729057024,-0.03877029914937355,-0.03409938091348357,143576.6717725,-94.63816833496094,-51.58389282226562,-559.157470703125,143576.6774185,-2.280311342911105,-1.052434314989034,-0.1527273834681218,-0.03025475889444351,-0.04321738332509995,-0.0426768958568573,0.002273917198181152,0.000560373067855835,-0.007333755493164062,1,0.4826169013977051,0.1491158604621887,0.7674778699874878,-0.394744336605072,-0.8585208654403687,0.1521343290805817,-0.4896907806396484,0,0,0,-1,143568.9953400417,3,2,1561775793.647746,1561774855.646675,295,1.774414,0,0,252.7749,0,0,1561775769.99275,143573.894759,0,-0.657959,75.3947,3232235528,177669985,1,1,0.94,-32.53394,-37.34305,3
1561775801.367203,7,0,0,1561775800.999238,4.634708189409817,-74.15112725465944,2553.698,0.31,346.9921875,3,10,-9999,1561775801.349682,-16.92020416259766,-20.98254013061523,5.59039306640625,143.7503967285156,151.2431640625,15,143576.7057685,-0.8512725830078125,0.1575775146484375,-0.4720916748046875,143576.6926155,-0.034349185423733,-0.03935885775028106,-0.04009016178561682,143576.6918525,-95.00650024414062,-51.58195495605469,-559.1110229492188,143576.6976815,-2.28137256208808,-1.053449283797526,-0.1523738034833524,-0.03243855386972427,-0.0445907786488533,-0.03961026668548584,0.008768200874328613,0.00972941517829895,0.009674012660980225,1,0.4830280840396881,0.1492011994123459,0.7674897313117981,-0.3941858112812042,-0.8590641617774963,0.1517848521471024,-0.4888457357883453,0,0,0,-1,143568.9953400417,3,2,1561775793.647746,1561774855.646675,295,1.774414,0,0,252.7749,0,0,1561775769.99275,143573.894759,0,-0.657959,75.3947,3232235528,177669985,1,1,0.94,-31.4583,-37.76491,3
1561775801.387413,8,0,0,1561775800.999238,4.634708189409817,-74.15112725465944,2553.698,0.31,346.9921875,3,10,-9999,1561775801.37356,-17.16132354736328,-20.98940658569336,5.37274169921875,143.8182678222656,151.31103515625,15,143576.7260325,-0.8502044677734375,0.149688720703125,-0.4759674072265625,143576.7128485,-0.02908384963253734,-0.04602608153929443,-0.03898734677821501,143576.7119635,-94.68873596191406,-51.61093139648438,-559.1221313476562,143576.7179455,-2.282311085514019,-1.054493286124521,-0.1519926638250022,-0.02846804447472095,-0.04933306947350502,-0.04133572801947594,0.009786009788513184,0.0030718594789505,0.01558029651641846,1,0.4834369421005249,0.1493323892354965,0.7674735188484192,-0.3936660587787628,-0.8596242666244507,0.1514081209897995,-0.4879771173000336,0,0,0,-1,143568.9953400417,3,2,1561775793.647746,1561774855.646675,295,1.774414,0,0,252.7749,0,0,1561775769.99275,143573.894759,0,-0.657959,75.3947,3232235528,177669985,1,1,0.94,-31.4583,-37.99749,3
1561775801.407776,9,0,0,1561775800.999238,4.634708189409817,-74.15112725465944,2553.698,0.31,346.9921875,3,10,-9999,1561775801.399828,-16.91314697265625,-21.05490875244141,5.5225830078125,143.8743896484375,151.3671569824219,15,143576.7462965,-0.8545684814453125,0.1385040283203125,-0.4737091064453125,143576.7331125,-0.01841629157011595,-0.02180995774720392,-0.03130625756220847,143576.7320755,-94.54676818847656,-51.68205261230469,-559.119873046875,143576.7382095,-2.283097349648524,-1.055326748126272,-0.1515621822396939,-0.0162702351808548,-0.0220151599496603,-0.0285621453076601,0.006113946437835693,-0.008724898099899292,0.0111115574836731,1,0.4837457537651062,0.1494782716035843,0.7674844861030579,-0.3932097554206848,-0.8600873351097107,0.1509825885295868,-0.4872925877571106,0,0,0,-1,143568.9953400417,3,2,1561775793.647746,1561774855.646675,295,1.774414,0,0,252.7749,0,0,1561775769.99275,143573.894759,0,-0.657959,75.3947,3232235528,177669985,1,1,0.94,-31.4583,-37.99749,3
1561775801.444945,10,0,0,1561775800.999238,4.634708189409817,-74.15112725465944,2553.698,0.31,346.9921875,3,10,-9999,1561775801.424901,-16.92743682861328,-21.04379272460938,5.499755859375,143.8892364501953,151.3820037841797,15,143576.7665595,-0.856842041015625,0.14044189453125,-0.4735870361328125,143576.7533765,-0.003228017557285045,-0.004278101975103288,-0.009465673462468637,143576.7521865,-94.54412841796875,-51.61549377441406,-559.230224609375,143576.7584425,-2.283426131045485,-1.055623715226978,-0.1513130489372868,-0.001367451273836195,-0.01073134690523148,-0.007318641990423203,0.005513131618499756,-0.01192709803581238,0.01519286632537842,1,0.4838439524173737,0.1495566666126251,0.767510712146759,-0.393007904291153,-0.8602647185325623,0.1507363021373749,-0.4870556592941284,0,0,0,-1,143568.9953400417,3,2,1561775793.647746,1561774855.646675,295,1.774414,0,0,252.7749,0,0,1561775769.99275,143573.894759,0,-0.657959,75.3947,3232235528,177669985,1,1,0.94,-31.4583,-35.9654,3
1561775801.448269,11,0,0,1561775800.999238,4.634708189409817,-74.15112725465944,2553.698,0.31,346.9921875,3,10,-9999,1561775801.424901,-16.92743682861328,-21.04379272460938,5.499755859375,143.8892364501953,151.3820037841797,15,143576.7868235,-0.8524017333984375,0.148162841796875,-0.48541259765625,143576.7736395,0.01154640122214754,-0.01666739368226091,0.003875165702174299,143576.7722975,-94.75529479980469,-51.74771118164062,-559.0819702148438,143576.7787055,-2.283339463781586,-1.055978143222076,-0.151262911344568,0.01176566164940596,-0.02558965608477592,-0.00226476090028882,0.00367814302444458,-0.006918430328369141,0.006758749485015869,1,0.4839653670787811,0.1496673077344894,0.7674146294593811,-0.3930038511753082,-0.8604438900947571,0.1506867408752441,-0.486754447221756,0,0,0,-1,143576.7753185,2,0,1561775801.427725,1561774855.646675,295,1.774414,0,0,252.7749,0,0,1561775769.99275,143573.894759,0,-0.657959,75.3947,3232235528,177669985,1,1,0.94,-31.4583,-35.9654,3
1561775801.468458,12,0,0,1561775800.999238,4.634708189409817,-74.15112725465944,2553.698,0.31,346.9921875,3,10,-9999,1561775801.450479,-16.94282531738281,-21.00450897216797,5.4910888671875,143.8763275146484,151.3690948486328,15,143576.8070875,-0.84197998046875,0.1591033935546875,-0.4814910888671875,143576.7939035,0.01337652552325,-0.01982829958007596,-0.008534366029267926,143576.7924085,-94.42735290527344,-51.5986328125,-559.1198120117188,143576.7989695,-2.28320636659456,-1.056519645099941,-0.1510154469003109,0.012590441852808,-0.02226283401250839,-0.01434592436999083,0.01300722360610962,0.005228057503700256,-0.0001282095909118652,1,0.4841231107711792,0.1499047726392746,0.7672905921936035,-0.3929611444473267,-0.8607397079467773,0.1504420936107635,-0.486306756734848,0,0,0,-1,143576.7753185,2,0,1561775801.427725,1561774855.646675,295,1.774414,0,0,252.7749,0,0,1561775769.99275,143573.894759,0,-0.657959,75.3947,3232235528,177669985,1,1,0.94,-31.4583,-35.51627,3
1561775801.491082,13,0,0,1561775800.999238,4.634708189409817,-74.15112725465944,2553.698,0.31,346.9921875,3,10,-9999,1561775801.474915,-16.8984375,-21.00772476196289,5.39654541015625,143.8680572509766,151.3608245849609,15,143576.8273505,-0.8436279296875,0.1630401611328125,-0.47515869140625,143576.8141675,0.0132891738394954,-0.009184976283574285,-0.01531131205519256,143576.8125195,-94.56686401367188,-51.55284118652344,-559.1240844726562,143576.8192335,-2.283144377747916,-1.056899157574487,-0.150573063224114,0.01319498009979725,-0.01290555112063885,-0.01734277978539467,0.02023810148239136,0.01221144199371338,0.008916199207305908,1,0.4841924011707306,0.1501710563898087,0.7672459483146667,-0.392861396074295,-0.8609821200370789,0.1500047296285629,-0.4860127568244934,0,0,0,-1,143576.7753185,2,0,1561775801.427725,1561774855.646675,295,1.774414,0,0,252.7749,0,0,1561775769.99275,143573.894759,0,-0.657959,75.3947,3232235528,177669985,1,1,0.94,-31.4583,-36.39803,3
1561775801.523923,14,0,0,1561775800.999238,4.634708189409817,-74.15112725465944,2553.698,0.31,346.9921875,3,10,-9999,1561775801.501209,-17.04235076904297,-20.85710525512695,5.25738525390625,143.852783203125,151.3455505371094,15,143576.8476145,-0.8549346923828125,0.1512603759765625,-0.47430419921875,143576.8344305,0.02628513364297307,0.006977748372116612,-0.01217064618166212,143576.8326305,-94.63809204101562,-51.7677001953125,-558.9293212890625,143576.8394965,-2.28293010275553,-1.05698444046073,-0.1500537987986291,0.02243854478001595,0.001247818116098642,-0.01256480254232883,0.01094794273376465,0.008315056562423706,0.01226848363876343,1,0.4841248691082001,0.1504470854997635,0.7672529220581055,-0.392825573682785,-0.8610913753509521,0.1494913250207901,-0.4859775602817535,0,0,0,-1,143576.7753185,2,0,1561775801.427725,1561774855.646675,295,1.774414,0,0,252.7749,0,0,1561775769.99275,143573.894759,0,-0.657959,75.3947,3232235528,177669985,1,1,0.94,-31.4583,-37.12598,3
1561775801.529284,15,0,0,1561775800.999238,4.634708189409817,-74.15112725465944,2553.698,0.31,346.9921875,3,10,-9999,1561775801.525433,-17.11988830566406,-20.97135543823242,5.36810302734375,143.8339080810547,151.3266754150391,15,143576.8678635,-0.8583831787109375,0.145782470703125,-0.4739532470703125,143576.8546945,0.01646739028439596,0.01411688430629203,-0.009504022982165777,143576.8527575,-94.7864990234375,-51.35893249511719,-559.2246704101562,143576.8597765,-2.282739108920717,-1.05687012442541,-0.1496401416406137,0.01704351417720318,0.006894251797348261,-0.01313072443008423,0.002477467060089111,-0.0001717805862426758,0.01238197088241577,1,0.4839996099472046,0.1506360322237015,0.7672984600067139,-0.3928183913230896,-0.8610895276069641,0.1490823030471802,-0.4861063361167908,0,0,0,-1,143576.7753185,2,0,1561775801.427725,1561774855.646675,295,1.774414,0,0,252.7749,0,0,1561775769.99275,143573.894759,0,-0.657959,75.3947,3232235528,177669985,1,1,0.94,-31.4583,-38.01132,3
1561775801.549528,16,0,0,1561775800.999238,4.634708189409817,-74.15112725465944,2553.698,0.31,346.9921875,3,10,-9999,1561775801.525433,-17.11988830566406,-20.97135543823242,5.36810302734375,143.8339080810547,151.3266754150391,15,143576.8881275,-0.86309814453125,0.1428680419921875,-0.482818603515625,143576.8749745,0.0248912351284256,0.01043639567980252,-0.006033391449574514,143576.8728685,-94.62283325195312,-51.52986145019531,-559.1973876953125,143576.8800405,-2.282486519632356,-1.056720596936169,-0.1492460227470483,0.0205298587679863,0.0006909510120749474,-0.0103823421522975,0.0009452700614929199,-0.006541699171066284,0.00942683219909668,1,0.4838592708110809,0.150825172662735,0.7673378586769104,-0.3928418159484863,-0.8610679507255554,0.1486925780773163,-0.4862639605998993,0,0,0,-1,143576.7753185,2,0,1561775801.427725,1561774855.646675,295,1.774414,0,0,252.7749,0,0,1561775769.99275,143573.894759,0,-0.657959,75.3947,3232235528,177669985,1,1,0.94,-31.4583,-38.0921,3
1561775801.569784,17,0,0,1561775800.999238,4.634708189409817,-74.15112725465944,2553.698,0.31,346.9921875,3,10,-9999,1561775801.551731,-16.75727081298828,-20.98769760131836,5.4405517578125,143.8135223388672,151.3062896728516,15,143576.9083915,-0.8573760986328125,0.1571502685546875,-0.4871826171875,143576.8952375,0.02385420019994874,0.0006812366068422691,-0.02456366631434585,143576.8929795,-94.94538879394531,-51.66249084472656,-559.3538818359375,143576.9003035,-2.282325686003311,-1.056773666607666,-0.1487366503710316,0.02288142964243889,-0.008563267067074776,-0.03679237514734268,-0.001312971115112305,-0.003062501549720764,-0.001140832901000977,1,0.4837848246097565,0.1510778963565826,0.7673616409301758,-0.3927899301052094,-0.8611595630645752,0.1481888443231583,-0.4862554371356964,0,0,0,-1,143576.7753185,2,0,1561775801.427725,1561774855.646675,295,1.774414,0,0,252.7749,0,0,1561775769.99275,143573.894759,0,-0.657959,75.3947,3232235528,177669985,1,1,0.94,-31.4583,-38.0921,3
1561775801.60424,18,0,0,1561775800.999238,4.634708189409817,-74.15112725465944,2553.698,0.31,346.9921875,3,10,-9999,1561775801.602539,-16.90042877197266,-21.22315979003906,5.4588623046875,143.8258361816406,151.318603515625,15,143576.9286545,-0.8511199951171875,0.162506103515625,-0.4803009033203125,143576.9154715,0.0152687014777513,-0.006945257806817645,-0.03920093229763937,143576.9130905,-94.6763916015625,-51.6873779296875,-559.0596313476562,143576.9205675,-2.282453667313826,-1.0570470879119,-0.1478582478154626,0.0112897539511323,-0.01329703629016876,-0.04091494902968407,0.009934663772583008,0.01570481061935425,0.001479864120483398,1,0.4837567806243896,0.1514513343572617,0.7674381732940674,-0.3925310969352722,-0.8614055514335632,0.1473200917243958,-0.4860837459564209,0,0,0,-1,143576.7753185,2,0,1561775801.427725,1561774855.646675,295,1.774414,0,0,252.7749,0,0,1561775769.99275,143573.894759,0,-0.657959,75.3947,3232235528,177669985,1,1,0.94,-31.4583,-39.19761,3
1561775801.610409,19,0,0,1561775800.999238,4.634708189409817,-74.15112725465944,2553.698,0.31,346.9921875,3,10,-9999,1561775801.602539,-16.90042877197266,-21.22315979003906,5.4588623046875,143.8258361816406,151.318603515625,15,143576.9489185,-0.8566436767578125,0.1540374755859375,-0.478790283203125,143576.9357345,0.008407599561380154,-0.006070675704835623,-0.03351907811195531,143576.9332015,-94.35115051269531,-51.48934936523438,-558.9427490234375,143576.9408005,-2.282662358581413,-1.057381770147762,-0.1471369319835484,0.007459329441189766,-0.01348718628287315,-0.03675935417413712,0.009304463863372803,0.01238998770713806,0.00769805908203125,1,0.4837839007377625,0.1517544537782669,0.7674944996833801,-0.3922702074050903,-0.8616604804992676,0.1466066092252731,-0.4858474433422089,0,0,0,-1,143576.7753185,2,0,1561775801.427725,1561774855.646675,295,1.774414,0,0,252.7749,0,0,1561775769.99275,143573.894759,0,-0.657959,75.3947,3232235528,177669985,1,1,0.94,-31.4583,-39.19761,3
1561775801.63062,20,0,0,1561775800.999238,4.634708189409817,-74.15112725465944,2553.698,0.31,346.9921875,3,10,-9999,1561775801.626794,-16.9244384765625,-20.98695755004883,5.524169921875,143.8407287597656,151.33349609375,15,143576.9691825,-0.86328125,0.1438446044921875,-0.4809417724609375,143576.9559985,0.004360926285004753,-0.01226199260705184,-0.03009478558233143,143576.9532825,-94.66615295410156,-51.43205261230469,-559.3003540039062,143576.9610645,-2.282940129337438,-1.057800096365478,-0.146478918899946,0.0002874369965866208,-0.02416140213608742,-0.02854510210454464,0.002450406551361084,0.003549948334693909,0.007003247737884521,1,0.4838586747646332,0.1520319133996964,0.7675355672836304,-0.3919899463653564,-0.8619474768638611,0.1459556668996811,-0.4855341613292694,0,0,0,-1,143576.7753185,2,0,1561775801.427725,1561774855.646675,295,1.774414,0,0,252.7749,0,0,1561775769.99275,143573.894759,0,-0.657959,75.3947,3232235528,177669985,1,1,0.94,-31.4583,-39.26001,3
1561775801.65085,21,0,0,1561775800.999238,4.634708189409817,-74.15112725465944,2553.698,0.31,346.9921875,3,10,-9999,1561775801.626794,-16.9244384765625,-20.98695755004883,5.524169921875,143.8407287597656,151.33349609375,15,143576.9894455,-0.8647613525390625,0.13824462890625,-0.4861602783203125,143576.9762625,0.005926066057644321,-0.03006469186201353,-0.01576937576268619,143576.9733935,-94.96725463867188,-51.60176086425781,-559.141845703125,143576.9813285,-2.283143868537532,-1.058488177428833,-0.1460463686413464,0.004583382047712803,-0.04040508717298508,-0.02236523665487766,-0.003508388996124268,-0.006108194589614868,0.001314043998718262,1,0.4840679466724396,0.152290090918541,0.7674667835235596,-0.3917661905288696,-0.8623363375663757,0.1455277353525162,-0.4849719107151031,0,0,0,-1,143576.7753185,2,0,1561775801.427725,1561774855.646675,295,1.774414,0,0,252.7749,0,0,1561775769.99275,143573.894759,0,-0.657959,75.3947,3232235528,177669985,1,1,0.94,-31.4583,-39.62191,3
1561775801.685609,22,0,0,1561775800.999238,4.634708189409817,-74.15112725465944,2553.698,0.31,346.9921875,3,10,-9999,1561775801.680745,-16.91062164306641,-20.91369247436523,5.5684814453125,143.8404846191406,151.333251953125,15,143577.0097095,-0.854217529296875,0.145843505859375,-0.48980712890625,143576.9965255,0.01761894113974622,-0.03604721693476753,-0.01810789751588477,143576.9935045,-94.58598327636719,-51.7528076171875,-559.0951538085938,143577.0015915,-2.283158964553295,-1.05931125153279,-0.1455982056287881,0.01238617766648531,-0.04479264467954636,-0.01895878650248051,0.003325462341308594,-0.003818467259407043,-0.003758549690246582,1,0.4843121469020844,0.1526264399290085,0.7673302292823792,-0.3916008472442627,-0.8627920150756836,0.145084336400032,-0.4842938184738159,0,0,0,-1,143576.7753185,2,0,1561775801.427725,1561774855.646675,295,1.774414,0,0,252.7749,0,0,1561775769.99275,143573.894759,0,-0.657959,75.3947,3232235528,177669985,1,1,0.94,-31.4583,-40.35667,3
1561775801.691402,23,0,0,1561775800.999238,4.634708189409817,-74.15112725465944,2553.698,0.31,346.9921875,3,10,-9999,1561775801.680745,-16.91062164306641,-20.91369247436523,5.5684814453125,143.8404846191406,151.333251953125,15,143577.0299735,-0.8489532470703125,0.147979736328125,-0.482208251953125,143577.0167895,0.01476030402565517,-0.0384730903717207,-0.005422462295510337,143577.0136155,-94.69699096679688,-51.66445922851562,-558.6710205078125,143577.0218555,-2.283052275770544,-1.060221915449133,-0.145332948442049,0.01382801309227943,-0.04717377573251724,-0.00474363099783659,0.01211577653884888,0.003676667809486389,-0.004098355770111084,1,0.4846102297306061,0.1529364138841629,0.7671242356300354,-0.3915149867534637,-0.8632662892341614,0.1448218822479248,-0.4835267663002014,0,0,0,-1,143576.7753185,2,0,1561775801.427725,1561774855.646675,295,1.774414,0,0,252.7749,0,0,1561775769.99275,143573.894759,0,-0.657959,75.3947,3232235528,177669985,1,1,0.94,-31.4583,-40.671,3
1561775801.711595,24,0,0,1561775800.999238,4.634708189409817,-74.15112725465944,2553.698,0.31,346.9921875,3,10,-9999,1561775801.703621,-16.96568298339844,-21.05130004882812,5.56390380859375,143.8197021484375,151.3124694824219,15,143577.0502365,-0.84283447265625,0.1433563232421875,-0.472381591796875,143577.0370535,0.02044961506239145,-0.03300562065378803,0.003064765782463187,143577.0337265,-94.6361083984375,-51.40077209472656,-558.945068359375,143577.0421195,-2.282786389769328,-1.061071057066581,-0.1451869231921323,0.01707067899405956,-0.03919201716780663,0.001589898252859712,0.01715260744094849,0.0009219646453857422,0.007141590118408203,1,0.4848918318748474,0.153225302696228,0.7668858170509338,-0.3915203213691711,-0.863694965839386,0.1446773856878281,-0.4828038215637207,0,0,0,-1,143576.7753185,2,0,1561775801.427725,1561774855.646675,295,1.774414,0,0,252.7749,0,0,1561775769.99275,143573.894759,0,-0.657959,75.3947,3232235528,177669985,1,1,0.94,-31.4583,-32.0014,3
1561775801.731852,25,0,0,1561775800.999238,4.634708189409817,-74.15112725465944,2553.698,0.31,346.9921875,3,10,-9999,1561775801.72818,-16.81893157958984,-21.04877853393555,5.842529296875,143.7923736572266,151.2851409912109,15,143577.0704695,-0.84906005859375,0.138092041015625,-0.473876953125,143577.0573165,0.009050220332416275,-0.01342392979065341,0.02165948914561444,143577.0538375,-94.71328735351562,-51.60581970214844,-558.7493896484375,143577.0623825,-2.282493774845341,-1.061580963300658,-0.1453099792270109,0.004286173265427351,-0.01602544449269772,0.02248106524348259,0.01936668157577515,-0.004204660654067993,0.01061391830444336,1,0.4850849211215973,0.1533470004796982,0.766688346862793,-0.3916199505329132,-0.8639253973960876,0.144799143075943,-0.4823546409606934,0,0,0,-1,143576.7753185,2,0,1561775801.427725,1561774855.646675,295,1.774414,0,0,252.7749,0,0,1561775769.99275,143573.894759,0,-0.657959,75.3947,3232235528,177669985,1,1,0.94,-31.4583,-32.0014,3
1561775801.755796,26,0,0,1561775800.999238,4.634708189409817,-74.15112725465944,2553.698,0.31,346.9921875,3,10,-9999,1561775801.754326,-16.74884796142578,-20.99735641479492,5.625244140625,143.7548675537109,151.2476348876953,15,143577.0907335,-0.8621978759765625,0.14361572265625,-0.4921112060546875,143577.0775805,0.009827863370719413,-0.01270753945742209,0.03134940077186775,143577.0739485,-94.63697814941406,-51.4185791015625,-559.0885620117188,143577.0826465,-2.282108968125112,-1.061862303628107,-0.1456826098909214,0.006182343699038029,-0.02620218321681023,0.03184793516993523,0.007599115371704102,-0.00417664647102356,0.0006399154663085938,1,0.4852237701416016,0.153346911072731,0.7664949297904968,-0.3918265402317047,-0.8640139102935791,0.1451678425073624,-0.4820852279663086,0,0,0,-1,143576.7753185,2,0,1561775801.427725,1561774855.646675,295,1.774414,0,0,252.7749,0,0,1561775769.99275,143573.894759,0,-0.657959,75.3947,3232235528,177669985,1,1,0.94,-31.4583,-32.18845,3
1561775801.774589,27,0,0,1561775800.999238,4.634708189409817,-74.15112725465944,2553.698,0.31,346.9921875,3,10,-9999,1561775801.754326,-16.74884796142578,-20.99735641479492,5.625244140625,143.7548675537109,151.2476348876953,15,143577.1109975,-0.8735809326171875,0.135345458984375,-0.484466552734375,143577.0978135,0.02778183017559761,-0.04312163805445401,0.05140753115401755,143577.0940605,-94.71507263183594,-51.29655456542969,-558.963134765625,143577.1029105,-2.281316534542203,-1.062548724073398,-0.1462801259137963,0.03714394569396973,-0.05250215530395508,0.04960668087005615,-0.003742694854736328,-0.005881696939468384,-0.008693039417266846,1,0.4855230152606964,0.1534356623888016,0.7660931348800659,-0.3922069668769836,-0.8642687797546387,0.1457590013742447,-0.4814498126506805,0,0,0,-1,143576.7753185,2,0,1561775801.427725,1561774855.646675,295,1.774414,0,0,252.7749,0,0,1561775769.99275,143573.894759,0,-0.657959,75.3947,3232235528,177669985,1,1,0.94,-31.4583,-32.51631,3
1561775801.792778,28,0,0,1561775800.999238,4.634708189409817,-74.15112725465944,2553.698,0.31,346.9921875,3,10,-9999,1561775801.778775,-16.97254943847656,-20.86501693725586,5.552978515625,143.6669006347656,151.15966796875,15,143577.1312605,-0.87359619140625,0.1415252685546875,-0.469757080078125,143577.1180775,0.05628777385158776,-0.04721864507543191,0.0421429263538499,143577.1141715,-94.4683837890625,-51.60673522949219,-558.9254760742188,143577.1231735,-2.27998728623718,-1.063424529141473,-0.146581418025777,0.05193780362606049,-0.05616853013634682,0.03635425865650177,-0.01178264617919922,-0.01069635152816772,0.002567708492279053,1,0.4858052432537079,0.1538102775812149,0.7655792236328125,-0.3927139341831207,-0.8646516799926758,0.1460570693016052,-0.4806713163852692,0,0,0,-1,143576.7753185,2,0,1561775801.427725,1561774855.646675,295,1.774414,0,0,252.7749,0,0,1561775769.99275,143573.894759,0,-0.657959,75.3947,3232235528,177669985,1,1,0.94,-31.4583,-33.27092,3
1561775801.813072,29,0,0,1561775800.999238,4.634708189409817,-74.15112725465944,2553.698,0.31,346.9921875,3,10,-9999,1561775801.810476,-16.88976287841797,-20.95796966552734,5.61334228515625,143.5897827148438,151.0825500488281,15,143577.1515245,-0.858062744140625,0.16259765625,-0.4688720703125,143577.1383415,0.03909227532516413,-0.07405398779961536,0.01094053207415452,143577.1342825,-94.71047973632812,-51.56181335449219,-558.9696655273438,143577.1434065,-2.27901630475816,-1.064729339418394,-0.1464826415386941,0.02388113737106323,-0.08192955702543259,-0.000103882746770978,0.0004531145095825195,0.005804568529129028,0.01296645402908325,1,0.4862136840820312,0.154341846704483,0.7650846838951111,-0.3929635584354401,-0.8652907013893127,0.145959347486496,-0.4795497059822083,0,0,0,-1,143576.7753185,2,0,1561775801.427725,1561774855.646675,295,1.774414,0,0,252.7749,0,0,1561775769.99275,143573.894759,0,-0.657959,75.3947,3232235528,177669985,1,1,0.94,-31.4583,-33.89161,3
1561775801.837992,30,0,0,1561775800.999238,4.634708189409817,-74.15112725465944,2553.698,0.31,346.9921875,3,10,-9999,1561775801.810476,-16.88976287841797,-20.95796966552734,5.61334228515625,143.5897827148438,151.0825500488281,15,143577.1717885,-0.847625732421875,0.1732940673828125,-0.4628448486328125,143577.1586045,0.008586830302742487,-0.07556400013769028,-0.01859738652424133,143577.1543935,-94.57212829589844,-51.47869873046875,-559.1006469726562,143577.1636705,-2.278942252680608,-1.066378699851213,-0.1460946717315512,0.004396385513246059,-0.07784532755613327,-0.02493200078606606,0.01468956470489502,0.02367495000362396,0.0131833553314209,1,0.4867756366729736,0.1548382490873337,0.7647210955619812,-0.392780214548111,-0.866129994392395,0.1455755233764648,-0.4781492054462433,0,0,0,-1,143576.7753185,2,0,1561775801.427725,1561774855.646675,295,1.774414,0,0,252.7749,0,0,1561775769.99275,143573.894759,0,-0.657959,75.3947,3232235528,177669985,1,1,0.94,-31.4583,-34.87821,3
1561775801.853539,31,0,0,1561775800.999238,4.634708189409817,-74.15112725465944,2553.698,0.31,346.9921875,3,10,-9999,1561775801.810476,-16.88976287841797,-20.95796966552734,5.61334228515625,143.5897827148438,151.0825500488281,15,143577.1920515,-0.855560302734375,0.1608123779296875,-0.4608154296875,143577.1788685,0.0007861651537913911,-0.06270945418809583,-0.02348375449231872,143577.1744735,-94.45333862304688,-51.43240356445312,-558.7195434570312,143577.1839345,-2.27919898869878,-1.06786199723288,-0.1455901356187005,0.0004506460390985012,-0.06213907152414322,-0.02522335015237331,0.01790344715118408,0.02640192210674286,0.01248276233673096,1,0.487280547618866,0.1552676111459732,0.7644781470298767,-0.3924574255943298,-0.8669025301933289,0.1450763493776321,-0.476899266242981,0,0,0,-1,143576.7753185,2,0,1561775801.427725,1561774855.646675,295,1.774414,0,0,252.7749,0,0,1561775769.99275,143573.894759,0,-0.657959,75.3947,3232235528,177669985,1,1,0.94,-31.4583,-35.12953,3
1561775801.874195,32,0,0,1561775800.999238,4.634708189409817,-74.15112725465944,2553.698,0.31,346.9921875,3,10,-9999,1561775801.857187,-16.89015960693359,-21.01227188110352,5.72247314453125,143.597900390625,151.0906677246094,15,143577.2123155,-0.8556976318359375,0.1474609375,-0.4693145751953125,143577.1991325,-0.0003153182730653818,-0.04953452995936482,-0.02144137625233695,143577.1945845,-94.83470153808594,-51.588623046875,-558.909912109375,143577.2041975,-2.279442420407988,-1.069055832009078,-0.1451151417345369,-0.007375851739197969,-0.06366559863090515,-0.02943194285035133,0.009773969650268555,0.007081255316734314,0.01633286476135254,1,0.4876785278320312,0.1556313335895538,0.7642987966537476,-0.3921682238578796,-0.8675315380096436,0.1446063667535782,-0.4758970737457275,0,0,0,-1,143576.7753185,2,0,1561775801.427725,1561774855.646675,295,1.774414,0,0,252.7749,0,0,1561775769.99275,143573.894759,0,-0.657959,75.3947,3232235528,177669985,1,1,0.94,-31.4583,-35.51657,3
1561775801.894117,33,0,0,1561775800.999238,4.634708189409817,-74.15112725465944,2553.698,0.31,346.9921875,3,10,-9999,1561775801.880029,-16.92266845703125,-21.11440658569336,5.8336181640625,143.6312103271484,151.1239776611328,15,143577.2325795,-0.8479766845703125,0.1529083251953125,-0.4829559326171875,143577.2193955,-0.01852814433589928,-0.08114784999525942,-0.05068421660195203,143577.2146965,-94.50050354003906,-51.55099487304688,-558.6455688476562,143577.2244615,-2.280162024336395,-1.070789274002269,-0.1444616389212641,-0.02596045471727848,-0.09634764492511749,-0.05921727046370506,0.01841652393341064,0.005423858761787415,-0.004215240478515625,1,0.4882908165454865,0.1560551673173904,0.7641046643257141,-0.3916156589984894,-0.8684378862380981,0.1439597010612488,-0.4744377136230469,0,0,0,-1,143576.7753185,2,0,1561775801.427725,1561774855.646675,295,1.774414,0,0,252.7749,0,0,1561775769.99275,143573.894759,0,-0.657959,75.3947,3232235528,177669985,1,1,0.94,-31.4583,-35.51657,3
1561775801.929191,34,0,0,1561775800.999238,4.634708189409817,-74.15112725465944,2553.698,0.31,346.9921875,3,10,-9999,1561775801.907171,-16.70137023925781,-21.15553665161133,5.9339599609375,143.6947937011719,151.1875610351562,15,143577.2528125,-0.86212158203125,0.1451263427734375,-0.46875,143577.2396595,-0.02129916345012672,-0.07961679868457287,-0.04291737359884494,143577.2348075,-94.53012084960938,-51.55746459960938,-558.7794189453125,143577.2447255,-2.281113011450342,-1.072732316656251,-0.1438732055982805,-0.01932918466627598,-0.07705596834421158,-0.04103773459792137,0.01606935262680054,0.006936967372894287,-0.00514596700668335,1,0.4890118837356567,0.1564367860555649,0.7638950943946838,-0.3909720480442047,-0.8694323897361755,0.1433773636817932,-0.4727898240089417,0,0,0,-1,143576.7753185,2,0,1561775801.427725,1561774855.646675,295,1.774414,0,0,252.7749,0,0,1561775769.99275,143573.894759,0,-0.657959,75.3947,3232235528,177669985,1,1,0.94,-31.4583,-36.49192,3
1561775801.934585,35,0,0,1561775800.999238,4.634708189409817,-74.15112725465944,2553.698,0.31,346.9921875,3,10,-9999,1561775801.930706,-16.84524536132812,-21.08417510986328,5.88348388671875,143.7223968505859,151.2151641845703,15,143577.2730765,-0.872314453125,0.1389007568359375,-0.4553985595703125,143577.2599235,-0.002519350391214959,-0.06056614214280005,-0.02291916434122192,143577.2549185,-94.461669921875,-51.74990844726562,-558.7477416992188,143577.2649885,-2.281584834912172,-1.074192777815686,-0.1435401977388878,0.002519389614462852,-0.06767045706510544,-0.02467846684157848,-0.0003347396850585938,-0.002377033233642578,0.01101678609848022,1,0.4895525872707367,0.1567390114068985,0.763674795627594,-0.3906046748161316,-0.8701639175415039,0.1430477946996689,-0.4715422987937927,0,0,0,-1,143576.7753185,2,0,1561775801.427725,1561774855.646675,295,1.774414,0,0,252.7749,0,0,1561775769.99275,143574.839905,0,-0.486084,75.39306,3232235528,177669985,1,1,0.94,-31.4583,-36.49192,3
1561775801.954926,36,0,0,1561775800.999238,4.634708189409817,-74.15112725465944,2553.698,0.31,346.9921875,3,10,-9999,1561775801.930706,-16.84524536132812,-21.08417510986328,5.88348388671875,143.7223968505859,151.2151641845703,15,143577.2933395,-0.8670501708984375,0.1407012939453125,-0.458648681640625,143577.2801865,0.00402004166547461,-0.06980944165424707,-0.03489220397000016,143577.2750295,-94.4691162109375,-51.54393005371094,-558.8822021484375,143577.2852525,-2.281853959257965,-1.07576233512624,-0.1429681606104294,-0.0002050241455435753,-0.08132501691579819,-0.04361248016357422,-5.793571472167969e-05,-0.003031536936759949,0.01364123821258545,1,0.490080326795578,0.1572066098451614,0.7634197473526001,-0.3902532458305359,-0.8709747791290283,0.1424816101789474,-0.4702147245407104,0,0,0,-1,143576.7753185,2,0,1561775801.427725,1561774855.646675,295,1.774414,0,0,252.7749,0,0,1561775769.99275,143574.839905,0,-0.486084,75.39306,3232235528,177669985,1,1,0.94,-31.4583,-36.994,3
1561775801.975068,37,0,0,1561775800.999238,4.634708189409817,-74.15112725465944,2553.698,0.31,346.9921875,3,10,-9999,1561775801.957326,-16.73023223876953,-20.86034774780273,5.90771484375,143.7502899169922,151.2430572509766,15,143577.3136035,-0.86083984375,0.1468963623046875,-0.464019775390625,143577.3004195,-0.02323368366596028,-0.06015148796107472,-0.04914304527912317,143577.2951405,-94.70945739746094,-51.41098022460938,-558.8754272460938,143577.3055165,-2.282629003988929,-1.077300225986079,-0.1422689097713156,-0.02764463797211647,-0.06262563169002533,-0.05158571526408195,0.008625268936157227,0.003825172781944275,0.006565213203430176,1,0.4906151592731476,0.1575939953327179,0.7632877826690674,-0.3896828293800354,-0.8717844486236572,0.1417894661426544,-0.4689218103885651,0,0,0,-1,143576.7753185,2,0,1561775801.427725,1561774855.646675,295,1.774414,0,0,252.7749,0,0,1561775769.99275,143574.839905,0,-0.486084,75.39306,3232235528,177669985,1,1,0.94,-31.4583,-37.47689,3
1561775802.003496,38,0,0,1561775800.999238,4.634708189409817,-74.15112725465944,2553.698,0.31,346.9921875,3,10,-9999,1561775801.981849,-16.93433380126953,-21.00635147094727,5.69757080078125,143.8193359375,151.3121032714844,15,143577.3338675,-0.861907958984375,0.1539306640625,-0.469940185546875,143577.3206835,-0.03816709316247061,-0.05706594952210891,-0.03965633284404291,143577.3152515,-94.56240844726562,-51.70375061035156,-558.6807250976562,143577.3257495,-2.2836983458338,-1.078615221007595,-0.1418391515254565,-0.04015856236219406,-0.05934674665331841,-0.04353924095630646,0.01225501298904419,0.004464209079742432,0.0001371502876281738,1,0.4911318421363831,0.1577581018209457,0.7632309794425964,-0.3890765607357025,-0.872454047203064,0.1413640379905701,-0.4678037762641907,0,0,0,-1,143576.7753185,2,0,1561775801.427725,1561774855.646675,295,1.774414,0,0,252.7749,0,0,1561775769.99275,143574.839905,0,-0.486084,75.39306,3232235528,177669985,1,1,0.94,-31.4583,-38.05047,3
1561775802.015585,39,0,0,1561775800.999238,4.634708189409817,-74.15112725465944,2553.698,0.31,346.9921875,3,10,-9999,1561775802.008227,-16.89896392822266,-21.11360168457031,5.77783203125,143.9081268310547,151.4008941650391,15,143577.3541305,-0.871307373046875,0.1570281982421875,-0.4687957763671875,143577.3409475,-0.05146185964025517,-0.05081524412758393,-0.04553632621482886,143577.3353625,-94.30670166015625,-51.79331970214844,-558.9639892578125,143577.3460135,-2.285039660443438,-1.079962221085206,-0.14148311202577,-0.05860575288534164,-0.05852463096380234,-0.04715954512357712,0.008885085582733154,0.01798500120639801,-0.005592405796051025,1,0.491694301366806,0.1578315645456314,0.7632083892822266,-0.388379842042923,-0.8731276392936707,0.1410115659236908,-0.4666518270969391,0,0,0,-1,143576.7753185,2,0,1561775801.427725,1561774855.646675,295,1.774414,0,0,252.7749,0,0,1561775769.99275,143574.839905,0,-0.486084,75.39306,3232235528,177669985,1,1,0.94,-31.4583,-35.39594,3
1561775802.035886,40,0,0,1561775800.999238,4.634708189409817,-74.15112725465944,2553.698,0.31,346.9921875,3,10,-9999,1561775802.032099,-16.53092956542969,-21.10623168945312,5.80169677734375,144.0406494140625,151.5334167480469,15,143577.3743945,-0.8817901611328125,0.1505126953125,-0.4564208984375,143577.3612105,-0.08415349360152286,-0.04865169205800356,-0.04068884039866663,143577.3554735,-94.23320007324219,-51.70846557617188,-558.78955078125,143577.3662765,-2.286872184134439,-1.081397478894539,-0.1414141987652738,-0.08971413224935532,-0.05547584220767021,-0.04427347704768181,-0.004094123840332031,0.01431483030319214,0.003793895244598389,1,0.4923754632472992,0.1576864868402481,0.7632200121879578,-0.3875521123409271,-0.8738051056861877,0.1409433335065842,-0.465402752161026,0,0,0,-1,143576.7753185,2,0,1561775801.427725,1561774855.646675,295,1.774414,0,0,252.7749,0,0,1561775769.99275,143574.839905,0,-0.486084,75.39306,3232235528,177669985,1,1,0.94,-31.4583,-35.39594,3
1561775802.056703,41,0,0,1561775801.999227,4.634709195238198,-74.1511276737546,2553.727,0.31,17.2265625,3,10,-9999,1561775802.032099,-16.53092956542969,-21.10623168945312,5.80169677734375,144.0406494140625,151.5334167480469,15,143577.3946585,-0.8916168212890625,0.145050048828125,-0.4584808349609375,143577.3814745,-0.09904109672728381,-0.0515806366248727,-0.03532283711826598,143577.3755845,-94.65348815917969,-51.55918884277344,-558.7064819335938,143577.3865405,-2.289021015631763,-1.08284627249279,-0.1416036717667564,-0.09967675805091858,-0.06144185736775398,-0.04438692703843117,-0.01476645469665527,0.005139842629432678,0.006207525730133057,1,0.4931280016899109,0.157362312078476,0.7632535696029663,-0.3866598606109619,-0.8744547963142395,0.1411309093236923,-0.4641237556934357,0,0,0,-1,143576.7753185,2,0,1561775801.427725,1561774855.646675,295,1.774414,0,0,252.7749,0,0,1561775769.99275,143574.839905,0,-0.486084,75.39306,3232235528,177669985,1,1,0.94,-31.4583,-36.30072,3
1561775802.081021,42,0,0,1561775801.999227,4.634709195238198,-74.1511276737546,2553.727,0.31,17.2265625,3,10,-9999,1561775802.058299,-16.93484497070312,-21.16655349731445,5.8216552734375,144.1971588134766,151.6899261474609,15,143577.4149215,-0.88018798828125,0.14508056640625,-0.469146728515625,143577.4017385,-0.09976893865320247,-0.08433245802677618,-0.06733110394381933,143577.3956655,-94.39773559570312,-51.76853942871094,-558.7008666992188,143577.4068045,-2.291439382003458,-1.084802196031557,-0.1415020245517607,-0.112557664513588,-0.1066641956567764,-0.07900029420852661,-0.01280993223190308,0.006125479936599731,-0.001615762710571289,1,0.4940483272075653,0.1571834236383438,0.7632514238357544,-0.3855606913566589,-0.8753736615180969,0.1410302817821503,-0.4624192416667938,0,0,0,-1,143576.7753185,2,0,1561775801.427725,1561774855.646675,295,1.774414,0,0,252.7749,0,0,1561775769.99275,143574.839905,0,-0.486084,75.39306,3232235528,177669985,1,1,0.94,-31.4583,-37.16454,3
1561775802.096571,43,0,0,1561775801.999227,4.634709195238198,-74.1511276737546,2553.727,0.31,17.2265625,3,10,-9999,1561775802.08305,-16.70453643798828,-21.22645568847656,5.6717529296875,144.3890686035156,151.8818359375,15,143577.4351545,-0.8632659912109375,0.1428070068359375,-0.47296142578125,143577.4220015,-0.1104237135423915,-0.1055083171184322,-0.09502212032624524,143577.4157765,-94.29586791992188,-51.66368103027344,-558.963623046875,143577.4270675,-2.294332722977804,-1.087389410943523,-0.1409669883325418,-0.1221559643745422,-0.1161679551005363,-0.1078223586082458,0.0009166598320007324,0.005953282117843628,-0.006196975708007812,1,0.4951778948307037,0.1571779251098633,0.7632398009300232,-0.3841341435909271,-0.8766337633132935,0.1405005753040314,-0.4601879119873047,0,0,0,-1,143576.7753185,2,0,1561775801.427725,1561774855.646675,295,1.774414,0,0,252.7749,0,0,1561775769.99275,143574.839905,0,-0.486084,75.39306,3232235528,177669985,1,1,0.94,-31.4583,-37.48259,3
1561775802.116829,44,0,0,1561775801.999227,4.634709195238198,-74.1511276737546,2553.727,0.31,17.2265625,3,10,-9999,1561775802.108984,-16.86276245117188,-21.14990615844727,5.6455078125,144.6427612304688,152.1355285644531,15,143577.4554185,-0.849578857421875,0.153228759765625,-0.4623260498046875,143577.4422655,-0.156183478972678,-0.09542319238641117,-0.1166728210402624,143577.4358875,-94.23933410644531,-51.57498168945312,-558.965087890625,143577.4473315,-2.298068465318962,-1.090065853797342,-0.1403196060860048,-0.163606196641922,-0.09556680172681808,-0.1186007037758827,0.02326744794845581,0.009523972868919373,-0.01333993673324585,1,0.4963902533054352,0.1570214629173279,0.7633785009384155,-0.3823536038398743,-0.8779427409172058,0.1398595869541168,-0.4578819572925568,0,0,0,-1,143576.7753185,2,0,1561775801.427725,1561774855.646675,295,1.774414,0,0,252.7749,0,0,1561775769.99275,143574.839905,0,-0.486084,75.39306,3232235528,177669985,1,1,0.94,-31.4583,-37.52048,3
1561775802.137065,45,0,0,1561775801.999227,4.634709195238198,-74.1511276737546,2553.727,0.31,17.2265625,3,10,-9999,1561775802.133304,-16.56018829345703,-21.21996688842773,5.60955810546875,144.9011840820312,152.3939514160156,15,143577.4756825,-0.8602294921875,0.150299072265625,-0.427459716796875,143577.4625295,-0.1476909245725243,-0.07093729037589563,-0.08863612634834422,143577.4559985,-94.33128356933594,-51.78216552734375,-558.9802856445312,143577.4675955,-2.301909000015723,-1.092419078882268,-0.1400468756511581,-0.1268223524093628,-0.07505246996879578,-0.08223789930343628,0.02591747045516968,0.01394438743591309,0.009772062301635742,1,0.4975467324256897,0.1566241830587387,0.7635626196861267,-0.380641907453537,-0.8790516257286072,0.1395895332098007,-0.4558322429656982,0,0,0,-1,143576.7753185,2,0,1561775801.427725,1561774855.646675,295,1.774414,0,0,252.7749,0,0,1561775769.99275,143574.839905,0,-0.486084,75.39306,3232235528,177669985,1,1,0.94,-31.4583,-36.57345,3
1561775802.157798,46,0,0,1561775801.999227,4.634709195238198,-74.1511276737546,2553.727,0.31,17.2265625,3,10,-9999,1561775802.133304,-16.56018829345703,-21.21996688842773,5.60955810546875,144.9011840820312,152.3939514160156,15,143577.4959465,-0.8681488037109375,0.134918212890625,-0.42376708984375,143577.4827625,-0.06564665455434421,-0.06565863877924957,-0.05889341066212128,143577.4761095,-94.29611206054688,-51.80650329589844,-559.1031494140625,143577.4878585,-2.304137961669026,-1.094207321103736,-0.1396832866072572,-0.06189315766096115,-0.0664142444729805,-0.06169933825731277,0.01563727855682373,-0.006508544087409973,0.03169059753417969,1,0.4983469545841217,0.1565532684326172,0.7635892629623413,-0.3795691728591919,-0.8799103498458862,0.139229491353035,-0.4542827606201172,0,0,0,-1,143576.7753185,2,0,1561775801.427725,1561774855.646675,295,1.774414,0,0,252.7749,0,0,1561775769.99275,143574.839905,0,-0.486084,75.39306,3232235528,177669985,1,1,0.94,-31.4583,-37.17141,3
1561775802.177604,47,0,0,1561775801.999227,4.634709195238198,-74.1511276737546,2553.727,0.31,17.2265625,3,10,-9999,1561775802.15956,-16.39176940917969,-21.0959587097168,5.55401611328125,145.0314025878906,152.524169921875,15,143577.5162095,-0.8809051513671875,0.11724853515625,-0.43084716796875,143577.5030265,-0.0518967538462651,-0.03216166490434192,-0.03663444395513,143577.4962205,-94.12110900878906,-51.53012084960938,-558.8590698242188,143577.5081225,-2.305615269816323,-1.095340072435895,-0.1393699238780273,-0.05400647222995758,-0.03020936995744705,-0.03498277068138123,0.002686142921447754,-0.0148804634809494,0.02549511194229126,1,0.498846024274826,0.1565240323543549,0.7636286020278931,-0.3788459897041321,-0.880463182926178,0.1389191746711731,-0.4533057510852814,0,0,0,-1,143576.7753185,2,0,1561775801.427725,1561774855.646675,295,1.774414,0,0,252.7749,0,0,1561775769.99275,143574.839905,0,-0.486084,75.39306,3232235528,177669985,1,1,0.94,-31.4583,-37.73772,3
1561775802.197845,48,0,0,1561775801.999227,4.634709195238198,-74.1511276737546,2553.727,0.31,17.2265625,3,10,-9999,1561775802.183945,-16.39387512207031,-21.03288269042969,5.51763916015625,145.1239166259766,152.6166839599609,15,143577.5364735,-0.8722076416015625,0.11956787109375,-0.4476165771484375,143577.5232895,-0.05202458557858891,-0.007012103150178634,-0.03832874704063841,143577.5163315,-94.12837219238281,-51.578125,-558.8006591796875,143577.5283555,-2.306932307787421,-1.095800011819382,-0.1392039464834334,-0.05423443764448166,-0.01319336798042059,-0.04043639451265335,0.005722522735595703,-0.02098746597766876,0.01397687196731567,1,0.4990987777709961,0.1563483029603958,0.7637850642204285,-0.3782696127891541,-0.8806920051574707,0.1387547999620438,-0.4529112279415131,0,0,0,-1,143576.7753185,2,0,1561775801.427725,1561774855.646675,295,1.774414,0,0,252.7749,0,0,1561775769.99275,143574.839905,0,-0.486084,75.39306,3232235528,177669985,1,1,0.94,-31.4583,-37.73772,3
1561775802.218107,49,0,0,1561775801.999227,4.634709195238198,-74.1511276737546,2553.727,0.31,17.2265625,3,10,-9999,1561775802.210273,-16.29441833496094,-21.27703475952148,5.601806640625,145.2090606689453,152.7018280029297,15,143577.5567375,-0.863616943359375,0.1289215087890625,-0.4580841064453125,143577.5435535,-0.03904327316110667,-0.01285507858181248,-0.03871277486982784,143577.5364735,-93.93612670898438,-51.93582153320312,-559.1236572265625,143577.5486195,-2.308161140505724,-1.09624983081056,-0.1389561415323977,-0.03911354392766953,-0.02376452088356018,-0.04479092732071877,0.01207560300827026,-0.01749195158481598,0.001297891139984131,1,0.4993279278278351,0.1562249064445496,0.7639379501342773,-0.3777093589305878,-0.8809263110160828,0.1385093927383423,-0.4525308012962341,0,0,0,-1,143576.7753185,2,0,1561775801.427725,1561774855.646675,295,1.774414,0,0,252.7749,0,0,1561775769.99275,143574.839905,0,-0.486084,75.39306,3232235528,177669985,1,1,0.94,-31.4583,-37.45515,3
1561775802.241256,50,0,0,1561775801.999227,4.634709195238198,-74.1511276737546,2553.727,0.31,17.2265625,3,10,-9999,1561775802.210273,-16.29441833496094,-21.27703475952148,5.601806640625,145.2090606689453,152.7018280029297,15,143577.5770005,-0.850830078125,0.152984619140625,-0.462677001953125,143577.5638175,-0.03563575854635029,-0.02978878837308132,-0.06767678225331161,143577.5565845,-93.7889404296875,-51.79409790039062,-559.0222778320312,143577.5688835,-2.309405133879141,-1.097131826645994,-0.13823175553472,-0.03954390436410904,-0.04017012193799019,-0.07459516078233719,0.02628105878829956,0.003672271966934204,-0.01089298725128174,1,0.499649316072464,0.1563679128885269,0.7640480995178223,-0.3770015835762024,-0.8814141154289246,0.1377919465303421,-0.4517992734909058,0,0,0,-1,143576.7753185,2,0,1561775801.427725,1561774855.646675,295,1.774414,0,0,252.7749,0,0,1561775769.99275,143574.839905,0,-0.486084,75.39306,3232235528,177669985,1,1,0.94,-31.4583,-37.24266,3
1561775802.258608,51,0,0,1561775801.999227,4.634709195238198,-74.1511276737546,2553.727,0.31,17.2265625,3,10,-9999,1561775802.242975,-16.36745452880859,-21.181640625,5.546142578125,145.2984313964844,152.7911987304688,15,143577.5972645,-0.86529541015625,0.149261474609375,-0.438446044921875,143577.5840805,-0.03742726701164659,-0.02362916308783705,-0.04146275501144366,143577.5766955,-94.01997375488281,-51.76948547363281,-558.9583740234375,143577.5891465,-2.310667492388434,-1.098049408948544,-0.1375565429134435,-0.03384660929441452,-0.02012131363153458,-0.03233771771192551,0.02465683221817017,0.01589199900627136,-0.0007649660110473633,1,0.4999936819076538,0.1564929783344269,0.76414555311203,-0.376294732093811,-0.8819108605384827,0.1371231526136398,-0.4510325193405151,0,0,0,-1,143576.7753185,2,0,1561775801.427725,1561774855.646675,295,1.774414,0,0,252.7749,0,0,1561775769.99275,143574.839905,0,-0.486084,75.39306,3232235528,177669985,1,1,0.94,-31.4583,-37.8418,3
1561775802.278855,52,0,0,1561775801.999227,4.634709195238198,-74.1511276737546,2553.727,0.31,17.2265625,3,10,-9999,1561775802.242975,-16.36745452880859,-21.181640625,5.546142578125,145.2984313964844,152.7911987304688,15,143577.6175285,-0.880035400390625,0.1324615478515625,-0.42987060546875,143577.6043445,-0.02201209167394094,0.01843173790443841,-0.0002785666500222883,143577.5968065,-93.84124755859375,-51.9942626953125,-559.060546875,143577.6094105,-2.31126886868864,-1.098118747713565,-0.1375141053524319,-0.01437410619109869,0.02088497206568718,0.008541004732251167,0.00996851921081543,0.005298644304275513,0.01843315362930298,1,0.5000606179237366,0.1563725024461746,0.764246940612793,-0.3760499358177185,-0.8819473385810852,0.137081116437912,-0.4509740471839905,0,0,0,-1,143576.7753185,2,0,1561775801.427725,1561774855.646675,295,1.774414,0,0,252.7749,0,0,1561775769.99275,143574.839905,0,-0.486084,75.39306,3232235528,177669985,1,1,0.94,-31.4583,-38.43399,3
1561775802.299092,53,0,0,1561775801.999227,4.634709195238198,-74.1511276737546,2553.727,0.31,17.2265625,3,10,-9999,1561775802.285197,-16.36014556884766,-21.30626678466797,5.488525390625,145.3784637451172,152.8712310791016,15,143577.6377615,-0.8870391845703125,0.1319580078125,-0.4420013427734375,143577.6246085,-0.00354280319813241,0.03154514311198858,0.02225044459150303,143577.6169175,-93.83399963378906,-51.71531677246094,-559.079833984375,143577.6296745,-2.311240081833865,-1.097610995388025,-0.1378338158647333,-0.01023235823959112,0.02080028504133224,0.01555950008332729,-0.004291772842407227,-0.007347136735916138,0.01921188831329346,1,0.4999139308929443,0.1561574339866638,0.7643263936042786,-0.3761730492115021,-0.8816792368888855,0.1373977959156036,-0.4514018297195435,0,0,0,-1,143576.7753185,2,0,1561775801.427725,1561774855.646675,295,1.774414,0,0,252.7749,0,0,1561775769.99275,143574.839905,0,-0.486084,75.39306,3232235528,177669985,1,1,0.94,-32.01558,-38.89381,3
1561775802.319403,54,0,0,1561775801.999227,4.634709195238198,-74.1511276737546,2553.727,0.31,17.2265625,3,10,-9999,1561775802.311503,-16.27325439453125,-21.10200881958008,5.76275634765625,145.3828887939453,152.8756561279297,15,143577.6580245,-0.88330078125,0.1351318359375,-0.4547576904296875,143577.6448715,-0.00967419897582184,0.0009848369711113023,0.004707936175042077,143577.6370285,-93.900146484375,-51.70890808105469,-558.98974609375,143577.6499375,-2.311412880515915,-1.097502919564734,-0.1380654165925848,-0.0115096103399992,-0.01381548214703798,-0.005521817598491907,-0.005147099494934082,-0.004692628979682922,0.001729846000671387,1,0.4999220371246338,0.1560020595788956,0.7643554210662842,-0.376167893409729,-0.8816021680831909,0.1376271992921829,-0.4514826238155365,0,0,0,-1,143576.7753185,2,0,1561775801.427725,1561774855.646675,295,1.774414,0,0,252.7749,0,0,1561775769.99275,143574.839905,0,-0.486084,75.39306,3232235528,177669985,1,1,0.94,-32.57286,-38.94187,3
1561775802.339657,55,0,0,1561775801.999227,4.634709195238198,-74.1511276737546,2553.727,0.31,17.2265625,3,10,-9999,1561775802.335837,-16.28821563720703,-21.18033599853516,5.526123046875,145.4369812011719,152.9297485351562,15,143577.6782885,-0.8747100830078125,0.15087890625,-0.46417236328125,143577.6651045,-0.03284290151118419,-0.02797277882575629,-0.0352461380788717,143577.6571395,-93.89784240722656,-51.57553100585938,-559.0894775390625,143577.6702015,-2.312104754999915,-1.098095861981617,-0.1378628422676222,-0.03781072050333023,-0.03390983119606972,-0.04806901142001152,0.006375610828399658,0.007043659687042236,-0.01315414905548096,1,0.5001712441444397,0.1560208648443222,0.7643638253211975,-0.3758112490177155,-0.8818944096565247,0.1374265551567078,-0.4509724378585815,0,0,0,-1,143576.7753185,2,0,1561775801.427725,1561774855.646675,295,1.774414,0,0,252.7749,0,0,1561775769.99275,143574.839905,0,-0.486084,75.39306,3232235528,177669985,1,1,0.94,-33.13013,-39.45596,3
1561775802.359885,56,0,0,1561775801.999227,4.634709195238198,-74.1511276737546,2553.727,0.31,17.2265625,3,10,-9999,1561775802.335837,-16.28821563720703,-21.18033599853516,5.526123046875,145.4369812011719,152.9297485351562,15,143577.6985525,-0.8761138916015625,0.146331787109375,-0.446441650390625,143577.6853685,-0.05298758462876156,-0.02567154132781882,-0.05066610710653949,143577.6772505,-93.88386535644531,-51.93302917480469,-558.9317626953125,143577.6904655,-2.313481289393965,-1.098980696112656,-0.1374098830169406,-0.04929587244987488,-0.02807058393955231,-0.05091327056288719,0.006341457366943359,0.01367214322090149,-0.007436633110046387,1,0.5005466341972351,0.1560222953557968,0.7644606232643127,-0.3751135766506195,-0.8823485374450684,0.136977881193161,-0.4502202272415161,0,0,0,-1,143576.7753185,2,0,1561775801.427725,1561774855.646675,295,1.774414,0,0,252.7749,0,0,1561775769.99275,143574.839905,0,-0.486084,75.39306,3232235528,177669985,1,1,0.94,-33.13013,-39.45596,3
1561775802.380139,57,0,0,1561775801.999227,4.634709195238198,-74.1511276737546,2553.727,0.31,17.2265625,3,10,-9999,1561775802.362391,-16.42070007324219,-21.16331100463867,5.577392578125,145.5310211181641,153.0237884521484,15,143577.7188155,-0.8738861083984375,0.1350860595703125,-0.4324188232421875,143577.7056325,-0.0277448122364455,-0.01457841012320276,-0.03790264126622574,143577.6973625,-93.78257751464844,-51.82162475585938,-559.0403442382812,143577.7106985,-2.314551603900223,-1.099658437106334,-0.1369221862621485,-0.02096995711326599,-0.01602537371218204,-0.03807949647307396,0.006614089012145996,0.000620722770690918,0.01216757297515869,1,0.5008138418197632,0.1560747772455215,0.7645555734634399,-0.3745408058166504,-0.8827127814292908,0.1364947557449341,-0.4496523141860962,0,0,0,-1,143576.7753185,2,0,1561775801.427725,1561774855.646675,295,1.774414,0,0,252.7749,0,0,1561775769.99275,143574.839905,0,-0.486084,75.39306,3232235528,177669985,1,1,0.94,-33.68742,-33.84928,3
1561775802.400402,58,0,0,1561775801.999227,4.634709195238198,-74.1511276737546,2553.727,0.31,17.2265625,3,10,-9999,1561775802.386431,-16.26002502441406,-21.37469482421875,5.48712158203125,145.5851440429688,153.0779113769531,15,143577.7390795,-0.87255859375,0.1283111572265625,-0.443359375,143577.7258955,-0.02433277024783598,-0.002254632178861083,-0.03342000851940436,143577.7174735,-93.46699523925781,-52.18572998046875,-559.1221923828125,143577.7309615,-2.315300367504699,-1.099994630340242,-0.1364287024523349,-0.03183512389659882,-0.00137132965028286,-0.03804327547550201,0.01118916273117065,-0.005985736846923828,0.01316773891448975,1,0.5009245872497559,0.156145915389061,0.7646763324737549,-0.3741162419319153,-0.8829237818717957,0.1360058784484863,-0.4493860304355621,0,0,0,-1,143576.7753185,2,0,1561775801.427725,1561774855.646675,295,1.774414,0,0,252.7749,0,0,1561775769.99275,143574.839905,0,-0.486084,75.39306,3232235528,177669985,1,1,0.94,-34.24469,-34.29384,3
1561775802.420678,59,0,0,1561775801.999227,4.634709195238198,-74.1511276737546,2553.727,0.31,17.2265625,3,10,-9999,1561775802.412572,-15.99483489990234,-21.45114517211914,5.48773193359375,145.6497650146484,153.1425323486328,15,143577.7593435,-0.8728790283203125,0.1249847412109375,-0.45208740234375,143577.7461595,-0.03199521733621197,0.01130671672404041,-0.03573988814497239,143577.7375845,-93.63453674316406,-51.70359802246094,-559.1773071289062,143577.7512255,-2.316279164137956,-1.100004038856155,-0.1360374542715707,-0.03487405180931091,0.004607733339071274,-0.04118793830275536,0.009852349758148193,-0.01081663370132446,0.004013121128082275,1,0.5009441375732422,0.1560577601194382,0.7649084329605103,-0.3736524879932404,-0.8829755187034607,0.1356182545423508,-0.4494018852710724,0,0,0,-1,143577.7480515,3,2,1561775802.400458,1561774855.646675,295,1.774414,0,0,252.7749,0,0,1561775769.99275,143574.839905,0,-0.486084,75.39306,3232235528,177669985,1,1,0.94,-32.6633,-34.51261,3
1561775802.44098,60,0,0,1561775801.999227,4.634709195238198,-74.1511276737546,2553.727,0.31,17.2265625,3,10,-9999,1561775802.437153,-16.07309722900391,-21.19123840332031,5.5513916015625,145.7279357910156,153.220703125,15,143577.7796065,-0.8596649169921875,0.1333465576171875,-0.457244873046875,143577.7664235,-0.0349372113924225,0.001225320417545457,-0.0539263489130145,143577.7576955,-93.89833068847656,-51.65835571289062,-559.13134765625,143577.7714895,-2.317406774728912,-1.100126903260798,-0.1354961066313053,-0.03411851823329926,-0.009804495610296726,-0.059440977871418,0.01538968086242676,-0.004771813750267029,-0.006834864616394043,1,0.5009956359863281,0.156013011932373,0.7651590704917908,-0.3730885088443756,-0.8830960392951965,0.1350818872451782,-0.4493266344070435,0,0,0,-1,143577.7480515,3,2,1561775802.400458,1561774855.646675,295,1.774414,0,0,252.7749,0,0,1561775769.99275,143574.839905,0,-0.486084,75.39306,3232235528,177669985,1,1,0.94,-29.57477,-35.2747,3
1561775802.461229,61,0,0,1561775801.999227,4.634709195238198,-74.1511276737546,2553.727,0.31,17.2265625,3,10,-9999,1561775802.437153,-16.07309722900391,-21.19123840332031,5.5513916015625,145.7279357910156,153.220703125,15,143577.7998705,-0.8642730712890625,0.1274871826171875,-0.4545440673828125,143577.7866865,-0.02263447242069245,-0.002815227588322763,-0.04871267844696637,143577.7778065,-94.00013732910156,-52.11625671386719,-559.14990234375,143577.7917525,-2.318428751585802,-1.100460275073778,-0.1347695077610417,-0.02526776678860188,-0.007169031072407961,-0.04564367234706879,0.02383595705032349,-0.001091629266738892,-0.007008671760559082,1,0.5010910034179688,0.1561074107885361,0.7653610706329346,-0.37250617146492,-0.8833330273628235,0.1343619078397751,-0.4490765631198883,0,0,0,-1,143577.7480515,3,2,1561775802.400458,1561774855.646675,295,1.774414,0,0,252.7749,0,0,1561775769.99275,143574.839905,0,-0.486084,75.39306,3232235528,177669985,1,1,0.94,-20.28075,-24.99976,3
1561775802.481464,62,0,0,1561775801.999227,4.634709195238198,-74.1511276737546,2553.727,0.31,17.2265625,3,10,-9999,1561775802.463958,-16.39334869384766,-21.55903244018555,5.3599853515625,145.7926483154297,153.2854156494141,15,143577.8201035,-0.873138427734375,0.124481201171875,-0.450531005859375,143577.8069505,-0.0382038447855137,0.01757819477506801,-0.02410054260078107,143577.7979175,-93.57241821289062,-51.97747802734375,-559.1759033203125,143577.8120165,-2.319350414658261,-1.100500894960043,-0.1344594244168094,-0.04089759290218353,0.021379254758358,-0.03503310680389404,0.01063138246536255,-0.01567694544792175,-0.005621910095214844,1,0.5011307597160339,0.1560070663690567,0.765562891960144,-0.372079610824585,-0.883388340473175,0.1340546309947968,-0.4490595161914825,0,0,0,-1,143577.7480515,3,2,1561775802.400458,1561774855.646675,295,1.774414,0,0,252.7749,0,0,1561775769.99275,143574.839905,0,-0.486084,75.39306,3232235528,177669985,1,1,0.94,-12.14654,-15.64179,3
1561775802.501717,63,0,0,1561775801.999227,4.634709195238198,-74.1511276737546,2553.727,0.31,17.2265625,3,10,-9999,1561775802.487849,-16.17784118652344,-21.33404922485352,5.51824951171875,145.8772277832031,153.3699951171875,15,143577.8403675,-0.8791046142578125,0.136383056640625,-0.4496307373046875,143577.8272145,-0.0602452312314455,0.03319710193616473,-0.04767830667957959,143577.8179985,-93.72773742675781,-52.00035095214844,-559.216796875,143577.8322805,-2.320798472478351,-1.100240671035274,-0.1341038619892655,-0.07227788865566254,0.02400060743093491,-0.05047358199954033,0.01055687665939331,-0.0004320293664932251,-0.003966629505157471,1,0.501089334487915,0.1557369828224182,0.7659435868263245,-0.3714644610881805,-0.8833138346672058,0.133702278137207,-0.4493109285831451,0,0,0,-1,143577.7480515,3,2,1561775802.400458,1561774855.646675,295,1.774414,0,0,252.7749,0,0,1561775769.99275,143574.839905,0,-0.486084,75.39306,3232235528,177669985,1,1,0.94,-10.86323,-12.61462,3
1561775802.522319,64,0,0,1561775801.999227,4.634709195238198,-74.1511276737546,2553.727,0.31,17.2265625,3,10,-9999,1561775802.514144,-16.02361297607422,-21.66291809082031,5.56719970703125,145.9964599609375,153.4892272949219,15,143577.860618375,-0.884063720703125,0.1468963623046875,-0.4342803955078125,143577.8474775,-0.07353733454813999,0.01319756109799667,-0.03726215102406168,143577.8381095,-93.75605773925781,-52.25791931152344,-559.0454711914062,143577.8525435,-2.32253662087866,-1.100161078319261,-0.1339698049973366,-0.0588371753692627,0.007446397095918655,-0.03203358501195908,0.005593240261077881,0.01120597124099731,0.005007684230804443,1,0.5011734366416931,0.1553399264812469,0.766303539276123,-0.3707743287086487,-0.8832940459251404,0.1335694193840027,-0.4493893980979919,0,0,0,-1,143577.7480515,3,2,1561775802.400458,1561774855.646675,295,1.774414,0,0,252.7749,0,0,1561775769.99275,143574.839905,0,-0.486084,75.39306,3232235528,177669985,1,1,0.94,-10.86323,-12.61462,3
1561775802.542469,65,0,0,1561775801.999227,4.634709195238198,-74.1511276737546,2553.727,0.31,17.2265625,3,10,-9999,1561775802.53923,-15.99120330810547,-21.66653442382812,5.556640625,146.0045013427734,153.4972686767578,15,143577.880881375,-0.8912200927734375,0.1243133544921875,-0.414581298828125,143577.867698375,0.002629072628126224,0.02139690146213263,0.01697924984590919,143577.858207375,-93.68148803710938,-52.16853332519531,-559.0879516601562,143577.872794375,-2.322912364723325,-1.099950682881974,-0.1340978992826147,0.02065285295248032,0.01505185198038816,0.02443874441087246,-0.009439647197723389,-0.0003650635480880737,0.02688372135162354,1,0.5011416077613831,0.1551559120416641,0.7664092779159546,-0.3706758916378021,-0.8831842541694641,0.1336963623762131,-0.4495674669742584,0,0,0,-1,143577.7480515,3,2,1561775802.400458,1561774855.646675,295,1.774414,0,0,252.7749,0,0,1561775769.99275,143574.839905,0,-0.486084,75.39306,3232235528,177669985,1,1,0.94,-9.846188,-13.01587,3
1561775802.562756,66,0,0,1561775801.999227,4.634709195238198,-74.1511276737546,2553.727,0.31,17.2265625,3,10,-9999,1561775802.53923,-15.99120330810547,-21.66653442382812,5.556640625,146.0045013427734,153.4972686767578,15,143577.901145375,-0.879974365234375,0.1124725341796875,-0.433502197265625,143577.887961375,0.05959834940266526,0.02608166813569102,0.04716218606032224,143577.878318375,-93.8038330078125,-52.27371215820312,-559.1644287109375,143577.893027375,-2.321736182508043,-1.099378776766871,-0.1343520794168689,0.05643561482429504,0.02407623827457428,0.05567522719502449,-0.0009534358978271484,-0.01735584437847137,0.03092867136001587,1,0.5008701682090759,0.1552435308694839,0.7663013339042664,-0.3712288439273834,-0.8828967213630676,0.1339482516050339,-0.4500570297241211,0,0,0,-1,143577.7480515,3,2,1561775802.400458,1561774855.646675,295,1.774414,0,0,252.7749,0,0,1561775769.99275,143574.839905,0,-0.486084,75.39306,3232235528,177669985,1,1,0.94,-9.846188,-13.75651,3
1561775802.583006,67,0,0,1561775801.999227,4.634709195238198,-74.1511276737546,2553.727,0.31,17.2265625,3,10,-9999,1561775802.564906,-16.15708160400391,-21.74826812744141,5.4197998046875,145.8956451416016,153.3884124755859,15,143577.921409375,-0.8627777099609375,0.11260986328125,-0.452117919921875,143577.908225375,0.07084487868606988,0.04889164287221969,0.111214406070036,143577.898429375,-93.80828857421875,-52.14335632324219,-559.1683349609375,143577.913291375,-2.319721134261645,-1.0983939773044,-0.1353666032969106,0.07515817135572433,0.04394315555691719,0.122586615383625,0.006873846054077148,-0.02423581480979919,0.005948483943939209,1,0.5004923939704895,0.1551620215177536,0.766041100025177,-0.3723078966140747,-0.8823315501213074,0.134953573346138,-0.4508642256259918,0,0,0,-1,143577.7480515,3,2,1561775802.400458,1561774855.646675,295,1.774414,0,0,252.7749,0,0,1561775769.99275,143574.839905,0,-0.486084,75.39306,3232235528,177669985,1,1,0.94,-9.846188,-14.14603,3
1561775802.603227,68,0,0,1561775801.999227,4.634709195238198,-74.1511276737546,2553.727,0.31,17.2265625,3,10,-9999,1561775802.589425,-16.08106994628906,-21.60724639892578,5.654052734375,145.7112426757812,153.2040100097656,15,143577.941672375,-0.841217041015625,0.12677001953125,-0.450531005859375,143577.928489375,0.08251751374388717,0.04836646750525607,0.1486512604616069,143577.918540375,-93.66392517089844,-51.9400634765625,-559.2462768554688,143577.933555375,-2.316979233013861,-1.097165907985531,-0.137145997547345,0.07768284529447556,0.04885109513998032,0.1493213027715683,0.03372269868850708,-0.01240311563014984,-0.0002502202987670898,1,0.5000836253166199,0.1549121588468552,0.7656041383743286,-0.3738567233085632,-0.8815621137619019,0.1367164701223373,-0.4518371820449829,0,0,0,-1,143577.7480515,3,2,1561775802.400458,1561774855.646675,295,1.774414,0,0,252.7749,0,0,1561775769.99275,143574.839905,0,-0.486084,75.39306,3232235528,177669985,1,1,0.94,-9.846188,-15.08807,3
1561775802.623564,69,0,0,1561775801.999227,4.634709195238198,-74.1511276737546,2553.727,0.31,17.2265625,3,10,-9999,1561775802.615757,-16.28461456298828,-21.47582626342773,5.49365234375,145.518310546875,153.0110778808594,15,143577.961936375,-0.8727874755859375,0.092926025390625,-0.4618682861328125,143577.948752375,0.04285958300319022,0.1093230290638617,0.1798805526683121,143577.938651375,-93.87652587890625,-52.28460693359375,-559.1268310546875,143577.953818375,-2.314391347953022,-1.095091863852044,-0.1396194377895839,0.02825750969350338,0.1333318948745728,0.2047115862369537,0.03705811500549316,-0.02471008896827698,-0.0003032684326171875,1,0.4994716346263885,0.1541878581047058,0.7653127908706665,-0.3755670189857483,-0.8803198337554932,0.1391662657260895,-0.4535083770751953,0,0,0,-1,143577.7480515,3,2,1561775802.400458,1561774855.646675,295,1.774414,0,0,252.7749,0,0,1561775769.99275,143574.839905,0,-0.486084,75.39306,3232235528,177669985,1,1,0.94,-9.846188,-16.06052,3
1561775802.651719,70,0,0,1561775801.999227,4.634709195238198,-74.1511276737546,2553.727,0.31,17.2265625,3,10,-9999,1561775802.640187,-16.40073394775391,-21.42941665649414,5.37384033203125,145.2450408935547,152.7378082275391,15,143577.982200375,-0.9534149169921875,0.0186004638671875,-0.42401123046875,143577.969016375,0.0634479487583748,0.200581836453716,0.2932308139325916,143577.958793375,-93.89291381835938,-51.93463134765625,-559.23974609375,143577.974082375,-2.311088197615505,-1.09120057578345,-0.1438936073645079,0.1084924265742302,0.1769499480724335,0.3175038993358612,-0.03878116607666016,-0.07990573346614838,0.005174815654754639,1,0.4983908236026764,0.1525800228118896,0.7650966048240662,-0.3780913054943085,-0.8780125975608826,0.1433975547552109,-0.4566518366336823,0,0,0,-1,143577.7480515,3,2,1561775802.400458,1561774855.646675,295,1.774414,0,0,252.7749,0,0,1561775769.99275,143574.839905,0,-0.486084,75.39306,3232235528,177669985,1,1,0.94,-9.846188,-17.0677,3
1561775802.663949,71,0,0,1561775801.999227,4.634709195238198,-74.1511276737546,2553.727,0.31,17.2265625,3,10,-9999,1561775802.640187,-16.40073394775391,-21.42941665649414,5.37384033203125,145.2450408935547,152.7378082275391,15,143578.002463375,-1.074508666992188,-0.1803436279296875,-0.391815185546875,143577.989280375,0.3068369039418065,0.02357589986603546,0.3937441061104712,143577.978873375,-94.1639404296875,-52.14059448242188,-559.1246337890625,143577.994346375,-2.303269706343512,-1.088629618953772,-0.1482352163862099,0.3577682971954346,-0.04019808769226074,0.3933288753032684,-0.145864725112915,-0.204394593834877,0.05456191301345825,1,0.4974874258041382,0.1523119956254959,0.763671875,-0.3822465538978577,-0.8762757778167725,0.147692933678627,-0.4586146473884583,0,0,0,-1,143577.7480515,3,2,1561775802.400458,1561774855.646675,295,1.774414,0,0,252.7749,0,0,1561775769.99275,143574.839905,0,-0.486084,75.39306,3232235528,177669985,1,1,0.94,-9.846188,-18.08031,3
1561775802.684188,72,0,0,1561775801.999227,4.634709195238198,-74.1511276737546,2553.727,0.31,17.2265625,3,10,-9999,1561775802.667109,-16.72371673583984,-21.26004791259766,5.4903564453125,144.5639190673828,152.0566864013672,15,143578.022696375,-1.18548583984375,-0.526031494140625,-0.35247802734375,143578.009543375,0.4073102487033349,-0.1813319754624053,0.5931493579945902,143577.998984375,-94.26551818847656,-51.59657287597656,-558.9151000976562,143578.014609375,-2.291308392448278,-1.089707995774525,-0.1536776913776401,0.3946373760700226,-0.2276026010513306,0.7523602843284607,-0.2548149824142456,-0.4768802523612976,0.07812505960464478,1,0.4978382587432861,0.1533352583646774,0.7603644728660583,-0.3879320919513702,-0.8760443925857544,0.1530735045671463,-0.4572907388210297,0,0,0,-1,143577.7480515,3,2,1561775802.400458,1561774855.646675,295,1.774414,0,0,252.7749,0,0,1561775769.99275,143574.839905,0,-0.486084,75.39306,3232235528,177669985,1,1,0.94,-9.846188,-18.08031,3
1561775802.704532,73,0,0,1561775801.999227,4.634709195238198,-74.1511276737546,2553.727,0.31,17.2265625,3,10,-9999,1561775802.691409,-17.26663970947266,-20.98397445678711,6.09588623046875,143.5713806152344,151.0641479492188,15,143578.042960375,-1.192626953125,-1.173095703125,-0.3667755126953125,143578.029807375,0.1303870353897345,-0.3055942729771755,0.9978281372248178,143578.019095375,-94.85337829589844,-51.60824584960938,-558.6805419921875,143578.034873375,-2.278150159544492,-1.093252118455987,-0.1682194933409559,-0.03639844805002213,-0.3580000102519989,0.9033979773521423,-0.317372739315033,-0.9672777056694031,0.1168235540390015,1,0.5004754662513733,0.1515529453754425,0.7548843622207642,-0.3958607017993927,-0.875589907169342,0.1674272418022156,-0.4531120359897614,0,0,0,-1,143577.7480515,3,2,1561775802.400458,1561774855.646675,295,1.774414,0,0,252.7749,0,0,1561775769.99275,143574.839905,0,-0.486084,75.39306,3232235528,177669985,1,1,0.94,-9.846188,-18.9401,3
1561775802.725337,74,0,0,1561775801.999227,4.634709195238198,-74.1511276737546,2553.727,0.31,17.2265625,3,10,-9999,1561775802.716985,-17.50506591796875,-20.70076751708984,6.19940185546875,143.6985778808594,151.1913452148438,15,143578.063224375,-1.17413330078125,-1.933135986328125,-0.9062042236328125,143578.050040375,-0.5659419716661227,-0.4505213689704156,-0.1503492919726414,143578.039206375,-94.94715881347656,-51.42237854003906,-558.5797729492188,143578.055137375,-2.282870311198712,-1.102957348197008,-0.1760480881508686,-0.7371238470077515,-0.3668742179870605,-0.8487089872360229,-0.2776991128921509,-1.727660894393921,-0.06390047073364258,1,0.5057160258293152,0.1491883248090744,0.7522660493850708,-0.3950821459293365,-0.8787492513656616,0.1751401275396347,-0.4439882934093475,0,0,0,-1,143577.7480515,3,2,1561775802.400458,1561774855.646675,295,1.774414,0,0,252.7749,0,0,1561775769.99275,143574.839905,0,-0.486084,75.39306,3232235528,177669985,1,1,0.94,-9.846188,-19.85331,3
1561775802.745083,75,0,0,1561775801.999227,4.634709195238198,-74.1511276737546,2553.727,0.31,17.2265625,3,10,-9999,1561775802.741282,-16.77048492431641,-21.21105194091797,6.53424072265625,144.0099334716797,151.5027008056641,15,143578.083487375,-1.1812744140625,-1.794525146484375,-1.694244384765625,143578.070304375,1.233473418906626,-1.559183879177715,-2.984340714387776,143578.059318375,-95.01852416992188,-51.56535339355469,-558.8296508789062,143578.075400375,-2.293976495331347,-1.128601866262636,-0.1315467788259768,2.261389493942261,-2.186768054962158,-3.919672012329102,-0.32156902551651,-2.020678758621216,-0.7959118485450745,1,0.5092931985855103,0.1688403934240341,0.7540873885154724,-0.3787685930728912,-0.8960060477256775,0.1311677098274231,-0.4242267310619354,0,0,0,-1,143577.7480515,3,2,1561775802.400458,1561774855.646675,295,1.774414,0,0,252.7749,0,0,1561775769.99275,143574.839905,0,-0.486084,75.39306,3232235528,177669985,1,1,0.94,-9.846188,-20.72751,3
1561775802.766197,76,0,0,1561775801.999227,4.634709195238198,-74.1511276737546,2553.727,0.31,17.2265625,3,10,-9999,1561775802.741282,-16.77048492431641,-21.21105194091797,6.53424072265625,144.0099334716797,151.5027008056641,15,143578.103751375,-1.56512451171875,-2.080352783203125,-2.36627197265625,143578.090568375,6.394081998131576,-3.667407445531147,-5.545283023927047,143578.079429375,-93.475830078125,-52.28207397460938,-557.0814819335938,143578.095633375,-2.238490333716191,-1.189687744041965,0.00147673758175608,7.109879493713379,-3.451511859893799,-5.966029167175293,-0.3834089040756226,-1.813052654266357,-1.538298487663269,1,0.5039463639259338,0.2450783401727676,0.7454033493995667,-0.3610381186008453,-0.9282518625259399,-0.001476737088523805,-0.3719493448734283,0,0,0,-1,143577.7480515,3,2,1561775802.400458,1561774855.646675,295,1.774414,0,0,252.7749,0,0,1561775769.99275,143574.839905,0,-0.486084,75.39306,3232235528,177669985,1,1,0.94,-9.846188,-11.9525,3
1561775802.787,77,0,0,1561775801.999227,4.634709195238198,-74.1511276737546,2553.727,0.31,17.2265625,3,10,-9999,1561775802.770075,-14.74594879150391,-22.09652328491211,8.70269775390625,138.4315948486328,145.9243621826172,15,143578.124015375,-1.945327758789062,-2.342529296875,-2.711944580078125,143578.110831375,7.58239033547933,-1.57649708942432,-6.967470700837779,143578.099540375,-89.78764343261719,-52.84381103515625,-553.0238037109375,143578.115897375,-2.141356418633169,-1.244185602838369,0.180362315665137,7.450499057769775,-0.9505836367607117,-7.170287132263184,-0.9063175916671753,-2.111721038818359,-2.271985530853271,1,0.4741935431957245,0.3425277769565582,0.7353989481925964,-0.3420577049255371,-0.9317713975906372,-0.1793860197067261,-0.3156304061412811,0,0,0,-1,143577.7480515,3,2,1561775802.400458,1561774855.646675,295,1.774414,0,0,252.7749,0,0,1561775769.99275,143574.839905,0,-0.486084,75.39306,3232235528,177669985,1,1,0.94,-9.846188,-12.55011,3
1561775802.816514,78,0,0,1561775801.999227,4.634709195238198,-74.1511276737546,2553.727,0.31,17.2265625,3,10,-9999,1561775802.79228,-6.944168090820312,-21.7392463684082,16.74365234375,131.4447326660156,138.9375,15,143578.144278375,-1.974563598632812,-2.075592041015625,-2.4632568359375,143578.131095375,7.390127149006585,0.1032539512556802,-8.183946227770864,143578.119651375,-85.71916198730469,-52.70709228515625,-548.8914184570312,143578.136161375,-2.04353274373085,-1.275302310797443,0.3772357624147662,7.591880798339844,0.1319620460271835,-8.670029640197754,-1.090420246124268,-1.853571772575378,-2.372330188751221,1,0.4201895594596863,0.4336733520030975,0.7315019965171814,-0.3166592717170715,-0.8893923759460449,-0.3683519959449768,-0.2707363069057465,0,0,0,-1,143577.7480515,3,2,1561775802.400458,1561774855.646675,295,1.774414,0,0,252.7749,0,0,1561775769.99275,143574.839905,0,-0.486084,75.39306,3232235528,177669985,1,1,0.94,-9.846188,-13.46753,3
1561775802.826155,79,0,0,1561775801.999227,4.634709195238198,-74.1511276737546,2553.727,0.31,17.2265625,3,10,-9999,1561775802.818502,-2.697685241699219,-20.1011962890625,20.52203369140625,122.9451217651367,130.4378814697266,15,143578.164542375,-2.102951049804688,-1.803619384765625,-1.870101928710938,143578.151359375,8.53514899862841,-0.2093673385737784,-10.16227011721405,143578.139762375,-82.05967712402344,-51.33329772949219,-545.1787719726562,143578.156424375,-1.920147923865302,-1.335823274090535,0.6101830163890769,8.79118824005127,-0.4051759541034698,-10.57270622253418,-1.238911867141724,-1.344890236854553,-2.030586242675781,1,0.3487180769443512,0.53197181224823,0.7201776504516602,-0.2770303189754486,-0.7970225811004639,-0.5730174779891968,-0.1908033937215805,0,0,0,-1,143577.7480515,3,2,1561775802.400458,1561774855.646675,295,1.774414,0,0,252.7749,0,0,1561775769.99275,143574.839905,0,-0.486084,75.39306,3232235528,177669985,1,1,0.94,-9.846188,-14.33577,3
1561775802.846317,80,0,0,1561775801.999227,4.634709195238198,-74.1511276737546,2553.727,0.31,17.2265625,3,10,-9999,1561775802.842658,2.081779479980469,-16.44687652587891,24.02374267578125,108.9463119506836,116.4390716552734,15,143578.184806375,-1.973724365234375,-1.760986328125,-1.106796264648438,143578.171622375,8.687403516044894,-1.047496624187014,-11.25630628039852,143578.159873375,-77.16865539550781,-48.33480834960938,-541.525146484375,143578.176688375,-1.733836514350106,-1.478687136116019,0.8611863409716338,8.287545204162598,-1.276796698570251,-11.36320114135742,-1.443524360656738,-1.02045202255249,-1.417061924934387,1,0.2671688199043274,0.6313928365707397,0.6939014792442322,-0.2201469540596008,-0.648776113986969,-0.758616030216217,-0.0599278137087822,0,0,0,-1,143577.7480515,3,2,1561775802.400458,1561774855.646675,295,1.774414,0,0,252.7749,0,0,1561775769.99275,143574.839905,0,-0.486084,75.39306,3232235528,177669985,1,1,0.94,-9.846188,-14.33577,3
1561775802.866956,81,0,0,1561775801.999227,4.634709195238198,-74.1511276737546,2553.727,0.31,17.2265625,3,10,-9999,1561775802.842658,2.081779479980469,-16.44687652587891,24.02374267578125,108.9463119506836,116.4390716552734,15,143578.205039375,-1.556365966796875,-1.653091430664062,-0.53863525390625,143578.191886375,6.10321207650534,-1.970472890549628,-11.18784493088807,143578.179984375,-72.38761901855469,-43.80105590820312,-538.2195434570312,143578.196952375,-1.4730029538796,-1.730652698250119,1.08683654822688,5.159895420074463,-2.17692494392395,-10.89504241943359,-1.300318479537964,-0.8419981598854065,-0.8602719306945801,1,0.189336434006691,0.7079429030418396,0.6644071936607361,-0.1467369049787521,-0.4593556821346283,-0.885159432888031,0.07406287640333176,0,0,0,-1,143577.7480515,3,2,1561775802.400458,1561774855.646675,295,1.774414,0,0,252.7749,0,0,1561775769.99275,143575.785082,0,-0.3618164,75.3919,3232235528,177669985,1,1,0.94,-9.846188,-15.07068,3
1561775802.892254,82,0,0,1561775801.999227,4.634709195238198,-74.1511276737546,2553.727,0.31,17.2265625,3,10,-9999,1561775802.868861,6.641258239746094,-11.75638198852539,26.5858154296875,195.5951232910156,203.087890625,15,143578.225303375,-1.220870971679688,-1.222793579101562,-0.180389404296875,143578.212150375,2.118393912240335,-2.295243254955919,-9.414649426511589,143578.200095375,-68.39881896972656,-39.12774658203125,-537.3175048828125,143578.217215375,-1.146958006439648,-2.078035854971747,1.258665841800198,1.15340781211853,-2.147303819656372,-8.799483299255371,-1.115108132362366,-0.5367370843887329,-0.5072354078292847,1,0.127330869436264,0.7472437024116516,0.648567795753479,-0.0690913200378418,-0.2684215009212494,-0.9516814947128296,0.1491726040840149,0,0,0,-1,143577.7480515,3,2,1561775802.400458,1561774855.646675,295,1.774414,0,0,252.7749,0,0,1561775769.99275,143575.785082,0,-0.3618164,75.3919,3232235528,177669985,1,1,0.94,-9.846188,-15.72455,3
1561775802.907149,83,0,0,1561775801.999227,4.634709195238198,-74.1511276737546,2553.727,0.31,17.2265625,3,10,-9999,1561775802.893845,12.56192779541016,-4.908134460449219,27.1258544921875,197.9900665283203,205.4828338623047,15,143578.245566375,-0.7763824462890625,-0.4485931396484375,0.373077392578125,143578.232413375,-0.8917232720222078,-1.489629302039789,-6.953880589795104,143578.220206375,-65.68621826171875,-36.00605773925781,-537.3678588867188,143578.237479375,-0.7562861266679289,-2.491591648346332,1.380145964935582,-1.268468737602234,-1.380432844161987,-6.305781841278076,-0.8735231757164001,0.1048212647438049,-0.0747452974319458,1,0.08090857416391373,0.7542425990104675,0.6515630483627319,-0.006130457855761051,-0.1146817803382874,-0.9818812012672424,0.1508561968803406,0,0,0,-1,143577.7480515,3,2,1561775802.400458,1561774855.646675,295,1.774414,0,0,252.7749,0,0,1561775769.99275,143575.785082,0,-0.3618164,75.3919,3232235528,177669985,1,1,0.94,-7.385183,-16.39409,3
1561775802.927311,84,0,0,1561775801.999227,4.634709195238198,-74.1511276737546,2553.727,0.31,17.2265625,3,10,-9999,1561775802.920315,14.04711151123047,-3.658721923828125,26.6849365234375,200.3908233642578,207.8835906982422,15,143578.265830375,-0.3881072998046875,0.30126953125,0.635833740234375,143578.252646375,-1.948094347909693,-1.716207585474313,-4.194980190108062,143578.240317375,-64.10346984863281,-34.2669677734375,-537.6788940429688,143578.257743375,-0.2351357556986245,-3.038509393887475,1.451984774855518,-2.096372127532959,-1.921647071838379,-3.484121084213257,-0.523615300655365,0.9288175106048584,0.4647386074066162,1,0.05363708361983299,0.7457040548324585,0.6629387736320496,0.0395057201385498,-0.01219705305993557,-0.9929502010345459,0.1179029494524002,0,0,0,-1,143577.7480515,3,2,1561775802.400458,1561774855.646675,295,1.774414,0,0,252.7749,0,0,1561775769.99275,143575.785082,0,-0.3618164,75.3919,3232235528,177669985,1,1,0.94,-7.385183,-13.87899,3
1561775802.9724,85,0,0,1561775801.999227,4.634709195238198,-74.1511276737546,2553.727,0.31,17.2265625,3,10,-9999,1561775802.970228,16.03824615478516,-4.307720184326172,25.185546875,205.7438507080078,213.2366180419922,15,143578.286094375,-0.42657470703125,0.7866668701171875,0.576507568359375,143578.272910375,-2.076142595230119,-1.92015539122978,-1.434939158526139,143578.260428375,-62.72198486328125,-33.92889404296875,-538.3580322265625,143578.277976375,0.2589902107976152,2.71340960333479,1.488446595145392,-2.006574392318726,-1.849686026573181,-0.7814053893089294,-0.3904622793197632,1.585432529449463,0.5562580823898315,1,0.04989157989621162,0.7313863039016724,0.6765754818916321,0.06950165331363678,0.03415427356958389,-0.9966111779212952,0.07483018934726715,0,0,0,-1,143577.7480515,3,2,1561775802.400458,1561774855.646675,295,1.774414,0,0,252.7749,0,0,1561775769.99275,143575.785082,0,-0.3618164,75.3919,3232235528,177669985,1,1,0.94,-7.385183,-15.12512,3
1561775802.976292,86,0,0,1561775801.999227,4.634709195238198,-74.1511276737546,2553.727,0.31,17.2265625,3,10,-9999,1561775802.970228,16.03824615478516,-4.307720184326172,25.185546875,205.7438507080078,213.2366180419922,15,143578.306357375,-0.7010040283203125,0.958892822265625,0.4410247802734375,143578.293174375,-2.120412055714398,-1.803943297058102,0.7474481178638192,143578.280539375,-61.726318359375,-34.56330871582031,-538.9703369140625,143578.298240375,0.565968735543031,2.370392232429646,1.526555281560529,-2.295548439025879,-1.844661235809326,1.013630151748657,-0.5867483019828796,1.914518356323242,0.4494884014129639,1,0.06272003054618835,0.7154876589775085,0.6909425258636475,0.08210952579975128,0.03082483261823654,-0.9990215301513672,0.03171278536319733,0,0,0,-1,143577.7480515,3,2,1561775802.400458,1561774855.646675,295,1.774414,0,0,252.7749,0,0,1561775769.99275,143575.785082,0,-0.3618164,75.3919,3232235528,177669985,1,1,0.94,-7.385183,-15.12512,3
1561775802.988078,87,0,0,1561775801.999227,4.634709195238198,-74.1511276737546,2553.727,0.31,17.2265625,3,10,-9999,1561775802.970228,16.03824615478516,-4.307720184326172,25.185546875,205.7438507080078,213.2366180419922,15,143578.326621375,-1.117904663085938,0.9272308349609375,0.398406982421875,143578.313437375,-3.061369985757227,-2.278212606100972,1.383445340952803,143578.300651375,-61.06614685058594,-35.66154479980469,-539.9680786132812,143578.318503375,2.699550659798777,0.1943627027340718,1.544728855316109,-3.251304626464844,-2.509734630584717,1.475629448890686,-0.9243913292884827,1.935420751571655,0.4451135993003845,1,0.08445341140031815,0.692878782749176,0.7103850841522217,0.09021990746259689,0.005034031812101603,-0.9996602535247803,-0.02557322755455971,0,0,0,-1,143577.7480515,3,2,1561775802.400458,1561774855.646675,295,1.774414,0,0,252.7749,0,0,1561775769.99275,143575.785082,0,-0.3618164,75.3919,3232235528,177669985,1,1,0.94,-7.385183,-15.93353,3
1561775803.008526,88,0,0,1561775801.999227,4.634709195238198,-74.1511276737546,2553.727,0.31,17.2265625,3,10,-9999,1561775802.99461,17.53325271606445,-7.342391967773438,22.66424560546875,209.486328125,216.9790954589844,15,143578.346885375,-1.632537841796875,0.8923797607421875,0.4417877197265625,143578.333701375,-2.756134973211104,-2.953996124295195,2.054283635318858,143578.320762375,-60.40077209472656,-37.64308166503906,-541.4077758789062,143578.338767375,-3.049130317807134,-0.3967403113229478,1.478531733947549,-2.253714084625244,-3.060328245162964,2.316474914550781,-1.333279132843018,1.910953521728516,0.4993000030517578,1,0.1149467676877975,0.6665569543838501,0.7298341393470764,0.09915284812450409,-0.03560211136937141,-0.9957466125488281,-0.0849781334400177,0,0,0,-1,143577.7480515,3,2,1561775802.400458,1561774855.646675,295,1.774414,0,0,252.7749,0,0,1561775769.99275,143575.785082,0,-0.3618164,75.3919,3232235528,177669985,1,1,0.94,-7.385183,-15.93353,3
1561775803.05686,89,0,0,1561775801.999227,4.634709195238198,-74.1511276737546,2553.727,0.31,17.2265625,3,10,-9999,1561775803.020879,18.32992553710938,-8.896903991699219,21.1337890625,214.1027374267578,221.5955047607422,15,143578.367148375,-1.93267822265625,0.6079559326171875,0.3749542236328125,143578.353965375,-0.3390619520800923,-3.157318619826711,3.11541750849984,143578.340873375,-59.53273010253906,-39.26530456542969,-542.9744873046875,143578.359031375,-2.731419622755481,-0.7758284246832118,1.428927551446947,0.2593129575252533,-3.042222499847412,3.334758758544922,-1.716776847839355,1.799767971038818,0.5228686332702637,1,0.1562438458204269,0.6520134806632996,0.7351329922676086,0.1002287492156029,-0.09901902079582214,-0.9899535179138184,-0.1009325608611107,0,0,0,-1,143577.7480515,3,2,1561775802.400458,1561774855.646675,295,1.774414,0,0,252.7749,0,0,1561775769.99275,143575.785082,0,-0.3618164,75.3919,3232235528,177669985,1,1,0.94,-7.385183,-17.75067,3
1561775803.060267,90,0,0,1561775802.999215,4.634709195238198,-74.1511276737546,2553.715,0,17.2265625,3,10,-9999,1561775803.020879,18.32992553710938,-8.896903991699219,21.1337890625,214.1027374267578,221.5955047607422,15,143578.387412375,-1.891555786132812,-0.1313323974609375,0.295013427734375,143578.374228375,1.340933566787977,-2.5031176254226,3.592205635301708,143578.360984375,-58.97395324707031,-40.25872802734375,-544.2433471679688,143578.379294375,-2.384636350211582,-1.172401255056716,1.380704023306616,1.489606618881226,-2.35738468170166,3.442942380905151,-1.79081404209137,1.27709174156189,0.387921929359436,1,0.2003224492073059,0.6505539417266846,0.7270126342773438,0.09001719206571579,-0.174151822924614,-0.9819868206977844,-0.07330097258090973,0,0,0,-1,143577.7480515,3,2,1561775802.400458,1561774855.646675,295,1.774414,0,0,252.7749,0,0,1561775769.99275,143575.785082,0,-0.3618164,75.3919,3232235528,177669985,1,1,0.94,-7.385183,-18.11868,3
1561775803.06967,91,0,0,1561775802.999215,4.634709195238198,-74.1511276737546,2553.715,0,17.2265625,3,10,-9999,1561775803.059877,18.6575813293457,-10.20710754394531,20.156005859375,217.6111755371094,225.1039428710938,15,143578.407645375,-1.482879638671875,-1.100799560546875,0.4232025146484375,143578.394492375,1.772337433873259,-1.981608898647795,2.256121152226546,143578.381095375,-58.88052368164062,-41.28398132324219,-544.9317626953125,143578.399558375,-2.159799384535884,-1.43488295271515,1.336925955765398,1.819958448410034,-1.808935880661011,1.676777839660645,-1.500693798065186,0.3456862568855286,0.3958869576454163,1,0.2348773777484894,0.6550820469856262,0.713584840297699,0.08060272037982941,-0.2296070754528046,-0.9727767705917358,-0.03140025958418846,0,0,0,-1,143577.7480515,3,2,1561775802.400458,1561774855.646675,295,1.774414,0,0,252.7749,0,0,1561775769.99275,143575.785082,0,-0.3618164,75.3919,3232235528,177669985,1,1,0.94,-7.385183,-18.11868,3
1561775803.089425,92,0,0,1561775802.999215,4.634709195238198,-74.1511276737546,2553.715,0,17.2265625,3,10,-9999,1561775803.059877,18.6575813293457,-10.20710754394531,20.156005859375,217.6111755371094,225.1039428710938,15,143578.427909375,-0.7728118896484375,-1.051177978515625,0.38623046875,143578.414756375,1.399680503590144,-1.067133176168604,-0.1453670502053212,143578.401206375,-58.768798828125,-41.21145629882812,-545.1758422851562,143578.419822375,-2.022115516711824,-1.59554952011919,1.329281825473656,1.080026626586914,-0.8222967386245728,-0.6297284960746765,-0.9020743370056152,-0.2877816557884216,0.4063880443572998,1,0.2487686574459076,0.6641340255737305,0.7001944184303284,0.082267165184021,-0.2391000092029572,-0.9709768891334534,0.005919697694480419,0,0,0,-1,143577.7480515,3,2,1561775802.400458,1561774855.646675,295,1.774414,0,0,252.7749,0,0,1561775769.99275,143575.785082,0,-0.3618164,75.3919,3232235528,177669985,1,1,0.94,-7.385183,-18.80411,3
1561775803.130657,93,0,0,1561775802.999215,4.634709195238198,-74.1511276737546,2553.715,0,17.2265625,3,10,-9999,1561775803.126162,19.4500617980957,-9.956459045410156,19.3009033203125,220.7723083496094,228.2650756835938,15,143578.448172375,-0.1453704833984375,-0.316925048828125,0.3858642578125,143578.434989375,0.3280878641762027,-0.3399386647109464,-1.214041131380645,143578.421317375,-58.50369262695312,-40.90483093261719,-545.2571411132812,143578.440085375,-1.966914959978207,-1.659173353311779,1.350160935039916,0.240131288766861,-0.3041377663612366,-1.093475341796875,-0.2012555301189423,0.2997637391090393,0.3652969598770142,1,0.2455221712589264,0.6703557968139648,0.6942184567451477,0.09166556596755981,-0.2179949581623077,-0.9757586121559143,0.01931606233119965,0,0,0,-1,143577.7480515,3,2,1561775802.400458,1561774855.646675,295,1.774414,0,0,252.7749,0,0,1561775769.99275,143575.785082,0,-0.3618164,75.3919,3232235528,177669985,1,1,0.94,-7.385183,-20.24504,3
1561775803.133303,94,0,0,1561775802.999215,4.634709195238198,-74.1511276737546,2553.715,0,17.2265625,3,10,-9999,1561775803.126162,19.4500617980957,-9.956459045410156,19.3009033203125,220.7723083496094,228.2650756835938,15,143578.468436375,0.0907745361328125,-0.0798797607421875,0.409759521484375,143578.455253375,0.3779845840438184,-0.3105149957233149,-0.06764242747524959,143578.441428375,-58.18913269042969,-40.63270568847656,-545.115478515625,143578.460349375,-1.933275222689351,-1.698282625598607,1.35837260754455,0.4770548939704895,-0.3375399112701416,0.3338228464126587,0.247860312461853,0.8761433959007263,0.3719223737716675,1,0.2449801564216614,0.673340380191803,0.6909153461456299,0.09609021246433258,-0.2091182619333267,-0.9775227904319763,0.02680508978664875,0,0,0,-1,143577.7480515,3,2,1561775802.400458,1561774855.646675,295,1.774414,0,0,252.7749,0,0,1561775769.99275,143575.785082,0,-0.3618164,75.3919,3232235528,177669985,1,1,0.94,-7.385183,-20.24504,3
1561775803.150203,95,0,0,1561775802.999215,4.634709195238198,-74.1511276737546,2553.715,0,17.2265625,3,10,-9999,1561775803.146481,19.50142288208008,-9.930496215820312,19.424560546875,221.1130676269531,228.6058349609375,15,143578.488700375,-0.044891357421875,-0.3786773681640625,0.268035888671875,143578.475516375,0.4197717120760336,-0.3508435104264938,1.266402873153238,143578.461539375,-58.07328796386719,-40.51058959960938,-545.3639526367188,143578.480582375,-1.904602813977652,-1.733449477345571,1.337651279711958,0.263103187084198,-0.2793815433979034,1.453868865966797,0.2810137271881104,0.7635939717292786,0.3112190961837769,1,0.2544904947280884,0.6737517714500427,0.6878107190132141,0.0906069204211235,-0.2279894351959229,-0.9729445576667786,0.03741372376680374,0,0,0,-1,143577.7480515,3,2,1561775802.400458,1561774855.646675,295,1.774414,0,0,252.7749,0,0,1561775769.99275,143575.785082,0,-0.3618164,75.3919,3232235528,177669985,1,1,0.94,-7.385183,-20.24504,3
1561775803.170419,96,0,0,1561775802.999215,4.634709195238198,-74.1511276737546,2553.715,0,17.2265625,3,10,-9999,1561775803.146481,19.50142288208008,-9.930496215820312,19.424560546875,221.1130676269531,228.6058349609375,15,143578.508964375,-0.201019287109375,-0.693878173828125,0.174835205078125,143578.495780375,-0.275499487394844,-0.1475263412171574,1.575532226161384,143578.481650375,-58.10946655273438,-40.50579833984375,-545.3659057617188,143578.500846375,-1.931687674546818,-1.710978718161712,1.306730500803589,-0.4093300700187683,-0.2096693217754364,1.495957374572754,0.125359833240509,0.4402665495872498,0.1890407800674438,1,0.266307145357132,0.668816089630127,0.6893202662467957,0.08125913888216019,-0.258446991443634,-0.9653367400169373,0.03646891564130783,0,0,0,-1,143577.7480515,3,2,1561775802.400458,1561774855.646675,295,1.774414,0,0,252.7749,0,0,1561775769.99275,143575.785082,0,-0.3618164,75.3919,3232235528,177669985,1,1,0.94,-7.385183,-20.53095,3
1561775803.217767,97,0,0,1561775802.999215,4.634709195238198,-74.1511276737546,2553.715,0,17.2265625,3,10,-9999,1561775803.174396,19.22348785400391,-10.71541213989258,18.9586181640625,221.5304107666016,229.0231781005859,15,143578.529227375,-0.348846435546875,-0.8834228515625,0.0062255859375,143578.516044375,-0.5000697473674488,-0.425902042589287,1.145915606483655,143578.501761375,-58.32171630859375,-41.28958129882812,-545.486328125,143578.521110375,-1.978680195887492,-1.673084774683877,1.282353533292443,-0.4413423240184784,-0.484027624130249,1.006723046302795,0.003584742546081543,0.1305325031280518,0.06787753105163574,1,0.2770136594772339,0.6616544127464294,0.6925904154777527,0.07612799853086472,-0.2829731702804565,-0.9586880207061768,0.02904625795781612,0,0,0,-1,143577.7480515,3,2,1561775802.400458,1561774855.646675,295,1.774414,0,0,252.7749,0,0,1561775769.99275,143575.785082,0,-0.3618164,75.3919,3232235528,177669985,1,1,0.94,-7.385183,-21.2286,3
1561775803.2207,98,0,0,1561775802.999215,4.634709195238198,-74.1511276737546,2553.715,0,17.2265625,3,10,-9999,1561775803.174396,19.22348785400391,-10.71541213989258,18.9586181640625,221.5304107666016,229.0231781005859,15,143578.549491375,-0.4811248779296875,-0.9493408203125,-0.18389892578125,143578.536307375,-0.1255757685643973,-0.5790354031654973,0.774164949919494,143578.521872375,-58.68061828613281,-41.73477172851562,-546.0492553710938,143578.541373375,-2.000737612549767,-1.663251054397656,1.265840704866852,-0.02010801807045937,-0.5176862478256226,0.7373805046081543,-0.1317263543605804,0.01817607879638672,-0.1320748329162598,1,0.2863587439060211,0.6571595668792725,0.6932340860366821,0.07460825890302658,-0.2989682257175446,-0.9538602828979492,0.02772005274891853,0,0,0,-1,143577.7480515,3,2,1561775802.400458,1561774855.646675,295,1.774414,0,0,252.7749,0,0,1561775769.99275,143575.785082,0,-0.3618164,75.3919,3232235528,177669985,1,1,0.94,-7.385183,-22.04955,3
1561775803.23133,99,0,0,1561775802.999215,4.634709195238198,-74.1511276737546,2553.715,0,17.2265625,3,10,-9999,1561775803.220139,19.06787109375,-11.23043441772461,18.69561767578125,222.3874206542969,229.8801879882812,15,143578.569755375,-0.5477142333984375,-1.041732788085938,-0.22607421875,143578.556571375,0.1536220506362398,-0.1445252249847471,0.8648200186902274,143578.541984375,-58.56907653808594,-42.01345825195312,-546.2191162109375,143578.561637375,-1.999243565264814,-1.67041158298495,1.249364789251106,0.1753139346837997,-0.0254888329654932,0.9455323219299316,-0.1992820799350739,-0.01470160484313965,-0.266389012336731,1,0.293787032365799,0.6552851796150208,0.6923266649246216,0.07052953541278839,-0.3143592774868011,-0.9487841129302979,0.03141897544264793,0,0,0,-1,143577.7480515,3,2,1561775802.400458,1561774855.646675,295,1.774414,0,0,252.7749,0,0,1561775769.99275,143575.785082,0,-0.3618164,75.3919,3232235528,177669985,1,1,0.94,-7.385183,-22.04955,3
1561775803.251555,100,0,0,1561775802.999215,4.634709195238198,-74.1511276737546,2553.715,0,17.2265625,3,10,-9999,1561775803.248099,18.59540176391602,-11.83774566650391,18.46826171875,222.4436645507812,229.9364318847656,15,143578.589988375,-0.5826568603515625,-1.1737060546875,-0.1190185546875,143578.576835375,0.150637978634806,0.3031060815707144,1.018518768365861,143578.562095375,-58.91366577148438,-42.18721008300781,-546.0716552734375,143578.581901375,-1.995401708157811,-1.67017389314487,1.228840744486289,0.111165851354599,0.3509261012077332,0.9257242679595947,-0.2471500337123871,-0.1729505658149719,-0.2106529474258423,1,0.2991975545883179,0.6535407900810242,0.692497193813324,0.06174912676215172,-0.3336758017539978,-0.9421007037162781,0.0332694835960865,0,0,0,-1,143577.7480515,3,2,1561775802.400458,1561774855.646675,295,1.774414,0,0,252.7749,0,0,1561775769.99275,143575.785082,0,-0.3618164,75.3919,3232235528,177669985,1,1,0.94,-7.385183,-23.09728,3
1561775803.288217,101,0,0,1561775802.999215,4.634709195238198,-74.1511276737546,2553.715,0,17.2265625,3,10,-9999,1561775803.280448,18.44672775268555,-12.15523147583008,18.660888671875,222.114013671875,229.6067810058594,15,143578.610251375,-0.554473876953125,-1.241195678710938,-0.0208740234375,143578.597098375,-0.02262035766691503,0.2981464766726599,0.4438363020020987,143578.582206375,-59.30313110351562,-42.75592041015625,-545.9175415039062,143578.602164375,-1.997559706231851,-1.661576677930113,1.216481094775846,-0.04521017521619797,0.2300627827644348,0.2787745594978333,-0.2228243947029114,-0.2927065491676331,-0.09409022331237793,1,0.3009728193283081,0.6520289778709412,0.693700909614563,0.05525099858641624,-0.3455197215080261,-0.9378842711448669,0.03145285323262215,0,0,0,-1,143577.7480515,3,2,1561775802.400458,1561774855.646675,295,1.774414,0,0,252.7749,0,0,1561775769.99275,143575.785082,0,-0.3618164,75.3919,3232235528,177669985,1,1,0.94,-7.385183,-24.15724,3
1561775803.292139,102,0,0,1561775802.999215,4.634709195238198,-74.1511276737546,2553.715,0,17.2265625,3,10,-9999,1561775803.280448,18.44672775268555,-12.15523147583008,18.660888671875,222.114013671875,229.6067810058594,15,143578.630515375,-0.51861572265625,-1.159271240234375,-0.035186767578125,143578.617362375,-0.07418767848633734,0.02379241486265891,0.003735882377163155,143578.602317375,-59.32868957519531,-42.81202697753906,-546.1543579101562,143578.622428375,-2.001854853863265,-1.655776725570794,1.21494394003534,-0.07179917395114899,-0.03421707451343536,-0.02735130116343498,-0.1886036992073059,-0.2688574194908142,-0.05021584033966064,1,0.3008622229099274,0.6513580083847046,0.6944538950920105,0.05430002883076668,-0.3471323549747467,-0.9373498558998108,0.02957066521048546,0,0,0,-1,143577.7480515,3,2,1561775802.400458,1561774855.646675,295,1.774414,0,0,252.7749,0,0,1561775769.99275,143575.785082,0,-0.3618164,75.3919,3232235528,177669985,1,1,0.94,-7.385183,-25.15814,3
1561775803.31235,103,0,0,1561775802.999215,4.634709195238198,-74.1511276737546,2553.715,0,17.2265625,3,10,-9999,1561775803.280448,18.44672775268555,-12.15523147583008,18.660888671875,222.114013671875,229.6067810058594,15,143578.650779375,-0.5303192138671875,-1.086135864257812,-0.074920654296875,143578.637595375,-0.01769271070194142,-0.137229228862366,0.001275121529929939,143578.622428375,-59.46112060546875,-42.84986877441406,-546.0033569335938,143578.642692375,-2.004058635231641,-1.655952677442848,1.215268826378715,0.007405365817248821,-0.1336059868335724,0.01674984768033028,-0.1827940046787262,-0.178183376789093,-0.08368301391601562,1,0.3015348315238953,0.6510604023933411,0.6943670511245728,0.05523942410945892,-0.3468233048915863,-0.9374629855155945,0.0296058040112257,0,0,0,-1,143577.7480515,3,2,1561775802.400458,1561774855.646675,295,1.774414,0,0,252.7749,0,0,1561775769.99275,143575.785082,0,-0.3618164,75.3919,3232235528,177669985,1,1,0.94,-7.385183,-25.15814,3
1561775803.332758,104,0,0,1561775802.999215,4.634709195238198,-74.1511276737546,2553.715,0,17.2265625,3,10,-9999,1561775803.32533,18.3874626159668,-12.13745880126953,18.62884521484375,222.2621154785156,229.7548828125,15,143578.671042375,-0.4933624267578125,-1.064193725585938,-0.065032958984375,143578.657859375,0.1029913635721983,0.02991954958260421,0.04924264750389214,143578.642508375,-59.49485778808594,-42.67988586425781,-545.8829345703125,143578.662925375,-2.000316808579283,-1.660147024178542,1.214378428150156,0.1370600312948227,0.08590107411146164,0.05409402400255203,-0.1654880940914154,-0.1329308748245239,-0.1162940263748169,1,0.3020629584789276,0.6514025926589966,0.693836510181427,0.05498670786619186,-0.3475276529788971,-0.9371526837348938,0.03113473765552044,0,0,0,-1,143577.7480515,3,2,1561775802.400458,1561774855.646675,295,1.774414,0,0,252.7749,0,0,1561775769.99275,143575.785082,0,-0.3618164,75.3919,3232235528,177669985,1,1,0.94,-7.385183,-26.15088,3
1561775803.376302,105,0,0,1561775802.999215,4.634709195238198,-74.1511276737546,2553.715,0,17.2265625,3,10,-9999,1561775803.349091,18.16030502319336,-12.2566032409668,18.69244384765625,221.9599609375,229.4527282714844,15,143578.691306375,-0.460479736328125,-1.03643798828125,-0.0084991455078125,143578.678122375,0.2154127142482583,0.1721712339447507,0.06955484345403549,143578.662620375,-59.23342895507812,-42.6893310546875,-545.9823608398438,143578.683188375,-1.989767229025871,-1.667098625067999,1.212771135835261,0.2174848318099976,0.1630147695541382,0.05296191200613976,-0.1293782591819763,-0.1125731468200684,-0.06378495693206787,1,0.3015598058700562,0.6526170372962952,0.6930669546127319,0.05301778763532639,-0.3488016426563263,-0.9365906715393066,0.03369462862610817,0,0,0,-1,143577.7480515,3,2,1561775802.400458,1561774855.646675,295,1.774414,0,0,252.7749,0,0,1561775769.99275,143575.785082,0,-0.3618164,75.3919,3232235528,177669985,1,1,0.94,-7.385183,-28.05217,3
1561775803.378738,106,0,0,1561775802.999215,4.634709195238198,-74.1511276737546,2553.715,0,17.2265625,3,10,-9999,1561775803.375587,18.18074798583984,-11.9759635925293,18.86248779296875,221.5914459228516,229.0842132568359,15,143578.711570375,-0.409454345703125,-1.02105712890625,0.0382843017578125,143578.698386375,0.1752828713623993,0.2181618954415471,-0.02352796296641404,143578.682731375,-59.41064453125,-42.65176391601562,-545.91552734375,143578.703452375,-1.9788743742576,-1.67338780575788,1.21235957267689,0.1311914920806885,0.2344306260347366,-0.06164748966693878,-0.08478018641471863,-0.09459000825881958,-0.02463555335998535,1,0.300314724445343,0.6540448069572449,0.6924015879631042,0.05115141347050667,-0.3489661514759064,-0.9364463686943054,0.03592708706855774,0,0,0,-1,143577.7480515,3,2,1561775802.400458,1561774855.646675,295,1.774414,0,0,252.7749,0,0,1561775769.99275,143575.785082,0,-0.3618164,75.3919,3232235528,177669985,1,1,0.94,-7.385183,-28.05217,3
1561775803.393448,107,0,0,1561775802.999215,4.634709195238198,-74.1511276737546,2553.715,0,17.2265625,3,10,-9999,1561775803.375587,18.18074798583984,-11.9759635925293,18.86248779296875,221.5914459228516,229.0842132568359,15,143578.731833375,-0.364471435546875,-0.9844970703125,0.0477752685546875,143578.718650375,-0.0648056282820972,0.233990926012651,-0.1202632948219072,143578.702842375,-59.64218139648438,-42.69447326660156,-545.74169921875,143578.723716375,-1.978114841862459,-1.669338547818783,1.214442284798728,-0.130450502038002,0.2079761177301407,-0.1464388072490692,-0.04457184672355652,-0.07086640596389771,0.01562023162841797,1,0.2979805767536163,0.6544986367225647,0.6930423378944397,0.05031275376677513,-0.347167044878006,-0.9371749758720398,0.03432177752256393,0,0,0,-1,143577.7480515,3,2,1561775802.400458,1561774855.646675,295,1.774414,0,0,252.7749,0,0,1561775769.99275,143575.785082,0,-0.3618164,75.3919,3232235528,177669985,1,1,0.94,-7.385183,-28.79104,3
1561775803.413631,108,0,0,1561775802.999215,4.634709195238198,-74.1511276737546,2553.715,0,17.2265625,3,10,-9999,1561775803.400354,17.91543579101562,-12.0659294128418,18.86688232421875,221.3840179443359,228.8767852783203,15,143578.752097375,-0.324737548828125,-0.9310150146484375,0.0346527099609375,143578.738913375,-0.2140033693993883,0.1730277065513202,-0.1481623040854683,143578.722953375,-59.63784790039062,-42.69084167480469,-545.7996215820312,143578.743979375,-1.98855784251336,-1.655879670724586,1.217916216158559,-0.2135573774576187,0.1601739674806595,-0.143017441034317,0.0008307695388793945,-0.02429574728012085,0.01456058025360107,1,0.2955867350101471,0.6536920070648193,0.6947924494743347,0.05078152939677238,-0.3443519175052643,-0.9383812546730042,0.02936951629817486,0,0,0,-1,143577.7480515,3,2,1561775802.400458,1561774855.646675,295,1.774414,0,0,252.7749,0,0,1561775769.99275,143575.785082,0,-0.3618164,75.3919,3232235528,177669985,1,1,0.94,-7.385183,-29.76552,3
1561775803.457003,109,0,0,1561775802.999215,4.634709195238198,-74.1511276737546,2553.715,0,17.2265625,3,10,-9999,1561775803.450499,17.82518005371094,-12.24795913696289,18.9053955078125,221.0466156005859,228.5393829345703,15,143578.772361375,-0.284759521484375,-0.874481201171875,0.0112457275390625,143578.759177375,-0.1710103620255851,0.1762748988684538,-0.1010909318183178,143578.763175375,-59.87413024902344,-42.48846435546875,-545.6643676757812,143578.764243375,-1.998943191131772,-1.642756272629307,1.220608069780204,-0.1603085398674011,0.1876588612794876,-0.07392865419387817,0.04296159744262695,0.04055023193359375,-0.004051685333251953,1,0.2935326099395752,0.6528183221817017,0.6964613199234009,0.05107221752405167,-0.342186450958252,-0.9393081665039062,0.02466630935668945,0,0,0,-1,143577.7480515,3,2,1561775802.400458,1561774855.646675,295,1.774414,0,0,252.7749,0,0,1561775769.99275,143575.785082,0,-0.3618164,75.3919,3232235528,177669985,1,1,0.94,-7.385183,-31.27092,3
1561775803.461073,110,0,0,1561775802.999215,4.634709195238198,-74.1511276737546,2553.715,0,17.2265625,3,10,-9999,1561775803.450499,17.82518005371094,-12.24795913696289,18.9053955078125,221.0466156005859,228.5393829345703,15,143578.792594375,-0.284423828125,-0.8553924560546875,-0.0118560791015625,143578.779441375,-0.117600932680155,0.2063704833991122,0.05332553977109262,143578.783286375,-59.70343017578125,-42.80548095703125,-545.6968383789062,143578.784507375,-2.006819906092474,-1.631348906333102,1.220681227615785,-0.1101886406540871,0.1908842176198959,0.08420398831367493,0.06306493282318115,0.08085846900939941,-0.01468420028686523,1,0.2921014130115509,0.6519626975059509,0.6979319453239441,0.05012309178709984,-0.3423770368099213,-0.9393332600593567,0.02075718902051449,0,0,0,-1,143577.7480515,3,2,1561775802.400458,1561774855.646675,295,1.774414,0,0,252.7749,0,0,1561775769.99275,143575.785082,0,-0.3618164,75.3919,3232235528,177669985,1,1,0.94,-7.385183,-31.27092,3
1561775803.474347,111,0,0,1561775802.999215,4.634709195238198,-74.1511276737546,2553.715,0,17.2265625,3,10,-9999,1561775803.450499,17.82518005371094,-12.24795913696289,18.9053955078125,221.0466156005859,228.5393829345703,15,143578.812858375,-0.2920989990234375,-0.8631134033203125,-0.02880859375,143578.799704375,-0.0542089103046719,0.2373283994907383,0.1111781870792109,143578.803397375,-60.01933288574219,-42.88662719726562,-545.6578979492188,143578.804770375,-2.011449983041949,-1.622690682305486,1.218659723827988,-0.01556413155049086,0.2608643770217896,0.1122795641422272,0.05774205923080444,0.08078879117965698,-0.04593610763549805,1,0.2912463545799255,0.6512455940246582,0.6990934014320374,0.0481979213654995,-0.3444394469261169,-0.938637912273407,0.01789052598178387,0,0,0,-1,143577.7480515,3,2,1561775802.400458,1561774855.646675,295,1.774414,0,0,252.7749,0,0,1561775769.99275,143575.785082,0,-0.3618164,75.3919,3232235528,177669985,1,1,0.94,-7.385183,-31.27092,3
1561775803.494597,112,0,0,1561775802.999215,4.634709195238198,-74.1511276737546,2553.715,0,17.2265625,3,10,-9999,1561775803.478736,17.80292510986328,-12.36627578735352,19.1209716796875,220.7303771972656,228.22314453125,15,143578.833121375,-0.280609130859375,-0.845550537109375,-0.010101318359375,143578.819938375,0.09212140526693093,0.2924992435811469,0.110642625383996,143578.823508375,-59.99215698242188,-42.78828430175781,-545.6150512695312,143578.825034375,-2.008252008960494,-1.620076345723483,1.216381693798924,0.1136103644967079,0.278349906206131,0.09946709871292114,0.05433797836303711,0.08412057161331177,-0.04430174827575684,1,0.2900342643260956,0.6514812111854553,0.6995639801025391,0.04541569948196411,-0.346620112657547,-0.9378498196601868,0.01709528639912605,0,0,0,-1,143577.7480515,3,2,1561775802.400458,1561774855.646675,295,1.774414,0,0,252.7749,0,0,1561775769.99275,143575.785082,0,-0.3618164,75.3919,3232235528,177669985,1,1,0.94,-7.385183,-32.09393,3
1561775803.536158,113,0,0,1561775802.999215,4.634709195238198,-74.1511276737546,2553.715,0,17.2265625,3,10,-9999,1561775803.527418,17.58532333374023,-12.38382720947266,19.4517822265625,220.2011566162109,227.6939239501953,15,143578.853385375,-0.2805938720703125,-0.86419677734375,0.0476226806640625,143578.840201375,0.1391259321907205,0.1756559802311194,0.08691785481302511,143578.843619375,-59.97454833984375,-42.85554504394531,-545.332763671875,143578.845298375,-2.00078932814976,-1.622789226880056,1.214515232268865,0.1210504397749901,0.114081583917141,0.07285545766353607,0.06766551733016968,0.08678227663040161,0.007676124572753906,1,0.2891601920127869,0.6522650122642517,0.6993467211723328,0.04302395135164261,-0.3483204245567322,-0.9372004270553589,0.01812652498483658,0,0,0,-1,143577.7480515,3,2,1561775802.400458,1561774855.646675,295,1.774414,0,0,252.7749,0,0,1561775769.99275,143575.785082,0,-0.3618164,75.3919,3232235528,177669985,1,1,0.94,-7.385183,-32.67111,3
1561775803.539721,114,0,0,1561775802.999215,4.634709195238198,-74.1511276737546,2553.715,0,17.2265625,3,10,-9999,1561775803.527418,17.58532333374023,-12.38382720947266,19.4517822265625,220.2011566162109,227.6939239501953,15,143578.873665125,-0.2824554443359375,-0.8511505126953125,0.05462646484375,143578.860481125,0.05440119053537562,0.01445297523586003,0.0103988451084324,143578.863746125,-59.86454772949219,-42.91358947753906,-545.3643798828125,143578.865547125,-1.996532883327325,-1.626002224660235,1.213903348902601,0.05011980980634689,-0.01252882461994886,-0.01305864844471216,0.06373724341392517,0.07172197103500366,0.03202283382415771,1,0.2890948951244354,0.6527348160743713,0.6989753246307373,0.04236631095409393,-0.3488324582576752,-0.9369868040084839,0.01927719637751579,0,0,0,-1,143577.7480515,3,2,1561775802.400458,1561774855.646675,295,1.774414,0,0,252.7749,0,0,1561775769.99275,143575.785082,0,-0.3618164,75.3919,3232235528,177669985,1,1,0.94,-7.385183,-32.67111,3
1561775803.555513,115,0,0,1561775802.999215,4.634709195238198,-74.1511276737546,2553.715,0,17.2265625,3,10,-9999,1561775803.551685,17.7824592590332,-12.50220108032227,19.40399169921875,220.2808685302734,227.7736358642578,15,143578.893928125,-0.2933197021484375,-0.8431854248046875,0.0608978271484375,143578.880745125,0.0633371612570275,-0.09388042316692827,-0.0177963076683455,143578.883857125,-59.97529602050781,-42.81771850585938,-545.139892578125,143578.885811125,-1.993156429162386,-1.630563693653414,1.214227931423242,0.06752782315015793,-0.1223962008953094,-0.01608879305422306,0.05884051322937012,0.09765315055847168,0.03638577461242676,1,0.2894799411296844,0.6531664133071899,0.698386549949646,0.04279208555817604,-0.34843710064888,-0.9371001720428467,0.02084999904036522,0,0,0,-1,143577.7480515,3,2,1561775802.400458,1561774855.646675,295,1.774414,0,0,252.7749,0,0,1561775769.99275,143575.785082,0,-0.3618164,75.3919,3232235528,177669985,1,1,0.94,-7.385183,-33.60114,3
1561775803.575665,116,0,0,1561775802.999215,4.634709195238198,-74.1511276737546,2553.715,0,17.2265625,3,10,-9999,1561775803.551685,17.7824592590332,-12.50220108032227,19.40399169921875,220.2808685302734,227.7736358642578,15,143578.914192125,-0.325164794921875,-0.8565216064453125,0.0467529296875,143578.901008125,0.09130408112838562,-0.1425899058205865,0.0208110060223152,143578.903969125,-60.1273193359375,-42.63984680175781,-545.2438354492188,143578.906074125,-1.988327760291027,-1.637978560234782,1.214034966047032,0.09744124859571457,-0.146210715174675,0.02974660694599152,0.04181307554244995,0.09374052286148071,0.03542327880859375,1,0.2905528545379639,0.6536831259727478,0.6974157094955444,0.04346032068133354,-0.34845370054245,-0.9370328187942505,0.02344518154859543,0,0,0,-1,143577.7480515,3,2,1561775802.400458,1561774855.646675,295,1.774414,0,0,252.7749,0,0,1561775769.99275,143575.785082,0,-0.3618164,75.3919,3232235528,177669985,1,1,0.94,-7.385183,-34.2026,3
1561775803.614699,117,0,0,1561775802.999215,4.634709195238198,-74.1511276737546,2553.715,0,17.2265625,3,10,-9999,1561775803.602603,17.58065414428711,-11.96687316894531,19.16009521484375,220.4398345947266,227.9326019287109,15,143578.934456125,-0.3486785888671875,-0.9086151123046875,0.0369720458984375,143578.921272125,0.1004224783847079,-0.0748449466433689,0.009864881309871515,143578.924080125,-60.10545349121094,-42.73600769042969,-545.337890625,143578.926338125,-1.982625867146217,-1.645504982702032,1.213541125685052,0.09589448571205139,-0.0539122186601162,-0.01206262595951557,0.008747607469558716,0.05305588245391846,0.008749485015869141,1,0.2914729416370392,0.654289186000824,0.6964441537857056,0.0437578558921814,-0.3487286567687988,-0.936860203742981,0.02610162831842899,0,0,0,-1,143577.7480515,3,2,1561775802.400458,1561774855.646675,295,1.774414,0,0,252.7749,0,0,1561775769.99275,143575.785082,0,-0.3618164,75.3919,3232235528,177669985,1,1,0.94,-7.385183,-35.18117,3
1561775803.617714,118,0,0,1561775802.999215,4.634709195238198,-74.1511276737546,2553.715,0,17.2265625,3,10,-9999,1561775803.602603,17.58065414428711,-11.96687316894531,19.16009521484375,220.4398345947266,227.9326019287109,15,143578.954719125,-0.3430023193359375,-0.93353271484375,0.072235107421875,143578.941536125,0.05267919057453039,0.01710814684266903,-0.03866244112522534,143578.944160125,-60.05970764160156,-42.78582763671875,-545.1951904296875,143578.946602125,-1.978603894054255,-1.649475498229293,1.214135330934811,0.02144208922982216,0.02431600913405418,-0.04565494135022163,-0.002259612083435059,0.005808711051940918,0.028053879737854,1,0.2913439273834229,0.6548586487770081,0.6959555745124817,0.0438704788684845,-0.3480669260025024,-0.9370678663253784,0.02744226716458797,0,0,0,-1,143577.7480515,3,2,1561775802.400458,1561774855.646675,295,1.774414,0,0,252.7749,0,0,1561775769.99275,143575.785082,0,-0.3618164,75.3919,3232235528,177669985,1,1,0.94,-7.385183,-35.18117,3
1561775803.636434,119,0,0,1561775802.999215,4.634709195238198,-74.1511276737546,2553.715,0,17.2265625,3,10,-9999,1561775803.629245,17.56881332397461,-12.31818008422852,19.336669921875,220.4260101318359,227.9187774658203,15,143578.974952125,-0.3220367431640625,-0.91778564453125,0.086181640625,143578.961799125,-0.09579496967458623,0.02673147944167035,-0.01446123103523927,143578.964271125,-59.96916198730469,-42.69244384765625,-545.4366455078125,143578.966865125,-1.981799250525974,-1.645971344367128,1.214813786669479,-0.1060218587517738,0.008381251245737076,0.0009810044430196285,0.01659423112869263,0.01665025949478149,0.05063807964324951,1,0.2909476161003113,0.6545508503913879,0.696397602558136,0.0440787747502327,-0.3475268483161926,-0.9373044967651367,0.02617466263473034,0,0,0,-1,143577.7480515,3,2,1561775802.400458,1561774855.646675,295,1.774414,0,0,252.7749,0,0,1561775769.99275,143575.785082,0,-0.3618164,75.3919,3232235528,177669985,1,1,0.94,-7.385183,-35.18117,3
1561775803.656628,120,0,0,1561775802.999215,4.634709195238198,-74.1511276737546,2553.715,0,17.2265625,3,10,-9999,1561775803.653036,17.59189987182617,-12.31894683837891,19.21514892578125,220.5628509521484,228.0556182861328,15,143578.995216125,-0.3406219482421875,-0.9278411865234375,0.0832672119140625,143578.982063125,-0.04680265931316154,-0.09345538265695162,0.06922620937551972,143578.984382125,-59.89762878417969,-42.73573303222656,-545.57861328125,143578.987129125,-1.986150366678026,-1.64313503907074,1.214039654493669,-0.02415122836828232,-0.1375879347324371,0.07963560521602631,0.01893213391304016,0.02112561464309692,0.06612825393676758,1,0.2916367948055267,0.6538873314857483,0.6967129707336426,0.04438889399170876,-0.3483236134052277,-0.9370344281196594,0.02524132467806339,0,0,0,-1,143577.7480515,3,2,1561775802.400458,1561774855.646675,295,1.774414,0,0,252.7749,0,0,1561775769.99275,143575.785082,0,-0.3618164,75.3919,3232235528,177669985,1,1,0.94,-7.385183,-35.51721,3
1561775803.696315,121,0,0,1561775802.999215,4.634709195238198,-74.1511276737546,2553.715,0,17.2265625,3,10,-9999,1561775803.653036,17.59189987182617,-12.31894683837891,19.21514892578125,220.5628509521484,228.0556182861328,15,143579.015480125,-0.3493499755859375,-0.941375732421875,0.05133056640625,143579.002327125,0.02726810640132132,-0.1815447620335026,0.07957951442931177,143579.004493125,-59.87692260742188,-42.81559753417969,-545.4835205078125,143579.007393125,-1.985773773730845,-1.647020929021672,1.212388817434908,0.03736113756895065,-0.1968994587659836,0.08139302581548691,0.009158432483673096,-0.0005093216896057129,0.04045677185058594,1,0.2934076189994812,0.6536575555801392,0.6961498260498047,0.04493653401732445,-0.3497651219367981,-0.9364566206932068,0.02671246230602264,0,0,0,-1,143577.7480515,3,2,1561775802.400458,1561774855.646675,295,1.774414,0,0,252.7749,0,0,1561775769.99275,143575.785082,0,-0.3618164,75.3919,3232235528,177669985,1,1,0.94,-7.385183,-36.34868,3
