loggingTime,loggingSample,identifierForVendor,deviceID,locationTimestamp_since1970,locationLatitude,locationLongitude,locationAltitude,locationSpeed,locationCourse,locationVerticalAccuracy,locationHorizontalAccuracy,locationFloor,locationHeadingTimestamp_since1970,locationHeadingX,locationHeadingY,locationHeadingZ,locationTrueHeading,locationMagneticHeading,locationHeadingAccuracy,accelerometerTimestamp_sinceReboot,accelerometerAccelerationX,accelerometerAccelerationY,accelerometerAccelerationZ,gyroTimestamp_sinceReboot,gyroRotationX,gyroRotationY,gyroRotationZ,magnetometerTimestamp_sinceReboot,magnetometerX,magnetometerY,magnetometerZ,motionTimestamp_sinceReboot,motionYaw,motionRoll,motionPitch,motionRotationRateX,motionRotationRateY,motionRotationRateZ,motionUserAccelerationX,motionUserAccelerationY,motionUserAccelerationZ,motionAttitudeReferenceFrame,motionQuaternionX,motionQuaternionY,motionQuaternionZ,motionQuaternionW,motionGravityX,motionGravityY,motionGravityZ,motionMagneticFieldX,motionMagneticFieldY,motionMagneticFieldZ,motionMagneticFieldCalibrationAccuracy,activityTimestamp_sinceReboot,activity,activityActivityConfidence,activityActivityStartDate,pedometerStartDate,pedometerNumberofSteps,pedometerAverageActivePace,pedometerCurrentPace,pedometerCurrentCadence,pedometerDistance,pedometerFloorAscended,pedometerFloorDescended,pedometerEndDate,altimeterTimestamp_sinceReboot,altimeterReset,altimeterRelativeAltitude,altimeterPressure,IP_en0,IP_pdp_ip0,deviceOrientation,batteryState,batteryLevel,avAudioRecorderPeakPower,avAudioRecorderAveragePower,label
1561841566.102926,1,0,0,1561841565.995538,4.634590130303646,-74.15095743730119,2553.564,0,327.3046875,4,50,-9999,1561841566.087701,12.19098663330078,-15.52178573608398,21.10296630859375,208.853271484375,216.3464813232422,15,169382.398408125,-0.2752532958984375,-1.005462646484375,0.029541015625,169382.398408125,0.05437109681505773,-0.04328968351923802,-0.1515221481167123,169382.388215125,-61.92057800292969,-42.26171875,-541.794189453125,169382.393342125,0.3332355943000785,-1.667443712004321,1.324668529303356,0.03600894659757614,-0.03701420500874519,-0.1420455724000931,-0.03946909308433533,-0.0416724681854248,0.01480329036712646,1,0.5044403076171875,-0.507243275642395,-0.3611322939395905,0.5981870293617249,-0.2425133287906647,-0.9698631763458252,0.02351152896881104,0,0,0,-1,169382.337586125,3,2,1561841566.284085,1561841239.621676,19,2.442143,0,0,18.59878,0,0,1561841548.131042,169379.164673,0,0.7160645,75.18619,0,182478453,1,1,1,-39.66628,-45.09286,4
1561841566.121446,2,0,0,1561841565.995538,4.634590130303646,-74.15095743730119,2553.564,0,327.3046875,4,50,-9999,1561841566.087701,12.19098663330078,-15.52178573608398,21.10296630859375,208.853271484375,216.3464813232422,15,169382.418671125,-0.245269775390625,-0.99041748046875,0.01837158203125,169382.418671125,0.04481327797887235,-0.02638526849996005,-0.1274828582210031,169382.408326125,-61.92433166503906,-42.03195190429688,-541.8432006835938,169382.413605125,0.3391625669291616,-1.67422138617783,1.327703035796088,0.05820612609386444,-0.04769587889313698,-0.1459977030754089,-0.02135300636291504,-0.02674692869186401,-0.002359151840209961,1,0.5053927302360535,-0.5069551467895508,-0.3620514869689941,0.5970706343650818,-0.2394196838140488,-0.970598042011261,0.02485066466033459,0,0,0,-1,169382.337586125,3,2,1561841566.284085,1561841239.621676,19,2.442143,0,0,18.59878,0,0,1561841548.131042,169379.164673,0,0.7160645,75.18619,0,182478453,1,1,1,-40.22356,-45.67864,4
1561841566.152917,3,0,0,1561841565.995538,4.634590130303646,-74.15095743730119,2553.564,0,327.3046875,4,50,-9999,1561841566.137946,12.40036773681641,-15.63971328735352,21.16400146484375,208.9291229248047,216.4223327636719,15,169382.438935125,-0.2418212890625,-0.9772186279296875,0.00982666015625,169382.438935125,-0.06895509957654965,0.08621797607855228,-0.07817070221265984,169382.428437125,-61.8819580078125,-42.21162414550781,-541.9609375,169382.433869125,0.3414337533806245,-1.676581626777402,1.330013785769825,-0.04262301325798035,0.04687270522117615,-0.08826702088117599,-0.004813522100448608,-0.01252144575119019,-0.01368892192840576,1,0.506050705909729,-0.5064603686332703,-0.3627173006534576,0.596528947353363,-0.2371298521757126,-0.9711516499519348,0.02517884410917759,0,0,0,-1,169382.337586125,3,2,1561841566.284085,1561841239.621676,19,2.442143,0,0,18.59878,0,0,1561841548.131042,169379.164673,0,0.7160645,75.18619,0,182478453,1,1,1,-40.78084,-46.11467,4
1561841566.161827,4,0,0,1561841565.995538,4.634590130303646,-74.15095743730119,2553.564,0,327.3046875,4,50,-9999,1561841566.137946,12.40036773681641,-15.63971328735352,21.16400146484375,208.9291229248047,216.4223327636719,15,169382.459199125,-0.235076904296875,-0.9772491455078125,0.0168914794921875,169382.459199125,-0.1247437970398566,0.1705626846463428,-0.04889457234941878,169382.448548125,-62.10838317871094,-42.24163818359375,-541.5950317382812,169382.454133125,0.3344069233755904,-1.667561799872282,1.331686039831987,-0.1253863424062729,0.1572226583957672,-0.06062767282128334,-0.00264248251914978,-0.006005287170410156,-0.008309841156005859,1,0.5062806010246277,-0.5050950050354004,-0.363071084022522,0.5972757935523987,-0.2357303500175476,-0.9715490937232971,0.02288202196359634,0,0,0,-1,169382.337586125,3,2,1561841566.284085,1561841239.621676,19,2.442143,0,0,18.59878,0,0,1561841548.131042,169379.164673,0,0.7160645,75.18619,0,182478453,1,1,1,-40.78084,-46.11467,4
1561841566.182123,5,0,0,1561841565.995538,4.634590130303646,-74.15095743730119,2553.564,0,327.3046875,4,50,-9999,1561841566.180462,12.36196517944336,-15.60271453857422,21.0321044921875,208.6513366699219,216.1445465087891,15,169382.479462125,-0.23309326171875,-0.9656829833984375,0.0251312255859375,169382.479462125,-0.01944533701532257,0.1226593408546515,-0.04208859786761228,169382.468659125,-62.10923767089844,-42.04588317871094,-541.5316772460938,169382.474396125,0.3256874049535979,-1.655916781880778,1.332758346004002,-0.06044568866491318,0.1391768008470535,-0.04179086536169052,0.003161847591400146,0.0004737377166748047,-0.0006377696990966797,1,0.5064360499382019,-0.5035334825515747,-0.3630730807781219,0.5984601378440857,-0.234942838549614,-0.9718024730682373,0.02004688233137131,0,0,0,-1,169382.337586125,3,2,1561841566.284085,1561841239.621676,19,2.442143,0,0,18.59878,0,0,1561841548.131042,169379.164673,0,0.7160645,75.18619,0,182478453,1,1,1,-41.11141,-46.64071,4
1561841566.202459,6,0,0,1561841565.995538,4.634590130303646,-74.15095743730119,2553.564,0,327.3046875,4,50,-9999,1561841566.180462,12.36196517944336,-15.60271453857422,21.0321044921875,208.6513366699219,216.1445465087891,15,169382.499726125,-0.2386322021484375,-0.9611663818359375,0.0337066650390625,169382.499726125,0.1234742681482158,0.03760436722413686,-0.1078702746892235,169382.488770125,-62.17765808105469,-42.2086181640625,-541.8060302734375,169382.494660125,0.3276752471054429,-1.655967252926627,1.3338904325056,0.09230843931436539,0.04988154396414757,-0.09189078211784363,-0.004558145999908447,0.01030731201171875,0.008355140686035156,1,0.5071819424629211,-0.5027415156364441,-0.3628529012203217,0.5986277461051941,-0.2338451594114304,-0.9720687866210938,0.01996510848402977,0,0,0,-1,169382.337586125,3,2,1561841566.284085,1561841239.621676,19,2.442143,0,0,18.59878,0,0,1561841548.131042,169379.164673,0,0.7160645,75.18619,0,182478453,1,1,1,-41.11141,-46.8837,4
1561841566.232097,7,0,0,1561841565.995538,4.634590130303646,-74.15095743730119,2553.564,0,327.3046875,4,50,-9999,1561841566.231252,12.17797088623047,-15.30891418457031,21.17547607421875,208.5124664306641,216.0056762695312,15,169382.519990125,-0.23193359375,-0.96319580078125,0.036895751953125,169382.519990125,0.1443651690032334,-0.01878753622607299,-0.1331119818171035,169382.508881125,-61.90106201171875,-41.89468383789062,-541.5905151367188,169382.514893125,0.3401735464275445,-1.667823720303776,1.336093385192097,0.1524130553007126,-0.01201990526169538,-0.1419848501682281,-0.006241112947463989,0.009219884872436523,0.01509952545166016,1,0.5086633563041687,-0.5025196075439453,-0.3628327250480652,0.5975684523582458,-0.231460303068161,-0.9725834727287292,0.02252873219549656,0,0,0,-1,169382.337586125,3,2,1561841566.284085,1561841239.621676,19,2.442143,0,0,18.59878,0,0,1561841548.131042,169380.108317,0,0.7160645,75.18619,0,182478453,1,1,1,-41.11141,-47.20106,4
1561841566.242868,8,0,0,1561841565.995538,4.634590130303646,-74.15095743730119,2553.564,0,327.3046875,4,50,-9999,1561841566.231252,12.17797088623047,-15.30891418457031,21.17547607421875,208.5124664306641,216.0056762695312,15,169382.540223125,-0.2125091552734375,-0.9583587646484375,0.037261962890625,169382.540223125,0.04198233774011812,-0.004689294047411523,-0.06396886306759429,169382.528992125,-61.88983154296875,-41.87547302246094,-541.7099609375,169382.535157125,0.3516622004560818,-1.679487393749074,1.338285778956406,0.07472039014101028,-0.01972922310233116,-0.08974933624267578,0.008724719285964966,0.0127791166305542,0.01298367977142334,1,0.5099139213562012,-0.5024793744087219,-0.3630810678005219,0.5963844656944275,-0.2290616035461426,-0.9730910062789917,0.02499545738101006,0,0,0,-1,169382.337586125,3,2,1561841566.284085,1561841239.621676,19,2.442143,0,0,18.59878,0,0,1561841548.131042,169380.108317,0,0.7160645,75.18619,0,182478453,1,1,1,-41.11141,-47.82397,4
1561841566.263152,9,0,0,1561841565.995538,4.634590130303646,-74.15095743730119,2553.564,0,327.3046875,4,50,-9999,1561841566.257311,12.34235382080078,-15.36253356933594,21.1129150390625,208.5069122314453,216.0001220703125,15,169382.560486125,-0.20294189453125,-0.9504241943359375,0.0325164794921875,169382.560486125,-0.1143180540044144,0.06930184315047797,0.03668504401584151,169382.549103125,-62.11911010742188,-41.83946228027344,-541.5810546875,169382.555421125,0.3517866613744843,-1.679441982840058,1.339074425276012,-0.07990753650665283,0.04610012099146843,0.01353390701115131,0.02180230617523193,0.01837742328643799,0.009476184844970703,1,0.5101248621940613,-0.5022186040878296,-0.3632877469062805,0.5962978005409241,-0.228299468755722,-0.9732723832130432,0.02490180172026157,0,0,0,-1,169382.337586125,3,2,1561841566.284085,1561841239.621676,19,2.442143,0,0,18.59878,0,0,1561841548.131042,169380.108317,0,0.7160645,75.18619,0,182478453,1,1,1,-41.11141,-46.72049,4
1561841566.285092,10,0,0,1561841565.995538,4.634590130303646,-74.15095743730119,2553.564,0,327.3046875,4,50,-9999,1561841566.282259,12.10383224487305,-15.52428436279297,20.8331298828125,208.4649353027344,215.9581451416016,15,169382.580750125,-0.2220458984375,-0.9458770751953125,0.02801513671875,169382.580750125,-0.186867622104244,0.0667220390025182,0.04625564602525926,169382.569214125,-62.06707763671875,-42.13838195800781,-541.8925170898438,169382.575684125,0.3390166322698068,-1.665657456118958,1.338511879972065,-0.1842757612466812,0.06861555576324463,0.0489765852689743,0.01566547155380249,0.02660983800888062,0.008880972862243652,1,0.5093013048171997,-0.5015121102333069,-0.3634044229984283,0.597524106502533,-0.2291664630174637,-0.9731430411338806,0.02180443145334721,0,0,0,-1,169382.337586125,3,2,1561841566.284085,1561841239.621676,19,2.442143,0,0,18.59878,0,0,1561841548.131042,169380.108317,0,0.7160645,75.18619,0,182478453,1,1,1,-41.11141,-44.95343,4
1561841566.318971,11,0,0,1561841565.995538,4.634590130303646,-74.15095743730119,2553.564,0,327.3046875,4,50,-9999,1561841566.308285,12.22373962402344,-15.53066635131836,21.10809326171875,208.4685974121094,215.9618072509766,15,169382.601014125,-0.2264251708984375,-0.9530029296875,0.0281829833984375,169382.601014125,-0.1228130052495491,0.0197390836835583,0.01397626940073584,169382.589295125,-62.10916137695312,-42.08415222167969,-541.591064453125,169382.595948125,0.3233984024611959,-1.64944302753291,1.338103300494342,-0.1484751403331757,0.02919251099228859,0.01698989234864712,0.005337715148925781,0.02367758750915527,0.01017260551452637,1,0.5082443952560425,-0.5007456541061401,-0.3638203144073486,0.5988123416900635,-0.2298860847949982,-0.9730489253997803,0.0181171502918005,0,0,0,-1,169382.337586125,3,2,1561841566.284085,1561841239.621676,19,2.442143,0,0,18.59878,0,0,1561841548.131042,169380.108317,0,0.7160645,75.18619,0,182478453,1,1,1,-41.11141,-45.37864,4
1561841566.323961,12,0,0,1561841565.995538,4.634590130303646,-74.15095743730119,2553.564,0,327.3046875,4,50,-9999,1561841566.308285,12.22373962402344,-15.53066635131836,21.10809326171875,208.4685974121094,215.9618072509766,15,169382.621277125,-0.220977783203125,-0.965240478515625,0.02178955078125,169382.621277125,-0.02528378507310328,-0.01882535311355212,0.008293882582833772,169382.609406125,-62.10787963867188,-42.22398376464844,-541.697998046875,169382.616212125,0.3148912218974693,-1.641143218737299,1.338107731618712,-0.05253157019615173,-0.01955026015639305,0.004361448809504509,0.005491733551025391,0.01398932933807373,0.007610678672790527,1,0.5076268315315247,-0.5004189610481262,-0.3642618358135223,0.5993407368659973,-0.2300247699022293,-0.9730499386787415,0.01620827242732048,0,0,0,-1,169382.337586125,3,2,1561841566.284085,1561841239.621676,19,2.442143,0,0,18.59878,0,0,1561841548.131042,169380.108317,0,0.7160645,75.18619,0,182478453,1,1,1,-41.11141,-45.37864,4
1561841566.344119,13,0,0,1561841565.995538,4.634590130303646,-74.15095743730119,2553.564,0,327.3046875,4,50,-9999,1561841566.33236,12.26845932006836,-15.54432678222656,21.02679443359375,208.5128021240234,216.0060119628906,15,169382.641541125,-0.224456787109375,-0.9639129638671875,0.013702392578125,169382.641541125,0.0001030643341860665,-0.02422997222975893,0.02523691343791789,169382.629517125,-61.99861145019531,-42.13789367675781,-541.9977416992188,169382.636475125,0.3135771184047531,-1.640508638587003,1.337997188434211,0.002259505447000265,-0.03762486949563026,0.01583434641361237,0.007500499486923218,0.007738173007965088,0.002851128578186035,1,0.5073883533477783,-0.5005915760993958,-0.3644599616527557,0.5992779135704041,-0.2301414757966995,-0.9730244278907776,0.01606973446905613,0,0,0,-1,169382.337586125,3,2,1561841566.284085,1561841239.621676,19,2.442143,0,0,18.59878,0,0,1561841548.131042,169380.108317,0,0.7160645,75.18619,0,182478453,1,1,1,-41.11141,-46.11165,4
1561841566.364535,14,0,0,1561841565.995538,4.634590130303646,-74.15095743730119,2553.564,0,327.3046875,4,50,-9999,1561841566.358791,12.4089241027832,-15.58068466186523,20.8980712890625,208.5514984130859,216.0447082519531,15,169382.661805125,-0.2206878662109375,-0.953887939453125,0.00506591796875,169382.661805125,-0.04029069781569979,0.03371268992320407,0.06993674075435286,169382.649628125,-62.12803649902344,-42.1839599609375,-541.8941040039062,169382.656739125,0.3124902080316127,-1.639845204395783,1.337423050310197,-0.03239274770021439,0.01102256309241056,0.0525236502289772,0.007397383451461792,0.01299190521240234,-0.007944822311401367,1,0.5071056485176086,-0.5008209943771362,-0.3644356429576874,0.5993403792381287,-0.2307097464799881,-0.9728918075561523,0.01595561392605305,0,0,0,-1,169382.337586125,3,2,1561841566.284085,1561841239.621676,19,2.442143,0,0,18.59878,0,0,1561841548.131042,169380.108317,0,0.7160645,75.18619,0,182478453,1,1,1,-41.11141,-46.45838,4
1561841566.397899,15,0,0,1561841565.995538,4.634590130303646,-74.15095743730119,2553.564,0,327.3046875,4,50,-9999,1561841566.384388,12.41824722290039,-15.77964782714844,21,208.5289001464844,216.0221099853516,15,169382.682068125,-0.2160186767578125,-0.947296142578125,0.0041351318359375,169382.682068125,-0.04102652922488868,0.03514520427355769,0.1148988894381606,169382.669739125,-62.23741149902344,-42.43522644042969,-541.7738037109375,169382.676972125,0.3081285071463427,-1.635017018689168,1.3358593583696,-0.05066362768411636,0.03297766298055649,0.1036004200577736,0.01606950163841248,0.02230316400527954,-0.0114753246307373,1,0.506533145904541,-0.5008929371833801,-0.3640261292457581,0.6000128388404846,-0.2323017865419388,-0.9725289940834045,0.01493912469595671,0,0,0,-1,169382.337586125,3,2,1561841566.284085,1561841239.621676,19,2.442143,0,0,18.59878,0,0,1561841548.131042,169380.108317,0,0.7160645,75.18619,0,182478453,1,1,1,-41.11141,-47.16978,4
1561841566.405088,16,0,0,1561841565.995538,4.634590130303646,-74.15095743730119,2553.564,0,327.3046875,4,50,-9999,1561841566.384388,12.41824722290039,-15.77964782714844,21,208.5289001464844,216.0221099853516,15,169382.702332125,-0.22216796875,-0.9519195556640625,0.0090789794921875,169382.702332125,0.01794491205717192,0.04408943079458881,0.1328904068144089,169382.689820125,-62.244873046875,-42.16770935058594,-541.8616333007812,169382.697236125,0.3050274201844101,-1.631376189184902,1.333507199320749,-0.001593289664015174,0.03293238952755928,0.1295249611139297,0.01645201444625854,0.02341616153717041,-0.004771232604980469,1,0.5058741569519043,-0.5012057423591614,-0.3632940351963043,0.6007508635520935,-0.234637439250946,-0.9719787836074829,0.01423171814531088,0,0,0,-1,169382.337586125,3,2,1561841566.284085,1561841239.621676,19,2.442143,0,0,18.59878,0,0,1561841548.131042,169380.108317,0,0.7160645,75.18619,0,182478453,1,1,1,-41.11141,-47.29419,4
1561841566.425302,17,0,0,1561841565.995538,4.634590130303646,-74.15095743730119,2553.564,0,327.3046875,4,50,-9999,1561841566.409279,12.23218536376953,-15.54998016357422,21.07281494140625,208.4865875244141,215.9797973632812,15,169382.722565125,-0.2297515869140625,-0.953826904296875,0.0007171630859375,169382.722565125,0.07490540040011369,0.05478202257125695,0.1080817296797758,169382.709931125,-62.1304931640625,-41.95022583007812,-541.887451171875,169382.717499125,0.3069078036894111,-1.632407336138463,1.330986375011818,0.05818402022123337,0.04379915073513985,0.1126178875565529,0.008795976638793945,0.01880741119384766,-0.007712244987487793,1,0.5055739879608154,-0.5017042756080627,-0.3621950149536133,0.6012508273124695,-0.2370674610137939,-0.9713831543922424,0.01462447457015514,0,0,0,-1,169382.337586125,3,2,1561841566.284085,1561841239.621676,19,2.442143,0,0,18.59878,0,0,1561841548.131042,169380.108317,0,0.7160645,75.18619,0,182478453,1,1,1,-41.11141,-47.31816,4
1561841566.445595,18,0,0,1561841565.995538,4.634590130303646,-74.15095743730119,2553.564,0,327.3046875,4,50,-9999,1561841566.434434,12.41464614868164,-15.52191925048828,20.9937744140625,208.3950958251953,215.8883056640625,15,169382.742829125,-0.2320709228515625,-0.9439697265625,-0.0108642578125,169382.742829125,0.0873242531953712,0.1613524083324128,0.1024976135060977,169382.730042125,-62.13240051269531,-42.26324462890625,-541.8130493164062,169382.737763125,0.3131084124544942,-1.63694527725437,1.328944519016262,0.0857972726225853,0.1258101314306259,0.08973120898008347,0.004830896854400635,0.01906812191009521,-0.02599358558654785,1,0.5058375597000122,-0.5020397901535034,-0.360832542181015,0.6015681624412537,-0.2389770001173019,-0.9708961248397827,0.01583117619156837,0,0,0,-1,169382.337586125,3,2,1561841566.284085,1561841239.621676,19,2.442143,0,0,18.59878,0,0,1561841548.131042,169380.108317,0,0.7160645,75.18619,0,182478453,1,1,1,-41.11141,-47.31816,4
1561841566.486155,19,0,0,1561841565.995538,4.634590130303646,-74.15095743730119,2553.564,0,327.3046875,4,50,-9999,1561841566.484771,11.89198303222656,-15.7404670715332,21.15899658203125,207.7706604003906,215.2638702392578,15,169382.763093125,-0.2035675048828125,-0.932708740234375,-0.005126953125,169382.763093125,0.1461383016570081,0.2238429506789041,0.1787138217947483,169382.750153125,-62.28102111816406,-42.25117492675781,-541.8306274414062,169382.758027125,0.3204219758085811,-1.640557506622516,1.32648965047207,0.124013364315033,0.2066162973642349,0.1549110114574432,0.02484902739524841,0.03654366731643677,-0.02603089809417725,1,0.5064588189125061,-0.5019259452819824,-0.358766496181488,0.6023755669593811,-0.2412949353456497,-0.9703052639961243,0.01686037890613079,0,0,0,-1,169382.337586125,3,2,1561841566.284085,1561841239.621676,19,2.442143,0,0,18.59878,0,0,1561841548.131042,169380.108317,0,0.7160645,75.18619,0,182478453,1,1,1,-41.11141,-47.84903,4
1561841566.488041,20,0,0,1561841565.995538,4.634590130303646,-74.15095743730119,2553.564,0,327.3046875,4,50,-9999,1561841566.484771,11.89198303222656,-15.7404670715332,21.15899658203125,207.7706604003906,215.2638702392578,15,169382.783356125,-0.21990966796875,-0.9360809326171875,0.0120697021484375,169382.783356125,0.1699890397475398,0.2516375640277341,0.2620627744309583,169382.770264125,-62.35057067871094,-42.08013916015625,-541.6279296875,169382.778290125,0.3320076951176389,-1.64719782812444,1.322255329158483,0.1717574596405029,0.2427729666233063,0.244313582777977,0.03721901774406433,0.03465628623962402,-0.01572394371032715,1,0.5072141885757446,-0.5021171569824219,-0.3556057512760162,0.6034539937973022,-0.2452726364135742,-0.9692723751068115,0.01877574436366558,0,0,0,-1,169382.337586125,3,2,1561841566.284085,1561841239.621676,19,2.442143,0,0,18.59878,0,0,1561841548.131042,169380.108317,0,0.7160645,75.18619,0,182478453,1,1,1,-41.11141,-47.84903,4
1561841566.506356,21,0,0,1561841565.995538,4.634590130303646,-74.15095743730119,2553.564,0,327.3046875,4,50,-9999,1561841566.484771,11.89198303222656,-15.7404670715332,21.15899658203125,207.7706604003906,215.2638702392578,15,169382.803620125,-0.24169921875,-0.9598541259765625,0.0437164306640625,169382.803620125,0.09238399295041275,0.2266824130331466,0.251969127583449,169382.790375125,-62.52046203613281,-42.5914306640625,-541.661376953125,169382.798554125,0.3424495533336786,-1.6523750342431,1.316802107943627,0.1148347854614258,0.2364429086446762,0.2604419589042664,0.02291250228881836,0.02098655700683594,0.00723421573638916,1,0.5076854825019836,-0.5024871230125427,-0.3520149290561676,0.6048533916473389,-0.2504363358020782,-0.9679164886474609,0.02047571539878845,0,0,0,-1,169382.337586125,3,2,1561841566.284085,1561841239.621676,19,2.442143,0,0,18.59878,0,0,1561841548.131042,169380.108317,0,0.7160645,75.18619,0,182478453,1,1,1,-41.11141,-47.34108,4
1561841566.526519,22,0,0,1561841565.995538,4.634590130303646,-74.15095743730119,2553.564,0,327.3046875,4,50,-9999,1561841566.510529,11.57037734985352,-15.95151138305664,21.34686279296875,207.3950958251953,214.8883056640625,15,169382.823884125,-0.257080078125,-0.983673095703125,0.045928955078125,169382.823884125,-0.01681093806501618,0.1550439123422331,0.1960723057798848,169382.810486125,-62.86808776855469,-42.23362731933594,-541.6490478515625,169382.818818125,0.3458292120892699,-1.651529365164354,1.312029816462743,0.01074193976819515,0.1671242862939835,0.2030010372400284,0.001179039478302002,-0.005248010158538818,0.02755105495452881,1,0.5076048970222473,-0.5026483535766602,-0.3492393493652344,0.6063940525054932,-0.2550547420978546,-0.9667063355445862,0.02063619717955589,0,0,0,-1,169382.337586125,3,2,1561841566.284085,1561841239.621676,19,2.442143,0,0,18.59878,0,0,1561841548.131042,169380.108317,0,0.7160645,75.18619,0,182478453,1,1,1,-41.11141,-47.98495,4
1561841566.548417,23,0,0,1561841565.995538,4.634590130303646,-74.15095743730119,2553.564,0,327.3046875,4,50,-9999,1561841566.535145,11.5238037109375,-15.77593994140625,21.3680419921875,207.1701049804688,214.6633148193359,15,169382.844147125,-0.253875732421875,-0.98876953125,0.04290771484375,169382.844147125,-0.1195865855889181,0.08612236859541844,0.174601368439448,169382.830598125,-62.69575500488281,-42.50047302246094,-541.370361328125,169382.839081125,0.3407740547845198,-1.643950606274579,1.308436459106562,-0.100741982460022,0.09844721853733063,0.171443909406662,0.0005336999893188477,-0.02254641056060791,0.02472949028015137,1,0.5068384408950806,-0.502586305141449,-0.3476948738098145,0.6079720854759216,-0.2586666345596313,-0.9657806158065796,0.01895639859139919,0,0,0,-1,169382.337586125,3,2,1561841566.284085,1561841239.621676,19,2.442143,0,0,18.59878,0,0,1561841548.131042,169380.108317,0,0.7160645,75.18619,0,182478453,1,1,1,-41.11141,-46.97512,4
1561841566.567778,24,0,0,1561841565.995538,4.634590130303646,-74.15095743730119,2553.564,0,327.3046875,4,50,-9999,1561841566.56119,11.51504898071289,-15.78263473510742,21.42254638671875,207.1184387207031,214.6116485595703,15,169382.864411125,-0.2471771240234375,-0.983428955078125,0.031494140625,169382.864411125,-0.1880282277073005,0.01283670277029094,0.2157269672568876,169382.850709125,-62.91432189941406,-42.23260498046875,-541.2327270507812,169382.859315125,0.3287001033740139,-1.631093893840715,1.305114446657206,-0.177420511841774,0.02051034197211266,0.1991210728883743,0.01240998506546021,-0.02207052707672119,0.0216681957244873,1,0.5052717924118042,-0.5026049017906189,-0.3470526337623596,0.6096253395080566,-0.2620895504951477,-0.9649136662483215,0.01582254283130169,0,0,0,-1,169382.337586125,3,2,1561841566.284085,1561841239.621676,19,2.442143,0,0,18.59878,0,0,1561841548.131042,169380.108317,0,0.7160645,75.18619,0,182478453,1,1,1,-41.11141,-47.34149,4
1561841566.587364,25,0,0,1561841565.995538,4.634590130303646,-74.15095743730119,2553.564,0,327.3046875,4,50,-9999,1561841566.585807,11.33011245727539,-15.98063659667969,21.292724609375,207.1965637207031,214.6897735595703,15,169382.884644125,-0.2589874267578125,-0.967437744140625,0.0195159912109375,169382.884644125,-0.1943558984573288,-0.00966141580258946,0.2214125498680978,169382.870820125,-62.91685485839844,-42.748779296875,-541.4227905273438,169382.879578125,0.3128003534737329,-1.615726759156167,1.301042958234663,-0.2057488262653351,-0.008791621774435043,0.2208258360624313,0.01460731029510498,-0.0106353759765625,0.01451957225799561,1,0.5029831528663635,-0.5029838681221008,-0.346737414598465,0.6113823056221008,-0.2662247121334076,-0.963836669921875,0.01196964737027884,0,0,0,-1,169382.337586125,3,2,1561841566.284085,1561841239.621676,19,2.442143,0,0,18.59878,0,0,1561841548.131042,169380.108317,0,0.7160645,75.18619,0,182478453,1,1,1,-40.93901,-47.38713,4
1561841566.60757,26,0,0,1561841565.995538,4.634590130303646,-74.15095743730119,2553.564,0,327.3046875,4,50,-9999,1561841566.585807,11.33011245727539,-15.98063659667969,21.292724609375,207.1965637207031,214.6897735595703,15,169382.904908125,-0.2778778076171875,-0.96881103515625,0.00152587890625,169382.904908125,-0.1358747451319517,0.0179542331209872,0.2013381742032985,169382.890931125,-63.09732055664062,-42.66517639160156,-541.7589111328125,169382.899842125,0.2991104841219777,-1.60280201178407,1.296885911430284,-0.14768286049366,0.0009427648037672043,0.2075129598379135,0.001316279172897339,-0.002672553062438965,0.002360820770263672,1,0.5007815957069397,-0.5035333037376404,-0.3463726937770844,0.6129419803619385,-0.2703592479228973,-0.962720513343811,0.008655989542603493,0,0,0,-1,169382.337586125,3,2,1561841566.284085,1561841239.621676,19,2.442143,0,0,18.59878,0,0,1561841548.131042,169380.108317,0,0.7160645,75.18619,0,182478453,1,1,1,-40.93901,-47.38713,4
1561841566.628349,27,0,0,1561841565.995538,4.634590130303646,-74.15095743730119,2553.564,0,327.3046875,4,50,-9999,1561841566.6118,11.27863693237305,-16.40920257568359,21.26171875,207.2652893066406,214.7584991455078,15,169382.9251721667,-0.27569580078125,-0.9809417724609375,0.0054779052734375,169382.9251721667,-0.09004200908779705,0.04872652688463478,0.1932192613040829,169382.9110421667,-63.20663452148438,-42.90260314941406,-541.6541137695312,169382.9201061667,0.2896256892400368,-1.59321509968043,1.293120023283252,-0.1049311310052872,0.04349901154637337,0.1846963316202164,-0.00319969654083252,-0.01358580589294434,-0.004909038543701172,1,0.4991347193717957,-0.5039216279983521,-0.3457054495811462,0.6143412590026855,-0.2740525007247925,-0.9616950154304504,0.00614495063200593,0,0,0,-1,169382.337586125,3,2,1561841566.284085,1561841239.621676,19,2.442143,0,0,18.59878,0,0,1561841548.131042,169380.108317,0,0.7160645,75.18619,0,182478453,1,1,1,-40.93901,-46.7767,4
1561841566.648084,28,0,0,1561841565.995538,4.634590130303646,-74.15095743730119,2553.564,0,327.3046875,4,50,-9999,1561841566.636443,11.33193969726562,-16.49990081787109,21.22686767578125,207.2557525634766,214.7489624023438,15,169382.9454351667,-0.27630615234375,-0.982177734375,0.004608154296875,169382.9454351667,-0.06163247184326778,-0.003937749987791161,0.2196814951595463,169382.9311531667,-63.01741027832031,-43.13209533691406,-541.7129516601562,169382.9403691667,0.2836012269302487,-1.586807342929429,1.2892104047208,-0.06702955812215805,0.007847809232771397,0.2166284322738647,0.001369893550872803,-0.02377426624298096,0.002463340759277344,1,0.4977597296237946,-0.5044400095939636,-0.3447398841381073,0.6155728697776794,-0.2778438925743103,-0.9606159329414368,0.004448943305760622,0,0,0,-1,169382.337586125,3,2,1561841566.284085,1561841239.621676,19,2.442143,0,0,18.59878,0,0,1561841548.131042,169380.108317,0,0.7160645,75.18619,0,182478453,1,1,1,-40.93901,-47.56511,4
1561841566.668544,29,0,0,1561841565.995538,4.634590130303646,-74.15095743730119,2553.564,0,327.3046875,4,50,-9999,1561841566.662542,11.31219100952148,-16.53892135620117,21.2283935546875,207.2921905517578,214.785400390625,15,169382.9656991667,-0.2915496826171875,-0.9795684814453125,-0.0012359619140625,169382.9656991667,-0.04740480003562846,-0.01417360963751071,0.2073324171848488,169382.9512641667,-63.29844665527344,-43.0718994140625,-541.731689453125,169382.9606331667,0.2791786029919093,-1.582877839816845,1.284993894108191,-0.05400163680315018,-0.02336949855089188,0.2065459638834,-0.0003964900970458984,-0.02094149589538574,-0.001941204071044922,1,0.4962735176086426,-0.5053865909576416,-0.3438122570514679,0.6165143847465515,-0.2819063663482666,-0.959435760974884,0.003406021278351545,0,0,0,-1,169382.337586125,3,2,1561841566.284085,1561841239.621676,19,2.442143,0,0,18.59878,0,0,1561841548.131042,169380.108317,0,0.7160645,75.18619,0,182478453,1,1,1,-40.93901,-43.22834,4
1561841566.689122,30,0,0,1561841565.995538,4.634590130303646,-74.15095743730119,2553.564,0,327.3046875,4,50,-9999,1561841566.68694,11.01458740234375,-16.56620025634766,21.169921875,207.333740234375,214.8269500732422,15,169382.9859631667,-0.289093017578125,-0.973236083984375,-0.0009002685546875,169382.9859631667,-0.005083708204852258,-0.005355883268258356,0.208412595322985,169382.9713751667,-63.31146240234375,-43.09573364257812,-541.8106689453125,169382.9808971667,0.2763425948590071,-1.580526338490519,1.28094473773468,-0.01948360726237297,-0.01437919959425926,0.2012140601873398,-0.007538259029388428,-0.01798629760742188,-0.005054473876953125,1,0.4949492812156677,-0.5063750147819519,-0.3428439497947693,0.6173067688941956,-0.2857967019081116,-0.9582862854003906,0.002780893119052052,0,0,0,-1,169382.337586125,3,2,1561841566.284085,1561841239.621676,19,2.442143,0,0,18.59878,0,0,1561841548.131042,169380.108317,0,0.7160645,75.18619,0,182478453,1,1,1,-40.93901,-43.89126,4
1561841566.709358,31,0,0,1561841565.995538,4.634590130303646,-74.15095743730119,2553.564,0,327.3046875,4,50,-9999,1561841566.68694,11.01458740234375,-16.56620025634766,21.169921875,207.333740234375,214.8269500732422,15,169383.0062261667,-0.281982421875,-0.9692230224609375,0.00640869140625,169383.0062261667,0.02834242558505928,-0.07233518363207822,0.2303224216110669,169382.9914861667,-63.46499633789062,-42.72598266601562,-541.617919921875,169383.0011601667,0.2765727106635768,-1.581198327668773,1.276784738554491,0.02603807114064693,-0.0503007173538208,0.2164457440376282,0.004622042179107666,-0.01539933681488037,-0.0008323192596435547,1,0.4938511252403259,-0.5075610876083374,-0.3416439592838287,0.617877185344696,-0.2897783219814301,-0.9570890665054321,0.00301438313908875,0,0,0,-1,169382.337586125,3,2,1561841566.284085,1561841239.621676,19,2.442143,0,0,18.59878,0,0,1561841548.131042,169380.108317,0,0.7160645,75.18619,0,182478453,1,1,1,-40.93901,-44.40096,4
1561841566.729175,32,0,0,1561841565.995538,4.634590130303646,-74.15095743730119,2553.564,0,327.3046875,4,50,-9999,1561841566.713141,10.90502166748047,-16.3393440246582,21.17138671875,207.3869934082031,214.8802032470703,15,169383.0264901667,-0.268402099609375,-0.95782470703125,0.0099334716796875,169383.0264901667,0.0108156298190298,-0.1726561955792541,0.3356821343406727,169383.0115971667,-63.35379028320312,-43.37040710449219,-541.733154296875,169383.0213931667,0.278020868284134,-1.584765374006123,1.271847183715891,0.01550713367760181,-0.1622690558433533,0.2936766147613525,0.01685404777526855,-0.005092620849609375,0.004049420356750488,1,0.4923741817474365,-0.5095337629318237,-0.340535044670105,0.6180444955825806,-0.2944877445697784,-0.9556465148925781,0.004113981034606695,0,0,0,-1,169382.337586125,3,2,1561841566.284085,1561841239.621676,19,2.442143,0,0,18.59878,0,0,1561841548.131042,169380.108317,0,0.7160645,75.18619,0,182478453,1,1,1,-40.93901,-44.71788,4
1561841566.750814,33,0,0,1561841565.995538,4.634590130303646,-74.15095743730119,2553.564,0,327.3046875,4,50,-9999,1561841566.737669,11.13761138916016,-16.59154510498047,21.06756591796875,207.6104431152344,215.1036529541016,15,169383.0467541667,-0.2704620361328125,-0.949432373046875,0.008331298828125,169383.0467541667,-0.06954019606804006,-0.2212010948775455,0.4862183802218377,169383.0316781667,-63.31874084472656,-43.18966674804688,-541.607177734375,169383.0416571667,0.2767986842712729,-1.587510903017749,1.264450562734281,-0.05198695510625839,-0.2189483195543289,0.4429987072944641,0.03388014435768127,-0.001361489295959473,0.004908204078674316,1,0.4897406697273254,-0.5125176310539246,-0.3392719924449921,0.6183642148971558,-0.3015345335006714,-0.9534419775009155,0.005040491465479136,0,0,0,-1,169382.337586125,3,2,1561841566.284085,1561841239.621676,19,2.442143,0,0,18.59878,0,0,1561841548.131042,169380.108317,0,0.7160645,75.18619,0,182478453,1,1,1,-40.93901,-45.29862,4
1561841566.769673,34,0,0,1561841565.995538,4.634590130303646,-74.15095743730119,2553.564,0,327.3046875,4,50,-9999,1561841566.764346,10.97141265869141,-16.51107406616211,21.08123779296875,207.9438018798828,215.43701171875,15,169383.0669871667,-0.289215087890625,-0.9437713623046875,0.0102691650390625,169383.0669871667,-0.1871959898666507,-0.1014653722675829,0.61431616233854,169383.0517891667,-63.48695373535156,-43.08491516113281,-541.6937255859375,169383.0619211667,0.2696723366114898,-1.585021772801337,1.254043511374691,-0.1551237255334854,-0.1594540923833847,0.5849199295043945,0.03805914521217346,0.00754857063293457,0.004236221313476562,1,0.4857034385204315,-0.5160499811172485,-0.337608814239502,0.619519829750061,-0.311450868844986,-0.9502518773078918,0.004430826287716627,0,0,0,-1,169382.337586125,3,2,1561841566.284085,1561841239.621676,19,2.442143,0,0,18.59878,0,0,1561841548.131042,169380.108317,0,0.7160645,75.18619,0,182478453,1,1,1,-40.93901,-45.29862,4
1561841566.790051,35,0,0,1561841565.995538,4.634590130303646,-74.15095743730119,2553.564,0,327.3046875,4,50,-9999,1561841566.788378,10.70459365844727,-16.93181991577148,20.9912109375,208.0927276611328,215.5859375,15,169383.0872501667,-0.3074493408203125,-0.94219970703125,0.004669189453125,169383.0872501667,-0.2439604695533627,0.1029759172378759,0.6926474531649316,169383.0719001667,-63.57119750976562,-43.49758911132812,-541.99755859375,169383.0821841667,0.2557870018633756,-1.572862916919704,1.24142153378068,-0.2458256632089615,0.05848329141736031,0.6680678129196167,0.0231727659702301,0.0008406639099121094,0.00470268726348877,1,0.4809228777885437,-0.5186977982521057,-0.3350363671779633,0.622427761554718,-0.32345050573349,-0.9462447762489319,0.0006684405962005258,0,0,0,-1,169382.337586125,3,2,1561841566.284085,1561841239.621676,19,2.442143,0,0,18.59878,0,0,1561841548.131042,169380.108317,0,0.7160645,75.18619,0,182478453,1,1,1,-40.93901,-45.76356,4
1561841566.810141,36,0,0,1561841565.995538,4.634590130303646,-74.15095743730119,2553.564,0,327.3046875,4,50,-9999,1561841566.788378,10.70459365844727,-16.93181991577148,20.9912109375,208.0927276611328,215.5859375,15,169383.1075141667,-0.3148193359375,-0.9473114013671875,0.0103302001953125,169383.1075141667,-0.2371022971141906,0.1384553482282385,0.8881881919912367,169383.0920111667,-63.76966857910156,-43.93328857421875,-542.2468872070312,169383.1024481667,0.2412537731025905,-1.556888671868262,1.226778985209724,-0.2347961813211441,0.1336600631475449,0.8200032711029053,0.02745515108108521,-0.003676295280456543,0.01399838924407959,1,0.4759751558303833,-0.5206749439239502,-0.331203281879425,0.6266176104545593,-0.3372391164302826,-0.941407322883606,-0.004690507426857948,0,0,0,-1,169382.337586125,3,2,1561841566.284085,1561841239.621676,19,2.442143,0,0,18.59878,0,0,1561841548.131042,169380.108317,0,0.7160645,75.18619,0,182478453,1,1,1,-40.93901,-46.28374,4
1561841566.830394,37,0,0,1561841565.995538,4.634590130303646,-74.15095743730119,2553.564,0,327.3046875,4,50,-9999,1561841566.814417,10.46265029907227,-17.38936614990234,20.81231689453125,208.0406799316406,215.5338897705078,15,169383.1277781667,-0.3491973876953125,-0.9353485107421875,-0.00909423828125,169383.1277781667,-0.4342446610200693,0.2752861681915287,1.073984424388942,169383.1121221667,-64.08203125,-44.21223449707031,-542.0181884765625,169383.1227121667,0.2266233080539293,-1.540341228611884,1.207639690923494,-0.3549468219280243,0.1827583760023117,1.064465761184692,0.032705157995224,-0.003620147705078125,0.01553177833557129,1,0.4697467386722565,-0.523382842540741,-0.3259846270084381,0.631777286529541,-0.3550623655319214,-0.9347801804542542,-0.01081680320203304,0,0,0,-1,169382.337586125,3,2,1561841566.284085,1561841239.621676,19,2.442143,0,0,18.59878,0,0,1561841548.131042,169380.108317,0,0.7160645,75.18619,0,182478453,1,1,1,-40.93901,-42.84867,4
1561841566.850807,38,0,0,1561841565.995538,4.634590130303646,-74.15095743730119,2553.564,0,327.3046875,4,50,-9999,1561841566.839398,9.993003845214844,-17.45285415649414,20.92559814453125,207.9206237792969,215.4138336181641,15,169383.1480411667,-0.478607177734375,-1.02374267578125,-0.027862548828125,169383.1480411667,-0.8679303245273309,0.7154758037129819,0.8885623661243928,169383.1322331667,-64.73295593261719,-44.55169677734375,-541.7928466796875,169383.1429751667,0.1991361855044299,-1.506872271580716,1.186473163900082,-0.7608370184898376,0.6203612685203552,0.936207115650177,-0.04790738224983215,-0.03487688302993774,0.004648447036743164,1,0.4621045291423798,-0.5239121913909912,-0.3204656839370728,0.6397477388381958,-0.3741659820079803,-0.9270524382591248,-0.0239508394151926,0,0,0,-1,169382.337586125,3,2,1561841566.284085,1561841239.621676,19,2.442143,0,0,18.59878,0,0,1561841548.131042,169380.108317,0,0.7160645,75.18619,0,182478453,1,1,1,-40.65944,-43.57552,4
1561841566.871048,39,0,0,1561841565.995538,4.634590130303646,-74.15095743730119,2553.564,0,327.3046875,4,50,-9999,1561841566.865442,8.873443603515625,-18.5676155090332,20.740234375,207.4781188964844,214.9713287353516,15,169383.1683051667,-0.570556640625,-1.154556274414062,-0.0878143310546875,169383.1683051667,-1.132161711033941,0.8024650312432211,0.6843983116884113,169383.1523441667,-65.22828674316406,-44.73609924316406,-542.1436767578125,169383.1632391667,0.1530222589095232,-1.449165830513254,1.167685944955489,-1.104345202445984,0.8002715110778809,0.7493686676025391,-0.1261959671974182,-0.1692660450935364,-0.002727627754211426,1,0.4538149535655975,-0.5198596715927124,-0.3165489435195923,0.6508415341377258,-0.3893832564353943,-0.9198452830314636,-0.04759582132101059,0,0,0,-1,169382.337586125,3,2,1561841566.284085,1561841239.621676,19,2.442143,0,0,18.59878,0,0,1561841548.131042,169380.108317,0,0.7160645,75.18619,0,182478453,1,1,1,-39.42755,-43.88462,4
1561841566.891226,40,0,0,1561841565.995538,4.634590130303646,-74.15095743730119,2553.564,0,327.3046875,4,50,-9999,1561841566.889593,8.335662841796875,-19.09912109375,20.42901611328125,207.0796203613281,214.5728302001953,15,169383.1885691667,-0.7539215087890625,-1.352096557617188,-0.169952392578125,169383.1885691667,-1.270716395170839,0.8758598866730418,0.04776565836333419,169383.1724551667,-65.66310119628906,-45.26873779296875,-542.3461303710938,169383.1835031667,0.09931517465093406,-1.3837550869591,1.153088805136338,-1.211962223052979,0.819299578666687,0.2559930682182312,-0.2587580382823944,-0.3282119631767273,-0.05296808481216431,1,0.4458085000514984,-0.513359010219574,-0.3153114020824432,0.6620392203330994,-0.3985905945301056,-0.9140213131904602,-0.0754346176981926,0,0,0,-1,169382.337586125,3,2,1561841566.284085,1561841239.621676,19,2.442143,0,0,18.59878,0,0,1561841548.131042,169380.108317,0,0.7160645,75.18619,0,182478453,1,1,1,-39.42755,-44.58757,4
1561841566.911476,41,0,0,1561841565.995538,4.634590130303646,-74.15095743730119,2553.564,0,327.3046875,4,50,-9999,1561841566.889593,8.335662841796875,-19.09912109375,20.42901611328125,207.0796203613281,214.5728302001953,15,169383.2088321667,-0.966400146484375,-1.547775268554688,-0.2883148193359375,169383.2088321667,-1.667960161269784,1.195876508533541,-1.001509957431852,169383.1925671667,-66.21878051757812,-46.00375366210938,-542.8310546875,169383.2037361667,0.03040770247347946,-1.301602087731517,1.150798531087902,-1.573154449462891,1.113584995269775,-0.7118052840232849,-0.4639059901237488,-0.5422171354293823,-0.1187732219696045,1,0.4406181573867798,-0.5016303062438965,-0.3194849193096161,0.6724225878715515,-0.3930733799934387,-0.9130898118019104,-0.1084453538060188,0,0,0,-1,169382.337586125,3,2,1561841566.284085,1561841239.621676,19,2.442143,0,0,18.59878,0,0,1561841548.131042,169380.108317,0,0.7160645,75.18619,0,182478453,1,1,1,-39.42755,-45.06345,4
1561841566.931682,42,0,0,1561841565.995538,4.634590130303646,-74.15095743730119,2553.564,0,327.3046875,4,50,-9999,1561841566.91577,7.952323913574219,-19.60544586181641,19.83599853515625,206.5420074462891,214.0352172851562,15,169383.2290661667,-1.157958984375,-1.701614379882812,-0.434417724609375,169383.2290661667,-1.591112517486675,1.154545846312166,-2.252218289649035,169383.2126781667,-66.3668212890625,-46.50428771972656,-543.201416015625,169383.2240001667,-0.07253164850541949,-1.182836210634371,1.165046016183634,-1.706318616867065,1.211028456687927,-1.950820565223694,-0.7024962902069092,-0.7137771248817444,-0.2040444612503052,1,0.4395115077495575,-0.481840580701828,-0.3316539227962494,0.681663453578949,-0.3653748035430908,-0.9188064932823181,-0.1493185758590698,0,0,0,-1,169382.337586125,3,2,1561841566.284085,1561841239.621676,19,2.442143,0,0,18.59878,0,0,1561841548.131042,169380.108317,0,0.7160645,75.18619,0,182478453,1,1,1,-39.42755,-45.06345,4
1561841566.952097,43,0,0,1561841565.995538,4.634590130303646,-74.15095743730119,2553.564,0,327.3046875,4,50,-9999,1561841566.94019,8.065315246582031,-19.92658615112305,19.39447021484375,205.8084259033203,213.3016357421875,15,169383.2493291667,-1.2991943359375,-1.794143676757812,-0.6061553955078125,169383.2493291667,-0.6619494615956972,1.063634315128458,-3.426744235723411,169383.2327891667,-65.91972351074219,-46.50714111328125,-543.8233032226562,169383.2442631667,-0.1991787058629344,-1.04352733149162,1.199113225363578,-0.9341598749160767,1.023118495941162,-3.135343074798584,-0.9167633056640625,-0.8273463249206543,-0.3388612270355225,1,0.445859432220459,-0.4580794274806976,-0.3510092496871948,0.6842259168624878,-0.3138580620288849,-0.9317173957824707,-0.1827452033758163,0,0,0,-1,169382.337586125,3,2,1561841566.284085,1561841239.621676,19,2.442143,0,0,18.59878,0,0,1561841548.131042,169380.108317,0,0.7160645,75.18619,0,182478453,1,1,1,-39.42755,-45.61461,4
1561841566.972681,44,0,0,1561841565.995538,4.634590130303646,-74.15095743730119,2553.564,0,327.3046875,4,50,-9999,1561841566.966567,9.677398681640625,-19.68997192382812,18.82879638671875,204.4890747070312,211.9822845458984,15,169383.2695931667,-1.457412719726562,-1.728775024414062,-0.6970062255859375,169383.2695931667,0.447041416374009,1.518742712760426,-4.649268866756504,169383.2529001667,-64.96220397949219,-46.64846801757812,-543.9712524414062,169383.2645271667,-0.3473235444488856,-0.880441634702691,1.257017350739878,0.1761308610439301,1.386151552200317,-4.355007171630859,-1.142879962921143,-0.8263681530952454,-0.4701319932937622,1,0.4643214344978333,-0.4314256608486176,-0.3732201755046844,0.6774837374687195,-0.2379794865846634,-0.9511739611625671,-0.1965550035238266,0,0,0,-1,169382.337586125,3,2,1561841566.284085,1561841239.621676,19,2.442143,0,0,18.59878,0,0,1561841548.131042,169380.108317,0,0.7160645,75.18619,0,182478453,1,1,1,-39.42755,-45.64361,4
1561841566.992496,45,0,0,1561841565.995538,4.634590130303646,-74.15095743730119,2553.564,0,327.3046875,4,50,-9999,1561841566.990803,10.61857604980469,-18.78397369384766,19.2113037109375,201.9482727050781,209.4414825439453,15,169383.2898571667,-1.630294799804688,-1.608871459960938,-0.6689910888671875,169383.2898571667,1.376679580203457,1.842940231216241,-5.802441054578407,169383.2730111667,-64.05216979980469,-45.57525634765625,-543.52197265625,169383.2847911667,-0.5835054165821435,-0.6205734417518918,1.336039820818062,1.156965136528015,1.763367295265198,-5.521477699279785,-1.405983686447144,-0.7057737112045288,-0.5109597444534302,1,0.4959805607795715,-0.3992311358451843,-0.3961617648601532,0.6615690588951111,-0.1352608650922775,-0.9725710153579712,-0.1892355680465698,0,0,0,-1,169382.337586125,3,2,1561841566.284085,1561841239.621676,19,2.442143,0,0,18.59878,0,0,1561841548.131042,169380.108317,0,0.7160645,75.18619,0,182478453,1,1,1,-39.42755,-45.90072,4
1561841567.012744,46,0,0,1561841565.995538,4.634590130303646,-74.15095743730119,2553.564,0,327.3046875,4,50,-9999,1561841566.990803,10.61857604980469,-18.78397369384766,19.2113037109375,201.9482727050781,209.4414825439453,15,169383.3101201667,-1.773635864257812,-1.420379638671875,-0.536956787109375,169383.3101201667,2.05553665261174,2.039241036217654,-7.027927653375885,169383.2931221667,-62.90167236328125,-44.37675476074219,-542.8767700195312,169383.3050541667,-1.132277432928714,-0.04336037269208812,1.408940680350588,1.913294315338135,2.00162672996521,-6.728683471679688,-1.714694380760193,-0.5316247344017029,-0.446743905544281,1,0.53759765625,-0.3612333834171295,-0.4204482436180115,0.6353915929794312,-0.00698532909154892,-0.9869299530982971,-0.1609984040260315,0,0,0,-1,169382.337586125,3,2,1561841566.284085,1561841239.621676,19,2.442143,0,0,18.59878,0,0,1561841548.131042,169380.108317,0,0.7160645,75.18619,0,182478453,1,1,1,-39.42755,-46.26033,4
1561841567.034513,47,0,0,1561841565.995538,4.634590130303646,-74.15095743730119,2553.564,0,327.3046875,4,50,-9999,1561841567.017685,11.89810943603516,-17.33351516723633,20.11083984375,199.00537109375,206.4985809326172,15,169383.3303841667,-1.619613647460938,-1.236038208007812,-0.373504638671875,169383.3303841667,2.606551872684078,1.980228848570916,-7.898908096299683,169383.3132331667,-61.427001953125,-42.23686218261719,-542.1069946289062,169383.3253181667,-2.045535595768092,0.8991356119328804,1.385411634159869,2.441423892974854,2.006314516067505,-7.737837791442871,-1.87841808795929,-0.3439778685569763,-0.3468451499938965,1,0.5851056575775146,-0.3167017996311188,-0.4469667971134186,0.5979732275009155,0.1442872136831284,-0.9828653931617737,-0.1147026792168617,0,0,0,-1,169382.337586125,3,2,1561841566.284085,1561841239.621676,19,2.442143,0,0,18.59878,0,0,1561841548.131042,169380.108317,0,0.7160645,75.18619,0,182478453,1,1,1,-39.42755,-46.83149,4
1561841567.053372,48,0,0,1561841566.995523,4.634619927969421,-74.15097244090786,2553.577,1.65,324.84375,4,50,-9999,1561841567.041448,13.11876678466797,-14.81975936889648,21.00238037109375,196.7338256835938,204.2270355224609,15,169383.3506481667,-1.290573120117188,-0.9335174560546875,-0.130340576171875,169383.3506481667,3.311457856346644,1.745409413143141,-8.34659186712862,169383.3333441667,-60.12014770507812,-39.27589416503906,-540.8109130859375,169383.3455821667,-2.525325885494348,1.40454116213481,1.255982436160471,3.147284507751465,1.823014855384827,-8.275820732116699,-1.776515960693359,-0.1426365375518799,-0.2033658027648926,1,0.6341131925582886,-0.2688480317592621,-0.4735398888587952,0.5489820241928101,0.3053703010082245,-0.9508540034294128,-0.05124238878488541,0,0,0,-1,169382.337586125,3,2,1561841566.284085,1561841239.621676,19,2.442143,0,0,18.59878,0,0,1561841548.131042,169380.108317,0,0.7160645,75.18619,0,182478453,1,1,1,-39.42755,-44.66406,4
1561841567.073591,49,0,0,1561841566.995523,4.634619927969421,-74.15097244090786,2553.577,1.65,324.84375,4,50,-9999,1561841567.069189,15.15773391723633,-8.433845520019531,23.22967529296875,196.2018280029297,203.6950378417969,15,169383.3709111667,-0.8633575439453125,-0.523681640625,0.087799072265625,169383.3709111667,3.797058116879474,1.060340251176139,-8.43520216081439,169383.3534551667,-59.69258117675781,-36.10169982910156,-540.0391845703125,169383.3658151667,-2.728599895497998,1.624965469611364,1.089635110746914,3.677718162536621,1.279324173927307,-8.435866355895996,-1.536837100982666,0.134169340133667,-0.04098784923553467,1,0.6807727217674255,-0.2215340882539749,-0.4984950721263885,0.4888494908809662,0.4621300399303436,-0.8864580988883972,0.02505770139396191,0,0,0,-1,169382.337586125,3,2,1561841566.284085,1561841239.621676,19,2.442143,0,0,18.59878,0,0,1561841548.131042,169380.108317,0,0.7160645,75.18619,0,182478453,1,1,1,-39.42755,-44.72002,4
1561841567.09427,50,0,0,1561841566.995523,4.634619927969421,-74.15097244090786,2553.577,1.65,324.84375,4,50,-9999,1561841567.092114,15.90921401977539,-4.261028289794922,23.90374755859375,198.4813385009766,205.9745483398438,15,169383.3911751667,-0.4608154296875,-0.0982818603515625,0.2947540283203125,169383.3911751667,4.472495690448096,0.1082029035093744,-8.361892260223343,169383.3735661667,-58.64035034179688,-32.075927734375,-539.1435546875,169383.3860781667,-2.840803827095837,1.736233531348105,0.9108440198721636,4.296495914459229,0.3561303019523621,-8.387810707092285,-1.261416435241699,0.4868903160095215,0.08864164352416992,1,0.7201865315437317,-0.1783631443977356,-0.5235536098480225,0.4188193678855896,0.6047086119651794,-0.7900214791297913,0.1009641066193581,0,0,0,-1,169382.337586125,3,2,1561841566.284085,1561841239.621676,19,2.442143,0,0,18.59878,0,0,1561841548.131042,169380.108317,0,0.7160645,75.18619,0,182478453,1,1,1,-39.42755,-44.72002,4
1561841567.11408,51,0,0,1561841566.995523,4.634619927969421,-74.15097244090786,2553.577,1.65,324.84375,4,50,-9999,1561841567.092114,15.90921401977539,-4.261028289794922,23.90374755859375,198.4813385009766,205.9745483398438,15,169383.4114081667,-0.0437774658203125,0.3492279052734375,0.3024749755859375,169383.4114081667,4.514245001592832,-0.7854399750265625,-7.983601945286384,169383.3936771667,-58.271240234375,-28.01234436035156,-538.716064453125,169383.4063421667,-2.925190975192811,1.795199446319661,0.7278239733290971,4.639946460723877,-0.6096850037574768,-8.126343727111816,-0.9837633371353149,0.7863708138465881,0.1648515462875366,1,0.750324010848999,-0.1417213380336761,-0.5491984486579895,0.339573472738266,0.7279039621353149,-0.6652465462684631,0.1661421209573746,0,0,0,-1,169382.337586125,3,2,1561841566.284085,1561841239.621676,19,2.442143,0,0,18.59878,0,0,1561841548.131042,169380.108317,0,0.7160645,75.18619,0,182478453,1,1,1,-23.77052,-23.77052,4
1561841567.134437,52,0,0,1561841566.995523,4.634619927969421,-74.15097244090786,2553.577,1.65,324.84375,4,50,-9999,1561841567.118691,16.27762985229492,0.01271629333496094,24.15728759765625,203.6923065185547,211.1855163574219,15,169383.4316721667,0.374481201171875,0.8543853759765625,0.191986083984375,169383.4316721667,3.297021392709543,-1.174330470050364,-7.026368106241534,169383.4137881667,-58.00653076171875,-23.54487609863281,-538.991943359375,169383.4266061667,-2.983866578222078,1.812332572200683,0.5542932781632478,3.670002937316895,-1.104383707046509,-7.346601486206055,-0.6495195627212524,1.134100079536438,0.04304873943328857,1,0.7680492401123047,-0.108584851026535,-0.5744210481643677,0.2614387571811676,0.8255907297134399,-0.526342511177063,0.2033806145191193,0,0,0,-1,169382.337586125,3,2,1561841566.284085,1561841239.621676,19,2.442143,0,0,18.59878,0,0,1561841548.131042,169380.108317,0,0.7160645,75.18619,0,182478453,1,1,1,-13.73907,-24.02739,4
1561841567.15512,53,0,0,1561841566.995523,4.634619927969421,-74.15097244090786,2553.577,1.65,324.84375,4,50,-9999,1561841567.142753,16.33849716186523,4.465847015380859,23.5296630859375,304.8319702148438,312.3251647949219,15,169383.4519351667,0.6930999755859375,1.23333740234375,0.0846099853515625,169383.4519351667,1.437621228059958,-1.265711516534253,-5.674427694668259,169383.4339001667,-58.10748291015625,-19.22727966308594,-539.5572509765625,169383.4468701667,-3.011673636948836,1.800272338889053,0.4089867013904079,1.953575730323792,-1.323102951049805,-6.018667697906494,-0.3546841144561768,1.431569576263428,-0.06676948070526123,1,0.7736632227897644,-0.07614851742982864,-0.5969430804252625,0.198256254196167,0.8934719562530518,-0.3976798057556152,0.2087067514657974,0,0,0,-1,169382.337586125,3,2,1561841566.284085,1561841239.621676,19,2.442143,0,0,18.59878,0,0,1561841548.131042,169380.108317,0,0.7160645,75.18619,0,182478453,1,1,1,-13.73907,-24.5988,4
1561841567.174843,54,0,0,1561841566.995523,4.634619927969421,-74.15097244090786,2553.577,1.65,324.84375,4,50,-9999,1561841567.169569,15.82162857055664,10.81620597839355,22.28759765625,304.8921508789062,312.3853454589844,15,169383.4721991667,0.9988861083984375,1.494369506835938,0.01409912109375,169383.4721991667,-0.6088833137147783,-0.7238325368975415,-4.175699969080324,169383.4540111667,-58.43217468261719,-16.25466918945312,-540.5079956054688,169383.4671331667,-3.006133892807595,1.775439702951517,0.2999681552982488,-0.1370949745178223,-0.880742073059082,-4.561439990997314,-0.08406239748001099,1.707309246063232,-0.150488018989563,1,0.7715513706207275,-0.0421927385032177,-0.61482173204422,0.1578687876462936,0.935411274433136,-0.2954897880554199,0.1941434890031815,0,0,0,-1,169382.337586125,3,2,1561841566.284085,1561841239.621676,19,2.442143,0,0,18.59878,0,0,1561841548.131042,169381.051982,0,0.7980957,75.18542,0,182478453,1,1,1,-13.73907,-20.30896,4
1561841567.195121,55,0,0,1561841566.995523,4.634619927969421,-74.15097244090786,2553.577,1.65,324.84375,4,50,-9999,1561841567.193459,15.341064453125,11.63772678375244,22.48046875,302.3155212402344,309.8087158203125,15,169383.4924631667,1.187530517578125,1.635543823242188,0.0169525146484375,169383.4924631667,-1.739678556793399,-0.1739680687322271,-2.659586595264134,169383.4740911667,-58.96315002441406,-14.88218688964844,-540.4983520507812,169383.4873971667,-2.970946767816759,1.754732265197995,0.2281070297836611,-1.593800663948059,-0.2864153683185577,-3.041205167770386,0.1495586633682251,1.803129911422729,-0.1787577867507935,1,0.7674810290336609,-0.007365124300122261,-0.6252574920654297,0.1413219273090363,0.9576648473739624,-0.2261339873075485,0.1781627535820007,0,0,0,-1,169382.337586125,3,2,1561841566.284085,1561841239.621676,19,2.442143,0,0,18.59878,0,0,1561841548.131042,169381.051982,0,0.7980957,75.18542,0,182478453,1,1,1,-13.73907,-20.76412,4
1561841567.217432,56,0,0,1561841566.995523,4.634619927969421,-74.15097244090786,2553.577,1.65,324.84375,4,50,-9999,1561841567.193459,15.341064453125,11.63772678375244,22.48046875,302.3155212402344,309.8087158203125,15,169383.5127261667,1.243927001953125,1.722854614257812,0.08465576171875,169383.5127261667,-1.529096284130327,-0.02175483031263928,-1.365226655935571,169383.4942021667,-59.45004272460938,-14.69557189941406,-540.4547729492188,169383.5076611667,-2.927031863706243,1.743169733223058,0.1879849656076578,-1.675685405731201,-0.03547314926981926,-1.666398644447327,0.258432924747467,1.851171135902405,-0.1217464208602905,1,0.7640590071678162,0.0215293113142252,-0.6293983459472656,0.1400289535522461,0.967824399471283,-0.1868797391653061,0.1684993505477905,0,0,0,-1,169382.337586125,3,2,1561841566.284085,1561841239.621676,19,2.442143,0,0,18.59878,0,0,1561841548.131042,169381.051982,0,0.7980957,75.18542,0,182478453,1,1,1,-13.73907,-21.75242,4
1561841567.235723,57,0,0,1561841566.995523,4.634619927969421,-74.15097244090786,2553.577,1.65,324.84375,4,50,-9999,1561841567.219664,14.80810546875,11.62047863006592,22.55352783203125,299.3853454589844,306.8785400390625,15,169383.5329901667,1.3157958984375,1.758071899414062,0.1706390380859375,169383.5329901667,-0.6657852125137383,-0.2329248626282923,-0.07347075552088801,169383.5143131667,-59.93585205078125,-15.07121276855469,-539.9171142578125,169383.5279241667,-2.896260677997089,1.736581465132025,0.1713502748791078,-0.9194241166114807,-0.1381422728300095,-0.4269714057445526,0.3051779866218567,1.943782687187195,-0.03036212921142578,1,0.761477530002594,0.03817038238048553,-0.6309337019920349,0.143588587641716,0.9718453288078308,-0.1705130040645599,0.1626100093126297,0,0,0,-1,169382.337586125,3,2,1561841566.284085,1561841239.621676,19,2.442143,0,0,18.59878,0,0,1561841548.131042,169381.051982,0,0.7980957,75.18542,0,182478453,1,1,1,-13.59467,-22.28937,4
1561841567.255921,58,0,0,1561841566.995523,4.634619927969421,-74.15097244090786,2553.577,1.65,324.84375,4,50,-9999,1561841567.24404,14.33995819091797,11.53700923919678,23.034423828125,298.1042175292969,305.597412109375,15,169383.5532541667,1.349746704101562,1.585906982421875,0.2042083740234375,169383.5532541667,0.2532916533807823,-0.6827974855571646,1.391013778454699,169383.5344241667,-59.80831909179688,-15.3369140625,-539.7469482421875,169383.5481571667,-2.888758817302834,1.727901667399644,0.1784792752737695,0.06280244141817093,-0.6074503660202026,1.022303462028503,0.3725791573524475,1.862179756164551,0.04384052753448486,1,0.7586418986320496,0.0380750298500061,-0.6331478357315063,0.1487839370965958,0.9719948768615723,-0.1775332093238831,0.1539744734764099,0,0,0,-1,169382.337586125,3,2,1561841566.284085,1561841239.621676,19,2.442143,0,0,18.59878,0,0,1561841548.131042,169381.051982,0,0.7980957,75.18542,0,182478453,1,1,1,-13.59467,-22.28937,4
1561841567.276657,59,0,0,1561841566.995523,4.634619927969421,-74.15097244090786,2553.577,1.65,324.84375,4,50,-9999,1561841567.270835,15.12443161010742,10.77567577362061,22.86566162109375,298.7860107421875,306.2792053222656,15,169383.5734871667,1.263626098632812,1.307815551757812,0.1802825927734375,169383.5734871667,0.5159533727408994,-0.782865763516892,2.755176501534784,169383.5545361667,-59.54611206054688,-15.62844848632812,-539.8536987304688,169383.5684211667,-2.90133558805374,1.715710280501381,0.2122450565424507,0.5211412310600281,-0.7845620512962341,2.433656930923462,0.3536240458488464,1.672279238700867,0.0553053617477417,1,0.7550676465034485,0.02136066928505898,-0.6360926032066345,0.1574890911579132,0.9673140048980713,-0.2106551080942154,0.1411668509244919,0,0,0,-1,169382.337586125,3,2,1561841566.284085,1561841239.621676,19,2.442143,0,0,18.59878,0,0,1561841548.131042,169381.051982,0,0.7980957,75.18542,0,182478453,1,1,1,-13.59467,-22.81018,4
1561841567.29644,60,0,0,1561841566.995523,4.634619927969421,-74.15097244090786,2553.577,1.65,324.84375,4,50,-9999,1561841567.294706,16.15651702880859,10.0925407409668,22.56866455078125,300.0067443847656,307.4999389648438,15,169383.5937511667,1.079360961914062,0.9628143310546875,0.1421966552734375,169383.5937511667,0.1189381058634838,-0.6745206472053074,3.757713107566862,169383.5746471667,-58.74246215820312,-16.17526245117188,-540.26318359375,169383.5886851667,-2.919125554348924,1.704331946668643,0.2717624781314121,0.2612116634845734,-0.7232661843299866,3.552754163742065,0.2224005460739136,1.401165843009949,0.03222382068634033,1,0.7510607242584229,-0.005848127417266369,-0.6369362473487854,0.1737408638000488,0.9547234773635864,-0.2684296369552612,0.1282528191804886,0,0,0,-1,169382.337586125,3,2,1561841566.284085,1561841239.621676,19,2.442143,0,0,18.59878,0,0,1561841548.131042,169381.051982,0,0.7980957,75.18542,0,182478453,1,1,1,-13.59467,-23.29255,4
1561841567.317486,61,0,0,1561841566.995523,4.634619927969421,-74.15097244090786,2553.577,1.65,324.84375,4,50,-9999,1561841567.294706,16.15651702880859,10.0925407409668,22.56866455078125,300.0067443847656,307.4999389648438,15,169383.6140141667,0.911163330078125,0.6943511962890625,0.1268310546875,169383.6140141667,-0.5706815994581368,-0.4376588335375509,4.330124163836896,169383.5947581667,-57.40995788574219,-17.11183166503906,-540.6114501953125,169383.6089481667,-2.928554205747887,1.694463038339335,0.3504248977480141,-0.400305300951004,-0.5113036036491394,4.207624435424805,0.05381631851196289,1.165791392326355,0.01689624786376953,1,0.746063232421875,-0.03629446029663086,-0.634339451789856,0.1992129385471344,0.9320540428161621,-0.3432969152927399,0.1158552691340446,0,0,0,-1,169382.337586125,3,2,1561841566.284085,1561841239.621676,19,2.442143,0,0,18.59878,0,0,1561841548.131042,169381.051982,0,0.7980957,75.18542,0,182478453,1,1,1,-13.59467,-23.46563,4
1561841567.33748,62,0,0,1561841566.995523,4.634619927969421,-74.15097244090786,2553.577,1.65,324.84375,4,50,-9999,1561841567.320943,17.00013732910156,8.945442199707031,22.13623046875,300.3477783203125,307.8409729003906,15,169383.6342781667,0.7837982177734375,0.4544525146484375,0.1177520751953125,169383.6342781667,-1.072568155321238,-0.1915894067169544,4.737586745354584,169383.6148691667,-56.7677001953125,-18.85720825195312,-540.68017578125,169383.6292121667,-2.924387964521856,1.685276681776759,0.4413640931383441,-0.9938341379165649,-0.2346869111061096,4.642313480377197,-0.05996417999267578,0.995547890663147,0.01887810230255127,1,0.7397987842559814,-0.06587589532136917,-0.6278219819068909,0.2328042238950729,0.8982515335083008,-0.4271732270717621,0.1032837480306625,0,0,0,-1,169382.337586125,3,2,1561841566.284085,1561841239.621676,19,2.442143,0,0,18.59878,0,0,1561841548.131042,169381.051982,0,0.7980957,75.18542,0,182478453,1,1,1,-13.59467,-24.06714,4
1561841567.357248,63,0,0,1561841566.995523,4.634619927969421,-74.15097244090786,2553.577,1.65,324.84375,4,50,-9999,1561841567.345534,18.01123428344727,7.267532348632812,22.1446533203125,299.6029357910156,307.0961303710938,15,169383.6545421667,0.6934661865234375,0.223785400390625,0.1244659423828125,169383.6545421667,-0.9418650027101108,-0.4134051591740902,5.112808033451335,169383.6349801667,-56.08070373535156,-20.54420471191406,-540.6155395507812,169383.6494761667,-2.911946433494499,1.674921197867097,0.5410444736243935,-1.036378860473633,-0.3064487278461456,5.019197463989258,-0.1056874394416809,0.8565232753753662,0.02669203281402588,1,0.731705367565155,-0.09567178040742874,-0.6180140376091003,0.2711327373981476,0.8525288701057434,-0.5150315761566162,0.08909166604280472,0,0,0,-1,169382.337586125,3,2,1561841566.284085,1561841239.621676,19,2.442143,0,0,18.59878,0,0,1561841548.131042,169381.051982,0,0.7980957,75.18542,0,182478453,1,1,1,-13.59467,-24.37573,4
1561841567.377475,64,0,0,1561841566.995523,4.634619927969421,-74.15097244090786,2553.577,1.65,324.84375,4,50,-9999,1561841567.371629,19.24360656738281,2.895023345947266,21.989990234375,298.8812866210938,306.3744812011719,15,169383.6748051667,0.531829833984375,0.009307861328125,0.1072998046875,169383.6748051667,-0.7189016941392598,-0.7074362530142506,5.527703497571435,169383.6550911667,-55.41558837890625,-22.99224853515625,-540.620361328125,169383.6697391667,-2.903434220621689,1.659529626830611,0.6478358678402354,-0.7179322838783264,-0.7045114040374756,5.418207168579102,-0.1814618110656738,0.721214234828949,0.05857956409454346,1,0.7199769616127014,-0.1302473545074463,-0.6075159311294556,0.3091817498207092,0.7942547202110291,-0.6034621596336365,0.07066239416599274,0,0,0,-1,169382.337586125,3,2,1561841566.284085,1561841239.621676,19,2.442143,0,0,18.59878,0,0,1561841548.131042,169381.051982,0,0.7980957,75.18542,0,182478453,1,1,1,-13.59467,-25.23328,4
1561841567.397706,65,0,0,1561841566.995523,4.634619927969421,-74.15097244090786,2553.577,1.65,324.84375,4,50,-9999,1561841567.396512,19.50820922851562,0.5959854125976562,21.71771240234375,298.02490234375,305.5180969238281,15,169383.6950691667,0.3941650390625,-0.165191650390625,0.0141448974609375,169383.6950691667,-1.158033788391843,-0.5592779436704174,5.794992725641673,169383.6752021667,-55.05889892578125,-25.26487731933594,-540.756103515625,169383.6900031667,-2.893481657012765,1.639110127972795,0.7625486845609399,-1.027088761329651,-0.6205185055732727,5.769227504730225,-0.2525343894958496,0.600999116897583,0.006138443946838379,1,0.7045747041702271,-0.1680874079465866,-0.5950145721435547,0.3482509851455688,0.7213912010192871,-0.6907665729522705,0.04935777932405472,0,0,0,-1,169382.337586125,3,2,1561841566.284085,1561841239.621676,19,2.442143,0,0,18.59878,0,0,1561841548.131042,169381.051982,0,0.7980957,75.18542,0,182478453,1,1,1,-13.59467,-25.23328,4
1561841567.418146,66,0,0,1561841566.995523,4.634619927969421,-74.15097244090786,2553.577,1.65,324.84375,4,50,-9999,1561841567.396512,19.50820922851562,0.5959854125976562,21.71771240234375,298.02490234375,305.5180969238281,15,169383.7153331667,0.164581298828125,-0.2983245849609375,0.0269775390625,169383.7153331667,-1.310231580477108,-0.2898416751293568,5.722899357036574,169383.6953131667,-54.67256164550781,-27.79879760742188,-541.135986328125,169383.7102361667,-2.866105342696656,1.608757074614118,0.8804720035284692,-1.330751895904541,-0.3712154626846313,5.734546661376953,-0.3618381023406982,0.5401740670204163,-0.006451606750488281,1,0.686120867729187,-0.2032774239778519,-0.5793323516845703,0.3902440369129181,0.636328399181366,-0.7710395455360413,0.02416711300611496,0,0,0,-1,169382.337586125,3,2,1561841566.284085,1561841239.621676,19,2.442143,0,0,18.59878,0,0,1561841548.131042,169381.051982,0,0.7980957,75.18542,0,182478453,1,1,1,-13.59467,-21.29574,4
1561841567.438304,67,0,0,1561841566.995523,4.634619927969421,-74.15097244090786,2553.577,1.65,324.84375,4,50,-9999,1561841567.422532,19.47510528564453,-1.884010314941406,21.66607666015625,295.6526794433594,303.1458740234375,15,169383.7355961667,-0.097808837890625,-0.5005950927734375,0.075103759765625,169383.7355961667,-1.379022096698291,-0.1022494068925023,5.692053027394622,169383.7154241667,-55.41131591796875,-30.43258666992188,-541.187744140625,169383.7305001667,-2.825300118944905,1.57114489313382,0.9968065891381398,-1.310853600502014,-0.1171794608235359,5.705967903137207,-0.4800290465354919,0.4666638374328613,0.03846120834350586,1,0.6666651964187622,-0.2359070777893066,-0.559985339641571,0.4316501617431641,0.5429868102073669,-0.8397412896156311,0.0001892669388325885,0,0,0,-1,169382.337586125,3,2,1561841566.284085,1561841239.621676,19,2.442143,0,0,18.59878,0,0,1561841548.131042,169381.051982,0,0.7980957,75.18542,0,182478453,1,1,1,-13.59467,-21.44977,4
1561841567.458493,68,0,0,1561841566.995523,4.634619927969421,-74.15097244090786,2553.577,1.65,324.84375,4,50,-9999,1561841567.4467,18.87029647827148,-4.411922454833984,21.52203369140625,291.7506408691406,299.2438354492188,15,169383.7558291667,-0.3475799560546875,-0.765960693359375,0.104034423828125,169383.7558291667,-1.517975189734265,-0.606549851967651,5.439171500821712,169383.7355351667,-55.47050476074219,-32.63578796386719,-541.35498046875,169383.7507641667,-2.758680166526486,1.509438356472941,1.110059348898432,-1.567846775054932,-0.3887062966823578,5.50548267364502,-0.6955265998840332,0.2484167814254761,0.1356768608093262,1,0.6446515321731567,-0.2660692036151886,-0.5391006469726562,0.4722310304641724,0.4437718391418457,-0.8957250714302063,-0.02726316265761852,0,0,0,-1,169382.337586125,3,2,1561841566.284085,1561841239.621676,19,2.442143,0,0,18.59878,0,0,1561841548.131042,169381.051982,0,0.7980957,75.18542,0,182478453,1,1,1,-13.59467,-21.77648,4
1561841567.478759,69,0,0,1561841566.995523,4.634619927969421,-74.15097244090786,2553.577,1.65,324.84375,4,50,-9999,1561841567.472902,17.96614837646484,-8.950229644775391,20.99786376953125,204.0882720947266,211.5814819335938,15,169383.7760931667,-0.4620208740234375,-0.864654541015625,-0.074920654296875,169383.7760931667,-0.8807057745925501,-1.329068651499456,5.516471881990134,169383.7556461667,-56.5155029296875,-34.82865905761719,-541.7427978515625,169383.7710271667,-2.657449348849211,1.39934474637008,1.216356690643012,-1.052492022514343,-1.250969171524048,5.45082950592041,-0.7560998201370239,0.09431999921798706,0.08628278970718384,1,0.6178749203681946,-0.2976973652839661,-0.5213632583618164,0.5077275037765503,0.3419762849807739,-0.9378411173820496,-0.05921372398734093,0,0,0,-1,169382.337586125,3,2,1561841566.284085,1561841239.621676,19,2.442143,0,0,18.59878,0,0,1561841548.131042,169381.051982,0,0.7980957,75.18542,0,182478453,1,1,1,-13.59467,-22.78053,4
1561841567.498998,70,0,0,1561841566.995523,4.634619927969421,-74.15097244090786,2553.577,1.65,324.84375,4,50,-9999,1561841567.497355,17.43993759155273,-11.03972244262695,20.48223876953125,205.3583526611328,212.8515625,15,169383.7963571667,-0.711029052734375,-0.9407196044921875,-0.161529541015625,169383.7963571667,-0.934616943487351,-0.6439938968941651,5.493433408032076,169383.7757571667,-56.70794677734375,-37.08103942871094,-542.2322998046875,169383.7912911667,-2.508201642496653,1.23196803143105,1.321083960109248,-0.7668838500976562,-0.924084484577179,5.557376384735107,-0.7840244770050049,0.1040390729904175,-0.05705046653747559,1,0.5895032286643982,-0.3337900936603546,-0.5020765066146851,0.5375773906707764,0.233075425028801,-0.96898353099823,-0.0821402370929718,0,0,0,-1,169382.337586125,3,2,1561841566.284085,1561841239.621676,19,2.442143,0,0,18.59878,0,0,1561841548.131042,169381.051982,0,0.7980957,75.18542,0,182478453,1,1,1,-13.59467,-23.82778,4
1561841567.519316,71,0,0,1561841566.995523,4.634619927969421,-74.15097244090786,2553.577,1.65,324.84375,4,50,-9999,1561841567.497355,17.43993759155273,-11.03972244262695,20.48223876953125,205.3583526611328,212.8515625,15,169383.8166201667,-0.947113037109375,-1.21075439453125,-0.1841888427734375,169383.8166201667,-2.332163456096015,0.02139983093933172,4.610808559558015,169383.7958691667,-57.4879150390625,-38.916015625,-542.7921752929688,169383.8115551667,-2.137952446885188,0.8607141213718937,1.402537871392095,-1.982241868972778,-0.008615168742835522,4.903815746307373,-0.9780957102775574,-0.0945969820022583,-0.06795346736907959,1,0.561499297618866,-0.3607399165630341,-0.4792733490467072,0.5699845552444458,0.1269909292459488,-0.9858779311180115,-0.1091705039143562,0,0,0,-1,169382.337586125,3,2,1561841566.284085,1561841239.621676,19,2.442143,0,0,18.59878,0,0,1561841548.131042,169381.051982,0,0.7980957,75.18542,0,182478453,1,1,1,-13.59467,-24.83452,4
1561841567.539635,72,0,0,1561841566.995523,4.634619927969421,-74.15097244090786,2553.577,1.65,324.84375,4,50,-9999,1561841567.523529,16.33444213867188,-12.90476989746094,20.12054443359375,205.3153076171875,212.8085174560547,15,169383.8368841667,-0.888214111328125,-1.342880249023438,-0.2241668701171875,169383.8368841667,-2.139820108474459,-0.9141614694705614,3.548564680834688,169383.8159801667,-58.99839782714844,-41.16197204589844,-543.2235107421875,169383.8318181667,-1.522771397564441,0.2497092489472503,1.407073274916702,-2.453351020812988,-0.6119817495346069,3.744358062744141,-0.9979357719421387,-0.3228362798690796,-0.03633826971054077,1,0.5301632285118103,-0.3741104304790497,-0.46369668841362,0.6032856702804565,0.04027894139289856,-0.9866272807121277,-0.1579366773366928,0,0,0,-1,169382.337586125,3,2,1561841566.284085,1561841239.621676,19,2.442143,0,0,18.59878,0,0,1561841548.131042,169381.051982,0,0.7980957,75.18542,0,182478453,1,1,1,-13.59467,-25.75408,4
1561841567.55979,73,0,0,1561841566.995523,4.634619927969421,-74.15097244090786,2553.577,1.65,324.84375,4,50,-9999,1561841567.548476,15.22750473022461,-15.11077880859375,19.35760498046875,206.2309112548828,213.72412109375,15,169383.8571481667,-0.7278900146484375,-1.349502563476562,-0.2904052734375,169383.8571481667,-0.3428332544997535,-1.580632445964995,3.073473520279419,169383.8360911667,-59.79107666015625,-43.19732666015625,-544.066162109375,169383.8520821667,-1.123645476822825,-0.1662760828441579,1.375570450935439,-0.7625090479850769,-1.535081624984741,3.173948764801025,-0.7565739154815674,-0.3593891859054565,-0.06553900241851807,1,0.5012081861495972,-0.3913237154483795,-0.4548080861568451,0.6235427856445312,-0.03210708871483803,-0.9810038805007935,-0.1913122087717056,0,0,0,-1,169382.337586125,3,2,1561841566.284085,1561841239.621676,19,2.442143,0,0,18.59878,0,0,1561841548.131042,169381.051982,0,0.7980957,75.18542,0,182478453,1,1,1,-13.59467,-25.75408,4
1561841567.580037,74,0,0,1561841566.995523,4.634619927969421,-74.15097244090786,2553.577,1.65,324.84375,4,50,-9999,1561841567.574241,13.9693717956543,-17.95769119262695,18.15386962890625,208.4672088623047,215.9604187011719,15,169383.8774111667,-0.735748291015625,-1.390670776367188,-0.416839599609375,169383.8774111667,-0.05141711853394183,-1.138939456008192,2.540456475486055,169383.8562021667,-60.28622436523438,-44.23194885253906,-544.6282958984375,169383.8723461667,-0.8498665013964601,-0.4648830631068036,1.353960589968121,0.106739804148674,-1.325831413269043,2.685630559921265,-0.6067497134208679,-0.3977607488632202,-0.145124077796936,1,0.4813587665557861,-0.4148967862129211,-0.4441714584827423,0.6315585374832153,-0.09645156562328339,-0.9765831232070923,-0.192308783531189,0,0,0,-1,169382.337586125,3,2,1561841566.284085,1561841239.621676,19,2.442143,0,0,18.59878,0,0,1561841548.131042,169381.051982,0,0.7980957,75.18542,0,182478453,1,1,1,-13.59467,-26.84846,4
1561841567.601185,75,0,0,1561841566.995523,4.634619927969421,-74.15097244090786,2553.577,1.65,324.84375,4,50,-9999,1561841567.574241,13.9693717956543,-17.95769119262695,18.15386962890625,208.4672088623047,215.9604187011719,15,169383.8976751667,-0.76007080078125,-1.429473876953125,-0.5436553955078125,169383.8976751667,-1.146247968987697,-0.3187998235584424,1.844127734746307,169383.8763131667,-60.77369689941406,-44.90397644042969,-544.9598999023438,169383.8925791667,-0.6898149849512223,-0.6394334247596234,1.322461105400335,-0.9492626786231995,-0.4988599717617035,2.020275354385376,-0.6168153882026672,-0.4425575733184814,-0.3082470297813416,1,0.4647663831710815,-0.4305540323257446,-0.4349656999111176,0.6398596167564392,-0.1466734111309052,-0.9693229794502258,-0.1972308754920959,0,0,0,-1,169382.337586125,3,2,1561841566.284085,1561841239.621676,19,2.442143,0,0,18.59878,0,0,1561841548.131042,169381.051982,0,0.7980957,75.18542,0,182478453,1,1,1,-13.59467,-27.83237,4
1561841567.620634,76,0,0,1561841566.995523,4.634619927969421,-74.15097244090786,2553.577,1.65,324.84375,4,50,-9999,1561841567.606144,13.51957321166992,-18.62871551513672,17.9344482421875,209.8257141113281,217.3189239501953,15,169383.9179081667,-0.666412353515625,-1.468093872070312,-0.499542236328125,169383.9179081667,-0.7411502745179998,-0.1053157705716195,1.170343984214625,169383.8964241667,-61.03993225097656,-45.44151306152344,-545.23779296875,169383.9128421667,-0.6423310820307421,-0.6900420570839743,1.283621525694487,-0.993611752986908,-0.09628509730100632,1.330283999443054,-0.5512783527374268,-0.4941533803939819,-0.3152637481689453,1,0.4490408599376678,-0.4349032640457153,-0.4300761818885803,0.6513492465019226,-0.1803042739629745,-0.9590479135513306,-0.2184429168701172,0,0,0,-1,169382.337586125,3,2,1561841566.284085,1561841239.621676,19,2.442143,0,0,18.59878,0,0,1561841548.131042,169381.051982,0,0.7980957,75.18542,0,182478453,1,1,1,-13.59467,-28.72823,4
1561841567.640864,77,0,0,1561841566.995523,4.634619927969421,-74.15097244090786,2553.577,1.65,324.84375,4,50,-9999,1561841567.606144,13.51957321166992,-18.62871551513672,17.9344482421875,209.8257141113281,217.3189239501953,15,169383.938176625,-0.553375244140625,-1.44024658203125,-0.4378662109375,169383.938176625,0.3653516130969185,-0.3315204125052059,0.5316825347711254,169383.916539625,-61.63644409179688,-46.19741821289062,-545.5411376953125,169383.933110625,-0.6088518641508923,-0.7253052986108688,1.263737883367766,0.1551864296197891,-0.2763270437717438,0.6802380681037903,-0.4011941850185394,-0.5114948749542236,-0.2379646897315979,1,0.4410393834114075,-0.4386293292045593,-0.426043689250946,0.6569439172744751,-0.2005056440830231,-0.9532268047332764,-0.2261771410703659,0,0,0,-1,169382.337586125,3,2,1561841566.284085,1561841239.621676,19,2.442143,0,0,18.59878,0,0,1561841548.131042,169381.051982,0,0.7980957,75.18542,0,182478453,1,1,1,-13.59467,-29.76132,4
1561841567.670525,78,0,0,1561841566.995523,4.634619927969421,-74.15097244090786,2553.577,1.65,324.84375,4,50,-9999,1561841567.649826,12.61998748779297,-20.1238899230957,17.14794921875,210.6908721923828,218.18408203125,15,169383.958440625,-0.4527740478515625,-1.352081298828125,-0.4688873291015625,169383.958440625,0.4669067338932371,-0.179474420602075,0.1218294998589829,169383.936650625,-61.62652587890625,-46.73341369628906,-545.6854858398438,169383.953374625,-0.569107176574283,-0.7700154144591521,1.264489190549866,0.5159536600112915,-0.2923965454101562,0.1887418478727341,-0.287703812122345,-0.4387277960777283,-0.2348490953445435,1,0.4406192004680634,-0.4445413649082184,-0.4229052066802979,0.6552777290344238,-0.2099158018827438,-0.9534536004066467,-0.2164753973484039,0,0,0,-1,169382.337586125,3,2,1561841566.284085,1561841239.621676,19,2.442143,0,0,18.59878,0,0,1561841548.131042,169381.051982,0,0.7980957,75.18542,0,182478453,1,1,1,-13.59467,-30.81627,4
1561841567.681852,79,0,0,1561841566.995523,4.634619927969421,-74.15097244090786,2553.577,1.65,324.84375,4,50,-9999,1561841567.675521,12.50762557983398,-19.93042755126953,17.4378662109375,210.73583984375,218.2290496826172,15,169383.978703625,-0.36749267578125,-1.309844970703125,-0.4114532470703125,169383.978703625,0.3751035763765706,0.2901937450254652,-0.02821645806549854,169383.956761625,-61.85063171386719,-46.50088500976562,-545.7189331054688,169383.973637625,-0.5457982305669387,-0.7933142824299132,1.269388354047579,0.3487558960914612,0.1971758157014847,-0.008149915374815464,-0.201958030462265,-0.3750060796737671,-0.2466174960136414,1,0.4428072273731232,-0.4469879865646362,-0.4207784831523895,0.6535051465034485,-0.2115703970193863,-0.9549194574356079,-0.2082470059394836,0,0,0,-1,169382.337586125,3,2,1561841566.284085,1561841239.621676,19,2.442143,0,0,18.59878,0,0,1561841548.131042,169381.051982,0,0.7980957,75.18542,0,182478453,1,1,1,-13.59467,-31.7804,4
1561841567.70176,80,0,0,1561841566.995523,4.634619927969421,-74.15097244090786,2553.577,1.65,324.84375,4,50,-9999,1561841567.700069,12.4141960144043,-19.59225845336914,17.61712646484375,210.1243743896484,217.6175842285156,15,169383.998967625,-0.2938690185546875,-1.2667236328125,-0.3131103515625,169383.998967625,0.6748695213081077,0.3451265025144207,-0.08107274885251919,169383.976872625,-62.06074523925781,-46.17503356933594,-545.4420776367188,169383.993901625,-0.5259282732080868,-0.8058789126097839,1.276315342930322,0.5890576839447021,0.363308310508728,-0.07307086139917374,-0.1212036609649658,-0.3311024904251099,-0.1589829325675964,1,0.4472988247871399,-0.4465760588645935,-0.4176289737224579,0.6527478694915771,-0.209393247961998,-0.9569529294967651,-0.2009871751070023,0,0,0,-1,169382.337586125,3,2,1561841566.284085,1561841239.621676,19,2.442143,0,0,18.59878,0,0,1561841548.131042,169381.051982,0,0.7980957,75.18542,0,182478453,1,1,1,-13.59467,-32.83915,4
1561841567.721939,81,0,0,1561841566.995523,4.634619927969421,-74.15097244090786,2553.577,1.65,324.84375,4,50,-9999,1561841567.700069,12.4141960144043,-19.59225845336914,17.61712646484375,210.1243743896484,217.6175842285156,15,169384.019231625,-0.251983642578125,-1.228073120117188,-0.2514801025390625,169384.019231625,0.8494431928722188,0.2146718228329982,-0.1091493909607886,169383.996983625,-62.08358764648438,-46.01197814941406,-545.1378173828125,169384.014165625,-0.4924270615493056,-0.8319182373450732,1.287853392529913,0.8337100744247437,0.2294698357582092,-0.1085702627897263,-0.05878853797912598,-0.288022518157959,-0.0880134105682373,1,0.4538251757621765,-0.4472512304782867,-0.4135655760765076,0.6503633856773376,-0.2063787132501602,-0.960237979888916,-0.1880180984735489,0,0,0,-1,169382.337586125,3,2,1561841566.284085,1561841239.621676,19,2.442143,0,0,18.59878,0,0,1561841548.131042,169381.051982,0,0.7980957,75.18542,0,182478453,1,1,1,-13.59467,-32.83915,4
1561841567.750903,82,0,0,1561841566.995523,4.634619927969421,-74.15097244090786,2553.577,1.65,324.84375,4,50,-9999,1561841567.726265,12.56394958496094,-19.39256286621094,17.7996826171875,209.502197265625,216.9954071044922,15,169384.039494625,-0.253570556640625,-1.196731567382812,-0.200653076171875,169384.039494625,0.7192716072146718,0.2479336395836519,-0.1347783217111661,169384.017094625,-62.11729431152344,-46.02542114257812,-544.504150390625,169384.034428625,-0.4522770470619148,-0.8662791045588488,1.300718997060748,0.7740352749824524,0.2223394811153412,-0.1332433819770813,-0.04235008358955383,-0.2484995126724243,-0.05469214916229248,1,0.4606688320636749,-0.4487579166889191,-0.4096271097660065,0.6469978094100952,-0.20328588783741,-0.9637502431869507,-0.1728011220693588,0,0,0,-1,169382.337586125,3,2,1561841566.284085,1561841239.621676,19,2.442143,0,0,18.59878,0,0,1561841548.131042,169381.051982,0,0.7980957,75.18542,0,182478453,1,1,1,-13.59467,-34.68533,4
1561841567.762409,83,0,0,1561841566.995523,4.634619927969421,-74.15097244090786,2553.577,1.65,324.84375,4,50,-9999,1561841567.75061,12.27450561523438,-18.90374374389648,18.6240234375,208.9479827880859,216.4411926269531,15,169384.059758625,-0.2555694580078125,-1.161834716796875,-0.159637451171875,169384.059758625,0.4182973860965658,0.2819254287890963,-0.1924565319678842,169384.037206625,-61.96859741210938,-45.68460083007812,-544.497802734375,169384.054692625,-0.4214643759216798,-0.8909586380861064,1.311423732325843,0.4948470592498779,0.2678848803043365,-0.1823046654462814,-0.06104445457458496,-0.2133653163909912,-0.01919829845428467,1,0.4666054546833038,-0.449066698551178,-0.4065268933773041,0.6444799304008484,-0.1994536221027374,-0.9665510654449463,-0.161236897110939,0,0,0,-1,169382.337586125,3,2,1561841566.284085,1561841239.621676,19,2.442143,0,0,18.59878,0,0,1561841548.131042,169381.051982,0,0.7980957,75.18542,0,182478453,1,1,1,-13.59467,-34.68533,4
1561841567.784145,84,0,0,1561841566.995523,4.634619927969421,-74.15097244090786,2553.577,1.65,324.84375,4,50,-9999,1561841567.776791,12.31253433227539,-18.57059097290039,18.93035888671875,208.4371185302734,215.9303283691406,15,169384.080022625,-0.2340240478515625,-1.121246337890625,-0.1237640380859375,169384.080022625,0.1924301666730925,0.2651602970948294,-0.2269820186557805,169384.057317625,-62.17041015625,-45.13151550292969,-544.2470703125,169384.074925625,-0.4099015271745883,-0.8965730410713532,1.319112610368936,0.229762390255928,0.2700428366661072,-0.2235096246004105,-0.05235832929611206,-0.1756399869918823,0.01803433895111084,1,0.4709532260894775,-0.4477364718914032,-0.4049698710441589,0.6432219743728638,-0.1945441365242004,-0.9684944748878479,-0.155470222234726,0,0,0,-1,169382.337586125,3,2,1561841566.284085,1561841239.621676,19,2.442143,0,0,18.59878,0,0,1561841548.131042,169381.051982,0,0.7980957,75.18542,0,182478453,1,1,1,-13.59467,-35.60314,4
1561841567.802927,85,0,0,1561841566.995523,4.634619927969421,-74.15097244090786,2553.577,1.65,324.84375,4,50,-9999,1561841567.801335,12.23287582397461,-18.78236389160156,18.82513427734375,208.0505065917969,215.5437164306641,15,169384.100255625,-0.202728271484375,-1.067718505859375,-0.105499267578125,169384.100255625,0.1633066359403129,0.1784688109744611,-0.2577947924679973,169384.077397625,-62.35208129882812,-45.32485961914062,-544.0567626953125,169384.095189625,-0.4112356706472821,-0.8903834740781124,1.325108762363348,0.1445907801389694,0.2021873444318771,-0.2583475112915039,-0.03100129961967468,-0.1250919103622437,0.0418856143951416,1,0.4741594791412354,-0.4457186162471771,-0.4045986235141754,0.642501175403595,-0.1890609264373779,-0.9699703454971313,-0.1530154049396515,0,0,0,-1,169382.337586125,3,2,1561841566.284085,1561841239.621676,19,2.442143,0,0,18.59878,0,0,1561841548.131042,169381.051982,0,0.7980957,75.18542,0,182478453,1,1,1,-13.59467,-36.32078,4
1561841567.82883,86,0,0,1561841566.995523,4.634619927969421,-74.15097244090786,2553.577,1.65,324.84375,4,50,-9999,1561841567.827585,12.32360076904297,-18.41315841674805,18.96563720703125,207.8429107666016,215.3361206054688,15,169384.120519625,-0.1784515380859375,-1.004638671875,-0.114990234375,169384.120519625,0.3159001737635641,0.04465615147455768,-0.2312316248072199,169384.097508625,-62.05633544921875,-45.03776550292969,-543.86865234375,169384.115453625,-0.4118144938647245,-0.8869824418008379,1.331648577368125,0.2737610042095184,0.07066287845373154,-0.2409424185752869,-0.002462655305862427,-0.06567597389221191,0.04068386554718018,1,0.4771715104579926,-0.4443916380405426,-0.4046870768070221,0.6411333084106445,-0.1836182773113251,-0.9715402126312256,-0.1496468484401703,0,0,0,-1,169382.337586125,3,2,1561841566.284085,1561841239.621676,19,2.442143,0,0,18.59878,0,0,1561841548.131042,169381.051982,0,0.7980957,75.18542,0,182478453,1,1,1,-13.59467,-37.24092,4
1561841567.843408,87,0,0,1561841566.995523,4.634619927969421,-74.15097244090786,2553.577,1.65,324.84375,4,50,-9999,1561841567.827585,12.32360076904297,-18.41315841674805,18.96563720703125,207.8429107666016,215.3361206054688,15,169384.140782625,-0.170318603515625,-0.968353271484375,-0.1217193603515625,169384.140782625,0.3847514100576007,0.04477705898804727,-0.1818124097230555,169384.117619625,-62.15432739257812,-44.95512390136719,-543.7053833007812,169384.135716625,-0.4011761078368979,-0.8967087758973209,1.339476903224436,0.3787023425102234,0.02517155930399895,-0.2005318701267242,0.001077800989151001,-0.006386876106262207,0.02377831935882568,1,0.480494886636734,-0.4444925785064697,-0.4044687449932098,0.6387144327163696,-0.1791173219680786,-0.9733647704124451,-0.1431020200252533,0,0,0,-1,169382.337586125,3,2,1561841566.284085,1561841239.621676,19,2.442143,0,0,18.59878,0,0,1561841548.131042,169381.051982,0,0.7980957,75.18542,0,182478453,1,1,1,-13.59467,-38.10096,4
1561841567.864127,88,0,0,1561841566.995523,4.634619927969421,-74.15097244090786,2553.577,1.65,324.84375,4,50,-9999,1561841567.852355,12.16603851318359,-18.20278930664062,19.0679931640625,207.6990814208984,215.1922912597656,15,169384.161046625,-0.1640472412109375,-0.9448699951171875,-0.113037109375,169384.161046625,0.32580952986364,0.08665260396845322,-0.141127564066024,169384.137730625,-61.88148498535156,-44.81047058105469,-543.8189697265625,169384.155980625,-0.384519239354981,-0.911930693911077,1.346823966697962,0.3420602083206177,0.07212380319833755,-0.1487013846635818,0.009980708360671997,0.01953274011611938,0.01474559307098389,1,0.4838550984859467,-0.4448549449443817,-0.4036599099636078,0.636432945728302,-0.1756148785352707,-0.9750228524208069,-0.135976642370224,0,0,0,-1,169382.337586125,3,2,1561841566.284085,1561841239.621676,19,2.442143,0,0,18.59878,0,0,1561841548.131042,169381.051982,0,0.7980957,75.18542,0,182478453,1,1,1,-13.59467,-38.97511,4
1561841567.884207,89,0,0,1561841566.995523,4.634619927969421,-74.15097244090786,2553.577,1.65,324.84375,4,50,-9999,1561841567.878603,12.2780876159668,-18.01883697509766,19.2933349609375,207.49755859375,214.9907684326172,15,169384.181310625,-0.1522216796875,-0.9387664794921875,-0.0855560302734375,169384.181310625,0.2657677641394765,0.09346710056574797,-0.1230329823555897,169384.157842625,-62.23664855957031,-44.63719177246094,-543.582275390625,169384.176244625,-0.3695857884744284,-0.9247209586924946,1.352884109177422,0.2821595966815948,0.09289965778589249,-0.1263731867074966,0.01762023568153381,0.03299158811569214,0.03434997797012329,1,0.4868386685848236,-0.4448686838150024,-0.4027296006679535,0.6347352862358093,-0.1726190149784088,-0.9763509631156921,-0.130159929394722,0,0,0,-1,169382.337586125,3,2,1561841566.284085,1561841239.621676,19,2.442143,0,0,18.59878,0,0,1561841548.131042,169381.051982,0,0.7980957,75.18542,0,182478453,1,1,1,-13.59467,-38.97511,4
1561841567.90963,90,0,0,1561841566.995523,4.634619927969421,-74.15097244090786,2553.577,1.65,324.84375,4,50,-9999,1561841567.902556,12.44887924194336,-18.00576019287109,19.459228515625,207.3310394287109,214.8242492675781,15,169384.201573625,-0.16864013671875,-0.940032958984375,-0.073150634765625,169384.201573625,0.1609920826369251,0.07250216383242619,-0.1706409815823912,169384.177953625,-61.90304565429688,-44.40452575683594,-543.3619995117188,169384.196507625,-0.3595376002392943,-0.9329617786883529,1.357992789230136,0.1818838715553284,0.06819111853837967,-0.1634182780981064,0.003538191318511963,0.04357421398162842,0.04595744609832764,1,0.4892946183681488,-0.4446462690830231,-0.4021722972393036,0.6333544254302979,-0.169675886631012,-0.9774426221847534,-0.125760942697525,0,0,0,-1,169382.337586125,3,2,1561841566.284085,1561841239.621676,19,2.442143,0,0,18.59878,0,0,1561841548.131042,169381.051982,0,0.7980957,75.18542,0,182478453,1,1,1,-13.59467,-40.3559,4
1561841567.924486,91,0,0,1561841566.995523,4.634619927969421,-74.15097244090786,2553.577,1.65,324.84375,4,50,-9999,1561841567.902556,12.44887924194336,-18.00576019287109,19.459228515625,207.3310394287109,214.8242492675781,15,169384.221837625,-0.1518402099609375,-0.9329071044921875,-0.0814361572265625,169384.221837625,0.09473050418688156,-0.00701263578239665,-0.1526116473186637,169384.198064625,-61.93484497070312,-44.49929809570312,-543.2684326171875,169384.216771625,-0.3584965441063833,-0.9329868206545561,1.362482355298033,0.1045720353722572,0.00842631608247757,-0.1648542582988739,0.01032906770706177,0.03883635997772217,0.05257058143615723,1,0.4911680221557617,-0.4440526068210602,-0.4023962616920471,0.6321775317192078,-0.1661518067121506,-0.9783809781074524,-0.1231425106525421,0,0,0,-1,169382.337586125,3,2,1561841566.284085,1561841239.621676,19,2.442143,0,0,18.59878,0,0,1561841548.131042,169381.051982,0,0.7980957,75.18542,0,182478453,1,1,1,-13.59467,-40.3559,4
1561841567.944726,92,0,0,1561841566.995523,4.634619927969421,-74.15097244090786,2553.577,1.65,324.84375,4,50,-9999,1561841567.928772,12.53259658813477,-17.72323226928711,19.58758544921875,207.2674255371094,214.7606353759766,15,169384.242101625,-0.13800048828125,-0.9377288818359375,-0.09259033203125,169384.242101625,0.09635955982568303,-0.0383889344812742,-0.08346719698860944,169384.218175625,-61.85302734375,-44.09368896484375,-543.2060546875,169384.237004625,-0.3595418776565711,-0.9324561800794133,1.365869451020885,0.09153106808662415,-0.04512425884604454,-0.1075419709086418,0.01454442739486694,0.0455889105796814,0.03339540958404541,1,0.4922838807106018,-0.4438792765140533,-0.4030071198940277,0.6310412287712097,-0.1634244322776794,-0.9790758490562439,-0.1212555393576622,0,0,0,-1,169382.337586125,3,2,1561841566.284085,1561841239.621676,19,2.442143,0,0,18.59878,0,0,1561841548.131042,169381.051982,0,0.7980957,75.18542,0,182478453,1,1,1,-13.59467,-41.03122,4
1561841567.964946,93,0,0,1561841566.995523,4.634619927969421,-74.15097244090786,2553.577,1.65,324.84375,4,50,-9999,1561841567.953698,12.52452850341797,-17.69154739379883,19.56707763671875,207.3047790527344,214.7979888916016,15,169384.262334625,-0.135528564453125,-0.9327239990234375,-0.1091156005859375,169384.262334625,0.08759855878764936,0.01623782579843113,0.01948208863836566,169384.238286625,-61.41558837890625,-44.15776062011719,-543.36669921875,169384.257268625,-0.3554253650407635,-0.9372166922485961,1.367991257585411,0.09041893482208252,-0.0123524647206068,-0.0100031616166234,0.02743756771087646,0.04281413555145264,0.01670694351196289,1,0.4930147528648376,-0.4441997706890106,-0.4031402170658112,0.6301594972610474,-0.1623252630233765,-0.9795054197311401,-0.1192460358142853,0,0,0,-1,169382.337586125,3,2,1561841566.284085,1561841239.621676,19,2.442143,0,0,18.59878,0,0,1561841548.131042,169381.051982,0,0.7980957,75.18542,0,182478453,1,1,1,-13.59467,-41.69888,4
1561841567.99014,94,0,0,1561841566.995523,4.634619927969421,-74.15097244090786,2553.577,1.65,324.84375,4,50,-9999,1561841567.979478,12.77872085571289,-17.57029342651367,19.55938720703125,207.2600708007812,214.7532806396484,15,169384.282597625,-0.149688720703125,-0.9290313720703125,-0.110504150390625,169384.282597625,0.1000807948168508,0.09262900377070003,0.06254859925825504,169384.258397625,-61.7464599609375,-44.22186279296875,-543.506103515625,169384.277531625,-0.3463110305154875,-0.9455117042843293,1.368519948541845,0.08994222432374954,0.07152432948350906,0.05892237648367882,0.02275216579437256,0.04916137456893921,0.006493091583251953,1,0.4935623407363892,-0.4445222914218903,-0.4023802876472473,0.6299890875816345,-0.1628888696432114,-0.9796118140220642,-0.1175922974944115,0,0,0,-1,169382.337586125,3,2,1561841566.284085,1561841239.621676,19,2.442143,0,0,18.59878,0,0,1561841548.131042,169381.051982,0,0.7980957,75.18542,0,182478453,1,1,1,-13.59467,-42.01922,4
1561841568.005518,95,0,0,1561841566.995523,4.634619927969421,-74.15097244090786,2553.577,1.65,324.84375,4,50,-9999,1561841568.003862,12.52421188354492,-17.54343795776367,19.62225341796875,207.0651245117188,214.5583343505859,15,169384.302861625,-0.1739959716796875,-0.9474945068359375,-0.099761962890625,169384.302861625,0.1275297298561885,0.1941998372174501,0.02988386322399715,169384.278508625,-61.87886047363281,-44.28323364257812,-543.222412109375,169384.297795625,-0.3341095930039232,-0.9552541949891591,1.368936067957336,0.1254456341266632,0.1543861925601959,0.0384538546204567,-0.0003535151481628418,0.04645252227783203,0.01037180423736572,1,0.4944690763950348,-0.4445426762104034,-0.4009958803653717,0.630146324634552,-0.1636937409639359,-0.9796953201293945,-0.115764282643795,0,0,0,-1,169382.337586125,3,2,1561841566.284085,1561841239.621676,19,2.442143,0,0,18.59878,0,0,1561841548.131042,169381.051982,0,0.7980957,75.18542,0,182478453,1,1,1,-13.59467,-42.59631,4
1561841568.025723,96,0,0,1561841566.995523,4.634619927969421,-74.15097244090786,2553.577,1.65,324.84375,4,50,-9999,1561841568.003862,12.52421188354492,-17.54343795776367,19.62225341796875,207.0651245117188,214.5583343505859,15,169384.323125625,-0.193695068359375,-0.977813720703125,-0.10198974609375,169384.323125625,0.02159583959556155,0.3495281751641037,-0.07044753505143006,169384.298619625,-61.94204711914062,-44.05880737304688,-543.113525390625,169384.318059625,-0.3249545908087488,-0.9595807088813084,1.370061509578362,0.05413123592734337,0.3093179762363434,-0.03743585199117661,-0.01597046852111816,0.01825040578842163,0.0191919207572937,1,0.4960445761680603,-0.4435411691665649,-0.3993279039859772,0.6306727528572083,-0.1632897853851318,-0.9799203276634216,-0.1144220158457756,0,0,0,-1,169382.337586125,3,2,1561841566.284085,1561841239.621676,19,2.442143,0,0,18.59878,0,0,1561841548.131042,169381.051982,0,0.7980957,75.18542,0,182478453,1,1,1,-13.59467,-43.22282,4
1561841568.046255,97,0,0,1561841567.995509,4.634648887444879,-74.15098744451454,2553.718,1.49,322.03125,4,30,-9999,1561841568.030737,12.47574234008789,-17.59253692626953,19.5858154296875,206.6473846435547,214.1405944824219,15,169384.343388625,-0.220672607421875,-0.99560546875,-0.0952301025390625,169384.343388625,-0.07347794605583122,0.4209669387732612,-0.3685740380159143,169384.318730625,-62.15031433105469,-44.16270446777344,-542.9361572265625,169384.338322625,-0.3341594851747214,-0.9431596201789629,1.372195596592849,-0.06755232065916061,0.4066586494445801,-0.2771467268466949,-0.0478842556476593,-0.01173704862594604,0.01176440715789795,1,0.4980603158473969,-0.4404610991477966,-0.3984264731407166,0.6318119168281555,-0.1596963107585907,-0.9803436398506165,-0.1158598810434341,0,0,0,-1,169382.337586125,3,2,1561841566.284085,1561841239.621676,19,2.442143,0,0,18.59878,0,0,1561841548.131042,169381.051982,0,0.7980957,75.18542,0,182478453,1,1,1,-13.59467,-43.22282,4
1561841568.070953,98,0,0,1561841567.995509,4.634648887444879,-74.15098744451454,2553.718,1.49,322.03125,4,30,-9999,1561841568.054532,12.08279037475586,-17.48585510253906,20.0574951171875,206.0841369628906,213.5773468017578,15,169384.363652625,-0.2088775634765625,-1.010421752929688,-0.099029541015625,169384.363652625,0.02656370029299536,0.3242768806562993,-0.6749550087790992,169384.338841625,-62.24540710449219,-44.19068908691406,-542.9462280273438,169384.358586625,-0.368743501267061,-0.9010491323850935,1.378986815705743,-0.01846600137650967,0.3674680888652802,-0.6359403133392334,-0.08145737648010254,-0.02287101745605469,0.02676069736480713,1,0.5013720989227295,-0.4352631866931915,-0.3996443450450897,0.6320255398750305,-0.1494538486003876,-0.9816609025001526,-0.1183439567685127,0,0,0,-1,169382.337586125,3,2,1561841566.284085,1561841239.621676,19,2.442143,0,0,18.59878,0,0,1561841548.131042,169381.051982,0,0.7980957,75.18542,0,182478453,1,1,1,-13.59467,-44.08504,4
1561841568.086614,99,0,0,1561841567.995509,4.634648887444879,-74.15098744451454,2553.718,1.49,322.03125,4,30,-9999,1561841568.080737,12.23417663574219,-17.2645263671875,20.05230712890625,205.6539611816406,213.1471710205078,15,169384.383916625,-0.1323394775390625,-0.9989776611328125,-0.11016845703125,169384.383916625,0.2004910226605443,0.06348230353643682,-0.6133835233247943,169384.358922625,-62.15672302246094,-44.03129577636719,-542.927001953125,169384.378850625,-0.4095274575171964,-0.8557949899906739,1.390430469090122,0.1665014624595642,0.1259204596281052,-0.6536902785301208,-0.03509172797203064,-0.02234065532684326,0.01504158973693848,1,0.505829930305481,-0.4305002987384796,-0.4023160636425018,0.6300376057624817,-0.1354557424783707,-0.9837781190872192,-0.1176111474633217,0,0,0,-1,169382.337586125,3,2,1561841566.284085,1561841239.621676,19,2.442143,0,0,18.59878,0,0,1561841548.131042,169381.051982,0,0.7980957,75.18542,0,182478453,1,1,1,-13.59467,-44.80441,4
1561841568.106781,100,0,0,1561841567.995509,4.634648887444879,-74.15098744451454,2553.718,1.49,322.03125,4,30,-9999,1561841568.080737,12.23417663574219,-17.2645263671875,20.05230712890625,205.6539611816406,213.1471710205078,15,169384.404179625,-0.0879058837890625,-0.96759033203125,-0.1204071044921875,169384.383916625,0.2004910226605443,0.06348230353643682,-0.6133835233247943,169384.379033625,-62.07774353027344,-43.82392883300781,-542.9452514648438,169384.399083625,-0.4349161914998943,-0.8306892865763179,1.401817691010738,0.2248001843690872,-0.08590364456176758,-0.4843238890171051,0.02249622344970703,0.001824617385864258,-0.002737343311309814,1,0.5096505284309387,-0.4284274280071259,-0.4049646258354187,0.6266658306121826,-0.1241807863116264,-0.985757052898407,-0.1134125590324402,0,0,0,-1,169382.337586125,3,2,1561841566.284085,1561841239.621676,19,2.442143,0,0,18.59878,0,0,1561841548.131042,169381.99565,0,1.04126,75.18314,0,182478453,1,1,1,-13.59467,-45.42412,4
1561841568.127071,101,0,0,1561841567.995509,4.634648887444879,-74.15098744451454,2553.718,1.49,322.03125,4,30,-9999,1561841568.105643,12.34713745117188,-17.23782348632812,20.07928466796875,205.62451171875,213.1177215576172,15,169384.424443625,-0.0859375,-0.9651336669921875,-0.1150360107421875,169384.424443625,0.08021441203318666,-0.06443704678723022,-0.2869204537296489,169384.399144625,-61.66996765136719,-43.57405090332031,-542.6627197265625,169384.419347625,-0.4508654372292412,-0.8170705557168731,1.409883789754094,0.1106192767620087,-0.09156126528978348,-0.3147785365581512,0.0330062210559845,0.02406883239746094,-0.01117157936096191,1,0.5119814872741699,-0.4278448522090912,-0.4071495831012726,0.623741090297699,-0.1168227344751358,-0.9870814681053162,-0.1096474751830101,0,0,0,-1,169382.337586125,3,2,1561841566.284085,1561841239.621676,19,2.442143,0,0,18.59878,0,0,1561841548.131042,169381.99565,0,1.04126,75.18314,0,182478453,1,1,1,-13.59467,-46.08773,4
1561841568.151159,102,0,0,1561841567.995509,4.634648887444879,-74.15098744451454,2553.718,1.49,322.03125,4,30,-9999,1561841568.131852,12.79574584960938,-16.77069091796875,20.17779541015625,205.7405700683594,213.2337799072266,15,169384.444676625,-0.080596923828125,-0.981964111328125,-0.0962066650390625,169384.444676625,0.01669029686763559,-0.06447619525525439,-0.2177187454361579,169384.419255625,-61.54598999023438,-43.44290161132812,-542.6845092773438,169384.439610625,-0.4684038861746591,-0.8010641362291444,1.414414948971904,0.0114575419574976,-0.05328844860196114,-0.2417967170476913,0.02677199244499207,0.01482069492340088,0.002767980098724365,1,0.51317298412323,-0.4271519780158997,-0.408862829208374,0.6221140027046204,-0.111839734017849,-0.9877973198890686,-0.1083893552422523,0,0,0,-1,169382.337586125,3,2,1561841566.284085,1561841239.621676,19,2.442143,0,0,18.59878,0,0,1561841548.131042,169381.99565,0,1.04126,75.18314,0,182478453,1,1,1,-13.59467,-46.69933,4
1561841568.167665,103,0,0,1561841567.995509,4.634648887444879,-74.15098744451454,2553.718,1.49,322.03125,4,30,-9999,1561841568.15579,12.90032577514648,-16.70328140258789,20.19818115234375,205.83984375,213.3330535888672,15,169384.464940625,-0.06121826171875,-0.9832611083984375,-0.08563232421875,169384.464940625,0.06654866721555405,-0.1575118637244095,-0.100322876159939,169384.439366625,-61.75813293457031,-43.11119079589844,-542.748779296875,169384.459874625,-0.4826434703068118,-0.7889516213542969,1.417458452650108,0.0495372861623764,-0.1420089900493622,-0.1397513002157211,0.03708082437515259,0.003296732902526855,0.01884198188781738,1,0.5137395262718201,-0.4269225895404816,-0.4103976786136627,0.6207919120788574,-0.1083851605653763,-0.9882667660713196,-0.1076176017522812,0,0,0,-1,169382.337586125,3,2,1561841566.284085,1561841239.621676,19,2.442143,0,0,18.59878,0,0,1561841548.131042,169381.99565,0,1.04126,75.18314,0,182478453,1,1,1,-14.15195,-47.34755,4
1561841568.187775,104,0,0,1561841567.995509,4.634648887444879,-74.15098744451454,2553.718,1.49,322.03125,4,30,-9999,1561841568.181985,13.00037002563477,-16.69550323486328,20.1201171875,206.0642700195312,213.5574798583984,15,169384.485204625,-0.05462646484375,-0.9629364013671875,-0.1011199951171875,169384.485204625,0.06096854578351103,-0.1587795284032872,0.05678844813652265,169384.459477625,-61.27238464355469,-43.13127136230469,-542.7905883789062,169384.480138625,-0.4817909979170774,-0.7932868181739716,1.419314179679597,0.07404954731464386,-0.1806740909814835,0.0189302172511816,0.05178740620613098,0.01383233070373535,0.01592427492141724,1,0.5137177109718323,-0.4279770255088806,-0.4113775193691254,0.6194338202476501,-0.1075430512428284,-0.9885485172271729,-0.1058595553040504,0,0,0,-1,169382.337586125,3,2,1561841566.284085,1561841239.621676,19,2.442143,0,0,18.59878,0,0,1561841548.131042,169381.99565,0,1.04126,75.18314,0,182478453,1,1,1,-14.15195,-47.34755,4
1561841568.208555,105,0,0,1561841567.995509,4.634648887444879,-74.15098744451454,2553.718,1.49,322.03125,4,30,-9999,1561841568.206468,13.02507781982422,-16.65346527099609,20.1072998046875,206.2537384033203,213.7469482421875,15,169384.505467625,-0.0869598388671875,-0.955352783203125,-0.11077880859375,169384.505467625,-0.02239665213534838,-0.06453079005760101,0.08506083258491286,169384.479588625,-61.4107666015625,-43.58009338378906,-542.9085083007812,169384.500401625,-0.4728740891126234,-0.8049386311832252,1.418849344069327,-0.008426150307059288,-0.09495972096920013,0.08642590790987015,0.03977999091148376,0.03575003147125244,-0.006669402122497559,1,0.5130597949028015,-0.4293141067028046,-0.4115740656852722,0.6189231276512146,-0.1091006472706795,-0.9884782433509827,-0.1049180924892426,0,0,0,-1,169382.337586125,3,2,1561841566.284085,1561841239.621676,19,2.442143,0,0,18.59878,0,0,1561841548.131042,169381.99565,0,1.04126,75.18314,0,182478453,1,1,1,-14.70923,-45.50135,4
1561841568.228514,106,0,0,1561841567.995509,4.634648887444879,-74.15098744451454,2553.718,1.49,322.03125,4,30,-9999,1561841568.206468,13.02507781982422,-16.65346527099609,20.1072998046875,206.2537384033203,213.7469482421875,15,169384.525731625,-0.099090576171875,-0.9679412841796875,-0.108062744140625,169384.525731625,-0.02156840903633373,-0.05001816001332321,0.08346400119530134,169384.499699625,-61.60476684570312,-43.10354614257812,-542.5535278320312,169384.520665625,-0.4687430049269566,-0.8102965568815552,1.417289768052419,-0.03313123062252998,-0.05308551341295242,0.07963085174560547,0.0160510241985321,0.02425169944763184,-0.001936197280883789,1,0.5122689604759216,-0.4299807250499725,-0.4115518033504486,0.6191301345825195,-0.1107776165008545,-0.9882409572601318,-0.1053941771388054,0,0,0,-1,169382.337586125,3,2,1561841566.284085,1561841239.621676,19,2.442143,0,0,18.59878,0,0,1561841548.131042,169381.99565,0,1.04126,75.18314,0,182478453,1,1,1,-15.26651,-46.18455,4
1561841568.248604,107,0,0,1561841567.995509,4.634648887444879,-74.15098744451454,2553.718,1.49,322.03125,4,30,-9999,1561841568.23338,13.13374328613281,-16.85355758666992,19.94500732421875,206.3413543701172,213.8345642089844,15,169384.545995625,-0.1024017333984375,-0.9733428955078125,-0.1040802001953125,169384.545995625,0.0482162652197756,-0.05432529044430837,0.08986437624308878,169384.519811625,-61.39329528808594,-43.30572509765625,-542.6696166992188,169384.540929625,-0.4620929081766791,-0.8180092670122311,1.416107783917077,0.03114016726613045,-0.05929014831781387,0.0863950178027153,0.0103132426738739,0.01921796798706055,-0.001384079456329346,1,0.5116769075393677,-0.4307189285755157,-0.4113754332065582,0.619223952293396,-0.1124403327703476,-0.9880595803260803,-0.1053358912467957,0,0,0,-1,169382.337586125,3,2,1561841566.284085,1561841239.621676,19,2.442143,0,0,18.59878,0,0,1561841548.131042,169381.99565,0,1.04126,75.18314,0,182478453,1,1,1,-15.82379,-46.84666,4
1561841568.268996,108,0,0,1561841567.995509,4.634648887444879,-74.15098744451454,2553.718,1.49,322.03125,4,30,-9999,1561841568.25721,12.95907211303711,-16.6811408996582,20.0433349609375,206.4229888916016,213.9161987304688,15,169384.566258625,-0.1103515625,-0.9803619384765625,-0.1023712158203125,169384.566258625,0.07904128957300675,-0.07718266944824045,0.06829383667788298,169384.539922625,-61.32356262207031,-42.90509033203125,-542.89208984375,169384.561192625,-0.4497943115698778,-0.8314434387439671,1.415757793434924,0.07218533754348755,-0.07387148588895798,0.07124775648117065,0.009760648012161255,0.01057326793670654,0.001539885997772217,1,0.5114378929138184,-0.4317488372325897,-0.4109765291213989,0.6189689040184021,-0.114100269973278,-0.9880055785179138,-0.1040484458208084,0,0,0,-1,169382.337586125,3,2,1561841566.284085,1561841239.621676,19,2.442143,0,0,18.59878,0,0,1561841548.131042,169381.99565,0,1.04126,75.18314,0,182478453,1,1,1,-16.38107,-47.45536,4
1561841568.289205,109,0,0,1561841567.995509,4.634648887444879,-74.15098744451454,2553.718,1.49,322.03125,4,30,-9999,1561841568.283472,13.28174591064453,-16.54865646362305,19.923095703125,206.5314178466797,214.0246276855469,15,169384.586522625,-0.113494873046875,-0.983734130859375,-0.102783203125,169384.586522625,0.04026726199810709,-0.0722204013890958,0.08165305165404746,169384.560033625,-60.94419860839844,-43.1243896484375,-543.045654296875,169384.581426625,-0.437717882403582,-0.8450995528499706,1.415867306385648,0.05616802349686623,-0.08917959779500961,0.06881974637508392,0.002377480268478394,0.003021836280822754,-6.902217864990234e-05,1,0.5112831592559814,-0.4328798949718475,-0.41074138879776,0.6184626817703247,-0.1154298111796379,-0.98802250623703,-0.1024090573191643,0,0,0,-1,169382.337586125,3,2,1561841566.284085,1561841239.621676,19,2.442143,0,0,18.59878,0,0,1561841548.131042,169381.99565,0,1.04126,75.18314,0,182478453,1,1,1,-16.93835,-42.04093,4
1561841568.309928,110,0,0,1561841567.995509,4.634648887444879,-74.15098744451454,2553.718,1.49,322.03125,4,30,-9999,1561841568.307863,13.15564346313477,-16.6505012512207,19.987060546875,206.6265716552734,214.1197814941406,15,169384.606755625,-0.12335205078125,-0.9825592041015625,-0.1058502197265625,169384.606755625,-0.05540413700189947,-0.03481044492453473,0.09815852514203155,169384.580144625,-61.42755126953125,-43.31697082519531,-543.1170043945312,169384.601689625,-0.4298490899270195,-0.8542591604339375,1.414785981021618,-0.03640292212367058,-0.04656130075454712,0.09099482744932175,-0.00117957592010498,0.006531834602355957,-0.004061341285705566,1,0.5107107162475586,-0.4337630867958069,-0.4105524718761444,0.6184421181678772,-0.117167629301548,-0.987855076789856,-0.1020483002066612,0,0,0,-1,169382.337586125,3,2,1561841566.284085,1561841239.621676,19,2.442143,0,0,18.59878,0,0,1561841548.131042,169381.99565,0,1.04126,75.18314,0,182478453,1,1,1,-17.49562,-42.82328,4
1561841568.329681,111,0,0,1561841567.995509,4.634648887444879,-74.15098744451454,2553.718,1.49,322.03125,4,30,-9999,1561841568.307863,13.15564346313477,-16.6505012512207,19.987060546875,206.6265716552734,214.1197814941406,15,169384.627019625,-0.1270904541015625,-0.982421875,-0.115386962890625,169384.627019625,-0.07800558622507493,-0.01982829958007596,0.1104567367399085,169384.600255625,-61.42143249511719,-43.26759338378906,-542.8760986328125,169384.621953625,-0.4283789330929484,-0.8564916885760278,1.412370578444235,-0.08585543185472488,-0.03436508774757385,0.1081642284989357,-0.006945908069610596,0.003223896026611328,-0.005246758460998535,1,0.5096856355667114,-0.4342183172702789,-0.410446435213089,0.6190385818481445,-0.1191984787583351,-0.9874768853187561,-0.1033500134944916,0,0,0,-1,169382.337586125,3,2,1561841566.284085,1561841239.621676,19,2.442143,0,0,18.59878,0,0,1561841548.131042,169381.99565,0,1.04126,75.18314,0,182478453,1,1,1,-18.0529,-43.61385,4
1561841568.35098,112,0,0,1561841567.995509,4.634648887444879,-74.15098744451454,2553.718,1.49,322.03125,4,30,-9999,1561841568.334006,13.01647186279297,-16.96824645996094,19.74462890625,206.691162109375,214.1843719482422,15,169384.647282625,-0.137298583984375,-0.9805755615234375,-0.115020751953125,169384.647282625,0.002878344506157641,-0.01842774316280329,0.04893318818522493,169384.620366625,-61.22416687011719,-43.57037353515625,-543.1646728515625,169384.642217625,-0.4269173237247157,-0.8583828410547004,1.410097846346058,-0.02744271792471409,-0.0204378217458725,0.06606524437665939,-0.009828656911849976,0.004754960536956787,-0.01194024085998535,1,0.5087812542915344,-0.4345642626285553,-0.4102661907672882,0.6196589469909668,-0.1210917755961418,-0.987115740776062,-0.1045910716056824,0,0,0,-1,169382.337586125,3,2,1561841566.284085,1561841239.621676,19,2.442143,0,0,18.59878,0,0,1561841548.131042,169381.99565,0,1.04126,75.18314,0,182478453,1,1,1,-18.61018,-44.3316,4
1561841568.370221,113,0,0,1561841567.995509,4.634648887444879,-74.15098744451454,2553.718,1.49,322.03125,4,30,-9999,1561841568.358858,13.1275634765625,-16.7109260559082,19.7081298828125,206.7291412353516,214.2223510742188,15,169384.667546625,-0.13153076171875,-0.980072021484375,-0.1112518310546875,169384.667546625,0.09035013682591923,-0.0701902736901284,0.003474093642008366,169384.640477625,-61.17132568359375,-43.31906127929688,-543.155029296875,169384.662480625,-0.4219284509444963,-0.8640064715529093,1.410010037017389,0.07351265102624893,-0.06016499549150467,0.002748319646343589,-0.01453229784965515,0.00716698169708252,-0.009347081184387207,1,0.5086802244186401,-0.4350426197052002,-0.4101429879665375,0.6194877624511719,-0.1217439025640488,-0.9871017336845398,-0.1039646938443184,0,0,0,-1,169382.337586125,3,2,1561841566.284085,1561841239.621676,19,2.442143,0,0,18.59878,0,0,1561841548.131042,169381.99565,0,1.04126,75.18314,0,182478453,1,1,1,-18.61018,-44.3316,4
1561841568.390634,114,0,0,1561841567.995509,4.634648887444879,-74.15098744451454,2553.718,1.49,322.03125,4,30,-9999,1561841568.384784,13.08706665039062,-16.83151245117188,19.94964599609375,206.8198547363281,214.3130645751953,15,169384.687810625,-0.117889404296875,-0.9816131591796875,-0.108001708984375,169384.687810625,0.06814736281792862,-0.06713323107482644,0.03671487142005039,169384.660588625,-61.21240234375,-43.590087890625,-543.0349731445312,169384.682744625,-0.4132717085332359,-0.8741465905459916,1.411066022297746,0.07956388592720032,-0.08089982718229294,0.01915418915450573,-0.0053730309009552,0.008067965507507324,-0.006357908248901367,1,0.5088723301887512,-0.4359140396118164,-0.4101441502571106,0.6187161207199097,-0.1219920665025711,-0.9872702360153198,-0.1020558029413223,0,0,0,-1,169382.337586125,3,2,1561841566.284085,1561841239.621676,19,2.442143,0,0,18.59878,0,0,1561841548.131042,169381.99565,0,1.04126,75.18314,0,182478453,1,1,1,-19.16746,-44.38626,4
1561841568.410712,115,0,0,1561841567.995509,4.634648887444879,-74.15098744451454,2553.718,1.49,322.03125,4,30,-9999,1561841568.409028,13.10839462280273,-16.63088226318359,20.091064453125,206.8907012939453,214.3839111328125,15,169384.708073625,-0.118865966796875,-0.9803619384765625,-0.1089019775390625,169384.708073625,-0.0001470064921723739,-0.006579339473040758,0.09532918279993137,169384.680699625,-61.08280944824219,-43.33262634277344,-542.963623046875,169384.703008625,-0.4044184038204897,-0.8840696731938087,1.410828472398541,0.009111297316849232,-0.02746270783245564,0.08521922677755356,0.01079919934272766,0.004642665386199951,-0.009072661399841309,1,0.5086826682090759,-0.4367464184761047,-0.4099066555500031,0.6184424161911011,-0.1231801956892014,-0.9872323870658875,-0.1009890213608742,0,0,0,-1,169382.337586125,3,2,1561841566.284085,1561841239.621676,19,2.442143,0,0,18.59878,0,0,1561841548.131042,169381.99565,0,1.04126,75.18314,0,182478453,1,1,1,-19.72474,-44.99956,4
1561841568.430958,116,0,0,1561841567.995509,4.634648887444879,-74.15098744451454,2553.718,1.49,322.03125,4,30,-9999,1561841568.409028,13.10839462280273,-16.63088226318359,20.091064453125,206.8907012939453,214.3839111328125,15,169384.728337625,-0.1266937255859375,-0.992523193359375,-0.100616455078125,169384.728337625,-0.009370065979334792,0.0259836638075761,0.08709096028388026,169384.700780625,-61.44244384765625,-43.57168579101562,-542.88671875,169384.723271625,-0.3980271485117641,-0.8903440542263721,1.409268706333583,-0.01162860170006752,0.02348995395004749,0.08873353898525238,0.003243714570999146,0.002119541168212891,-0.004392147064208984,1,0.5082249045372009,-0.4371678829193115,-0.4093655347824097,0.6188793778419495,-0.1250088512897491,-0.9869827628135681,-0.1011833772063255,0,0,0,-1,169382.337586125,3,2,1561841566.284085,1561841239.621676,19,2.442143,0,0,18.59878,0,0,1561841548.131042,169381.99565,0,1.04126,75.18314,0,182478453,1,1,1,-20.28202,-45.00068,4
1561841568.451309,117,0,0,1561841567.995509,4.634648887444879,-74.15098744451454,2553.718,1.49,322.03125,4,30,-9999,1561841568.436637,13.16248321533203,-16.71344757080078,19.90081787109375,206.8785705566406,214.3717803955078,15,169384.748601625,-0.137847900390625,-1.000518798828125,-0.0942230224609375,169384.748601625,-0.01226359050370588,0.004904211147380917,0.03549540995690311,169384.720891625,-61.33992004394531,-43.29609680175781,-542.9989624023438,169384.743504625,-0.3936717949114686,-0.8943744247572701,1.407975565574531,-0.01313941366970539,0.002062160987406969,0.04463664814829826,-0.00904199481010437,-0.01000642776489258,0.003531038761138916,1,0.5078814029693604,-0.4373989999294281,-0.4089072644710541,0.6193007826805115,-0.1264102905988693,-0.9867739677429199,-0.1014771908521652,0,0,0,-1,169382.337586125,3,2,1561841566.284085,1561841239.621676,19,2.442143,0,0,18.59878,0,0,1561841548.131042,169381.99565,0,1.04126,75.18314,0,182478453,1,1,1,-20.8393,-45.73561,4
1561841568.471664,118,0,0,1561841567.995509,4.634648887444879,-74.15098744451454,2553.718,1.49,322.03125,4,30,-9999,1561841568.459646,13.13348770141602,-16.78606414794922,20.19232177734375,206.8798675537109,214.3730773925781,15,169384.768864625,-0.1449432373046875,-0.9985198974609375,-0.105255126953125,169384.768864625,-0.01955958662608696,-0.01007074366213464,0.02296017702200914,169384.741002625,-61.18739318847656,-43.461669921875,-542.9410400390625,169384.763768625,-0.3931429009538555,-0.8950158788317503,1.407259074586952,-0.02097017131745815,-0.01547608710825443,0.02313961088657379,-0.01199623942375183,-0.01613479852676392,0.005478739738464355,1,0.5076048970222473,-0.4375137388706207,-0.4088315069675446,0.6194963455200195,-0.1270265728235245,-0.9866575598716736,-0.1018379926681519,0,0,0,-1,169382.337586125,3,2,1561841566.284085,1561841239.621676,19,2.442143,0,0,18.59878,0,0,1561841548.131042,169381.99565,0,1.04126,75.18314,0,182478453,1,1,1,-21.39658,-45.9234,4
1561841568.491762,119,0,0,1561841567.995509,4.634648887444879,-74.15098744451454,2553.718,1.49,322.03125,4,30,-9999,1561841568.485995,13.0458984375,-16.68598175048828,20.044677734375,206.8984069824219,214.3916168212891,15,169384.789098625,-0.1387481689453125,-0.9929962158203125,-0.115936279296875,169384.789098625,-0.001266865730550694,0.02183871988697678,0.01116397128961217,169384.761113625,-61.288818359375,-43.32933044433594,-543.01171875,169384.784032625,-0.3944330215226334,-0.8939235472421551,1.406804174921707,-0.01442971453070641,0.01013553328812122,0.004313459619879723,-0.01769307255744934,-0.01018178462982178,-0.01070272922515869,1,0.5073801279067993,-0.4375344216823578,-0.4089061915874481,0.6196166276931763,-0.127265453338623,-0.986583411693573,-0.1022580713033676,0,0,0,-1,169382.337586125,3,2,1561841566.284085,1561841239.621676,19,2.442143,0,0,18.59878,0,0,1561841548.131042,169381.99565,0,1.04126,75.18314,0,182478453,1,1,1,-21.95386,-45.77136,4
1561841568.511992,120,0,0,1561841567.995509,4.634648887444879,-74.15098744451454,2553.718,1.49,322.03125,4,30,-9999,1561841568.51031,12.99347305297852,-16.61141204833984,19.95263671875,206.855224609375,214.3484344482422,15,169384.809361625,-0.1279449462890625,-0.98858642578125,-0.1207275390625,169384.809361625,0.04627801657841593,0.04715179973207093,0.04764714769482566,169384.781224625,-61.38032531738281,-43.41670227050781,-543.029541015625,169384.804295625,-0.3925205052938282,-0.8952380478811708,1.406636345566264,0.03008316084742546,0.04099011793732643,0.03622052818536758,-0.0081215500831604,-0.002701818943023682,-0.01799917221069336,1,0.5074686408042908,-0.4374682009220123,-0.4086294770240784,0.6197734475135803,-0.1275290548801422,-0.9865559935569763,-0.1021943017840385,0,0,0,-1,169382.337586125,3,2,1561841566.284085,1561841239.621676,19,2.442143,0,0,18.59878,0,0,1561841548.131042,169381.99565,0,1.04126,75.18314,0,182478453,1,1,1,-21.95386,-45.77136,4
1561841568.532239,121,0,0,1561841567.995509,4.634648887444879,-74.15098744451454,2553.718,1.49,322.03125,4,30,-9999,1561841568.51031,12.99347305297852,-16.61141204833984,19.95263671875,206.855224609375,214.3484344482422,15,169384.829625625,-0.1284637451171875,-0.989593505859375,-0.1073455810546875,169384.829625625,0.113364109701948,0.02523371764460979,0.06888585738820759,169384.801335625,-61.3399658203125,-43.22673034667969,-542.8727416992188,169384.824559625,-0.3823639431957279,-0.904478570315206,1.406614796713302,0.09697989374399185,0.02854276821017265,0.06526949256658554,0.005788087844848633,-0.00333094596862793,-0.01443910598754883,1,0.5077970623970032,-0.4377557039260864,-0.407825380563736,0.6198309659957886,-0.1284840255975723,-0.9865524768829346,-0.1010241732001305,0,0,0,-1,169382.337586125,3,2,1561841566.284085,1561841239.621676,19,2.442143,0,0,18.59878,0,0,1561841548.131042,169381.99565,0,1.04126,75.18314,0,182478453,1,1,1,-22.51114,-45.15607,4
1561841568.552628,122,0,0,1561841567.995509,4.634648887444879,-74.15098744451454,2553.718,1.49,322.03125,4,30,-9999,1561841568.537338,12.89636993408203,-16.77066040039062,20.062255859375,206.7947082519531,214.2879180908203,15,169384.849889625,-0.14508056640625,-0.9922332763671875,-0.09124755859375,169384.849889625,0.1217767692693993,0.01519573086388313,0.01139406840779501,169384.821446625,-61.61213684082031,-43.13679504394531,-542.9185791015625,169384.844823625,-0.3666725603932859,-0.919639911236826,1.407195399038547,0.1217696666717529,0.01090225763618946,0.02659319713711739,-0.007401823997497559,-0.002046048641204834,-0.001318693161010742,1,0.5083568096160889,-0.4384226500988007,-0.4068792462348938,0.6195225715637207,-0.1295457780361176,-0.9866471886634827,-0.09871786832809448,0,0,0,-1,169382.337586125,3,2,1561841566.284085,1561841239.621676,19,2.442143,0,0,18.59878,0,0,1561841548.131042,169381.99565,0,1.04126,75.18314,0,182478453,1,1,1,-23.06841,-45.59722,4
