loggingTime,loggingSample,identifierForVendor,deviceID,locationTimestamp_since1970,locationLatitude,locationLongitude,locationAltitude,locationSpeed,locationCourse,locationVerticalAccuracy,locationHorizontalAccuracy,locationFloor,locationHeadingTimestamp_since1970,locationHeadingX,locationHeadingY,locationHeadingZ,locationTrueHeading,locationMagneticHeading,locationHeadingAccuracy,accelerometerTimestamp_sinceReboot,accelerometerAccelerationX,accelerometerAccelerationY,accelerometerAccelerationZ,gyroTimestamp_sinceReboot,gyroRotationX,gyroRotationY,gyroRotationZ,magnetometerTimestamp_sinceReboot,magnetometerX,magnetometerY,magnetometerZ,motionTimestamp_sinceReboot,motionYaw,motionRoll,motionPitch,motionRotationRateX,motionRotationRateY,motionRotationRateZ,motionUserAccelerationX,motionUserAccelerationY,motionUserAccelerationZ,motionAttitudeReferenceFrame,motionQuaternionX,motionQuaternionY,motionQuaternionZ,motionQuaternionW,motionGravityX,motionGravityY,motionGravityZ,motionMagneticFieldX,motionMagneticFieldY,motionMagneticFieldZ,motionMagneticFieldCalibrationAccuracy,activityTimestamp_sinceReboot,activity,activityActivityConfidence,activityActivityStartDate,pedometerStartDate,pedometerNumberofSteps,pedometerAverageActivePace,pedometerCurrentPace,pedometerCurrentCadence,pedometerDistance,pedometerFloorAscended,pedometerFloorDescended,pedometerEndDate,altimeterTimestamp_sinceReboot,altimeterReset,altimeterRelativeAltitude,altimeterPressure,IP_en0,IP_pdp_ip0,deviceOrientation,batteryState,batteryLevel,avAudioRecorderPeakPower,avAudioRecorderAveragePower,label
1561841683.091719,1,0,0,1561841683.001321,4.634703788910652,-74.15101828991821,2556.023,1.32,289.3359375,4,30,-9999,1561841683.078943,-10.60751342773438,-21.11532974243164,19.3157958984375,135.2024536132812,142.6956634521484,15,169499.380252,-0.96844482421875,0.1125030517578125,0.155517578125,169499.380252,0.06406740002792723,0.0611224764945176,0.08617856129441911,169499.354007,-85.23368835449219,-47.48141479492188,-543.60546875,169499.375186,0.01091881017916747,-1.733755321874947,-0.08707368496800709,0.05932895839214325,0.06875957548618317,0.07987182587385178,0.01095187664031982,0.02651591598987579,-0.00335991382598877,1,-0.02401034906506538,-0.7617319226264954,0.03670769184827805,0.6464057564735413,-0.9830130934715271,0.08696369826793671,0.1616240441799164,0,0,0,-1,169496.1089485,3,1,1561841680.055447,1561841239.621676,31,1.858098,0,0,29.67847,0,0,1561841682.981903,169496.199896,0,0.0925293,75.19208,0,182478453,3,1,1,-30.18921,-37.35106,1
1561841683.114229,2,0,0,1561841683.001321,4.634703788910652,-74.15101828991821,2556.023,1.32,289.3359375,4,30,-9999,1561841683.107563,-10.81878662109375,-20.83110809326172,19.44610595703125,135.1416931152344,142.6349029541016,15,169499.400516,-0.97125244140625,0.1085357666015625,0.1566162109375,169499.400516,0.04785913531759597,0.06822139869623282,0.1099009350204089,169499.374118,-85.09159851074219,-47.40122985839844,-543.3325805664062,169499.39545,0.01183535889623152,-1.732581827280829,-0.08907581162105038,0.05513474345207214,0.06143348291516304,0.0973898321390152,0.01240140199661255,0.02188177406787872,-0.003352761268615723,1,-0.02433087676763535,-0.761333703994751,0.03775184974074364,0.6468026638031006,-0.9830282926559448,0.08895806223154068,0.1604419946670532,0,0,0,-1,169496.1089485,3,1,1561841680.055447,1561841239.621676,31,1.858098,0,0,29.67847,0,0,1561841682.981903,169496.199896,0,0.0925293,75.19208,0,182478453,3,1,1,-30.18921,-37.55616,1
1561841683.12098,3,0,0,1561841683.001321,4.634703788910652,-74.15101828991821,2556.023,1.32,289.3359375,4,30,-9999,1561841683.107563,-10.81878662109375,-20.83110809326172,19.44610595703125,135.1416931152344,142.6349029541016,15,169499.42078,-0.98052978515625,0.1153106689453125,0.150665283203125,169499.42078,0.01618855731826466,0.1214132477806035,0.1137417459445212,169499.394229,-85.15541076660156,-47.58706665039062,-543.3849487304688,169499.415714,0.01221566569135147,-1.731129681055543,-0.09147639764931305,0.02199144102632999,0.09208593517541885,0.1132271215319633,0.0106194019317627,0.02002502977848053,-0.00735318660736084,1,-0.02499108761548996,-0.7608320116996765,0.03877007961273193,0.6473075151443481,-0.9830467700958252,0.09134887158870697,0.1589798033237457,0,0,0,-1,169496.1089485,3,1,1561841680.055447,1561841239.621676,31,1.858098,0,0,29.67847,0,0,1561841682.981903,169496.199896,0,0.0925293,75.19208,0,182478453,3,1,1,-30.18921,-37.55616,1
1561841683.141274,4,0,0,1561841683.001321,4.634703788910652,-74.15101828991821,2556.023,1.32,289.3359375,4,30,-9999,1561841683.129523,-10.95279693603516,-20.85118865966797,19.42901611328125,135.13525390625,142.6284637451172,15,169499.441043,-0.9766082763671875,0.11749267578125,0.148590087890625,169499.441043,-0.0100358562518546,0.1678206939879972,0.09334992147778448,169499.414341,-85.21830749511719,-47.38191223144531,-543.3438110351562,169499.435978,0.01209381398042354,-1.728465612227757,-0.09372144821098215,-0.0007705976022407413,0.1574164628982544,0.09509099274873734,0.0007788538932800293,0.02174162864685059,-0.00375521183013916,1,-0.02581722475588322,-0.7599324584007263,0.03954991325736046,0.648283839225769,-0.9832617044448853,0.09358430653810501,0.1563277393579483,0,0,0,-1,169496.1089485,3,1,1561841680.055447,1561841239.621676,31,1.858098,0,0,29.67847,0,0,1561841682.981903,169496.199896,0,0.0925293,75.19208,0,182478453,3,1,1,-30.18921,-37.87238,1
1561841683.161547,5,0,0,1561841683.001321,4.634703788910652,-74.15101828991821,2556.023,1.32,289.3359375,4,30,-9999,1561841683.15795,-11.23558807373047,-20.75971603393555,19.3876953125,135.1767425537109,142.6699523925781,15,169499.461307,-0.9702301025390625,0.1109161376953125,0.1548309326171875,169499.461307,-0.04471500733464843,0.1646051932878356,0.1127100373382245,169499.434452,-85.63438415527344,-47.34312438964844,-543.300537109375,169499.456241,0.01134637318530333,-1.725198289506453,-0.09559373143476983,-0.04066874831914902,0.1672696322202682,0.1009166613221169,0.009044051170349121,0.01873330771923065,-0.003459453582763672,1,-0.02677383273839951,-0.7588324546813965,0.03997500240802765,0.6495063304901123,-0.9835923910140991,0.09544820338487625,0.1530870646238327,0,0,0,-1,169496.1089485,3,1,1561841680.055447,1561841239.621676,31,1.858098,0,0,29.67847,0,0,1561841682.981903,169496.199896,0,0.0925293,75.19208,0,182478453,3,1,1,-30.18921,-37.37143,1
1561841683.196329,6,0,0,1561841683.001321,4.634703788910652,-74.15101828991821,2556.023,1.32,289.3359375,4,30,-9999,1561841683.180309,-11.10282135009766,-20.71457290649414,19.280029296875,135.2725067138672,142.7657165527344,15,169499.481571,-0.9635467529296875,0.1112518310546875,0.1547698974609375,169499.481571,-0.04405001601045564,0.1058816923032613,0.1428383787502909,169499.454563,-85.55747985839844,-47.35005187988281,-543.7965087890625,169499.476505,0.00998730903390448,-1.722530910653915,-0.09784331107390376,-0.051626056432724,0.1098066046833992,0.1291000992059708,0.02011358737945557,0.01548716425895691,0.003134369850158691,1,-0.02807429432868958,-0.7579095363616943,0.04034936055541039,0.6505050659179688,-0.9837824106216431,0.09768727421760559,0.1504300683736801,0,0,0,-1,169496.1089485,3,1,1561841680.055447,1561841239.621676,31,1.858098,0,0,29.67847,0,0,1561841682.981903,169496.199896,0,0.0925293,75.19208,0,182478453,3,1,1,-30.18921,-38.36252,1
1561841683.202112,7,0,0,1561841683.001321,4.634703788910652,-74.15101828991821,2556.023,1.32,289.3359375,4,30,-9999,1561841683.180309,-11.10282135009766,-20.71457290649414,19.280029296875,135.2725067138672,142.7657165527344,15,169499.501834,-0.98162841796875,0.11114501953125,0.14959716796875,169499.501834,-0.0275394825164004,0.03686906844716598,0.1183753799251501,169499.474674,-85.69259643554688,-47.2811279296875,-543.5088500976562,169499.496738,0.008700967292829117,-1.72096519106351,-0.1005645749876494,-0.0344768650829792,0.04972703009843826,0.1334929764270782,0.01175028085708618,0.009513899683952332,0.005539178848266602,1,-0.02947935834527016,-0.7573345303535461,0.04093869403004646,0.6510756015777588,-0.9837504029273987,0.1003951579332352,0.1488492488861084,0,0,0,-1,169496.1089485,3,1,1561841680.055447,1561841239.621676,31,1.858098,0,0,29.67847,0,0,1561841682.981903,169496.199896,0,0.0925293,75.19208,0,182478453,3,1,1,-30.18921,-38.36252,1
1561841683.224224,8,0,0,1561841683.001321,4.634703788910652,-74.15101828991821,2556.023,1.32,289.3359375,4,30,-9999,1561841683.20686,-11.34031677246094,-20.83983612060547,19.240966796875,135.3518371582031,142.8450469970703,15,169499.522098,-0.994110107421875,0.0999755859375,0.154052734375,169499.522098,0.001386707979604259,0.02235963419619628,0.03525945388432209,169499.494785,-85.76289367675781,-47.29278564453125,-543.63330078125,169499.517002,0.007966646059573933,-1.720608195285485,-0.1023289364831921,-0.007625010795891285,0.01133463159203529,0.04273086041212082,-0.003723859786987305,0.004203319549560547,0.002468585968017578,1,-0.03033943846821785,-0.7571758031845093,0.04136208072304726,0.6511938571929932,-0.983626663684845,0.1021504476666451,0.1484713554382324,0,0,0,-1,169496.1089485,3,1,1561841680.055447,1561841239.621676,31,1.858098,0,0,29.67847,0,0,1561841682.981903,169496.199896,0,0.0925293,75.19208,0,182478453,3,1,1,-30.18921,-35.76785,1
1561841683.242655,9,0,0,1561841683.001321,4.634703788910652,-74.15101828991821,2556.023,1.32,289.3359375,4,30,-9999,1561841683.230826,-11.44480133056641,-20.83606719970703,19.2314453125,135.3721313476562,142.8653411865234,15,169499.542331,-0.9889678955078125,0.107269287109375,0.14263916015625,169499.542331,0.005626194118901398,0.05545633495926502,0.02053563516560101,169499.514896,-85.80084228515625,-47.32466125488281,-543.6593627929688,169499.537265,0.007886585593397428,-1.720069279565263,-0.1029014088452237,-0.0009039910510182381,0.04255060851573944,0.01877785474061966,-0.01253670454025269,-0.0009743049740791321,0.001710414886474609,1,-0.03056742623448372,-0.7569887042045593,0.04154442995786667,0.6513891220092773,-0.9836485981941223,0.1027199029922485,0.1479325294494629,0,0,0,-1,169496.1089485,3,1,1561841680.055447,1561841239.621676,31,1.858098,0,0,29.67847,0,0,1561841682.981903,169496.199896,0,0.0925293,75.19208,0,182478453,3,1,1,-30.18921,-36.01669,1
1561841683.277403,10,0,0,1561841683.001321,4.634703788910652,-74.15101828991821,2556.023,1.32,289.3359375,4,30,-9999,1561841683.257467,-11.45561981201172,-20.7689094543457,19.17291259765625,135.367919921875,142.8611297607422,15,169499.562595,-0.97613525390625,0.1078338623046875,0.1402587890625,169499.562595,0.0243231828679117,0.04178260065836217,0.02089569454497972,169499.535007,-85.9400634765625,-47.32754516601562,-543.8109130859375,169499.557529,0.007966482591076667,-1.719161549173467,-0.1032942766438563,0.01599749363958836,0.03855826333165169,0.0163919273763895,0.002892255783081055,0.00647793710231781,-0.008209109306335449,1,-0.03068413212895393,-0.7566870450973511,0.0417051762342453,0.6517237424850464,-0.9837424755096436,0.1031106859445572,0.1470336019992828,0,0,0,-1,169496.1089485,3,1,1561841680.055447,1561841239.621676,31,1.858098,0,0,29.67847,0,0,1561841682.981903,169497.143812,0,0.2246094,75.19083,0,182478453,3,1,1,-30.18921,-36.42907,1
1561841683.283054,11,0,0,1561841683.001321,4.634703788910652,-74.15101828991821,2556.023,1.32,289.3359375,4,30,-9999,1561841683.282002,-11.45581817626953,-20.68906784057617,19.30621337890625,135.3301849365234,142.8233947753906,15,169499.582859,-0.9772186279296875,0.112548828125,0.139373779296875,169499.582859,0.04530995752217213,0.06588607273634234,0.06973034576987172,169499.555118,-85.99797058105469,-47.14933776855469,-543.451904296875,169499.577793,0.008456756555030351,-1.718372446198891,-0.1040127322774285,0.03906233236193657,0.04907908290624619,0.053238894790411,0.008915901184082031,0.006327912211418152,-0.00737607479095459,1,-0.03074949234724045,-0.7564242482185364,0.04212452843785286,0.6519986987113953,-0.9837846159934998,0.1038252860307693,0.1462463438510895,0,0,0,-1,169496.1089485,3,1,1561841680.055447,1561841239.621676,31,1.858098,0,0,29.67847,0,0,1561841682.981903,169497.143812,0,0.2246094,75.19083,0,182478453,3,1,1,-30.18921,-36.42907,1
1561841683.303338,12,0,0,1561841683.001321,4.634703788910652,-74.15101828991821,2556.023,1.32,289.3359375,4,30,-9999,1561841683.282002,-11.45581817626953,-20.68906784057617,19.30621337890625,135.3301849365234,142.8233947753906,15,169499.603122,-0.97894287109375,0.1082916259765625,0.146728515625,169499.603122,0.06568207459684226,0.03838014604967694,0.06028384706725165,169499.575229,-85.7510986328125,-46.94902038574219,-543.8084106445312,169499.598056,0.009175347875671551,-1.717132585223971,-0.1055159302420782,0.05407829955220222,0.0479927770793438,0.06529635190963745,0.00373762845993042,0.007564276456832886,-0.004134416580200195,1,-0.03099460899829865,-0.7560033798217773,0.04290787130594254,0.6524239778518677,-0.9838096499443054,0.1053202450275421,0.1450035572052002,0,0,0,-1,169496.1089485,3,1,1561841680.055447,1561841239.621676,31,1.858098,0,0,29.67847,0,0,1561841682.981903,169497.143812,0,0.2246094,75.19083,0,182478453,3,1,1,-30.18921,-37.18247,1
1561841683.323657,13,0,0,1561841683.001321,4.634703788910652,-74.15101828991821,2556.023,1.32,289.3359375,4,30,-9999,1561841683.308167,-11.51401519775391,-20.58992004394531,19.3115234375,135.2655639648438,142.7587738037109,15,169499.623386,-0.980987548828125,0.0984039306640625,0.1541290283203125,169499.623386,0.08481795229349763,-0.03248870108620365,0.03798093820227406,169499.59534,-86.02691650390625,-47.304443359375,-543.8323364257812,169499.61832,0.01046841587093716,-1.716824118543245,-0.1066923074138527,0.08454566448926926,-0.02995235472917557,0.03578054159879684,0.00480353832244873,-0.002821788191795349,0.007875442504882812,1,-0.03089654445648193,-0.755901038646698,0.04376937448978424,0.6524900197982788,-0.9837311506271362,0.1064900085330009,0.1446819603443146,0,0,0,-1,169496.1089485,3,1,1561841680.055447,1561841239.621676,31,1.858098,0,0,29.67847,0,0,1561841682.981903,169497.143812,0,0.2246094,75.19083,0,182478453,3,1,1,-30.18921,-37.22831,1
1561841683.359517,14,0,0,1561841683.001321,4.634703788910652,-74.15101828991821,2556.023,1.32,289.3359375,4,30,-9999,1561841683.358585,-11.33647918701172,-20.95952606201172,19.21734619140625,135.0943756103516,142.5875854492188,15,169499.64365,-0.9852142333984375,0.0954437255859375,0.151397705078125,169499.64365,0.05087010524603956,-0.005094627165321583,0.0240611278166479,169499.615451,-85.76278686523438,-47.43719482421875,-543.91552734375,169499.638584,0.01186202346198798,-1.717357850334736,-0.1075604385156563,0.05744027346372604,-0.02327287942171097,0.02465811371803284,-3.480911254882812e-05,-0.01306910812854767,0.00872194766998291,1,-0.0306413471698761,-0.7560805678367615,0.04456013441085815,0.652240514755249,-0.9835619926452637,0.1073531582951546,0.1451934278011322,0,0,0,-1,169496.1089485,3,1,1561841680.055447,1561841239.621676,31,1.858098,0,0,29.67847,0,0,1561841682.981903,169497.143812,0,0.2246094,75.19083,0,182478453,3,1,1,-30.18921,-36.34195,1
1561841683.364264,15,0,0,1561841683.001321,4.634703788910652,-74.15101828991821,2556.023,1.32,289.3359375,4,30,-9999,1561841683.358585,-11.33647918701172,-20.95952606201172,19.21734619140625,135.0943756103516,142.5875854492188,15,169499.663913,-0.9891204833984375,0.09423828125,0.1477203369140625,169499.663913,0.02880608193084208,0.03451110561800982,0.01097781632941563,169499.635562,-86.05078125,-47.38471984863281,-543.607421875,169499.658817,0.01263368995623904,-1.717233323704582,-0.1080029716222149,0.02741659618914127,0.02261817827820778,0.0090317502617836,-0.003512322902679443,-0.01350906491279602,0.004151701927185059,1,-0.03049685247242451,-0.7560436129570007,0.0449770875275135,0.65226149559021,-0.9835329651832581,0.1077931225299835,0.1450640112161636,0,0,0,-1,169496.1089485,3,1,1561841680.055447,1561841239.621676,31,1.858098,0,0,29.67847,0,0,1561841682.981903,169497.143812,0,0.2246094,75.19083,0,182478453,3,1,1,-30.18921,-36.34195,1
1561841683.384264,16,0,0,1561841683.001321,4.634703788910652,-74.15101828991821,2556.023,1.32,289.3359375,4,30,-9999,1561841683.382767,-11.43578338623047,-20.8760871887207,19.2210693359375,135.05712890625,142.5503387451172,15,169499.684146,-0.990753173828125,0.10052490234375,0.15411376953125,169499.684146,0.02996189384393647,0.04450355234409614,0.01761095165647599,169499.655674,-85.81309509277344,-47.40921020507812,-543.5572509765625,169499.679081,0.01314952230143606,-1.716543854868676,-0.1082744416127464,0.0274586733430624,0.03601707518100739,0.01046506408601999,-0.004921674728393555,-0.01150539517402649,0.00541388988494873,1,-0.03040605783462524,-0.7558215856552124,0.04523739591240883,0.6525049805641174,-0.9836037158966064,0.1080630123615265,0.1443815976381302,0,0,0,-1,169496.1089485,3,1,1561841680.055447,1561841239.621676,31,1.858098,0,0,29.67847,0,0,1561841682.981903,169497.143812,0,0.2246094,75.19083,0,182478453,3,1,1,-30.18921,-36.37291,1
1561841683.407176,17,0,0,1561841683.001321,4.634703788910652,-74.15101828991821,2556.023,1.32,289.3359375,4,30,-9999,1561841683.382767,-11.43578338623047,-20.8760871887207,19.2210693359375,135.05712890625,142.5503387451172,15,169499.70441,-0.9832916259765625,0.105987548828125,0.15631103515625,169499.70441,0.03848933565437019,0.04074689731043036,0.01715794795505351,169499.675754,-85.78695678710938,-47.13124084472656,-543.6692504882812,169499.699344,0.01370636375184243,-1.715738245271944,-0.1086466761821099,0.03300470486283302,0.03649218380451202,0.01358948368579149,-0.005684733390808105,-0.003925606608390808,0.01115608215332031,1,-0.03033551387488842,-0.7555603384971619,0.04554742947220802,0.6527892351150513,-0.9836798906326294,0.1084330528974533,0.1435833424329758,0,0,0,-1,169496.1089485,3,1,1561841680.055447,1561841239.621676,31,1.858098,0,0,29.67847,0,0,1561841682.981903,169497.143812,0,0.2246094,75.19083,0,182478453,3,1,1,-30.18921,-37.1867,1
1561841683.437149,18,0,0,1561841683.001321,4.634703788910652,-74.15101828991821,2556.023,1.32,289.3359375,4,30,-9999,1561841683.433555,-11.36509704589844,-20.65869903564453,19.1676025390625,134.9954376220703,142.4886474609375,15,169499.724674,-0.9807281494140625,0.1021881103515625,0.1514434814453125,169499.724674,0.009857957091037308,0.02953658701785081,0.03275981088517372,169499.695896,-85.67666625976562,-46.86172485351562,-543.865234375,169499.719608,0.01426777594468406,-1.715090428568563,-0.1090332890605352,0.01670855842530727,0.0238616093993187,0.02292945608496666,0.003048717975616455,-0.005637452006340027,0.01327943801879883,1,-0.03026457875967026,-0.7553502917289734,0.04586682841181755,0.6530131697654724,-0.9837310910224915,0.108817383646965,0.1429400146007538,0,0,0,-1,169496.1089485,3,1,1561841680.055447,1561841239.621676,31,1.858098,0,0,29.67847,0,0,1561841682.981903,169497.143812,0,0.2246094,75.19083,0,182478453,3,1,1,-30.18921,-37.65575,1
1561841683.445231,19,0,0,1561841683.001321,4.634703788910652,-74.15101828991821,2556.023,1.32,289.3359375,4,30,-9999,1561841683.433555,-11.36509704589844,-20.65869903564453,19.1676025390625,134.9954376220703,142.4886474609375,15,169499.744937,-0.9820404052734375,0.09991455078125,0.1491241455078125,169499.744937,0.006178533728983832,0.04097193442254206,0.04209152734481137,169499.716007,-85.78042602539062,-47.21360778808594,-543.816162109375,169499.739872,0.0142501450092142,-1.714577501489741,-0.1096750095667322,0.001428938005119562,0.03325777500867844,0.03921468928456306,0.003113627433776855,-0.007679149508476257,0.007354855537414551,1,-0.03049277327954769,-0.7551707625389099,0.04609544947743416,0.6531940698623657,-0.9837349653244019,0.1094552651047707,0.1424253731966019,0,0,0,-1,169496.1089485,3,1,1561841680.055447,1561841239.621676,31,1.858098,0,0,29.67847,0,0,1561841682.981903,169497.143812,0,0.2246094,75.19083,0,182478453,3,1,1,-30.18921,-37.65575,1
1561841683.465538,20,0,0,1561841683.001321,4.634703788910652,-74.15101828991821,2556.023,1.32,289.3359375,4,30,-9999,1561841683.459755,-11.56385803222656,-20.79685592651367,19.08203125,134.9944915771484,142.4877014160156,15,169499.765201,-0.9956207275390625,0.10198974609375,0.155609130859375,169499.765201,0.01247611075869421,0.03221412917781648,0.002988333059177913,169499.736118,-85.75010681152344,-47.10887145996094,-543.60400390625,169499.760135,0.01429971845655517,-1.713928961579388,-0.1102744086709509,0.01294710952788591,0.02576284110546112,0.01495834905654192,-0.002154171466827393,-0.01086892187595367,0.01009273529052734,1,-0.03068501688539982,-0.754948616027832,0.0463278628885746,0.6534253358840942,-0.9837619662284851,0.1100510433316231,0.1417779624462128,0,0,0,-1,169496.1089485,3,1,1561841680.055447,1561841239.621676,31,1.858098,0,0,29.67847,0,0,1561841682.981903,169497.143812,0,0.2246094,75.19083,0,182478453,3,1,1,-30.18921,-38.34041,1
1561841683.485658,21,0,0,1561841683.001321,4.634703788910652,-74.15101828991821,2556.023,1.32,289.3359375,4,30,-9999,1561841683.484045,-11.56464385986328,-20.58010101318359,19.05303955078125,134.9780578613281,142.4712677001953,15,169499.785465,-0.9937286376953125,0.096923828125,0.157012939453125,169499.785465,0.003130013229170129,0.04225957280959537,-0.04469316941370977,169499.756229,-86.01017761230469,-47.1563720703125,-543.8939819335938,169499.780399,0.01453690375923209,-1.713308064745661,-0.1099997069566266,0.004859888926148415,0.03880833461880684,-0.03987240791320801,-0.01700520515441895,-0.009787164628505707,0.01666545867919922,1,-0.03052002750337124,-0.7547544240951538,0.0462922565639019,0.6536599397659302,-0.9838798046112061,0.1097780093550682,0.1411714255809784,0,0,0,-1,169496.1089485,3,1,1561841680.055447,1561841239.621676,31,1.858098,0,0,29.67847,0,0,1561841682.981903,169497.143812,0,0.2246094,75.19083,0,182478453,3,1,1,-30.74649,-38.09366,1
1561841683.526225,22,0,0,1561841683.001321,4.634703788910652,-74.15101828991821,2556.023,1.32,289.3359375,4,30,-9999,1561841683.510511,-11.59817504882812,-20.74055480957031,19.260986328125,134.9762878417969,142.4694976806641,15,169499.805728,-0.9796600341796875,0.100250244140625,0.1550140380859375,169499.805728,-0.004494883287835739,0.02293807278496149,-0.04419142986433885,169499.796451,-85.90940856933594,-47.33071899414062,-543.77880859375,169499.800663,0.01458567208195693,-1.712765912297587,-0.108908266713793,-0.01261151302605867,0.02076808176934719,-0.05666656792163849,-0.002330124378204346,-0.01012132316827774,0.01187193393707275,1,-0.03015701472759247,-0.7545979022979736,0.04588841274380684,0.6538860201835632,-0.9840742945671082,0.1086931005120277,0.1406548768281937,0,0,0,-1,169496.1089485,3,1,1561841680.055447,1561841239.621676,31,1.858098,0,0,29.67847,0,0,1561841682.981903,169497.143812,0,0.2246094,75.19083,0,182478453,3,1,1,-31.86105,-39.19887,1
1561841683.528051,23,0,0,1561841683.001321,4.634703788910652,-74.15101828991821,2556.023,1.32,289.3359375,4,30,-9999,1561841683.510511,-11.59817504882812,-20.74055480957031,19.260986328125,134.9762878417969,142.4694976806641,15,169499.825992,-0.975555419921875,0.1119232177734375,0.1473541259765625,169499.825992,0.04152693719371457,0.01330382122549083,0.03135233024906684,169499.816532,-85.69891357421875,-47.29521179199219,-543.477783203125,169499.820896,0.01475808359651971,-1.712464189132893,-0.1083162960427181,0.02769036777317524,0.009875485673546791,0.008985944092273712,0.008548438549041748,-0.002284914255142212,0.01333475112915039,1,-0.02990514039993286,-0.7545125484466553,0.04571707546710968,0.6540080308914185,-0.9841801524162292,0.1081046164035797,0.1403670012950897,0,0,0,-1,169496.1089485,3,1,1561841680.055447,1561841239.621676,31,1.858098,0,0,29.67847,0,0,1561841682.981903,169497.143812,0,0.2246094,75.19083,0,182478453,3,1,1,-31.86105,-39.19887,1
1561841683.546419,24,0,0,1561841683.001321,4.634703788910652,-74.15101828991821,2556.023,1.32,289.3359375,4,30,-9999,1561841683.534703,-11.58000183105469,-20.56227111816406,19.21417236328125,134.9327850341797,142.4259948730469,15,169499.846225,-0.9769287109375,0.1184234619140625,0.1431121826171875,169499.846225,0.0863529983458193,-0.0008090683391660725,0.06321492216299286,169499.836643,-85.73048400878906,-47.20021057128906,-543.4349365234375,169499.841159,0.01570460680750214,-1.712331927304624,-0.109216817078734,0.07661236822605133,-0.004896535538136959,0.05711459368467331,0.009736597537994385,0.006112486124038696,0.003789424896240234,1,-0.02984587103128433,-0.7544671893119812,0.04636409506201744,0.654017448425293,-0.9841018319129944,0.1089998185634613,0.1402230262756348,0,0,0,-1,169496.1089485,3,1,1561841680.055447,1561841239.621676,31,1.858098,0,0,29.67847,0,0,1561841682.981903,169497.143812,0,0.2246094,75.19083,0,182478453,3,1,1,-32.41833,-38.73988,1
1561841683.566573,25,0,0,1561841683.001321,4.634703788910652,-74.15101828991821,2556.023,1.32,289.3359375,4,30,-9999,1561841683.5609,-11.49462890625,-20.56095123291016,19.10791015625,134.8259582519531,142.3191680908203,15,169499.866489,-0.9912567138671875,0.1161956787109375,0.1435699462890625,169499.866489,0.07242653005746794,0.02896853475733691,0.03599182318409388,169499.856754,-85.98910522460938,-47.13465881347656,-543.4005126953125,169499.861423,0.01724363931867818,-1.712193071318003,-0.1104903796264983,0.07935702800750732,0.01752648130059242,0.04024612903594971,0.0007218718528747559,0.00850871205329895,0.002587676048278809,1,-0.02968546375632286,-0.7544217109680176,0.04734534397721291,0.6540068387985229,-0.9839829802513123,0.110265702009201,0.1400666832923889,0,0,0,-1,169496.1089485,3,1,1561841680.055447,1561841239.621676,31,1.858098,0,0,29.67847,0,0,1561841682.981903,169497.143812,0,0.2246094,75.19083,0,182478453,3,1,1,-32.97561,-35.15599,1
1561841683.592464,26,0,0,1561841683.001321,4.634703788910652,-74.15101828991821,2556.023,1.32,289.3359375,4,30,-9999,1561841683.585358,-11.42433929443359,-20.5068359375,19.10650634765625,134.7372589111328,142.23046875,15,169499.886753,-0.996490478515625,0.10894775390625,0.1466064453125,169499.886753,0.05269437059274384,0.06261437933717999,-0.02999944441530659,169499.876865,-86.00205993652344,-47.0062255859375,-543.759521484375,169499.881687,0.01848129779430778,-1.711537617407275,-0.1109186388013027,0.05065667256712914,0.04190532490611076,-0.0193620752543211,-0.00971609354019165,0.001292914152145386,0.00288844108581543,1,-0.0293745007365942,-0.7542179226875305,0.04790183156728745,0.654215395450592,-0.9840277433395386,0.1106913387775421,0.1394150704145432,0,0,0,-1,169496.1089485,3,1,1561841680.055447,1561841239.621676,31,1.858098,0,0,29.67847,0,0,1561841682.981903,169497.143812,0,0.2246094,75.19083,0,182478453,3,1,1,-33.53289,-35.22414,1
1561841683.607239,27,0,0,1561841683.001321,4.634703788910652,-74.15101828991821,2556.023,1.32,289.3359375,4,30,-9999,1561841683.585358,-11.42433929443359,-20.5068359375,19.10650634765625,134.7372589111328,142.23046875,15,169499.907016,-0.99053955078125,0.103485107421875,0.15576171875,169499.907016,0.04814409355423445,0.08766114307326622,-0.03752660292030655,169499.896976,-85.93354797363281,-47.439208984375,-543.643310546875,169499.90195,0.01959486749888925,-1.710141421888332,-0.1102549620083177,0.04765155911445618,0.08183862268924713,-0.04795030876994133,-0.01161646842956543,-0.006012551486492157,0.01806151866912842,1,-0.02877071499824524,-0.7537890076637268,0.04799595102667809,0.6547296047210693,-0.9842941761016846,0.1100317165255547,0.1380512416362762,0,0,0,-1,169496.1089485,3,1,1561841680.055447,1561841239.621676,31,1.858098,0,0,29.67847,0,0,1561841682.981903,169497.143812,0,0.2246094,75.19083,0,182478453,3,1,1,-33.53289,-35.22414,1
1561841683.627413,28,0,0,1561841683.001321,4.634703788910652,-74.15101828991821,2556.023,1.32,289.3359375,4,30,-9999,1561841683.615332,-11.51953887939453,-20.57727813720703,19.1927490234375,134.6577301025391,142.1509399414062,15,169499.92728,-0.97674560546875,0.1070098876953125,0.155426025390625,169499.92728,0.03860971053564177,0.05803427489446172,-0.01778512239176717,169499.917087,-85.96414184570312,-46.84530639648438,-543.6871337890625,169499.922214,0.02055713336930056,-1.708549451449396,-0.1096482974062879,0.03853422775864601,0.06203589588403702,-0.02839072421193123,0.0003255605697631836,-0.005318000912666321,0.01711702346801758,1,-0.02824744768440723,-0.7532919049263,0.04806006327271461,0.6553194522857666,-0.984578549861908,0.1094287186861038,0.1364932209253311,0,0,0,-1,169496.1089485,3,1,1561841680.055447,1561841239.621676,31,1.858098,0,0,29.67847,0,0,1561841682.981903,169497.143812,0,0.2246094,75.19083,0,182478453,3,1,1,-33.68674,-35.52935,1
1561841683.647722,29,0,0,1561841683.001321,4.634703788910652,-74.15101828991821,2556.023,1.32,289.3359375,4,30,-9999,1561841683.63603,-11.70760345458984,-20.38822555541992,19.17193603515625,134.599853515625,142.0930633544922,15,169499.947544,-0.96856689453125,0.1149749755859375,0.15087890625,169499.947544,0.006536995211708498,0.01917342826802548,0.02082405551165659,169499.937198,-86.08651733398438,-47.20710754394531,-543.5499877929688,169499.942478,0.02119192372385717,-1.707665774413829,-0.109595622944114,0.01387495454400778,0.01867350563406944,0.01259772386401892,0.01438271999359131,0.00141771137714386,0.01838302612304688,1,-0.02801238745450974,-0.7530121207237244,0.04823586717247963,0.6556380391120911,-0.9847043752670288,0.1093763560056686,0.1356239020824432,0,0,0,-1,169496.1089485,3,1,1561841680.055447,1561841239.621676,31,1.858098,0,0,29.67847,0,0,1561841682.981903,169497.143812,0,0.2246094,75.19083,0,182478453,3,1,1,-31.82093,-36.33435,1
1561841683.670732,30,0,0,1561841683.001321,4.634703788910652,-74.15101828991821,2556.023,1.32,289.3359375,4,30,-9999,1561841683.66223,-11.70716857910156,-20.51147079467773,19.1318359375,134.5988159179688,142.0920257568359,15,169499.967807,-0.972930908203125,0.118255615234375,0.1457977294921875,169499.967807,-0.01807301010560473,0.017039969918763,0.01458480170981895,169499.957309,-86.20783996582031,-47.19242858886719,-543.539794921875,169499.962741,0.02107414650013775,-1.707409245735709,-0.109915554094473,-0.01667895913124084,0.01377248950302601,0.01541401538997889,0.01485592126846313,0.008896946907043457,0.01441371440887451,1,-0.02816794812679291,-0.7529208660125732,0.04831397533416748,0.6557304859161377,-0.9847044944763184,0.1096943616867065,0.1353665292263031,0,0,0,-1,169496.1089485,3,1,1561841680.055447,1561841239.621676,31,1.858098,0,0,29.67847,0,0,1561841682.981903,169497.143812,0,0.2246094,75.19083,0,182478453,3,1,1,-31.82093,-37.01217,1
1561841683.690012,31,0,0,1561841683.001321,4.634703788910652,-74.15101828991821,2556.023,1.32,289.3359375,4,30,-9999,1561841683.686575,-11.61714172363281,-20.56758880615234,19.13763427734375,134.6263580322266,142.1195678710938,15,169499.988071,-0.9794464111328125,0.120635986328125,0.148712158203125,169499.988071,-0.004835501591256873,0.002087918294622123,-0.004878644800916157,169499.97742,-85.97940063476562,-47.29373168945312,-543.5845336914062,169499.982975,0.02065232017259037,-1.707323208402089,-0.1099662644106621,-0.01672369986772537,0.002927032299339771,-0.005047583021223545,0.005966067314147949,0.01034189760684967,0.009158611297607422,1,-0.02834546938538551,-0.7528858184814453,0.04819352552294731,0.6557719111442566,-0.9847106337547302,0.1097447723150253,0.135281041264534,0,0,0,-1,169496.1089485,3,1,1561841680.055447,1561841239.621676,31,1.858098,0,0,29.67847,0,0,1561841682.981903,169497.143812,0,0.2246094,75.19083,0,182478453,3,1,1,-31.82093,-35.01608,1
1561841683.708504,32,0,0,1561841683.001321,4.634703788910652,-74.15101828991821,2556.023,1.32,289.3359375,4,30,-9999,1561841683.686575,-11.61714172363281,-20.56758880615234,19.13763427734375,134.6263580322266,142.1195678710938,15,169500.00830975,-0.9821929931640625,0.1132659912109375,0.1456298828125,169500.00830975,0.01841203051237182,-0.01609934142174701,0.001589640854668297,169499.99753675,-85.78804016113281,-47.054443359375,-543.7659912109375,169500.003238,0.02067623107323916,-1.707590287710399,-0.1097964785377426,0.01556366588920355,-0.02187818288803101,-0.003296022303402424,0.004376649856567383,0.008252367377281189,0.01176178455352783,1,-0.02827429585158825,-0.752976655960083,0.04814129322767258,0.6556744575500488,-0.9846928119659424,0.1095760092139244,0.1355465650558472,0,0,0,-1,169496.1089485,3,1,1561841680.055447,1561841239.621676,31,1.858098,0,0,29.67847,0,0,1561841682.981903,169497.143812,0,0.2246094,75.19083,0,182478453,3,1,1,-31.82093,-35.74174,1
1561841683.728786,33,0,0,1561841683.001321,4.634703788910652,-74.15101828991821,2556.023,1.32,289.3359375,4,30,-9999,1561841683.71276,-11.68922424316406,-20.61679077148438,19.1170654296875,134.6139221191406,142.1071319580078,15,169500.02857375,-0.9796905517578125,0.1162109375,0.1458740234375,169500.02857375,0.008473113324196105,-0.004581436023263314,0.02321291100945766,169500.01764875,-85.89192199707031,-47.21174621582031,-543.631103515625,169500.02350775,0.02096217590187057,-1.708034587908023,-0.1099073691140559,0.01353247277438641,-0.01140050776302814,0.01254312787204981,0.003724455833435059,0.003289848566055298,0.01019680500030518,1,-0.0281923171132803,-0.7531244158744812,0.04828300699591637,0.6554978489875793,-0.9846204519271851,0.1096862256526947,0.1359823793172836,0,0,0,-1,169496.1089485,3,1,1561841680.055447,1561841239.621676,31,1.858098,0,0,29.67847,0,0,1561841682.981903,169497.143812,0,0.2246094,75.19083,0,182478453,3,1,1,-31.82093,-32.80186,1
1561841683.752077,34,0,0,1561841683.001321,4.634703788910652,-74.15101828991821,2556.023,1.32,289.3359375,4,30,-9999,1561841683.737205,-11.58058166503906,-20.64033126831055,19.2574462890625,134.6039123535156,142.0971221923828,15,169500.04883775,-0.9772186279296875,0.1183013916015625,0.1400909423828125,169500.04883775,-0.005603557249635725,-0.00410979019421028,0.02913418337713984,169500.03775975,-85.90950012207031,-47.06211853027344,-543.6296997070312,169500.04377175,0.02090583568191854,-1.708255474833161,-0.1104107234308278,-0.007645516656339169,-0.009405267424881458,0.02775483764708042,0.006432056427001953,0.006772086024284363,0.006950497627258301,1,-0.02837337367236614,-0.7531872987747192,0.04845702275633812,0.6554050445556641,-0.9845357537269592,0.1101865321397781,0.1361923068761826,0,0,0,-1,169496.1089485,3,1,1561841680.055447,1561841239.621676,31,1.858098,0,0,29.67847,0,0,1561841682.981903,169497.143812,0,0.2246094,75.19083,0,182478453,3,1,1,-31.82093,-33.38826,1
1561841683.769212,35,0,0,1561841683.001321,4.634703788910652,-74.15101828991821,2556.023,1.32,289.3359375,4,30,-9999,1561841683.763507,-11.58811187744141,-20.60757827758789,19.3900146484375,134.6183776855469,142.1115875244141,15,169500.06910075,-0.98541259765625,0.11865234375,0.140533447265625,169500.06910075,-0.0002844256044204626,0.02031485911123344,0.01416029383206032,169500.05787075,-85.97004699707031,-46.88490295410156,-543.6212768554688,169500.06403475,0.020701228378813,-1.708416283680085,-0.1108589541829325,-0.005194077268242836,0.006856526248157024,0.0133245000615716,0.003400862216949463,0.007776178419589996,0.002938389778137207,1,-0.02859360165894032,-0.7532292604446411,0.04856090620160103,0.6553394794464111,-0.984464704990387,0.11063202470541,0.1363438218832016,0,0,0,-1,169496.1089485,3,1,1561841680.055447,1561841239.621676,31,1.858098,0,0,29.67847,0,0,1561841682.981903,169497.143812,0,0.2246094,75.19083,0,182478453,3,1,1,-31.82093,-33.38826,1
1561841683.790303,36,0,0,1561841683.001321,4.634703788910652,-74.15101828991821,2556.023,1.32,289.3359375,4,30,-9999,1561841683.763507,-11.58811187744141,-20.60757827758789,19.3900146484375,134.6183776855469,142.1115875244141,15,169500.08936475,-0.9797210693359375,0.1201171875,0.140960693359375,169500.08936475,0.01360129631925269,0.01089978570947631,0.01163188869313909,169500.07798175,-85.9927978515625,-47.18991088867188,-543.8096313476562,169500.08429875,0.0206630369989282,-1.708209535599251,-0.1110776995693562,0.007623983547091484,0.008401426486670971,0.007023461163043976,0.002092897891998291,0.008871033787727356,0.004533767700195312,1,-0.02868478372693062,-0.7531571388244629,0.04862772300839424,0.6554135084152222,-0.9844689965248108,0.1108494251966476,0.1361369788646698,0,0,0,-1,169496.1089485,3,1,1561841680.055447,1561841239.621676,31,1.858098,0,0,29.67847,0,0,1561841682.981903,169497.143812,0,0.2246094,75.19083,0,182478453,3,1,1,-31.82093,-33.57447,1
1561841683.809758,37,0,0,1561841683.001321,4.634703788910652,-74.15101828991821,2556.023,1.32,289.3359375,4,30,-9999,1561841683.789608,-11.66423797607422,-20.65891647338867,19.0452880859375,134.6169738769531,142.1101837158203,15,169500.10962875,-0.9801177978515625,0.1207122802734375,0.14404296875,169500.10962875,0.02671177204960377,0.007193997052631046,0.02084775764535829,169500.09809275,-86.02388000488281,-47.14515686035156,-543.6756591796875,169500.10456275,0.02096924009524779,-1.708168811217361,-0.1113283490576469,0.02357498556375504,-0.0002887346781790257,0.01355566177517176,0.003932416439056396,0.009369611740112305,0.0057830810546875,1,-0.02865271642804146,-0.7531437873840332,0.04882177710533142,0.6554158329963684,-0.9844469428062439,0.1110985279083252,0.1360930800437927,0,0,0,-1,169496.1089485,3,1,1561841680.055447,1561841239.621676,31,1.858098,0,0,29.67847,0,0,1561841682.981903,169497.143812,0,0.2246094,75.19083,0,182478453,3,1,1,-31.82093,-34.21365,1
1561841683.830789,38,0,0,1561841683.001321,4.634703788910652,-74.15101828991821,2556.023,1.32,289.3359375,4,30,-9999,1561841683.814056,-11.7216796875,-20.54357528686523,19.05242919921875,134.5888519287109,142.0820617675781,15,169500.12989175,-0.9802703857421875,0.115966796875,0.138916015625,169500.12989175,0.002851979211365856,0.02551894219735728,0.02639485587988434,169500.11820375,-85.98976135253906,-47.10546875,-543.833251953125,169500.12479575,0.02132401580750803,-1.708042405511438,-0.1118255518321554,0.01067063957452774,0.01506758481264114,0.02647758461534977,0.003940701484680176,0.00824989378452301,0.005609989166259766,1,-0.02868537977337837,-0.753098726272583,0.04912326112389565,0.6554437279701233,-0.9844094514846802,0.111592635512352,0.1359610855579376,0,0,0,-1,169496.1089485,3,1,1561841680.055447,1561841239.621676,31,1.858098,0,0,29.67847,0,0,1561841682.981903,169497.143812,0,0.2246094,75.19083,0,182478453,3,1,1,-31.82093,-34.82861,1
1561841683.850257,39,0,0,1561841683.001321,4.634703788910652,-74.15101828991821,2556.023,1.32,289.3359375,4,30,-9999,1561841683.839632,-11.69014739990234,-20.63899230957031,19.0606689453125,134.5853576660156,142.0785675048828,15,169500.15015575,-0.97613525390625,0.1178741455078125,0.1406097412109375,169500.15015575,-0.02604944388650106,0.04976382812922064,0.02678287845070888,169500.13831475,-86.23907470703125,-47.03141784667969,-543.561279296875,169500.14505875,0.0211006108942871,-1.707512651387849,-0.1122539716208878,-0.0228447113186121,0.04410189762711525,0.02059226483106613,0.007062435150146484,0.003505922853946686,0.004078149795532227,1,-0.02892312780022621,-0.7529143095016479,0.0492035485804081,0.6556389331817627,-0.984433650970459,0.1120183691382408,0.1354330033063889,0,0,0,-1,169496.1089485,3,1,1561841680.055447,1561841239.621676,31,1.858098,0,0,29.67847,0,0,1561841682.981903,169497.143812,0,0.2246094,75.19083,0,182478453,3,1,1,-31.82093,-35.06611,1
1561841683.870546,40,0,0,1561841683.001321,4.634703788910652,-74.15101828991821,2556.023,1.32,289.3359375,4,30,-9999,1561841683.864856,-11.71728515625,-20.60794448852539,19.069091796875,134.6293487548828,142.12255859375,15,169500.17038875,-0.972564697265625,0.1174468994140625,0.1348876953125,169500.17038875,-0.02238813001986012,0.03390177436059969,0.05822495722851139,169500.15842575,-86.24552917480469,-46.95768737792969,-543.6104736328125,169500.16532275,0.02042745191332387,-1.706739658006441,-0.1128005975611067,-0.02843601629137993,0.03806477785110474,0.04386989399790764,0.007701098918914795,0.006609603762626648,0.003855586051940918,1,-0.029374985024333,-0.7526413202285767,0.04917709156870842,0.65593421459198,-0.9844772219657898,0.1125615388154984,0.1346636861562729,0,0,0,-1,169496.1089485,3,1,1561841680.055447,1561841239.621676,31,1.858098,0,0,29.67847,0,0,1561841682.981903,169497.143812,0,0.2246094,75.19083,0,182478453,3,1,1,-31.82093,-35.90969,1
1561841683.890821,41,0,0,1561841683.001321,4.634703788910652,-74.15101828991821,2556.023,1.32,289.3359375,4,30,-9999,1561841683.864856,-11.71728515625,-20.60794448852539,19.069091796875,134.6293487548828,142.12255859375,15,169500.19065275,-0.9756011962890625,0.119171142578125,0.1349945068359375,169500.19065275,0.03265887707985971,0.004877313220371117,0.06642003653490322,169500.17853675,-86.00715637207031,-47.17732238769531,-543.74755859375,169500.18558675,0.02004800412370304,-1.706371201733393,-0.1139454502425063,0.01549229305237532,0.006134277209639549,0.06445106118917465,0.01267307996749878,0.003976747393608093,-0.00105893611907959,1,-0.0299028567969799,-0.752494215965271,0.04947752878069878,0.6560565829277039,-0.9843985438346863,0.1136990413069725,0.1342834532260895,0,0,0,-1,169496.1089485,3,1,1561841680.055447,1561841239.621676,31,1.858098,0,0,29.67847,0,0,1561841682.981903,169497.143812,0,0.2246094,75.19083,0,182478453,3,1,1,-31.82093,-36.76799,1
1561841683.917981,42,0,0,1561841683.001321,4.634703788910652,-74.15101828991821,2556.023,1.32,289.3359375,4,30,-9999,1561841683.889821,-11.67610931396484,-20.50530242919922,19.1141357421875,134.6483612060547,142.1415710449219,15,169500.21091575,-0.9866180419921875,0.115203857421875,0.1397247314453125,169500.21091575,0.06104471219068729,-0.02502865424067369,0.03646160480038386,169500.19864775,-86.09135437011719,-47.32223510742188,-543.8372192382812,169500.20584975,0.02070278978563253,-1.706512680279823,-0.1152350885974779,0.05808555707335472,-0.02478795126080513,0.04361742362380028,0.003825783729553223,0.002420902252197266,0.003734946250915527,1,-0.03007653914391994,-0.7525269389152527,0.05017915740609169,0.6559578776359558,-0.9842334985733032,0.1149802207946777,0.1344027817249298,0,0,0,-1,169496.1089485,3,1,1561841680.055447,1561841239.621676,31,1.858098,0,0,29.67847,0,0,1561841682.981903,169497.143812,0,0.2246094,75.19083,0,182478453,3,1,1,-31.82093,-37.32685,1
1561841683.931256,43,0,0,1561841683.001321,4.634703788910652,-74.15101828991821,2556.023,1.32,289.3359375,4,30,-9999,1561841683.919932,-11.78421020507812,-20.62837219238281,19.2115478515625,134.5848693847656,142.0780792236328,15,169500.23117975,-0.9889068603515625,0.1081695556640625,0.1416168212890625,169500.23117975,0.02995337172844821,-0.008000668546816048,0.01223882310556815,169500.21875875,-86.03048706054688,-46.92465209960938,-543.619873046875,169500.22611375,0.0217369485772792,-1.706972767063957,-0.1158720460389319,0.04142162576317787,-0.02130720019340515,0.009803800843656063,-0.008470237255096436,-0.005062997341156006,0.008525967597961426,1,-0.02988494001328945,-0.7526816725730896,0.05076461657881737,0.6557439565658569,-0.9840987324714661,0.1156129315495491,0.1348456144332886,0,0,0,-1,169496.1089485,3,1,1561841680.055447,1561841239.621676,31,1.858098,0,0,29.67847,0,0,1561841682.981903,169497.143812,0,0.2246094,75.19083,0,182478453,3,1,1,-31.82093,-37.32685,1
1561841683.951577,44,0,0,1561841683.001321,4.634703788910652,-74.15101828991821,2556.023,1.32,289.3359375,4,30,-9999,1561841683.941042,-11.78241729736328,-20.59706115722656,19.06146240234375,134.5358276367188,142.0290374755859,15,169500.25144375,-0.980712890625,0.1133880615234375,0.136810302734375,169500.25144375,-0.02149277526137548,0.005965747157886501,0.0375383208291029,169500.23883975,-86.19131469726562,-47.36720275878906,-543.6139526367188,169500.24637775,0.02199283273930642,-1.707150482943745,-0.1162593242471364,-0.01113186124712229,-0.0003886031918227673,0.02880891598761082,-0.000634610652923584,-0.00497465580701828,0.00266563892364502,1,-0.02991127036511898,-0.7527366876602173,0.05099675804376602,0.6556615829467773,-0.9840303063392639,0.1159976050257683,0.1350144147872925,0,0,0,-1,169496.1089485,3,1,1561841680.055447,1561841239.621676,31,1.858098,0,0,29.67847,0,0,1561841682.981903,169497.143812,0,0.2246094,75.19083,0,182478453,3,1,1,-31.82093,-37.65092,1
1561841683.974059,45,0,0,1561841683.001321,4.634703788910652,-74.15101828991821,2556.023,1.32,289.3359375,4,30,-9999,1561841683.96622,-11.79366302490234,-20.62696075439453,19.20672607421875,134.5735015869141,142.0667114257812,15,169500.27170675,-0.9796600341796875,0.11444091796875,0.13348388671875,169500.27170675,-0.03413639885263568,0.01592197489314773,0.05274230749236526,169500.25895075,-86.18048095703125,-47.05467224121094,-543.6826171875,169500.26664075,0.02132215778880974,-1.707224155174591,-0.1169991464486027,-0.0353115014731884,0.001464158296585083,0.04907024651765823,0.005388855934143066,-0.002795025706291199,-0.0009046792984008789,1,-0.03040469437837601,-0.7527371048927307,0.0510561466217041,0.6556337475776672,-0.9839349985122681,0.1167323961853981,0.135075181722641,0,0,0,-1,169496.1089485,3,1,1561841680.055447,1561841239.621676,31,1.858098,0,0,29.67847,0,0,1561841682.981903,169497.143812,0,0.2246094,75.19083,0,182478453,3,1,1,-31.82093,-37.99446,1
1561841683.995678,46,0,0,1561841683.001321,4.634703788910652,-74.15101828991821,2556.023,1.32,289.3359375,4,30,-9999,1561841683.991086,-11.84661102294922,-20.55708312988281,18.99066162109375,134.6309356689453,142.1241455078125,15,169500.29197075,-0.9864349365234375,0.11871337890625,0.1337127685546875,169500.29197075,-0.02478071394318731,0.06044416936487442,0.04234000027451576,169500.27906175,-86.04142761230469,-47.08949279785156,-543.7716674804688,169500.28687475,0.0204979831766292,-1.706883040520122,-0.1178691065070708,-0.02855106629431248,0.04823805391788483,0.04297107458114624,0.001244843006134033,-0.0006530135869979858,-0.002401471138000488,1,-0.03100919164717197,-0.752596378326416,0.0511077381670475,0.6557631492614746,-0.983880341053009,0.1175963655114174,0.1347257643938065,0,0,0,-1,169496.1089485,3,1,1561841680.055447,1561841239.621676,31,1.858098,0,0,29.67847,0,0,1561841682.981903,169497.143812,0,0.2246094,75.19083,0,182478453,3,1,1,-31.82093,-38.64598,1
1561841684.012338,47,0,0,1561841683.001321,4.634703788910652,-74.15101828991821,2556.023,1.32,289.3359375,4,30,-9999,1561841683.991086,-11.84661102294922,-20.55708312988281,18.99066162109375,134.6309356689453,142.1241455078125,15,169500.31220375,-0.979736328125,0.1203460693359375,0.133026123046875,169500.31220375,0.01607111191419217,0.03179707815111008,0.03879799602471037,169500.29917275,-86.26583862304688,-46.80876159667969,-543.6190185546875,169500.30713775,0.02004774439840492,-1.705881067904621,-0.1185168469262757,0.0004089474678039551,0.0428752489387989,0.03136688470840454,0.0005404949188232422,0.00233536958694458,-0.0009628534317016602,1,-0.03141693398356438,-0.7522484660148621,0.05118787288665771,0.6561364531517029,-0.9839389324188232,0.118239589035511,0.133729562163353,0,0,0,-1,169496.1089485,3,1,1561841680.055447,1561841239.621676,31,1.858098,0,0,29.67847,0,0,1561841682.981903,169497.143812,0,0.2246094,75.19083,0,182478453,3,1,1,-31.82093,-39.29635,1
1561841684.032674,48,0,0,1561841683.001321,4.634703788910652,-74.15101828991821,2556.023,1.32,289.3359375,4,30,-9999,1561841684.016791,-11.97194671630859,-20.44748306274414,19.17083740234375,134.6431732177734,142.1363830566406,15,169500.33246775,-0.980224609375,0.119598388671875,0.13677978515625,169500.33246775,0.06302716930614227,-0.008025169628844777,0.04605138156965018,169500.31928375,-86.45445251464844,-47.08125305175781,-543.8267211914062,169500.32740175,0.02050856079772564,-1.705553910249559,-0.11930194408138,0.05471133440732956,-0.009522712789475918,0.04240701720118523,0.00352853536605835,-6.161630153656006e-05,0.0006074905395507812,1,-0.03150997310876846,-0.7521334290504456,0.05162887275218964,0.6562293767929077,-0.9838904738426208,0.1190191432833672,0.1333951503038406,0,0,0,-1,169496.1089485,3,1,1561841680.055447,1561841239.621676,31,1.858098,0,0,29.67847,0,0,1561841682.981903,169497.143812,0,0.2246094,75.19083,0,182478453,3,1,1,-31.82093,-39.97977,1
1561841684.05282,49,0,0,1561841684.001239,4.634719337341036,-74.15103379643908,2555.814,1.32,291.4453125,4,30,-9999,1561841684.041154,-12.05534362792969,-20.52903747558594,19.15289306640625,134.5749206542969,142.0681304931641,15,169500.35273175,-0.9806060791015625,0.116546630859375,0.1335601806640625,169500.35273175,0.0506024575564866,-0.000789893579317502,0.04094397123109622,169500.33936475,-86.38003540039062,-46.72828674316406,-543.8980712890625,169500.34766575,0.02162706308323057,-1.705734177106206,-0.1202683807430332,0.05754147469997406,-0.01518246252089739,0.04022375866770744,0.005602478981018066,-0.002241834998130798,0.003512740135192871,1,-0.03140217065811157,-0.7521917223930359,0.05236173048615456,0.656109631061554,-0.9837519526481628,0.1199786514043808,0.1335569620132446,0,0,0,-1,169496.1089485,3,1,1561841680.055447,1561841239.621676,31,1.858098,0,0,29.67847,0,0,1561841682.981903,169497.143812,0,0.2246094,75.19083,0,182478453,3,1,1,-31.82093,-39.97977,1
1561841684.076851,50,0,0,1561841684.001239,4.634719337341036,-74.15103379643908,2555.814,1.32,291.4453125,4,30,-9999,1561841684.041154,-12.05534362792969,-20.52903747558594,19.15289306640625,134.5749206542969,142.0681304931641,15,169500.37299475,-0.9871063232421875,0.116973876953125,0.1335296630859375,169500.37299475,0.004891960606366552,0.05147038175574342,0.02745266346486381,169500.35947575,-86.44587707519531,-46.81353759765625,-543.4755249023438,169500.36792875,0.02229660802318961,-1.705492715869253,-0.1210469421043836,0.01626567356288433,0.03576966747641563,0.02641553431749344,-0.00205695629119873,-0.003915004432201385,-0.00140988826751709,1,-0.03141253441572189,-0.7521081566810608,0.05287005007266998,0.6561642289161682,-0.983691394329071,0.1207515522837639,0.1333068460226059,0,0,0,-1,169496.1089485,3,1,1561841680.055447,1561841239.621676,31,1.858098,0,0,29.67847,0,0,1561841682.981903,169497.143812,0,0.2246094,75.19083,0,182478453,3,1,1,-31.82093,-41.07442,1
1561841684.093298,51,0,0,1561841684.001239,4.634719337341036,-74.15103379643908,2555.814,1.32,291.4453125,4,30,-9999,1561841684.092561,-11.95231628417969,-20.30746078491211,18.94464111328125,134.5173187255859,142.0105285644531,15,169500.39325875,-0.9832305908203125,0.1197967529296875,0.1316986083984375,169500.39325875,-0.003094326870563067,0.05785930521084352,0.01176131832211694,169500.37958675,-86.49732971191406,-47.08558654785156,-543.7308959960938,169500.38819275,0.0222157131855115,-1.704560702598002,-0.1214450594913335,-0.006377586163580418,0.05171880498528481,0.01156548224389553,-0.000485837459564209,-0.002204492688179016,-0.0007306337356567383,1,-0.03159845992922783,-0.751793384552002,0.05297834053635597,0.6565069556236267,-0.9837670922279358,0.1211467459797859,0.1323835104703903,0,0,0,-1,169496.1089485,3,1,1561841680.055447,1561841239.621676,31,1.858098,0,0,29.67847,0,0,1561841682.981903,169497.143812,0,0.2246094,75.19083,0,182478453,3,1,1,-31.82093,-41.07442,1
1561841684.113755,52,0,0,1561841684.001239,4.634719337341036,-74.15103379643908,2555.814,1.32,291.4453125,4,30,-9999,1561841684.092561,-11.95231628417969,-20.30746078491211,18.94464111328125,134.5173187255859,142.0105285644531,15,169500.41352275,-0.9847869873046875,0.1216583251953125,0.1338348388671875,169500.41352275,0.02809528423589993,0.03985287413249076,2.183792093864975e-05,169500.39969775,-86.50788879394531,-47.06489562988281,-543.6272583007812,169500.40845675,0.0222403415212806,-1.703612072864417,-0.1215412359895868,0.01724625006318092,0.0401923805475235,-0.00196337653324008,-0.0001432299613952637,0.0001109316945075989,0.002370834350585938,1,-0.03164596855640411,-0.7514804601669312,0.05300752446055412,0.6568605899810791,-0.983880877494812,0.1212422177195549,0.1314487010240555,0,0,0,-1,169496.1089485,3,1,1561841680.055447,1561841239.621676,31,1.858098,0,0,29.67847,0,0,1561841682.981903,169497.143812,0,0.2246094,75.19083,0,182478453,3,1,1,-31.82093,-41.18126,1
1561841684.133811,53,0,0,1561841684.001239,4.634719337341036,-74.15103379643908,2555.814,1.32,291.4453125,4,30,-9999,1561841684.117857,-12.05697631835938,-20.09182739257812,19.20550537109375,134.5045471191406,141.9977569580078,15,169500.43378575,-0.9810943603515625,0.1207122802734375,0.135650634765625,169500.43378575,0.05718952019668858,0.01311526942031322,0.003179015393227587,169500.41980875,-86.2425537109375,-46.47998046875,-543.658447265625,169500.42871975,0.02292423924932489,-1.703026115584355,-0.1215467524754216,0.04766008257865906,0.01086192019283772,-0.00326805911026895,-0.0003567934036254883,0.0001359730958938599,0.005297422409057617,1,-0.03140641003847122,-0.7512986660003662,0.05322499945759773,0.6570625305175781,-0.9839571714401245,0.1212476938962936,0.1308721005916595,0,0,0,-1,169496.1089485,3,1,1561841680.055447,1561841239.621676,31,1.858098,0,0,29.67847,0,0,1561841682.981903,169497.143812,0,0.2246094,75.19083,0,182478453,3,1,1,-31.82093,-41.61809,1
1561841684.154162,54,0,0,1561841684.001239,4.634719337341036,-74.15103379643908,2555.814,1.32,291.4453125,4,30,-9999,1561841684.142434,-11.89649963378906,-20.04962921142578,19.22509765625,134.4340209960938,141.9272308349609,15,169500.45404975,-0.9755096435546875,0.12200927734375,0.1334991455078125,169500.45404975,0.04469876205199894,-0.0003107908992122471,0.02539776836775867,169500.43991975,-86.46563720703125,-46.61802673339844,-543.542724609375,169500.44895275,0.02398340168282059,-1.702868386864349,-0.1217697015815163,0.05014081671833992,-0.007896320894360542,0.01632108725607395,0.00725102424621582,-0.001931637525558472,0.004464268684387207,1,-0.03108612634241581,-0.7512591481208801,0.05365416035056114,0.6570879220962524,-0.9839508533477783,0.1214689910411835,0.1307133138179779,0,0,0,-1,169496.1089485,3,1,1561841680.055447,1561841239.621676,31,1.858098,0,0,29.67847,0,0,1561841682.981903,169497.143812,0,0.2246094,75.19083,0,182478453,3,1,1,-31.82093,-37.09943,1
1561841684.174461,55,0,0,1561841684.001239,4.634719337341036,-74.15103379643908,2555.814,1.32,291.4453125,4,30,-9999,1561841684.168589,-12.08036041259766,-20.23028564453125,19.242919921875,134.380126953125,141.8733367919922,15,169500.47428275,-0.9774627685546875,0.1271209716796875,0.133544921875,169500.47428275,0.01610280353116412,0.01375096597251514,0.03022128573411019,169500.46003075,-86.43443298339844,-47.02381896972656,-543.4563598632812,169500.46921675,0.02461303096140793,-1.702864389415553,-0.1223519422891528,0.01858981512486935,0.003094012849032879,0.02844459749758244,0.009531080722808838,0.002419039607048035,0.001914143562316895,1,-0.03104133903980255,-0.7512565851211548,0.05407937616109848,0.6570581197738647,-0.9838810563087463,0.1220469027757645,0.1307000368833542,0,0,0,-1,169496.1089485,3,1,1561841680.055447,1561841239.621676,31,1.858098,0,0,29.67847,0,0,1561841682.981903,169497.143812,0,0.2246094,75.19083,0,182478453,3,1,1,-31.82093,-37.76561,1
1561841684.194611,56,0,0,1561841684.001239,4.634719337341036,-74.15103379643908,2555.814,1.32,291.4453125,4,30,-9999,1561841684.168589,-12.08036041259766,-20.23028564453125,19.242919921875,134.380126953125,141.8733367919922,15,169500.49454675,-0.986541748046875,0.1248779296875,0.13311767578125,169500.49454675,0.005911951303866901,0.03229295874608282,0.0193324189851032,169500.48014175,-86.49018859863281,-46.82502746582031,-543.6832885742188,169500.48948075,0.02477543375844702,-1.702581518598984,-0.1228421915605347,0.005630607716739178,0.02233721502125263,0.01711524277925491,0.0008873343467712402,0.003946632146835327,0.00294792652130127,1,-0.0311493556946516,-0.7511568665504456,0.05431223288178444,0.6571477651596069,-0.9838585257530212,0.1225334703922272,0.1304138451814651,0,0,0,-1,169496.1089485,3,1,1561841680.055447,1561841239.621676,31,1.858098,0,0,29.67847,0,0,1561841682.981903,169497.143812,0,0.2246094,75.19083,0,182478453,3,1,1,-31.82093,-38.47211,1
1561841684.21549,57,0,0,1561841684.001239,4.634719337341036,-74.15103379643908,2555.814,1.32,291.4453125,4,30,-9999,1561841684.193903,-12.14929962158203,-20.10605239868164,19.30255126953125,134.3678436279297,141.8610534667969,15,169500.51480975,-0.9834442138671875,0.1269989013671875,0.1288909912109375,169500.51480975,0.009322928028040389,0.05842283009750428,0.01897049539296144,169500.50025375,-86.61563110351562,-46.75837707519531,-543.411376953125,169500.50974375,0.02477059623591818,-1.701979475091961,-0.1231378267819549,0.00273815868422389,0.04358912259340286,0.01488999184221029,-0.001648962497711182,0.003256499767303467,-0.0001170635223388672,1,-0.03126486018300056,-0.7509533166885376,0.0544121190905571,0.6573666334152222,-0.9839009046554565,0.122826874256134,0.1298167556524277,0,0,0,-1,169496.1089485,3,1,1561841680.055447,1561841239.621676,31,1.858098,0,0,29.67847,0,0,1561841682.981903,169498.087726,0,0.6342773,75.18696,0,182478453,3,1,1,-31.82093,-37.57911,1
1561841684.236631,58,0,0,1561841684.001239,4.634719337341036,-74.15103379643908,2555.814,1.32,291.4453125,4,30,-9999,1561841684.219403,-11.98006439208984,-20.10441589355469,19.289794921875,134.3649139404297,141.8581237792969,15,169500.53507375,-0.97320556640625,0.1253509521484375,0.130462646484375,169500.53507375,0.02330798586037349,0.06340986555478666,0.01787966461046498,169500.52036475,-86.55322265625,-46.89485168457031,-543.6697387695312,169500.53000775,0.02492829749210418,-1.700885768876017,-0.1234830387390183,0.015265136025846,0.06017741933465004,0.01518773194402456,0.004858970642089844,0.003219082951545715,0.002002239227294922,1,-0.03134915977716446,-0.7505896091461182,0.05457626283168793,0.6577642560005188,-0.9840002059936523,0.1231694668531418,0.1287350654602051,0,0,0,-1,169496.1089485,3,1,1561841680.055447,1561841239.621676,31,1.858098,0,0,29.67847,0,0,1561841682.981903,169498.087726,0,0.6342773,75.18696,0,182478453,3,1,1,-31.82093,-37.57911,1
1561841684.256994,59,0,0,1561841684.001239,4.634719337341036,-74.15103379643908,2555.814,1.32,291.4453125,4,30,-9999,1561841684.244241,-12.09931945800781,-20.25377655029297,19.2149658203125,134.3399810791016,141.8331909179688,15,169500.55533775,-0.9728240966796875,0.1231231689453125,0.1397552490234375,169500.55533775,0.05009246220773642,0.007812649373856452,0.02363475572612622,169500.54044475,-86.65657043457031,-46.75679016113281,-543.50146484375,169500.55027175,0.02544362286223409,-1.699921485489011,-0.1238630368032371,0.04013160243630409,0.01917059905827045,0.01882454380393028,0.01462572813034058,0.0008888617157936096,0.00806891918182373,1,-0.03130741789937019,-0.7502732276916504,0.05487306043505669,0.6581025719642639,-0.9840776324272156,0.1235465630888939,0.1277801394462585,0,0,0,-1,169496.1089485,3,1,1561841680.055447,1561841239.621676,31,1.858098,0,0,29.67847,0,0,1561841682.981903,169498.087726,0,0.6342773,75.18696,0,182478453,3,1,1,-31.82093,-38.3272,1
1561841684.275664,60,0,0,1561841684.001239,4.634719337341036,-74.15103379643908,2555.814,1.32,291.4453125,4,30,-9999,1561841684.244241,-12.09931945800781,-20.25377655029297,19.2149658203125,134.3399810791016,141.8331909179688,15,169500.57560075,-0.978363037109375,0.124542236328125,0.1389617919921875,169500.57560075,0.0366983598212919,-0.02683028271811229,0.03560060481996124,169500.56055575,-86.71858215332031,-46.62564086914062,-543.5621337890625,169500.57053575,0.02634566283938516,-1.700019055923719,-0.1244793107738981,0.04444245994091034,-0.0296454094350338,0.02848409488797188,0.007792949676513672,-0.0008670687675476074,0.01121747493743896,1,-0.0311694759875536,-0.7503076791763306,0.05540225654840469,0.6580253839492798,-0.9839892983436584,0.1241580918431282,0.1278662979602814,0,0,0,-1,169496.1089485,3,1,1561841680.055447,1561841239.621676,31,1.858098,0,0,29.67847,0,0,1561841682.981903,169498.087726,0,0.6342773,75.18696,0,182478453,3,1,1,-31.82093,-38.79454,1
1561841684.296035,61,0,0,1561841684.001239,4.634719337341036,-74.15103379643908,2555.814,1.32,291.4453125,4,30,-9999,1561841684.294505,-12.29010772705078,-20.1507453918457,19.27142333984375,134.26171875,141.7549285888672,15,169500.59586475,-0.9868011474609375,0.12451171875,0.1334381103515625,169500.59586475,-0.02251755964883798,0.01047820730891676,0.03295928165082065,169500.58066675,-86.79707336425781,-46.67576599121094,-543.5751342773438,169500.59079875,0.02666164340795042,-1.700529708876778,-0.1251641284892919,-0.008806111291050911,-0.01260384172201157,0.02975788712501526,0.0009902119636535645,-0.0003258585929870605,0.006590962409973145,1,-0.03126243129372597,-0.7504675388336182,0.05577073618769646,0.6578075289726257,-0.9838393330574036,0.1248375773429871,0.1283577382564545,0,0,0,-1,169496.1089485,3,1,1561841680.055447,1561841239.621676,31,1.858098,0,0,29.67847,0,0,1561841682.981903,169498.087726,0,0.6342773,75.18696,0,182478453,3,1,1,-31.82093,-38.90297,1
1561841684.316572,62,0,0,1561841684.001239,4.634719337341036,-74.15103379643908,2555.814,1.32,291.4453125,4,30,-9999,1561841684.294505,-12.29010772705078,-20.1507453918457,19.27142333984375,134.26171875,141.7549285888672,15,169500.61612875,-0.988006591796875,0.1220855712890625,0.128387451171875,169500.61612875,-0.06772764863013213,0.06690872659493277,0.0181188164763541,169500.60077775,-86.61123657226562,-46.4644775390625,-543.6194458007812,169500.61103175,0.02582777926187227,-1.700245984466942,-0.1255949767091589,-0.06166772916913033,0.04801582917571068,0.019459443166852,-0.006290078163146973,-0.002004548907279968,0.00413048267364502,1,-0.0317251905798912,-0.7503527998924255,0.0556534081697464,0.6579261422157288,-0.983822226524353,0.125265046954155,0.1280716210603714,0,0,0,-1,169496.1089485,3,1,1561841680.055447,1561841239.621676,31,1.858098,0,0,29.67847,0,0,1561841682.981903,169498.087726,0,0.6342773,75.18696,0,182478453,3,1,1,-31.82093,-38.94645,1
1561841684.336462,63,0,0,1561841684.001239,4.634719337341036,-74.15103379643908,2555.814,1.32,291.4453125,4,30,-9999,1561841684.322644,-12.24610900878906,-20.2761344909668,19.2425537109375,134.3412170410156,141.8344268798828,15,169500.63636175,-0.9834136962890625,0.1186370849609375,0.1268157958984375,169500.63636175,-0.0587796936835749,0.08028072474432962,0.01942376541049292,169500.62088975,-86.56497192382812,-46.615966796875,-543.6048583984375,169500.63129575,0.02437651236025655,-1.69911909099935,-0.1257526218588269,-0.06731761991977692,0.07528660446405411,0.01803172193467617,-0.001145720481872559,-0.005365297198295593,0.0002826452255249023,1,-0.03235273435711861,-0.7499556541442871,0.05521681904792786,0.6583850979804993,-0.9839464426040649,0.1254214495420456,0.1269603669643402,0,0,0,-1,169496.1089485,3,1,1561841680.055447,1561841239.621676,31,1.858098,0,0,29.67847,0,0,1561841682.981903,169498.087726,0,0.6342773,75.18696,0,182478453,3,1,1,-31.82093,-36.18769,1
1561841684.358992,64,0,0,1561841684.001239,4.634719337341036,-74.15103379643908,2555.814,1.32,291.4453125,4,30,-9999,1561841684.344983,-12.13088226318359,-20.12838745117188,19.114501953125,134.4330291748047,141.9262390136719,15,169500.65662575,-0.983612060546875,0.11798095703125,0.132659912109375,169500.65662575,-0.001919872829838123,0.0619624375023286,-0.002520149339541983,169500.64100075,-86.54158020019531,-46.61521911621094,-543.4686889648438,169500.65155975,0.02337406000359768,-1.697890288735242,-0.1258374301267559,-0.02164787426590919,0.05973346903920174,-0.003420040011405945,0.0003721714019775391,-0.007356777787208557,0.004575490951538086,1,-0.03279032930731773,-0.7495329976081848,0.05489843711256981,0.6588711738586426,-0.9840911030769348,0.1255055814981461,0.1257498413324356,0,0,0,-1,169496.1089485,3,1,1561841680.055447,1561841239.621676,31,1.858098,0,0,29.67847,0,0,1561841682.981903,169498.087726,0,0.6342773,75.18696,0,182478453,3,1,1,-31.82093,-36.27293,1
1561841684.376926,65,0,0,1561841684.001239,4.634719337341036,-74.15103379643908,2555.814,1.32,291.4453125,4,30,-9999,1561841684.344983,-12.13088226318359,-20.12838745117188,19.114501953125,134.4330291748047,141.9262390136719,15,169500.67688875,-0.979095458984375,0.1219482421875,0.1309051513671875,169500.67688875,0.05324591125449925,0.02078677125639548,-0.004503139087214984,169500.66111175,-86.63287353515625,-46.61149597167969,-543.5821533203125,169500.67182275,0.02361691464570292,-1.696996108670607,-0.1257054460785037,0.03950336202979088,0.02246306464076042,-0.009178592823445797,0.003461003303527832,-0.004982799291610718,0.006628274917602539,1,-0.03268031775951385,-0.7492449283599854,0.0549144335091114,0.6592029333114624,-0.9842196702957153,0.1253746449947357,0.1248719319701195,0,0,0,-1,169496.1089485,3,1,1561841680.055447,1561841239.621676,31,1.858098,0,0,29.67847,0,0,1561841682.981903,169498.087726,0,0.6342773,75.18696,0,182478453,3,1,1,-31.82093,-36.27293,1
1561841684.397197,66,0,0,1561841684.001239,4.634719337341036,-74.15103379643908,2555.814,1.32,291.4453125,4,30,-9999,1561841684.376509,-12.21157836914062,-20.0133056640625,19.22845458984375,134.4307250976562,141.9239349365234,15,169500.69715275,-0.97698974609375,0.1246490478515625,0.1309356689453125,169500.69715275,0.06710713209614366,0.01395895885365033,0.01416588647034948,169500.68122275,-86.53434753417969,-46.73135375976562,-543.7990112304688,169500.69208675,0.02478232644658217,-1.696666739230285,-0.1257849078199985,0.06703246384859085,0.004460895899683237,0.00636015273630619,0.008100390434265137,-0.001887798309326172,0.008082866668701172,1,-0.03227907046675682,-0.749153733253479,0.05532295629382133,0.6592922210693359,-0.9842509031295776,0.1254534721374512,0.124546505510807,0,0,0,-1,169496.1089485,3,1,1561841680.055447,1561841239.621676,31,1.858098,0,0,29.67847,0,0,1561841682.981903,169498.087726,0,0.6342773,75.18696,0,182478453,3,1,1,-31.82093,-36.91851,1
1561841684.41744,67,0,0,1561841684.001239,4.634719337341036,-74.15103379643908,2555.814,1.32,291.4453125,4,30,-9999,1561841684.376509,-12.21157836914062,-20.0133056640625,19.22845458984375,134.4307250976562,141.9239349365234,15,169500.71741675,-0.9759368896484375,0.1217803955078125,0.1268310546875,169500.71741675,0.03416462836019051,0.0440585381259439,0.02059182786460168,169500.70133375,-86.450439453125,-46.62698364257812,-543.3658447265625,169500.71235075,0.02592523694121883,-1.69620224991668,-0.1261835676373182,0.04311833903193474,0.03202594444155693,0.01814996637403965,0.007360696792602539,-0.004389017820358276,0.005372524261474609,1,-0.03199557960033417,-0.749011218547821,0.05584139376878738,0.6594241857528687,-0.9842588901519775,0.1258489787578583,0.1240830421447754,0,0,0,-1,169496.1089485,3,1,1561841680.055447,1561841239.621676,31,1.858098,0,0,29.67847,0,0,1561841682.981903,169498.087726,0,0.6342773,75.18696,0,182478453,3,1,1,-31.82093,-37.19192,1
1561841684.440193,68,0,0,1561841684.001239,4.634719337341036,-74.15103379643908,2555.814,1.32,291.4453125,4,30,-9999,1561841684.422432,-12.06712341308594,-19.93998718261719,19.11444091796875,134.2782440185547,141.7714538574219,15,169500.73767975,-0.9844970703125,0.124908447265625,0.1344146728515625,169500.73767975,0.006444849837991757,0.06125403665236752,0.00970509164446676,169500.72144475,-86.66416931152344,-46.48728942871094,-543.9110717773438,169500.73261375,0.02635303881375667,-1.695277363511307,-0.126486424559428,0.006437555886805058,0.05575630813837051,0.006391045637428761,0.00263059139251709,-0.0001575946807861328,0.006425023078918457,1,-0.0319613441824913,-0.7487071752548218,0.05608092620968819,0.6597506999969482,-0.9843353033065796,0.1261494159698486,0.1231679245829582,0,0,0,-1,169496.1089485,3,1,1561841680.055447,1561841239.621676,31,1.858098,0,0,29.67847,0,0,1561841682.981903,169498.087726,0,0.6342773,75.18696,0,182478453,3,1,1,-31.82093,-37.42563,1
1561841684.467241,69,0,0,1561841684.001239,4.634719337341036,-74.15103379643908,2555.814,1.32,291.4453125,4,30,-9999,1561841684.446171,-12.10466766357422,-20.05580139160156,19.2147216796875,134.2679748535156,141.7611846923828,15,169500.75794375,-0.983795166015625,0.123931884765625,0.129364013671875,169500.75794375,-0.001387506927931283,0.05630535071478228,0.01361141633139499,169500.74155575,-86.52175903320312,-46.57682800292969,-543.51171875,169500.75287775,0.02635163125260755,-1.694202039239295,-0.1266392289559883,-0.004907776601612568,0.05191496387124062,0.0125077934935689,0.001080155372619629,-0.002491191029548645,0.009622097015380859,1,-0.03204255178570747,-0.7483493685722351,0.05612035840749741,0.6601492762565613,-0.9844481348991394,0.1263010054826736,0.1221070066094398,0,0,0,-1,169496.1089485,3,1,1561841680.055447,1561841239.621676,31,1.858098,0,0,29.67847,0,0,1561841682.981903,169498.087726,0,0.6342773,75.18696,0,182478453,3,1,1,-31.82093,-38.02013,1
1561841684.478282,70,0,0,1561841684.001239,4.634719337341036,-74.15103379643908,2555.814,1.32,291.4453125,4,30,-9999,1561841684.474956,-12.31484985351562,-20.13229370117188,19.16351318359375,134.2722930908203,141.7655029296875,15,169500.77820775,-0.9801177978515625,0.12005615234375,0.1268463134765625,169500.77820775,0.007640875483546342,0.03310628814299302,-0.01654755143320735,169500.76166675,-86.78671264648438,-46.85317993164062,-543.5811157226562,169500.77311075,0.0262873138274469,-1.693293016930887,-0.1266898210929403,-0.001257647993043065,0.0392518974840641,-0.0120995482429862,0.001016497611999512,-0.002846553921699524,0.00615382194519043,1,-0.0321088507771492,-0.7480472326278687,0.05610344558954239,0.6604897975921631,-0.9845523238182068,0.1263511925935745,0.1212112829089165,0,0,0,-1,169496.1089485,3,1,1561841680.055447,1561841239.621676,31,1.858098,0,0,29.67847,0,0,1561841682.981903,169498.087726,0,0.6342773,75.18696,0,182478453,3,1,1,-31.82093,-38.13976,1
1561841684.498523,71,0,0,1561841684.001239,4.634719337341036,-74.15103379643908,2555.814,1.32,291.4453125,4,30,-9999,1561841684.496861,-12.23931884765625,-20.1045036315918,19.28302001953125,134.2442474365234,141.7374572753906,15,169500.79844075,-0.9876251220703125,0.1214599609375,0.12811279296875,169500.79844075,0.03712925928566672,0.019628029866102,-0.03873754226796557,169500.78177775,-86.70741271972656,-46.72064208984375,-543.7257690429688,169500.79337475,0.02662173153069953,-1.692848950252053,-0.1261489245014399,0.0289953276515007,0.01250923424959183,-0.04158446937799454,0.001214385032653809,-0.005407512187957764,0.006918430328369141,1,-0.0318172387778759,-0.7479163408279419,0.05600480735301971,0.6606605648994446,-0.984673798084259,0.1258146166801453,0.120782382786274,0,0,0,-1,169496.1089485,3,1,1561841680.055447,1561841239.621676,31,1.858098,0,0,29.67847,0,0,1561841682.981903,169498.087726,0,0.6342773,75.18696,0,182478453,3,1,1,-31.82093,-35.70166,1
1561841684.518819,72,0,0,1561841684.001239,4.634719337341036,-74.15103379643908,2555.814,1.32,291.4453125,4,30,-9999,1561841684.496861,-12.23931884765625,-20.1045036315918,19.28302001953125,134.2442474365234,141.7374572753906,15,169500.81870375,-0.9822998046875,0.1248626708984375,0.1262359619140625,169500.81870375,0.03358166239757217,0.03253290956029897,-0.02441772508660951,169500.80188875,-86.64010620117188,-46.85920715332031,-543.720947265625,169500.81363875,0.0274243015515106,-1.692392504140848,-0.1254435644444371,0.03455094993114471,0.0269334465265274,-0.03219922259449959,-0.002961158752441406,-0.00347176194190979,0.007433414459228516,1,-0.03129643574357033,-0.7477916479110718,0.05599940195679665,0.6608269214630127,-0.9848165512084961,0.1251148283481598,0.1203436329960823,0,0,0,-1,169496.1089485,3,1,1561841680.055447,1561841239.621676,31,1.858098,0,0,29.67847,0,0,1561841682.981903,169498.087726,0,0.6342773,75.18696,0,182478453,3,1,1,-31.82093,-36.45324,1
1561841684.542755,73,0,0,1561841684.001239,4.634719337341036,-74.15103379643908,2555.814,1.32,291.4453125,4,30,-9999,1561841684.524696,-12.31155395507812,-20.09480285644531,19.23150634765625,134.1881561279297,141.6813659667969,15,169500.83896775,-0.978271484375,0.1285247802734375,0.1279449462890625,169500.83896775,0.02973872094458783,0.0332935083676256,0.01520638350824344,169500.82199975,-86.70591735839844,-46.76443481445312,-543.8702392578125,169500.83390175,0.02807618340020104,-1.69178167719024,-0.1251448994123454,0.0281018391251564,0.03105868399143219,4.36671543866396e-05,0.004381835460662842,0.004179298877716064,0.006214737892150879,1,-0.03097095340490341,-0.747605562210083,0.05609383806586266,0.661044716835022,-0.9849268794059753,0.1248185038566589,0.1197465509176254,0,0,0,-1,169496.1089485,3,1,1561841680.055447,1561841239.621676,31,1.858098,0,0,29.67847,0,0,1561841682.981903,169498.087726,0,0.6342773,75.18696,0,182478453,3,1,1,-31.82093,-36.55299,1
1561841684.561752,74,0,0,1561841684.001239,4.634719337341036,-74.15103379643908,2555.814,1.32,291.4453125,4,30,-9999,1561841684.524696,-12.31155395507812,-20.09480285644531,19.23150634765625,134.1881561279297,141.6813659667969,15,169500.85923175,-0.968475341796875,0.1306304931640625,0.12286376953125,169500.85923175,0.03712286769905053,-0.005921804999900194,0.04775633729951891,169500.84211075,-86.64250183105469,-46.6107177734375,-543.4434814453125,169500.85416575,0.02856865306348649,-1.691384883320431,-0.1256164881969291,0.03167659789323807,-0.0004659523256123066,0.03581737726926804,0.01349550485610962,0.003513053059577942,0.006597399711608887,1,-0.03095424361526966,-0.7474731802940369,0.05642646923661232,0.6611669063568115,-0.9849157929420471,0.1252863854169846,0.1193486377596855,0,0,0,-1,169496.1089485,3,1,1561841680.055447,1561841239.621676,31,1.858098,0,0,29.67847,0,0,1561841682.981903,169498.087726,0,0.6342773,75.18696,0,182478453,3,1,1,-31.82093,-36.55299,1
1561841684.579547,75,0,0,1561841684.001239,4.634719337341036,-74.15103379643908,2555.814,1.32,291.4453125,4,30,-9999,1561841684.565056,-12.31684112548828,-20.13594818115234,19.13238525390625,134.1486663818359,141.6418762207031,15,169500.87949475,-0.9756011962890625,0.1293182373046875,0.125030517578125,169500.87949475,0.06166815820187484,-0.0249650046906208,0.07404253620692802,169500.86222275,-86.77938842773438,-46.85357666015625,-543.5538330078125,169500.87442975,0.02928853563677772,-1.691661068982504,-0.1267159931091389,0.05273794010281563,-0.03053969889879227,0.06319067627191544,0.0132642388343811,0.003871873021125793,0.004068493843078613,1,-0.03104153275489807,-0.7475549578666687,0.05707898363471031,0.6610143780708313,-0.9847455024719238,0.1263771504163742,0.1196039840579033,0,0,0,-1,169496.1089485,3,1,1561841680.055447,1561841239.621676,31,1.858098,0,0,29.67847,0,0,1561841682.981903,169498.087726,0,0.6342773,75.18696,0,182478453,3,1,1,-31.91285,-36.6797,1
1561841684.599786,76,0,0,1561841684.001239,4.634719337341036,-74.15103379643908,2555.814,1.32,291.4453125,4,30,-9999,1561841684.598095,-12.47533416748047,-20.05159378051758,19.1943359375,134.0241394042969,141.5173492431641,15,169500.89975875,-0.977813720703125,0.124114990234375,0.12164306640625,169500.89975875,0.06350573935402952,-0.03651859644771156,0.08443738657372531,169500.88233375,-86.86563110351562,-46.66558837890625,-543.8942260742188,169500.89469275,0.03033639748576148,-1.69228117398195,-0.1283296579040509,0.06308352947235107,-0.04254363104701042,0.08013610541820526,0.009369850158691406,-0.001833304762840271,0.002597808837890625,1,-0.03116632252931595,-0.7477456331253052,0.05803708359599113,0.6607093811035156,-0.9844675064086914,0.1279777139425278,0.1201897412538528,0,0,0,-1,169496.1089485,3,1,1561841680.055447,1561841239.621676,31,1.858098,0,0,29.67847,0,0,1561841682.981903,169498.087726,0,0.6342773,75.18696,0,182478453,3,1,1,-31.91285,-36.82064,1
1561841684.632984,77,0,0,1561841684.001239,4.634719337341036,-74.15103379643908,2555.814,1.32,291.4453125,4,30,-9999,1561841684.625456,-12.32319641113281,-20.16800689697266,19.01763916015625,133.9668121337891,141.4600219726562,15,169500.92002275,-0.9751739501953125,0.1193084716796875,0.125244140625,169500.92002275,0.04056633498852299,-0.03038453750893205,0.08616284864398764,169500.90244475,-86.85124206542969,-46.75839233398438,-543.8793334960938,169500.91492575,0.03129120079495402,-1.693010108498385,-0.1301119423263762,0.04562144353985786,-0.0395294651389122,0.08175317943096161,0.006200551986694336,-0.008132591843605042,0.001984477043151855,1,-0.03137791901826859,-0.7479673027992249,0.05902909487485886,0.6603604555130005,-0.9841516613960266,0.12974514067173,0.1208793222904205,0,0,0,-1,169496.1089485,3,1,1561841680.055447,1561841239.621676,31,1.858098,0,0,29.67847,0,0,1561841682.981903,169498.087726,0,0.6342773,75.18696,0,182478453,3,1,1,-31.91285,-37.22025,1
1561841684.64037,78,0,0,1561841684.001239,4.634719337341036,-74.15103379643908,2555.814,1.32,291.4453125,4,30,-9999,1561841684.625456,-12.32319641113281,-20.16800689697266,19.01763916015625,133.9668121337891,141.4600219726562,15,169500.94028575,-0.97698974609375,0.125396728515625,0.1313934326171875,169500.94028575,-0.02364913679601264,-0.03307379757769406,0.08309382180378033,169500.92255575,-86.98016357421875,-46.62200927734375,-543.5346069335938,169500.93518975,0.0315465558764101,-1.693700620729319,-0.1318398782457623,-0.008320351131260395,-0.03657149150967598,0.08263281732797623,0.00960087776184082,-0.009571075439453125,0.006062746047973633,1,-0.03183362632989883,-0.7481659054756165,0.05976942554116249,0.6600470542907715,-0.9838440418243408,0.1314582824707031,0.1215312033891678,0,0,0,-1,169496.1089485,3,1,1561841680.055447,1561841239.621676,31,1.858098,0,0,29.67847,0,0,1561841682.981903,169498.087726,0,0.6342773,75.18696,0,182478453,3,1,1,-31.91285,-37.22025,1
1561841684.660637,79,0,0,1561841684.001239,4.634719337341036,-74.15103379643908,2555.814,1.32,291.4453125,4,30,-9999,1561841684.648777,-12.34208679199219,-20.08448791503906,19.26202392578125,134.0000762939453,141.4932861328125,15,169500.96051975,-0.986297607421875,0.135345458984375,0.1383819580078125,169500.96051975,-0.07669211517544786,-0.02873843763915407,0.04112533250133062,169500.94263575,-86.77043151855469,-46.75404357910156,-543.1370849609375,169500.95545375,0.03052721360289124,-1.694653797400605,-0.133150281873775,-0.0709373876452446,-0.03872785344719887,0.05141418054699898,0.003712773323059082,-0.001852035522460938,0.01268434524536133,1,-0.03261984139680862,-0.7484381794929504,0.05993787199258804,0.6596845388412476,-0.9835558533668518,0.1327571868896484,0.1224475279450417,0,0,0,-1,169496.1089485,3,1,1561841680.055447,1561841239.621676,31,1.858098,0,0,29.67847,0,0,1561841682.981903,169498.087726,0,0.6342773,75.18696,0,182478453,3,1,1,-31.91285,-37.66747,1
1561841684.680858,80,0,0,1561841684.001239,4.634719337341036,-74.15103379643908,2555.814,1.32,291.4453125,4,30,-9999,1561841684.675188,-12.28823089599609,-20.00160980224609,19.2432861328125,134.1197509765625,141.6129608154297,15,169500.98078275,-1.000518798828125,0.13238525390625,0.13470458984375,169500.98078275,-0.1028560749888223,0.01413685801446762,0.0005858954398174324,169500.96274675,-86.47409057617188,-46.61357116699219,-543.60302734375,169500.97571675,0.02874450228012812,-1.695455114927681,-0.1334303486496473,-0.09602676331996918,-0.007547563873231411,0.004542012698948383,-0.01259678602218628,0.003516122698783875,0.01263332366943359,1,-0.0333557166159153,-0.7486674189567566,0.05946782231330872,0.659430205821991,-0.9834206104278564,0.1330347806215286,0.123231016099453,0,0,0,-1,169496.1089485,3,1,1561841680.055447,1561841239.621676,31,1.858098,0,0,29.67847,0,0,1561841682.981903,169498.087726,0,0.6342773,75.18696,0,182478453,3,1,1,-31.91285,-38.09462,1
1561841684.716756,81,0,0,1561841684.001239,4.634719337341036,-74.15103379643908,2555.814,1.32,291.4453125,4,30,-9999,1561841684.699578,-12.41543579101562,-20.2230339050293,19.391357421875,134.2745971679688,141.7678070068359,15,169501.00104675,-0.988311767578125,0.1334991455078125,0.1276397705078125,169501.00104675,-0.1044108284332106,0.02588832264055127,-0.01696433614380475,169500.98285875,-86.53579711914062,-46.71903991699219,-543.5955810546875,169500.99598075,0.02656168028428345,-1.695471731182481,-0.1329710637468815,-0.1124984174966812,0.0202233474701643,-0.01657898537814617,-0.01302683353424072,-0.001598119735717773,0.01088511943817139,1,-0.0340205579996109,-0.7486454844474792,0.05857671797275543,0.659500777721405,-0.9834789037704468,0.1325795650482178,0.1232549175620079,0,0,0,-1,169496.1089485,3,1,1561841680.055447,1561841239.621676,31,1.858098,0,0,29.67847,0,0,1561841682.981903,169498.087726,0,0.6342773,75.18696,0,182478453,3,1,1,-31.91285,-37.62337,1
1561841684.724115,82,0,0,1561841684.001239,4.634719337341036,-74.15103379643908,2555.814,1.32,291.4453125,4,30,-9999,1561841684.699578,-12.41543579101562,-20.2230339050293,19.391357421875,134.2745971679688,141.7678070068359,15,169501.021338,-0.981536865234375,0.133026123046875,0.1220245361328125,169501.021338,-0.05864254088743582,0.01062468116887112,-0.02142672886634152,169501.002997,-86.68721008300781,-46.86979675292969,-543.7591552734375,169501.016272,0.02468259781390567,-1.695451032986774,-0.1322643457485096,-0.07321226596832275,0.0059812949039042,-0.02400920540094376,-0.0005412101745605469,-0.0004093199968338013,0.002547264099121094,1,-0.03449102863669395,-0.7486210465431213,0.05769255012273788,0.6595821380615234,-0.983574390411377,0.1318790465593338,0.1232462078332901,0,0,0,-1,169496.1089485,3,1,1561841680.055447,1561841239.621676,31,1.858098,0,0,29.67847,0,0,1561841682.981903,169498.087726,0,0.6342773,75.18696,0,182478453,3,1,1,-31.91285,-37.62337,1
1561841684.742215,83,0,0,1561841684.001239,4.634719337341036,-74.15103379643908,2555.814,1.32,291.4453125,4,30,-9999,1561841684.725713,-12.31734466552734,-20.34457397460938,19.12933349609375,134.3887329101562,141.8819427490234,15,169501.041601,-0.9793853759765625,0.1300201416015625,0.1148223876953125,169501.041601,-0.008806274776565017,0.03634122991911228,-0.006012885109180904,169501.023108,-86.95187377929688,-46.8583984375,-543.7811279296875,169501.036535,0.02370695140773656,-1.695366425708656,-0.1317000072394979,-0.02428892999887466,0.02547163888812065,-0.01381755340844393,0.002167344093322754,0.0008215010166168213,-0.005832076072692871,1,-0.03467218205332756,-0.748587965965271,0.05715837702155113,0.6596566438674927,-0.9836584329605103,0.1313196122646332,0.1231722086668015,0,0,0,-1,169496.1089485,3,1,1561841680.055447,1561841239.621676,31,1.858098,0,0,29.67847,0,0,1561841682.981903,169498.087726,0,0.6342773,75.18696,0,182478453,3,1,1,-31.91285,-37.99741,1
1561841684.761933,84,0,0,1561841684.001239,4.634719337341036,-74.15103379643908,2555.814,1.32,291.4453125,4,30,-9999,1561841684.75023,-12.32823944091797,-20.16695022583008,19.1190185546875,134.4143218994141,141.9075317382812,15,169501.061865,-0.9747772216796875,0.1348114013671875,0.1172637939453125,169501.061865,0.07071225326378393,0.04662476015234425,0.01972310471701783,169501.043219,-86.65437316894531,-46.94808959960938,-543.812744140625,169501.056799,0.02389884948654544,-1.694656456126034,-0.1316520148748768,0.04866330698132515,0.04170147329568863,0.007464033551514149,0.007265686988830566,0.000838547945022583,-0.00853729248046875,1,-0.03460480272769928,-0.7483580708503723,0.05719145014882088,0.6599181294441223,-0.9837518930435181,0.1312720328569412,0.1224745884537697,0,0,0,-1,169496.1089485,3,1,1561841680.055447,1561841239.621676,31,1.858098,0,0,29.67847,0,0,1561841682.981903,169498.087726,0,0.6342773,75.18696,0,182478453,3,1,1,-31.91285,-38.59428,1
1561841684.796104,85,0,0,1561841684.001239,4.634719337341036,-74.15103379643908,2555.814,1.32,291.4453125,4,30,-9999,1561841684.776491,-12.47247314453125,-20.15234756469727,19.28704833984375,134.3141784667969,141.8073883056641,15,169501.082129,-0.9754180908203125,0.1378021240234375,0.1270751953125,169501.082129,0.1191620777111595,0.015796540005805,0.0254054915349199,169501.06333,-86.69662475585938,-46.72242736816406,-543.7735595703125,169501.077032,0.02552197927373231,-1.69381971127478,-0.1322753298722473,0.1113005876541138,0.01708880625665188,0.02639697678387165,0.009285330772399902,0.005301833152770996,0.0003527402877807617,1,-0.03422774001955986,-0.7480970025062561,0.05794557556509972,0.660167932510376,-0.9837726354598999,0.1318899393081665,0.1216413229703903,0,0,0,-1,169496.1089485,3,1,1561841680.055447,1561841239.621676,31,1.858098,0,0,29.67847,0,0,1561841682.981903,169498.087726,0,0.6342773,75.18696,0,182478453,3,1,1,-30.28173,-33.42505,1
1561841684.802439,86,0,0,1561841684.001239,4.634719337341036,-74.15103379643908,2555.814,1.32,291.4453125,4,30,-9999,1561841684.80123,-12.54586791992188,-20.05785751342773,19.20770263671875,134.1473541259766,141.6405639648438,15,169501.102362,-0.9837188720703125,0.130096435546875,0.1336822509765625,169501.102362,0.102073638260557,0.03268364447799745,-0.00796444955599097,169501.083441,-86.95477294921875,-46.72599792480469,-543.830322265625,169501.097296,0.02789001343954972,-1.693329680687258,-0.1328188180545933,0.1128670647740364,0.01313960552215576,-0.004619527608156204,0.003810584545135498,0.003023624420166016,0.01106691360473633,1,-0.0335361436009407,-0.7479642629623413,0.05892194807529449,0.6602672338485718,-0.9837605357170105,0.1324286609888077,0.1211504265666008,0,0,0,-1,169496.1089485,3,1,1561841680.055447,1561841239.621676,31,1.858098,0,0,29.67847,0,0,1561841682.981903,169498.087726,0,0.6342773,75.18696,0,182478453,3,1,1,-30.28173,-33.42505,1
1561841684.823994,87,0,0,1561841684.001239,4.634719337341036,-74.15103379643908,2555.814,1.32,291.4453125,4,30,-9999,1561841684.80123,-12.54586791992188,-20.05785751342773,19.20770263671875,134.1473541259766,141.6405639648438,15,169501.122625,-0.9875946044921875,0.128143310546875,0.1360626220703125,169501.122625,0.01372460067772335,0.06889198265871477,-0.0193558548026959,169501.103552,-87.30526733398438,-46.57475280761719,-543.7072143554688,169501.11756,0.02951061536887303,-1.692356564020552,-0.1327532631994184,0.03438130393624306,0.05704048648476601,-0.01757394336163998,-0.002990603446960449,-0.006783843040466309,0.01466310024261475,1,-0.03293728455901146,-0.7476711869239807,0.05941643938422203,0.6605851054191589,-0.9838868379592896,0.1323636770248413,0.120194137096405,0,0,0,-1,169496.1089485,3,1,1561841680.055447,1561841239.621676,31,1.858098,0,0,29.67847,0,0,1561841682.981903,169498.087726,0,0.6342773,75.18696,0,182478453,3,1,1,-30.28173,-33.8317,1
1561841684.843235,88,0,0,1561841684.001239,4.634719337341036,-74.15103379643908,2555.814,1.32,291.4453125,4,30,-9999,1561841684.827044,-12.59461212158203,-20.01634979248047,19.1539306640625,134.0699157714844,141.5631256103516,15,169501.142889,-0.9790802001953125,0.1277313232421875,0.13775634765625,169501.142889,-0.03196432466756705,0.06451507740716955,-0.01443646363710153,169501.123663,-86.88845825195312,-46.3975830078125,-543.5125122070312,169501.137823,0.02952365451308025,-1.691094467012789,-0.1322745644645823,-0.02615074813365936,0.05874570831656456,-0.0230262316763401,0.0002443194389343262,-0.002601459622383118,0.01879644393920898,1,-0.03281132504343987,-0.7472639083862305,0.05922140926122665,0.6610695123672485,-0.9841005206108093,0.1318891793489456,0.118959866464138,0,0,0,-1,169496.1089485,3,1,1561841680.055447,1561841239.621676,31,1.858098,0,0,29.67847,0,0,1561841682.981903,169498.087726,0,0.6342773,75.18696,0,182478453,3,1,1,-30.28173,-34.54348,1
1561841684.877886,89,0,0,1561841684.001239,4.634719337341036,-74.15103379643908,2555.814,1.32,291.4453125,4,30,-9999,1561841684.851479,-12.39759826660156,-20.02062225341797,19.1165771484375,134.1056671142578,141.598876953125,15,169501.163153,-0.9788970947265625,0.1334228515625,0.1359100341796875,169501.163153,-0.04761732029061678,0.04430647842343027,-0.009064601402302704,169501.143774,-86.8203125,-46.62570190429688,-543.629150390625,169501.158087,0.02876114525744292,-1.690113859579175,-0.1318903015392482,-0.04965820536017418,0.0438154898583889,-0.0106611754745245,0.005842804908752441,-0.00035896897315979,0.01905357837677002,1,-0.03299776837229729,-0.7469347715377808,0.05880986899137497,0.6614688038825989,-0.9842669367790222,0.1315082609653473,0.1180008128285408,0,0,0,-1,169496.1089485,3,1,1561841680.055447,1561841239.621676,31,1.858098,0,0,29.67847,0,0,1561841682.981903,169498.087726,0,0.6342773,75.18696,0,182478453,3,1,1,-30.28173,-35.20728,1
1561841684.883483,90,0,0,1561841684.001239,4.634719337341036,-74.15103379643908,2555.814,1.32,291.4453125,4,30,-9999,1561841684.877794,-12.57399749755859,-20.12143325805664,19.11248779296875,134.1731109619141,141.6663208007812,15,169501.183417,-0.979583740234375,0.13031005859375,0.1295013427734375,169501.183417,-0.03659556180321484,0.02225710249422823,-0.01295894186432557,169501.163885,-86.56875610351562,-46.89852905273438,-543.6676635742188,169501.178351,0.02779927223479245,-1.689641876167634,-0.1315025313436735,-0.04234622791409492,0.01891839690506458,-0.01636619865894318,0.005842149257659912,0.001688659191131592,0.01601791381835938,1,-0.03324224054813385,-0.746770441532135,0.05833931267261505,0.6616837382316589,-0.9843730330467224,0.1311238557100296,0.1175422742962837,0,0,0,-1,169496.1089485,3,1,1561841680.055447,1561841239.621676,31,1.858098,0,0,29.67847,0,0,1561841682.981903,169498.087726,0,0.6342773,75.18696,0,182478453,3,1,1,-30.28173,-35.20728,1
1561841684.903793,91,0,0,1561841684.001239,4.634719337341036,-74.15103379643908,2555.814,1.32,291.4453125,4,30,-9999,1561841684.902119,-12.39015197753906,-20.03207015991211,19.076904296875,134.2111358642578,141.704345703125,15,169501.20368,-0.981231689453125,0.1320648193359375,0.12506103515625,169501.20368,-0.00200109924308554,0.02069489219878774,-0.007914115811388471,169501.183966,-86.8504638671875,-46.56097412109375,-543.7271118164062,169501.198614,0.02720752146082845,-1.689437594727902,-0.1311318443758622,-0.01616762205958366,0.01715938001871109,-0.01147370506078005,0.003839194774627686,-0.0004920661449432373,0.009758710861206055,1,-0.03334622457623482,-0.7467004060745239,0.05800193920731544,0.661787211894989,-0.9844452738761902,0.1307563483715057,0.1173469349741936,0,0,0,-1,169496.1089485,3,1,1561841680.055447,1561841239.621676,31,1.858098,0,0,29.67847,0,0,1561841682.981903,169498.087726,0,0.6342773,75.18696,0,182478453,3,1,1,-30.28173,-35.33464,1
1561841684.924121,92,0,0,1561841684.001239,4.634719337341036,-74.15103379643908,2555.814,1.32,291.4453125,4,30,-9999,1561841684.902119,-12.39015197753906,-20.03207015991211,19.076904296875,134.2111358642578,141.704345703125,15,169501.223944,-0.98284912109375,0.1352691650390625,0.1229095458984375,169501.223944,0.04333788673496845,0.01019564591725935,0.005751362690135123,169501.204077,-86.97158813476562,-46.55914306640625,-543.5891723632812,169501.218878,0.0273733515180768,-1.689235598068226,-0.1309733882080241,0.03048616647720337,0.007095827255398035,-0.002597123384475708,0.004203975200653076,0.003037214279174805,0.007208704948425293,1,-0.03323763236403465,-0.7466394901275635,0.05799438431859016,0.6618621349334717,-0.9844896197319031,0.1305992603302002,0.1171505376696587,0,0,0,-1,169496.1089485,3,1,1561841680.055447,1561841239.621676,31,1.858098,0,0,29.67847,0,0,1561841682.981903,169498.087726,0,0.6342773,75.18696,0,182478453,3,1,1,-30.28173,-36.05096,1
1561841684.958859,93,0,0,1561841684.001239,4.634719337341036,-74.15103379643908,2555.814,1.32,291.4453125,4,30,-9999,1561841684.957921,-12.53079223632812,-19.94760131835938,18.95037841796875,134.1017303466797,141.5949401855469,15,169501.244208,-0.9812469482421875,0.13555908203125,0.122528076171875,169501.244208,0.05537271170103653,0.01293843552393196,0.02079129863024861,169501.224188,-86.89532470703125,-46.35554504394531,-543.78564453125,169501.239111,0.02831291830069509,-1.689080750787115,-0.1312287654086521,0.05794175714254379,0.005834287498146296,0.01623089239001274,0.002205252647399902,0.005973115563392639,0.005015134811401367,1,-0.03297607600688934,-0.7465987205505371,0.05839794129133224,0.661885678768158,-0.9844745397567749,0.1308524459600449,0.1169941425323486,0,0,0,-1,169496.1089485,3,1,1561841680.055447,1561841239.621676,31,1.858098,0,0,29.67847,0,0,1561841682.981903,169498.087726,0,0.6342773,75.18696,0,182478453,3,1,1,-30.28173,-36.24298,1
1561841684.964497,94,0,0,1561841684.001239,4.634719337341036,-74.15103379643908,2555.814,1.32,291.4453125,4,30,-9999,1561841684.957921,-12.53079223632812,-19.94760131835938,18.95037841796875,134.1017303466797,141.5949401855469,15,169501.264441,-0.9837646484375,0.1273651123046875,0.1235198974609375,169501.264441,0.03921637863196182,0.02689126910707511,0.01143934214632636,169501.244299,-86.92984008789062,-46.73309326171875,-543.6198120117188,169501.259375,0.02930859608324474,-1.688819719331102,-0.1316603108394334,0.0446842759847641,0.01548984460532665,0.01091149542480707,0.00134044885635376,0.002188354730606079,0.007216691970825195,1,-0.03275519236922264,-0.7465201616287231,0.05888399109244347,0.6619422435760498,-0.9844489693641663,0.1312802582979202,0.1167305111885071,0,0,0,-1,169496.1089485,3,1,1561841680.055447,1561841239.621676,31,1.858098,0,0,29.67847,0,0,1561841682.981903,169498.087726,0,0.6342773,75.18696,0,182478453,3,1,1,-30.28173,-36.24298,1
1561841684.984704,95,0,0,1561841684.001239,4.634719337341036,-74.15103379643908,2555.814,1.32,291.4453125,4,30,-9999,1561841684.979109,-12.48038482666016,-19.99673461914062,19.03094482421875,134.0544281005859,141.5476379394531,15,169501.284704,-0.98211669921875,0.1253814697265625,0.1281280517578125,169501.284704,0.007314638250011636,0.03193502989557618,-0.01193761958628019,169501.26441,-87.03286743164062,-46.62245178222656,-543.8065795898438,169501.279638,0.02985637129230958,-1.68831755334499,-0.1318006352293992,0.009918573312461376,0.02418399974703789,-0.007575370371341705,0.005271553993225098,-0.009211733937263489,0.009300112724304199,1,-0.03261211514472961,-0.7463601231575012,0.0591093897819519,0.6621096134185791,-0.9844890832901001,0.131419375538826,0.1162339672446251,0,0,0,-1,169496.1089485,3,1,1561841680.055447,1561841239.621676,31,1.858098,0,0,29.67847,0,0,1561841682.981903,169498.087726,0,0.6342773,75.18696,0,182478453,3,1,1,-30.28173,-36.65963,1
1561841685.007615,96,0,0,1561841684.001239,4.634719337341036,-74.15103379643908,2555.814,1.32,291.4453125,4,30,-9999,1561841685.003509,-12.53374481201172,-20.23713684082031,18.9942626953125,134.0523223876953,141.5455322265625,15,169501.304968,-0.98968505859375,0.1277008056640625,0.12884521484375,169501.304968,-0.01158475074184469,0.03239948518968599,-0.0229015874780274,169501.284521,-87.093017578125,-46.61991882324219,-544.058349609375,169501.299902,0.02991909696164531,-1.687790853831191,-0.1314401215732703,-0.007168800104409456,0.02863254398107529,-0.0240134671330452,-0.002707421779632568,-0.003986775875091553,0.01365828514099121,1,-0.03248462826013565,-0.7461938261985779,0.05898729711771011,0.662314236164093,-0.9845972061157227,0.1310619711875916,0.1157209575176239,0,0,0,-1,169496.1089485,3,1,1561841680.055447,1561841239.621676,31,1.858098,0,0,29.67847,0,0,1561841682.981903,169498.087726,0,0.6342773,75.18696,0,182478453,3,1,1,-30.28173,-37.04926,1
1561841685.040282,97,0,0,1561841684.001239,4.634719337341036,-74.15103379643908,2555.814,1.32,291.4453125,4,30,-9999,1561841685.003509,-12.53374481201172,-20.23713684082031,18.9942626953125,134.0523223876953,141.5455322265625,15,169501.325232,-0.9873046875,0.1368408203125,0.1228485107421875,169501.325232,-0.02542333471422343,0.02132366453215545,-0.02053350463672894,169501.304632,-86.8917236328125,-46.7178955078125,-543.5518798828125,169501.320166,0.02963461265609541,-1.68736790174909,-0.1308491792289502,-0.0255773700773716,0.01836579106748104,-0.02821806445717812,-0.002932965755462646,0.002336382865905762,0.01037311553955078,1,-0.03240704536437988,-0.7460606694221497,0.05866614356637001,0.6624964475631714,-0.9847226738929749,0.130476102232933,0.1153134778141975,0,0,0,-1,169496.1089485,3,1,1561841680.055447,1561841239.621676,31,1.858098,0,0,29.67847,0,0,1561841682.981903,169498.087726,0,0.6342773,75.18696,0,182478453,3,1,1,-30.28173,-37.07738,1
1561841685.04552,98,0,0,1561841684.001239,4.634719337341036,-74.15103379643908,2555.814,1.32,291.4453125,4,30,-9999,1561841685.003509,-12.53374481201172,-20.23713684082031,18.9942626953125,134.0523223876953,141.5455322265625,15,169501.345495,-0.9813995361328125,0.13543701171875,0.116180419921875,169501.345495,-0.01672012427184448,-0.008301872066104009,-0.01213948719690819,169501.324743,-86.72943115234375,-46.78199768066406,-543.693603515625,169501.340429,0.02915330059570387,-1.6872917564453,-0.1303934082715091,-0.02308518067002296,-0.009565973654389381,-0.01684769801795483,-0.001247823238372803,0.006877630949020386,0.004963278770446777,1,-0.03243750706315041,-0.7460365295410156,0.05833574756979942,0.6625512838363647,-0.9847903847694397,0.1300242245197296,0.1152453869581223,0,0,0,-1,169496.1089485,3,1,1561841680.055447,1561841239.621676,31,1.858098,0,0,29.67847,0,0,1561841682.981903,169498.087726,0,0.6342773,75.18696,0,182478453,3,1,1,-30.28173,-37.07738,1
1561841685.065774,99,0,0,1561841685.001165,4.634736101147379,-74.15105039260736,2555.559,1.32,291.09375,4,30,-9999,1561841685.060849,-12.43419647216797,-20.08987045288086,19.16680908203125,134.1077117919922,141.6009216308594,15,169501.365759,-0.98370361328125,0.1251068115234375,0.1133880615234375,169501.365759,-0.008005994868996206,0.009240636350356941,-0.007697068182547014,169501.344855,-87.02392578125,-46.53254699707031,-543.7767333984375,169501.360693,0.02884231687814446,-1.687597551200934,-0.1300384369196458,-0.01015713345259428,-0.00399357546120882,-0.01263510994613171,0.003218352794647217,0.0006072819232940674,-0.001248359680175781,1,-0.03242678195238113,-0.7461397051811218,0.05810549110174179,0.6624559164047241,-0.9848009943962097,0.1296722590923309,0.1155519112944603,0,0,0,-1,169496.1089485,3,1,1561841680.055447,1561841239.621676,31,1.858098,0,0,29.67847,0,0,1561841682.981903,169498.087726,0,0.6342773,75.18696,0,182478453,3,1,1,-29.88271,-35.13778,1
1561841685.085991,100,0,0,1561841685.001165,4.634736101147379,-74.15105039260736,2555.559,1.32,291.09375,4,30,-9999,1561841685.060849,-12.43419647216797,-20.08987045288086,19.16680908203125,134.1077117919922,141.6009216308594,15,169501.386023,-0.98126220703125,0.1209869384765625,0.1107940673828125,169501.386023,0.005534581377402673,0.0245450241867153,-0.006767092329891344,169501.364935,-86.65109252929688,-46.62661743164062,-543.6004638671875,169501.380957,0.02871585682876139,-1.687443130547067,-0.1298041531958919,-0.00346194626763463,0.02063160948455334,-0.008873394690454006,0.002655982971191406,-0.007705330848693848,-0.004197359085083008,1,-0.03240067139267921,-0.7460910677909851,0.05797384306788445,0.6625235080718994,-0.9848489761352539,0.1294399499893188,0.1154033690690994,0,0,0,-1,169496.1089485,3,1,1561841680.055447,1561841239.621676,31,1.858098,0,0,29.67847,0,0,1561841682.981903,169498.087726,0,0.6342773,75.18696,0,182478453,3,1,1,-29.88271,-35.81915,1
1561841685.11082,101,0,0,1561841685.001165,4.634736101147379,-74.15105039260736,2555.559,1.32,291.09375,4,30,-9999,1561841685.104657,-12.526123046875,-20.1602783203125,19.181640625,134.0874328613281,141.5806427001953,15,169501.406286,-0.985809326171875,0.115936279296875,0.109375,169501.406286,0.05455778440747228,-0.01369077853187935,-0.02403263199298405,169501.385046,-87.05892944335938,-46.59187316894531,-543.4578247070312,169501.40119,0.02903024020417116,-1.687269760707776,-0.1295724193539342,0.03969218209385872,-0.01063976064324379,-0.02103472128510475,0.002613961696624756,-0.01060359179973602,-0.004167437553405762,1,-0.03221148997545242,-0.7460432052612305,0.05798889696598053,0.6625851988792419,-0.984898567199707,0.1292101591825485,0.1152360886335373,0,0,0,-1,169496.1089485,3,1,1561841680.055447,1561841239.621676,31,1.858098,0,0,29.67847,0,0,1561841682.981903,169498.087726,0,0.6342773,75.18696,0,182478453,3,1,1,-29.88271,-35.93113,1
1561841685.126564,102,0,0,1561841685.001165,4.634736101147379,-74.15105039260736,2555.559,1.32,291.09375,4,30,-9999,1561841685.104657,-12.526123046875,-20.1602783203125,19.181640625,134.0874328613281,141.5806427001953,15,169501.42652,-0.99737548828125,0.111297607421875,0.1051788330078125,169501.42652,0.1142003422842329,0.003065298414681203,-0.07497996891063591,169501.405157,-86.87663269042969,-46.832763671875,-543.5443725585938,169501.421454,0.03054827685598089,-1.687514974429061,-0.1289703574277347,0.1019702032208443,-0.01817171275615692,-0.06382878869771957,-0.004340767860412598,-0.01548445224761963,-0.008812427520751953,1,-0.0314381867647171,-0.7461601495742798,0.05827144533395767,0.6624659895896912,-0.9849475622177124,0.1286131143569946,0.1154866591095924,0,0,0,-1,169496.1089485,3,1,1561841680.055447,1561841239.621676,31,1.858098,0,0,29.67847,0,0,1561841682.981903,169498.087726,0,0.6342773,75.18696,0,182478453,3,1,1,-29.88271,-36.55206,1
1561841685.14674,103,0,0,1561841685.001165,4.634736101147379,-74.15105039260736,2555.559,1.32,291.09375,4,30,-9999,1561841685.130749,-12.63688659667969,-20.19315338134766,19.087158203125,133.9490203857422,141.4422302246094,15,169501.446783,-0.9956512451171875,0.1160430908203125,0.10833740234375,169501.446783,0.1374992733969001,0.07178417560254083,-0.145226701615874,169501.425268,-86.8802490234375,-46.56501770019531,-543.568359375,169501.441717,0.03323144837677205,-1.686834210534085,-0.1273078975418161,0.1358847618103027,0.05322577059268951,-0.1344659328460693,-0.01638054847717285,-0.01557512581348419,-0.00885319709777832,1,-0.02990510873496532,-0.7460067272186279,0.05853087082505226,0.662686824798584,-0.9852369427680969,0.1269642859697342,0.1148407086730003,0,0,0,-1,169496.1089485,3,1,1561841680.055447,1561841239.621676,31,1.858098,0,0,29.67847,0,0,1561841682.981903,169499.031754,0,0.713623,75.18622,0,182478453,3,1,1,-29.88271,-37.29457,1
1561841685.166999,104,0,0,1561841685.001165,4.634736101147379,-74.15105039260736,2555.559,1.32,291.09375,4,30,-9999,1561841685.155307,-12.41857147216797,-19.88779449462891,19.423828125,133.732177734375,141.2253875732422,15,169501.467047,-0.987213134765625,0.1300811767578125,0.1165924072265625,169501.467047,0.1295105890749894,0.09449508074651855,-0.150504021631975,169501.445379,-87.107666015625,-46.62379455566406,-543.4445190429688,169501.461981,0.0363469461838917,-1.685001693686363,-0.1245652874464709,0.1326591372489929,0.08240176737308502,-0.1572330296039581,-0.003943026065826416,-0.0009981542825698853,-0.0002050399780273438,1,-0.02788559347391129,-0.7454928159713745,0.05851656571030617,0.6633540391921997,-0.9857878088951111,0.124243400990963,0.1130742877721786,0,0,0,-1,169496.1089485,3,1,1561841680.055447,1561841239.621676,31,1.858098,0,0,29.67847,0,0,1561841682.981903,169499.031754,0,0.713623,75.18622,0,182478453,3,1,1,-29.88271,-37.29457,1
1561841685.193131,105,0,0,1561841685.001165,4.634736101147379,-74.15105039260736,2555.559,1.32,291.09375,4,30,-9999,1561841685.181622,-12.47425079345703,-20.13829803466797,19.54718017578125,133.5253143310547,141.0185241699219,15,169501.487311,-0.9688873291015625,0.132354736328125,0.1166534423828125,169501.487311,0.09552412619172516,0.07951906067256696,-0.09634065138194346,169501.46549,-86.8179931640625,-46.56800842285156,-543.4749145507812,169501.482245,0.03912813296044101,-1.682853564909689,-0.1219872152259198,0.1045505404472351,0.085187166929245,-0.1151508316397667,0.007934808731079102,0.01079191267490387,0.006332874298095703,1,-0.02605434134602547,-0.7448604702949524,0.05845203250646591,0.6641441583633423,-0.9863436222076416,0.1216848939657211,0.110991895198822,0,0,0,-1,169496.1089485,3,1,1561841680.055447,1561841239.621676,31,1.858098,0,0,29.67847,0,0,1561841682.981903,169499.031754,0,0.713623,75.18622,0,182478453,3,1,1,-29.88271,-32.61181,1
1561841685.207576,106,0,0,1561841685.001165,4.634736101147379,-74.15105039260736,2555.559,1.32,291.09375,4,30,-9999,1561841685.205926,-12.36119842529297,-20.04694747924805,19.59259033203125,133.4139099121094,140.9071197509766,15,169501.507574,-0.96356201171875,0.1253662109375,0.117889404296875,169501.507574,0.01923041991535317,0.04493551707290699,-0.04723675457084445,169501.485602,-86.74644470214844,-46.47642517089844,-543.4401245117188,169501.502508,0.04078914086893873,-1.681365045480959,-0.1204108787812226,0.03278499469161034,0.04613256081938744,-0.05979285389184952,0.02316564321517944,0.009137079119682312,0.006681680679321289,1,-0.0249543059617281,-0.7444122433662415,0.05839922651648521,0.6646933555603027,-0.9866971373558044,0.1201201230287552,0.109544612467289,0,0,0,-1,169496.1089485,3,1,1561841680.055447,1561841239.621676,31,1.858098,0,0,29.67847,0,0,1561841682.981903,169499.031754,0,0.713623,75.18622,0,182478453,3,1,1,-29.88271,-32.61181,1
1561841685.227855,107,0,0,1561841685.001165,4.634736101147379,-74.15105039260736,2555.559,1.32,291.09375,4,30,-9999,1561841685.205926,-12.36119842529297,-20.04694747924805,19.59259033203125,133.4139099121094,140.9071197509766,15,169501.527838,-0.9666290283203125,0.1183319091796875,0.1155853271484375,169501.527838,-0.01598748865596368,0.03246952632635508,-0.01309449676381061,169501.505713,-86.87876892089844,-46.75924682617188,-543.4864501953125,169501.522772,0.04099589927366361,-1.680600230113544,-0.1195639529134678,-0.01429969072341919,0.02715647220611572,-0.02275973558425903,0.02327346801757812,0.0008989423513412476,0.009363055229187012,1,-0.02461733296513557,-0.7441737055778503,0.05814399570226669,0.6649952530860901,-0.9868812561035156,0.1192792877554893,0.1088010370731354,0,0,0,-1,169496.1089485,3,1,1561841680.055447,1561841239.621676,31,1.858098,0,0,29.67847,0,0,1561841682.981903,169499.031754,0,0.713623,75.18622,0,182478453,3,1,1,-29.88271,-33.28296,1
1561841685.248088,108,0,0,1561841685.001165,4.634736101147379,-74.15105039260736,2555.559,1.32,291.09375,4,30,-9999,1561841685.232837,-12.32703399658203,-20.1258430480957,19.31280517578125,133.4179077148438,140.9111175537109,15,169501.548102,-0.9745941162109375,0.1233367919921875,0.1152191162109375,169501.548102,-0.01830949881040377,0.01804904165579402,-0.007427556280230996,169501.525824,-86.87890625,-46.82795715332031,-543.3277587890625,169501.543036,0.04059130679148987,-1.680140302298533,-0.1192948963765336,-0.02355204522609711,0.01858721859753132,-0.006143740378320217,0.01665675640106201,0.001517035067081451,0.006212353706359863,1,-0.02469148859381676,-0.7440199255943298,0.05790389329195023,0.6651855707168579,-0.986963152885437,0.1190121471881866,0.1083506420254707,0,0,0,-1,169496.1089485,3,1,1561841680.055447,1561841239.621676,31,1.858098,0,0,29.67847,0,0,1561841682.981903,169499.031754,0,0.713623,75.18622,0,182478453,3,1,1,-29.88271,-33.61184,1
1561841685.274154,109,0,0,1561841685.001165,4.634736101147379,-74.15105039260736,2555.559,1.32,291.09375,4,30,-9999,1561841685.259599,-12.19542694091797,-20.11003494262695,19.33428955078125,133.4465789794922,140.9397888183594,15,169501.568365,-0.983551025390625,0.122039794921875,0.1161651611328125,169501.568365,-0.008431834327299876,-0.002734267491184354,-0.028500883669919,169501.545935,-86.57835388183594,-46.73944091796875,-543.483154296875,169501.563269,0.04025325966150362,-1.680095903489912,-0.1189365029915114,-0.01516228914260864,-0.006479784846305847,-0.02980273216962814,0.007106184959411621,0.00500093400478363,0.00730431079864502,1,-0.0246990043669939,-0.7440065145492554,0.0576578713953495,0.6652216911315918,-0.9870103597640991,0.1186562925577164,0.1083114668726921,0,0,0,-1,169496.1089485,3,1,1561841680.055447,1561841239.621676,31,1.858098,0,0,29.67847,0,0,1561841682.981903,169499.031754,0,0.713623,75.18622,0,182478453,3,1,1,-29.88271,-34.34143,1
1561841685.28982,110,0,0,1561841685.001165,4.634736101147379,-74.15105039260736,2555.559,1.32,291.09375,4,30,-9999,1561841685.283481,-12.25457000732422,-20.16176223754883,19.4332275390625,133.4601745605469,140.9533843994141,15,169501.588598,-0.9841461181640625,0.12384033203125,0.109649658203125,169501.588598,-0.01268889732979154,0.01069951599550235,-0.02248267223855794,169501.566046,-86.57707214355469,-46.67182922363281,-543.5674438476562,169501.583532,0.04006996491563198,-1.680277867731346,-0.1183374860152359,-0.01346319168806076,-0.001381962094455957,-0.02864132635295391,-0.0002284646034240723,0.003810465335845947,0.004980802536010742,1,-0.02456219494342804,-0.7440739870071411,0.05737678334116936,0.6651754975318909,-0.9870609641075134,0.1180614829063416,0.1084987968206406,0,0,0,-1,169496.1089485,3,1,1561841680.055447,1561841239.621676,31,1.858098,0,0,29.67847,0,0,1561841682.981903,169499.031754,0,0.713623,75.18622,0,182478453,3,1,1,-29.88271,-34.86383,1
1561841685.308877,111,0,0,1561841685.001165,4.634736101147379,-74.15105039260736,2555.559,1.32,291.09375,4,30,-9999,1561841685.307646,-12.27938079833984,-20.08111572265625,19.373291015625,133.4815063476562,140.9747161865234,15,169501.608862,-0.97552490234375,0.1223297119140625,0.1036376953125,169501.608862,-0.01636672279519097,0.03716441301205577,0.01089445938729615,169501.586157,-86.70252990722656,-46.58413696289062,-543.5191650390625,169501.603796,0.03976384235806955,-1.680131085484347,-0.1179754178383601,-0.01925663277506828,0.02514179050922394,0.0005367991980165243,0.009122490882873535,0.005405962467193604,-0.002355813980102539,1,-0.02455953881144524,-0.7440269589424133,0.05713874846696854,0.665248692035675,-0.9871193170547485,0.1177019402384758,0.1083585694432259,0,0,0,-1,169496.1089485,3,1,1561841680.055447,1561841239.621676,31,1.858098,0,0,29.67847,0,0,1561841682.981903,169499.031754,0,0.713623,75.18622,0,182478453,3,1,1,-29.88271,-35.60749,1
1561841685.329102,112,0,0,1561841685.001165,4.634736101147379,-74.15105039260736,2555.559,1.32,291.09375,4,30,-9999,1561841685.307646,-12.27938079833984,-20.08111572265625,19.373291015625,133.4815063476562,140.9747161865234,15,169501.629126,-0.972015380859375,0.1248626708984375,0.1055450439453125,169501.629126,0.008904012788570925,0.04682982355628035,0.04046140644157387,169501.606238,-86.9228515625,-46.58131408691406,-543.59521484375,169501.62406,0.03945942481599085,-1.679472989911356,-0.1182659563343117,-0.003245442174375057,0.0438222661614418,0.02928935177624226,0.01294392347335815,0.005941428244113922,-0.004738926887512207,1,-0.02478848397731781,-0.7437998056411743,0.05713718757033348,0.665494441986084,-0.9871565699577332,0.1179904565215111,0.1077052429318428,0,0,0,-1,169501.627936,3,1,1561841685.574435,1561841239.621676,31,1.858098,0,0,29.67847,0,0,1561841682.981903,169499.031754,0,0.713623,75.18622,0,182478453,3,1,1,-29.88271,-35.60749,1
1561841685.359168,113,0,0,1561841685.001165,4.634736101147379,-74.15105039260736,2555.559,1.32,291.09375,4,30,-9999,1561841685.358475,-12.35072326660156,-20.17891693115234,19.3140869140625,133.450439453125,140.9436492919922,15,169501.649389,-0.9768524169921875,0.1259918212890625,0.1097869873046875,169501.649389,0.04103292081150487,0.02749021403623393,0.05691201881110233,169501.626349,-86.68028259277344,-46.57591247558594,-543.6669921875,169501.644323,0.03965933511753024,-1.67872454871628,-0.119177327101011,0.03106672316789627,0.02754369378089905,0.05380002036690712,0.0142444372177124,0.006669163703918457,-0.0001126527786254883,1,-0.02503971382975578,-0.7435390949249268,0.05753256380558014,0.6657422184944153,-0.9871295094490051,0.118895411491394,0.1069547459483147,0,0,0,-1,169501.627936,3,1,1561841685.574435,1561841239.621676,31,1.858098,0,0,29.67847,0,0,1561841685.574557,169499.031754,0,0.713623,75.18622,0,182478453,3,1,1,-29.88271,-36.54375,1
1561841685.369642,114,0,0,1561841685.001165,4.634736101147379,-74.15105039260736,2555.559,1.32,291.09375,4,30,-9999,1561841685.358475,-12.35072326660156,-20.17891693115234,19.3140869140625,133.450439453125,140.9436492919922,15,169501.669653,-0.9875030517578125,0.1275787353515625,0.117431640625,169501.669653,0.06307191041245561,0.00217420471394069,0.02500282157809992,169501.64646,-86.56129455566406,-46.89968872070312,-543.6304321289062,169501.664587,0.04046213813174678,-1.678381546708019,-0.1202379794375167,0.05652068555355072,0.0001448281109333038,0.03054103814065456,0.006296753883361816,0.00784388929605484,0.00683128833770752,1,-0.02510522864758968,-0.7434184551239014,0.05818894878029823,0.6658173799514771,-0.9870401620864868,0.1199484691023827,0.1066025421023369,0,0,0,-1,169501.627936,3,1,1561841685.574435,1561841239.621676,31,1.858098,0,0,29.67847,0,0,1561841685.574557,169499.031754,0,0.713623,75.18622,0,182478453,3,1,1,-29.88271,-36.54375,1
1561841685.390105,115,0,0,1561841685.001165,4.634736101147379,-74.15105039260736,2555.559,1.32,291.09375,4,30,-9999,1561841685.384298,-12.21752166748047,-20.04432678222656,19.31982421875,133.3688354492188,140.8620452880859,15,169501.689917,-0.9870147705078125,0.123199462890625,0.1156158447265625,169501.689917,0.04364308499589153,0.006230465370240378,-0.005425391772709424,169501.666571,-86.89118957519531,-46.60270690917969,-543.6653442382812,169501.684851,0.04164220389980471,-1.678344133218262,-0.1206020619909039,0.05142952129244804,-0.005180162377655506,-0.00623455410823226,-0.002425134181976318,0.004003435373306274,0.01084017753601074,1,-0.02478921785950661,-0.7434150576591492,0.05871636420488358,0.6657866239547729,-0.9870005249977112,0.1203099191188812,0.1065609082579613,0,0,0,-1,169501.627936,3,1,1561841685.574435,1561841239.621676,31,1.858098,0,0,29.67847,0,0,1561841685.574557,169499.031754,0,0.713623,75.18622,0,182478453,3,1,1,-29.88271,-37.44967,1
1561841685.410255,116,0,0,1561841685.001165,4.634736101147379,-74.15105039260736,2555.559,1.32,291.09375,4,30,-9999,1561841685.408562,-12.31741333007812,-19.98942947387695,19.22369384765625,133.3324584960938,140.8256683349609,15,169501.71018,-0.985504150390625,0.12841796875,0.113555908203125,169501.71018,-0.00351590527112261,0.02272235673666507,-0.003523362122174832,169501.686682,-86.66865539550781,-46.46919250488281,-543.754150390625,169501.705084,0.04222348061322603,-1.678193941134285,-0.1204916133739047,0.003748284885659814,0.009957244619727135,-0.008430862799286842,0.001571416854858398,0.005455859005451202,0.008057355880737305,1,-0.02454070188105106,-0.7433739304542542,0.05886705964803696,0.6658284664154053,-0.9870297908782959,0.1202002689242363,0.1064140945672989,0,0,0,-1,169501.627936,3,1,1561841685.574435,1561841239.621676,31,1.858098,0,0,29.67847,0,0,1561841685.574557,169499.031754,0,0.713623,75.18622,0,182478453,3,1,1,-29.88271,-38.04215,1
1561841685.435448,117,0,0,1561841685.001165,4.634736101147379,-74.15105039260736,2555.559,1.32,291.09375,4,30,-9999,1561841685.408562,-12.31741333007812,-19.98942947387695,19.22369384765625,133.3324584960938,140.8256683349609,15,169501.730444,-0.98211669921875,0.130126953125,0.11151123046875,169501.730444,-0.0242427554029913,0.05829100362354536,0.01745755357768742,169501.706793,-86.9169921875,-46.83650207519531,-543.4465942382812,169501.725348,0.04200973267874302,-1.677659991893733,-0.120453524529427,-0.02198983542621136,0.04669049382209778,0.007182984612882137,0.00177001953125,0.009674578905105591,0.005272746086120605,1,-0.02462312579154968,-0.7431941032409668,0.05877520143985748,0.6660342812538147,-0.987091064453125,0.1201624572277069,0.1058875471353531,0,0,0,-1,169501.627936,3,1,1561841685.574435,1561841239.621676,31,1.858098,0,0,29.67847,0,0,1561841685.574557,169499.031754,0,0.713623,75.18622,0,182478453,3,1,1,-29.88271,-38.26094,1
1561841685.450639,118,0,0,1561841685.001165,4.634736101147379,-74.15105039260736,2555.559,1.32,291.09375,4,30,-9999,1561841685.436113,-12.34974670410156,-20.10049819946289,19.20703125,133.3585357666016,140.8517456054688,15,169501.750677,-0.9771881103515625,0.131134033203125,0.11004638671875,169501.750677,-0.02673281102221539,0.0540070426940439,0.05125493202355601,169501.726904,-86.77928161621094,-46.59800720214844,-543.3489990234375,169501.745611,0.04137505101305322,-1.676673887659675,-0.1208962690424842,-0.03025016188621521,0.05293240770697594,0.0410139188170433,0.009847164154052734,0.01025739312171936,0.006236553192138672,1,-0.02503577992320061,-0.7428508996963501,0.05871564894914627,0.6664069890975952,-0.9871420860290527,0.1206019818782806,0.1049084961414337,0,0,0,-1,169501.627936,3,1,1561841685.574435,1561841239.621676,31,1.858098,0,0,29.67847,0,0,1561841685.574557,169499.031754,0,0.713623,75.18622,0,182478453,3,1,1,-29.88271,-38.26161,1
1561841685.470825,119,0,0,1561841685.001165,4.634736101147379,-74.15105039260736,2555.559,1.32,291.09375,4,30,-9999,1561841685.45905,-12.5069580078125,-20.11758422851562,19.4688720703125,133.4045562744141,140.8977661132812,15,169501.770941,-0.9791259765625,0.128997802734375,0.1121826171875,169501.770941,0.006228068525259306,0.01795716259818629,0.05005331373971226,169501.747015,-86.57701110839844,-46.84037780761719,-543.4656982421875,169501.765875,0.04082947797930257,-1.675975815902547,-0.1218805271623148,-0.006278783082962036,0.02162402123212814,0.05273289233446121,0.00752788782119751,0.008227519690990448,0.00715172290802002,1,-0.02558783814311028,-0.742595911026001,0.05888969451189041,0.6666547060012817,-0.98709636926651,0.1215789988636971,0.1042068526148796,0,0,0,-1,169501.627936,3,1,1561841685.574435,1561841239.621676,31,1.858098,0,0,29.67847,0,0,1561841685.574557,169499.031754,0,0.713623,75.18622,0,182478453,3,1,1,-29.88271,-38.76454,1
1561841685.491145,120,0,0,1561841685.001165,4.634736101147379,-74.15105039260736,2555.559,1.32,291.09375,4,30,-9999,1561841685.4854,-12.34756469726562,-20.07282638549805,19.284423828125,133.4026794433594,140.8958892822266,15,169501.791205,-0.990447998046875,0.12457275390625,0.1114959716796875,169501.791205,0.03292466055664962,0.003856257258434737,0.02275671151472709,169501.767126,-86.63905334472656,-46.55256652832031,-543.618896484375,169501.786139,0.04099886692680416,-1.675844816402356,-0.1227361220054395,0.02786294184625149,-0.003637393238022923,0.0302592720836401,0.003211081027984619,0.005333632230758667,0.00836026668548584,1,-0.02581480890512466,-0.7425408363342285,0.05926142632961273,0.6666743755340576,-0.9870062470436096,0.1224282011389732,0.1040665954351425,0,0,0,-1,169501.627936,3,1,1561841685.574435,1561841239.621676,31,1.858098,0,0,29.67847,0,0,1561841685.574557,169499.031754,0,0.713623,75.18622,0,182478453,3,1,1,-29.88271,-38.76454,1
1561841685.511394,121,0,0,1561841685.001165,4.634736101147379,-74.15105039260736,2555.559,1.32,291.09375,4,30,-9999,1561841685.510237,-12.23359680175781,-20.03045272827148,19.26116943359375,133.3636322021484,140.8568420410156,15,169501.811468,-0.996551513671875,0.1180572509765625,0.108978271484375,169501.811468,0.01588841906341273,0.03959614540340712,-0.006109824172859788,169501.787237,-86.74467468261719,-46.46199035644531,-543.561767578125,169501.806402,0.04156635812562625,-1.675670898869735,-0.123061904510345,0.02380694635212421,0.02524325624108315,-0.002639553043991327,-0.007094919681549072,-0.0001471564173698425,0.007055878639221191,1,-0.02571819722652435,-0.742484986782074,0.05956902727484703,0.6667129397392273,-0.9869846701622009,0.1227515265345573,0.1038907617330551,0,0,0,-1,169501.627936,3,1,1561841685.574435,1561841239.621676,31,1.858098,0,0,29.67847,0,0,1561841685.574557,169499.031754,0,0.713623,75.18622,0,182478453,3,1,1,-29.88271,-39.33446,1
1561841685.531687,122,0,0,1561841685.001165,4.634736101147379,-74.15105039260736,2555.559,1.32,291.09375,4,30,-9999,1561841685.510237,-12.23359680175781,-20.03045272827148,19.26116943359375,133.3636322021484,140.8568420410156,15,169501.831732,-0.992218017578125,0.1138763427734375,0.1025848388671875,169501.831732,-0.008349010017398411,0.06824350293328048,-0.0002812298111123676,169501.807348,-86.75613403320312,-46.60777282714844,-543.5945434570312,169501.826666,0.041694904115844,-1.674831887123717,-0.1229009225685828,-0.01223600748926401,0.05413695797324181,-0.008247637189924717,-0.009124755859375,-0.006090909242630005,0.002724528312683105,1,-0.02564163692295551,-0.7422094345092773,0.05954150483012199,0.6670250296592712,-0.987091064453125,0.1225917637348175,0.1030646786093712,0,0,0,-1,169501.627936,3,1,1561841685.574435,1561841239.621676,31,1.858098,0,0,29.67847,0,0,1561841685.574557,169499.031754,0,0.713623,75.18622,0,182478453,3,1,1,-29.88271,-39.78112,1
