loggingTime,loggingSample,identifierForVendor,deviceID,locationTimestamp_since1970,locationLatitude,locationLongitude,locationAltitude,locationSpeed,locationCourse,locationVerticalAccuracy,locationHorizontalAccuracy,locationFloor,locationHeadingTimestamp_since1970,locationHeadingX,locationHeadingY,locationHeadingZ,locationTrueHeading,locationMagneticHeading,locationHeadingAccuracy,accelerometerTimestamp_sinceReboot,accelerometerAccelerationX,accelerometerAccelerationY,accelerometerAccelerationZ,gyroTimestamp_sinceReboot,gyroRotationX,gyroRotationY,gyroRotationZ,magnetometerTimestamp_sinceReboot,magnetometerX,magnetometerY,magnetometerZ,motionTimestamp_sinceReboot,motionYaw,motionRoll,motionPitch,motionRotationRateX,motionRotationRateY,motionRotationRateZ,motionUserAccelerationX,motionUserAccelerationY,motionUserAccelerationZ,motionAttitudeReferenceFrame,motionQuaternionX,motionQuaternionY,motionQuaternionZ,motionQuaternionW,motionGravityX,motionGravityY,motionGravityZ,motionMagneticFieldX,motionMagneticFieldY,motionMagneticFieldZ,motionMagneticFieldCalibrationAccuracy,activityTimestamp_sinceReboot,activity,activityActivityConfidence,activityActivityStartDate,pedometerStartDate,pedometerNumberofSteps,pedometerAverageActivePace,pedometerCurrentPace,pedometerCurrentCadence,pedometerDistance,pedometerFloorAscended,pedometerFloorDescended,pedometerEndDate,altimeterTimestamp_sinceReboot,altimeterReset,altimeterRelativeAltitude,altimeterPressure,IP_en0,IP_pdp_ip0,deviceOrientation,batteryState,batteryLevel,avAudioRecorderPeakPower,avAudioRecorderAveragePower,label
1561841729.354895,1,0,0,1561841728.999533,4.634646875788118,-74.1510658153092,2557.235,0.66,176.8359375,4,30,-9999,1561841729.347161,9.512046813964844,-17.53279495239258,21.35040283203125,202.7843933105469,210.2776031494141,15,169545.654080375,-0.216400146484375,-0.99749755859375,-0.1235504150390625,169545.654080375,-0.0686541623733707,-0.08697058540260867,0.02655677607416116,169545.644254375,-64.72406005859375,-44.21067810058594,-541.49462890625,169545.649014375,-0.08893258778635034,-1.034599051406506,1.331998060718264,-0.07879842072725296,-0.08804774284362793,0.03604854643344879,-0.009657979011535645,-0.01230955123901367,0.00514686107635498,1,0.5191888213157654,-0.4123390316963196,-0.3356228172779083,0.669161319732666,-0.2033394277095795,-0.9716229438781738,-0.1208389848470688,0,0,0,-1,169543.1216515417,3,2,1561841727.06815,1561841239.621676,31,1.858098,0,0,29.67847,0,0,1561841685.574557,169542.461451,0,0.3276367,75.18985,0,182478453,1,1,1,-5.115509,-22.61246,4
1561841729.374236,2,0,0,1561841728.999533,4.634646875788118,-74.1510658153092,2557.235,0.66,176.8359375,4,30,-9999,1561841729.371,9.55194091796875,-17.8536376953125,21.333740234375,202.9095764160156,210.4027862548828,15,169545.674344375,-0.221527099609375,-1.001480102539062,-0.1423187255859375,169545.674344375,-0.00716150648733208,-0.02606355864027848,-0.04899204404531568,169545.664365375,-64.70112609863281,-44.19758605957031,-541.44970703125,169545.669278375,-0.09299303735900849,-1.032327587160743,1.3313725830879,-0.0310578029602766,-0.05639553442597389,-0.0348471961915493,-0.01463040709495544,-0.03229415416717529,-0.0137183666229248,1,0.5185149908065796,-0.4127181768417358,-0.3362786173820496,0.6691206693649292,-0.2035855203866959,-0.9714747667312622,-0.1216118186712265,0,0,0,-1,169543.1216515417,3,2,1561841727.06815,1561841239.621676,31,1.858098,0,0,29.67847,0,0,1561841685.574557,169542.461451,0,0.3276367,75.18985,0,182478453,1,1,1,-5.115509,-22.61246,4
1561841729.392937,3,0,0,1561841728.999533,4.634646875788118,-74.1510658153092,2557.235,0.66,176.8359375,4,30,-9999,1561841729.371,9.55194091796875,-17.8536376953125,21.333740234375,202.9095764160156,210.4027862548828,15,169545.694608375,-0.2250518798828125,-0.977783203125,-0.1384124755859375,169545.694608375,0.05344857781345428,0.1108024150494007,-0.07330563953330309,169545.684476375,-64.45948791503906,-44.08255004882812,-541.6583251953125,169545.689542375,-0.09506184753460027,-1.030222875993187,1.332512254689736,0.03705733269453049,0.07544105499982834,-0.07588331401348114,-0.02508297562599182,-0.02099239826202393,-0.02234387397766113,1,0.5188398361206055,-0.412395566701889,-0.3366310596466064,0.6688905358314514,-0.2023797780275345,-0.9717444181442261,-0.1214702427387238,0,0,0,-1,169543.1216515417,3,2,1561841727.06815,1561841239.621676,31,1.858098,0,0,29.67847,0,0,1561841685.574557,169542.461451,0,0.3276367,75.18985,0,182478453,1,1,1,-5.672788,-22.61978,4
1561841729.413217,4,0,0,1561841728.999533,4.634646875788118,-74.1510658153092,2557.235,0.66,176.8359375,4,30,-9999,1561841729.397198,9.538322448730469,-17.49070358276367,21.2269287109375,202.8324279785156,210.3256378173828,15,169545.714871375,-0.2057952880859375,-0.94586181640625,-0.130523681640625,169545.714871375,0.1298805021504014,0.07626068307885502,-0.03640780894636426,169545.704587375,-64.773681640625,-44.25228881835938,-541.689453125,169545.709805375,-0.09296257539378072,-1.030143883063534,1.334428395502116,0.1075940877199173,0.09970937669277191,-0.05517270788550377,-0.01503154635429382,0.01514840126037598,-0.01132345199584961,1,0.519953727722168,-0.4115631878376007,-0.3362547159194946,0.6687275767326355,-0.2007735222578049,-0.9721949100494385,-0.1205277293920517,0,0,0,-1,169543.1216515417,3,2,1561841727.06815,1561841239.621676,31,1.858098,0,0,29.67847,0,0,1561841685.574557,169542.461451,0,0.3276367,75.18985,0,182478453,1,1,1,-6.230067,-22.92239,4
1561841729.433423,5,0,0,1561841728.999533,4.634646875788118,-74.1510658153092,2557.235,0.66,176.8359375,4,30,-9999,1561841729.424172,9.694595336914062,-17.61406326293945,21.3583984375,202.6848602294922,210.1780700683594,15,169545.735135375,-0.18682861328125,-0.94720458984375,-0.11785888671875,169545.735135375,0.2227148356411465,-0.09881739119571716,0.02069462588267874,169545.724698375,-64.80183410644531,-44.04946899414062,-541.3723754882812,169545.730069375,-0.0825612640435769,-1.039710084709472,1.336468590943046,0.2020087391138077,-0.06156739220023155,0.001052747247740626,0.00442168116569519,0.03071510791778564,-0.007174015045166016,1,0.5211969017982483,-0.4117708504199982,-0.3356404006481171,0.6679402589797974,-0.2002071887254715,-0.9726706743240356,-0.1175971105694771,0,0,0,-1,169543.1216515417,3,2,1561841727.06815,1561841239.621676,31,1.858098,0,0,29.67847,0,0,1561841685.574557,169542.461451,0,0.3276367,75.18985,0,182478453,1,1,1,-6.787346,-23.21926,4
1561841729.453698,6,0,0,1561841728.999533,4.634646875788118,-74.1510658153092,2557.235,0.66,176.8359375,4,30,-9999,1561841729.44797,9.660446166992188,-17.49582290649414,21.34881591796875,202.7658081054688,210.2590179443359,15,169545.755399375,-0.199432373046875,-0.96173095703125,-0.1078338623046875,169545.755399375,0.2278326323079518,-0.1383333754503129,0.06048198625235355,169545.744809375,-64.87103271484375,-43.97309875488281,-541.3883056640625,169545.750333375,-0.06391733087567518,-1.060395260173832,1.338167740682365,0.2379398494958878,-0.1540770828723907,0.05568350106477737,0.01228094100952148,0.01484239101409912,-0.001680254936218262,1,0.5221611857414246,-0.4135650396347046,-0.3351341485977173,0.666330873966217,-0.2011542171239853,-0.9730637669563293,-0.1126233115792274,0,0,0,-1,169543.1216515417,3,2,1561841727.06815,1561841239.621676,31,1.858098,0,0,29.67847,0,0,1561841685.574557,169542.461451,0,0.3276367,75.18985,0,182478453,1,1,1,-7.344625,-23.61827,4
1561841729.474393,7,0,0,1561841728.999533,4.634646875788118,-74.1510658153092,2557.235,0.66,176.8359375,4,30,-9999,1561841729.44797,9.660446166992188,-17.49582290649414,21.34881591796875,202.7658081054688,210.2590179443359,15,169545.775662375,-0.2152099609375,-0.9677734375,-0.104095458984375,169545.775662375,0.1403155662496589,-0.04095755335265563,0.04678534876607603,169545.764920375,-64.59834289550781,-43.78782653808594,-541.372802734375,169545.770566375,-0.04601354131021123,-1.080251179470367,1.339139359772157,0.1640126258134842,-0.07401207834482193,0.04668974131345749,-0.006269514560699463,0.01120543479919434,0.005241215229034424,1,0.5228789448738098,-0.4153513312339783,-0.3345500826835632,0.6649489998817444,-0.2025165110826492,-0.9732872843742371,-0.1081617623567581,0,0,0,-1,169543.1216515417,3,2,1561841727.06815,1561841239.621676,31,1.858098,0,0,29.67847,0,0,1561841685.574557,169542.461451,0,0.3276367,75.18985,0,182478453,1,1,1,-7.901904,-23.91527,4
1561841729.494228,8,0,0,1561841728.999533,4.634646875788118,-74.1510658153092,2557.235,0.66,176.8359375,4,30,-9999,1561841729.473477,9.65679931640625,-17.44538116455078,21.46844482421875,202.8670959472656,210.3603057861328,15,169545.795896375,-0.2173614501953125,-0.9659576416015625,-0.09759521484375,169545.795896375,0.0177560939358853,0.03467995003112085,0.0007824367282652802,169545.785031375,-64.77703857421875,-43.7608642578125,-541.2215576171875,169545.790830375,-0.03644692421748378,-1.090085771894113,1.339499826632431,0.04799653589725494,0.01284052804112434,0.009150887839496136,-0.01411744952201843,0.003857076168060303,0.003722965717315674,1,0.5233458280563354,-0.4160622954368591,-0.3340140283107758,0.6644064784049988,-0.2032592743635178,-0.9733700156211853,-0.1060026213526726,0,0,0,-1,169543.1216515417,3,2,1561841727.06815,1561841239.621676,31,1.858098,0,0,29.67847,0,0,1561841685.574557,169542.461451,0,0.3276367,75.18985,0,182478453,1,1,1,-8.459183,-24.59191,4
1561841729.514453,9,0,0,1561841728.999533,4.634646875788118,-74.1510658153092,2557.235,0.66,176.8359375,4,30,-9999,1561841729.498529,9.58990478515625,-17.02787017822266,21.54931640625,202.8474731445312,210.3406829833984,15,169545.816159375,-0.2106781005859375,-0.9633026123046875,-0.0904998779296875,169545.816159375,-0.05071138084507084,0.02327869108838262,-0.02481453608903132,169545.805142375,-64.57121276855469,-43.85922241210938,-541.2972412109375,169545.811093375,-0.03790695137722477,-1.088073676650867,1.339576986639235,-0.04902375489473343,0.02539893239736557,-0.02674639225006104,-0.01410800218582153,0.006468713283538818,0.01447272300720215,1,0.5234043598175049,-0.4157639741897583,-0.3339879810810089,0.6645601391792297,-0.2029788047075272,-0.9733877182006836,-0.1063763871788979,0,0,0,-1,169543.1216515417,3,2,1561841727.06815,1561841239.621676,31,1.858098,0,0,29.67847,0,0,1561841685.574557,169543.405799,0,0.480957,75.18842,0,182478453,1,1,1,-8.459183,-24.59191,4
1561841729.53472,10,0,0,1561841728.999533,4.634646875788118,-74.1510658153092,2557.235,0.66,176.8359375,4,30,-9999,1561841729.523587,9.692131042480469,-17.37674713134766,21.61444091796875,202.8300170898438,210.3232269287109,15,169545.836423375,-0.1964874267578125,-0.9501190185546875,-0.0930938720703125,169545.836423375,-0.006637130068695477,-0.02672109311341904,0.01619947627873399,169545.825253375,-64.65142822265625,-43.9769287109375,-541.4447021484375,169545.831357375,-0.0425472067085749,-1.083495635545111,1.339506537393266,-0.02735814079642296,-0.02504400350153446,-0.002369947265833616,-0.001001864671707153,0.01516532897949219,0.01750814914703369,1,0.5231810808181763,-0.4154674708843231,-0.3343183100223541,0.6647552847862244,-0.2025503665208817,-0.9733715653419495,-0.1073366776108742,0,0,0,-1,169543.1216515417,3,2,1561841727.06815,1561841239.621676,31,1.858098,0,0,29.67847,0,0,1561841685.574557,169543.405799,0,0.480957,75.18842,0,182478453,1,1,1,-9.016461,-20.34082,4
1561841729.555024,11,0,0,1561841728.999533,4.634646875788118,-74.1510658153092,2557.235,0.66,176.8359375,4,30,-9999,1561841729.549502,9.795051574707031,-17.40127944946289,21.421142578125,202.8784332275391,210.3716430664062,15,169545.856687375,-0.1965484619140625,-0.9447479248046875,-0.099273681640625,169545.856687375,0.06106308800220884,-0.04749934225432627,0.0488580870424847,169545.845365375,-64.6143798828125,-43.89923095703125,-541.0362548828125,169545.851621375,-0.04079414556601962,-1.086006998207097,1.339156865174613,0.04413947835564613,-0.05405008792877197,0.04378503188490868,0.01270598173141479,0.02813142538070679,0.01317524909973145,1,0.5230070948600769,-0.4158971607685089,-0.3343237340450287,0.6646207571029663,-0.2031203955411911,-0.9732913374900818,-0.1069862619042397,0,0,0,-1,169543.1216515417,3,2,1561841727.06815,1561841239.621676,31,1.858098,0,0,29.67847,0,0,1561841685.574557,169543.405799,0,0.480957,75.18842,0,182478453,1,1,1,-9.57374,-21.11757,4
1561841729.57539,12,0,0,1561841728.999533,4.634646875788118,-74.1510658153092,2557.235,0.66,176.8359375,4,30,-9999,1561841729.573755,10.02437591552734,-17.10118103027344,21.474853515625,202.9138946533203,210.4071044921875,15,169545.876950375,-0.20892333984375,-0.96673583984375,-0.1012420654296875,169545.876950375,0.04816273568186501,0.01765196433726321,0.0436822334639157,169545.865476375,-64.53565979003906,-43.79437255859375,-541.3695068359375,169545.871884375,-0.03438428443886372,-1.09313688608756,1.338861819772382,0.05336280539631844,-0.01520335674285889,0.04357171058654785,-0.001006156206130981,0.02028167247772217,0.001800715923309326,1,0.5230501294136047,-0.4166352152824402,-0.3340003192424774,0.6642871499061584,-0.2041330188512802,-0.9732235670089722,-0.1056673154234886,0,0,0,-1,169543.1216515417,3,2,1561841727.06815,1561841239.621676,31,1.858098,0,0,29.67847,0,0,1561841685.574557,169543.405799,0,0.480957,75.18842,0,182478453,1,1,1,-10.13102,-19.87121,4
1561841729.595599,13,0,0,1561841728.999533,4.634646875788118,-74.1510658153092,2557.235,0.66,176.8359375,4,30,-9999,1561841729.573755,10.02437591552734,-17.10118103027344,21.474853515625,202.9138946533203,210.4071044921875,15,169545.897214375,-0.216094970703125,-0.9674530029296875,-0.09088134765625,169545.897214375,0.01808339643385604,0.07591340687270869,0.04193253662773364,169545.885587375,-64.74443054199219,-43.53787231445312,-541.3222045898438,169545.892148375,-0.02978597212302516,-1.096953023198477,1.33843132750714,0.01702583581209183,0.06792774796485901,0.03994448482990265,-0.00604480504989624,0.004954338073730469,0.009635210037231445,1,0.5232262015342712,-0.4167671799659729,-0.3333848714828491,0.6643749475479126,-0.2049079537391663,-0.9731245040893555,-0.1050789207220078,0,0,0,-1,169543.1216515417,3,2,1561841727.06815,1561841239.621676,31,1.858098,0,0,29.67847,0,0,1561841685.574557,169543.405799,0,0.480957,75.18842,0,182478453,1,1,1,-10.6883,-20.12613,4
1561841729.616337,14,0,0,1561841728.999533,4.634646875788118,-74.1510658153092,2557.235,0.66,176.8359375,4,30,-9999,1561841729.600345,9.808052062988281,-17.20204925537109,21.37255859375,202.8330078125,210.3262176513672,15,169545.917478375,-0.2103729248046875,-0.9751739501953125,-0.0819091796875,169545.917478375,0.02969371352216549,0.01034611451884883,0.0413801970176512,169545.905728375,-64.42863464355469,-43.74073791503906,-541.4027709960938,169545.912412375,-0.02689940679706324,-1.098652344460653,1.337921299947482,0.02212392538785934,0.02804771065711975,0.03478860855102539,-0.009330779314041138,0.000808417797088623,0.01619595289230347,1,0.5233728289604187,-0.4166566133499146,-0.3327679634094238,0.6646380424499512,-0.2055282443761826,-0.9730069041252136,-0.1049562990665436,0,0,0,-1,169543.1216515417,3,2,1561841727.06815,1561841239.621676,31,1.858098,0,0,29.67847,0,0,1561841685.574557,169543.405799,0,0.480957,75.18842,0,182478453,1,1,1,-11.24558,-16.93605,4
1561841729.636156,15,0,0,1561841728.999533,4.634646875788118,-74.1510658153092,2557.235,0.66,176.8359375,4,30,-9999,1561841729.62451,9.668716430664062,-17.24084854125977,21.38909912109375,202.8009033203125,210.2941131591797,15,169545.937741375,-0.2119140625,-0.96826171875,-0.0775146484375,169545.937741375,0.05941539023577681,-0.0889375961837412,0.05901538344004691,169545.925839375,-64.89596557617188,-43.91348266601562,-541.4365844726562,169545.932645375,-0.02224702481889305,-1.103596626335155,1.337521681469886,0.05192523077130318,-0.07215479016304016,0.05088688433170319,-0.004256188869476318,0.000334620475769043,0.02678221464157104,1,0.5233860611915588,-0.4171452522277832,-0.3324354290962219,0.6644874215126038,-0.2063914090394974,-0.9729146361351013,-0.1041137427091599,0,0,0,-1,169543.1216515417,3,2,1561841727.06815,1561841239.621676,31,1.858098,0,0,29.67847,0,0,1561841685.574557,169543.405799,0,0.480957,75.18842,0,182478453,1,1,1,-11.80286,-17.94221,4
1561841729.660339,16,0,0,1561841728.999533,4.634646875788118,-74.1510658153092,2557.235,0.66,176.8359375,4,30,-9999,1561841729.650705,9.893898010253906,-17.25048828125,21.404296875,202.9095153808594,210.4027252197266,15,169545.958005375,-0.2147216796875,-0.9646453857421875,-0.08868408203125,169545.958005375,0.05068794502747814,-0.08182296133159452,0.04751425595643071,169545.945950375,-64.54794311523438,-43.63075256347656,-541.2105712890625,169545.952908375,-0.01562584376889588,-1.112042571363882,1.337072369291576,0.05575032904744148,-0.1015848517417908,0.04747643694281578,-0.0066547691822052,0.008226275444030762,0.02020859718322754,1,0.5232146978378296,-0.4182896614074707,-0.3323549330234528,0.6639429330825806,-0.2076549530029297,-0.972810685634613,-0.10256028175354,0,0,0,-1,169543.1216515417,3,2,1561841727.06815,1561841239.621676,31,1.858098,0,0,29.67847,0,0,1561841685.574557,169543.405799,0,0.480957,75.18842,0,182478453,1,1,1,-12.36014,-18.87938,4
1561841729.676833,17,0,0,1561841728.999533,4.634646875788118,-74.1510658153092,2557.235,0.66,176.8359375,4,30,-9999,1561841729.675618,9.815399169921875,-17.16738510131836,21.6240234375,202.9859008789062,210.4791107177734,15,169545.978238375,-0.21539306640625,-0.97119140625,-0.1006011962890625,169545.978238375,0.02026292746997689,-0.005952431352436106,0.03106018147748515,169545.966062375,-64.46066284179688,-43.59494018554688,-541.1795043945312,169545.973172375,-0.0108732674140603,-1.118062710124943,1.336689232870036,0.02425152435898781,-0.0296933501958847,0.03133422136306763,-0.006651073694229126,0.005436718463897705,0.005005717277526855,1,0.5230812430381775,-0.4191063344478607,-0.3322730362415314,0.6635741591453552,-0.2086046785116196,-0.9727218747138977,-0.1014717891812325,0,0,0,-1,169543.1216515417,3,2,1561841727.06815,1561841239.621676,31,1.858098,0,0,29.67847,0,0,1561841685.574557,169543.405799,0,0.480957,75.18842,0,182478453,1,1,1,-12.36014,-18.87938,4
1561841729.696954,18,0,0,1561841728.999533,4.634646875788118,-74.1510658153092,2557.235,0.66,176.8359375,4,30,-9999,1561841729.675618,9.815399169921875,-17.16738510131836,21.6240234375,202.9859008789062,210.4791107177734,15,169545.998502375,-0.2149810791015625,-0.9773101806640625,-0.0915374755859375,169545.998502375,-0.007921306346331687,0.07433388603018269,0.04771079724487856,169545.986173375,-64.68180847167969,-44.1485595703125,-541.37255859375,169545.993436375,-0.008664994522403154,-1.119977713228238,1.336215111432689,-0.003950285725295544,0.05439143255352974,0.03795883432030678,-0.004745602607727051,-0.003874421119689941,0.001190364360809326,1,0.5230680704116821,-0.4192414581775665,-0.3319432735443115,0.6636641025543213,-0.2092131525278091,-0.9726117849349976,-0.1012727841734886,0,0,0,-1,169543.1216515417,3,2,1561841727.06815,1561841239.621676,31,1.858098,0,0,29.67847,0,0,1561841685.574557,169543.405799,0,0.480957,75.18842,0,182478453,1,1,1,-12.91741,-19.93041,4
1561841729.717333,19,0,0,1561841728.999533,4.634646875788118,-74.1510658153092,2557.235,0.66,176.8359375,4,30,-9999,1561841729.701164,9.811088562011719,-17.32113265991211,21.47125244140625,202.9319763183594,210.4251861572266,15,169546.018765375,-0.220703125,-0.96295166015625,-0.0866241455078125,169546.018765375,-0.02814908008991953,0.06718329850331993,0.06969412677904664,169546.006284375,-64.51901245117188,-43.88276672363281,-541.4157104492188,169546.013699375,-0.007663001302351685,-1.119552406814016,1.335223177959332,-0.02567129395902157,0.07072912156581879,0.06017199531197548,-0.009795129299163818,0.001799643039703369,0.01515829563140869,1,0.523017942905426,-0.4189999997615814,-0.3312936425209045,0.6641805171966553,-0.2100382298231125,-0.9723807573318481,-0.101782463490963,0,0,0,-1,169543.1216515417,3,2,1561841727.06815,1561841239.621676,31,1.858098,0,0,29.67847,0,0,1561841685.574557,169543.405799,0,0.480957,75.18842,0,182478453,1,1,1,-13.47469,-20.5472,4
1561841729.756954,20,0,0,1561841728.999533,4.634646875788118,-74.1510658153092,2557.235,0.66,176.8359375,4,30,-9999,1561841729.752726,9.884605407714844,-17.09416961669922,21.52984619140625,202.8514862060547,210.3446960449219,15,169546.039046875,-0.20587158203125,-0.9506378173828125,-0.0928192138671875,169546.039046875,0.002992327800813032,0.002270877461510566,0.1036803233462018,169546.026395375,-64.51638793945312,-43.76268005371094,-541.1019897460938,169546.033963375,-0.006531801471832132,-1.119752528094835,1.33361943454169,-0.01670682616531849,0.01374121010303497,0.09429293870925903,-0.002786844968795776,0.01645404100418091,0.01385807991027832,1,0.5226871371269226,-0.4190323650836945,-0.330637127161026,0.664747416973114,-0.2114618122577667,-0.9720051884651184,-0.1024200692772865,0,0,0,-1,169546.029538375,3,2,1561841729.976037,1561841239.621676,31,1.858098,0,0,29.67847,0,0,1561841685.574557,169543.405799,0,0.480957,75.18842,0,182478453,1,1,1,-14.58925,-22.06629,4
1561841729.761782,21,0,0,1561841728.999533,4.634646875788118,-74.1510658153092,2557.235,0.66,176.8359375,4,30,-9999,1561841729.752726,9.884605407714844,-17.09416961669922,21.52984619140625,202.8514862060547,210.3446960449219,15,169546.059310875,-0.2142791748046875,-0.9622650146484375,-0.0933380126953125,169546.059310875,0.07175088608891483,-0.0265045781167956,0.09386471051649679,169546.046523875,-64.70292663574219,-44.11726379394531,-541.31494140625,169546.054244875,-0.001121889933213395,-1.125247819760268,1.331901058628876,0.05483819544315338,-0.02803153730928898,0.1028560698032379,0.007687002420425415,0.0179867148399353,0.00573885440826416,1,0.522341787815094,-0.4197273552417755,-0.3299159705638885,0.6649386286735535,-0.2135280668735504,-0.9715999960899353,-0.1019760072231293,0,0,0,-1,169546.029538375,3,2,1561841729.976037,1561841239.621676,31,1.858098,0,0,29.67847,0,0,1561841685.574557,169543.405799,0,0.480957,75.18842,0,182478453,1,1,1,-14.58925,-22.06629,4
1561841729.777955,22,0,0,1561841728.999533,4.634646875788118,-74.1510658153092,2557.235,0.66,176.8359375,4,30,-9999,1561841729.776633,9.612449645996094,-17.3265266418457,21.31201171875,202.8786926269531,210.3719024658203,15,169546.079573875,-0.234283447265625,-0.9762725830078125,-0.0794677734375,169546.079573875,0.07535973568208121,-0.03033313849989351,0.04375333986502081,169546.066634875,-64.72100830078125,-43.82286071777344,-541.549560546875,169546.074508875,0.007553939682346563,-1.134412855420844,1.331113127746365,0.0810421034693718,-0.04267652705311775,0.05351755395531654,-0.01011812686920166,0.0003134012222290039,0.01388198137283325,1,0.5223926901817322,-0.4206385016441345,-0.3292597532272339,0.6646480560302734,-0.2151473462581635,-0.971413254737854,-0.1003382578492165,0,0,0,-1,169546.029538375,3,2,1561841729.976037,1561841239.621676,31,1.858098,0,0,29.67847,0,0,1561841685.574557,169543.405799,0,0.480957,75.18842,0,182478453,1,1,1,-15.14653,-23.03314,4
1561841729.798233,23,0,0,1561841728.999533,4.634646875788118,-74.1510658153092,2557.235,0.66,176.8359375,4,30,-9999,1561841729.776633,9.612449645996094,-17.3265266418457,21.31201171875,202.8786926269531,210.3719024658203,15,169546.099837875,-0.2293701171875,-0.9714202880859375,-0.07147216796875,169546.099837875,0.0004484763275693437,0.001803759006310668,0.02740925393909552,169546.086745875,-64.71197509765625,-43.84954833984375,-541.2268676757812,169546.094771875,0.0131511134355167,-1.140466928451278,1.330983965401738,0.01912813447415829,-0.01703960634768009,0.02151567861437798,-0.01953226327896118,-0.003623545169830322,0.02556949853897095,1,0.5225317478179932,-0.421209454536438,-0.3289540112018585,0.6643285155296326,-0.2158650755882263,-0.9713825583457947,-0.09908633679151535,0,0,0,-1,169546.029538375,3,2,1561841729.976037,1561841239.621676,31,1.858098,0,0,29.67847,0,0,1561841685.574557,169543.405799,0,0.480957,75.18842,0,182478453,1,1,1,-15.70381,-23.76667,4
1561841729.833606,24,0,0,1561841728.999533,4.634646875788118,-74.1510658153092,2557.235,0.66,176.8359375,4,30,-9999,1561841729.827671,9.58648681640625,-17.41459274291992,21.4532470703125,202.8765258789062,210.3697357177734,15,169546.120101875,-0.21881103515625,-0.95703125,-0.079864501953125,169546.120101875,-0.06388603875769283,0.03166791483824123,0.0603427029273424,169546.106856875,-64.7374267578125,-43.91180419921875,-541.2600708007812,169546.115004875,0.01281755091594929,-1.139987218162275,1.330262057040676,-0.05677914619445801,0.02492036111652851,0.04371445626020432,-0.008154630661010742,0.006870627403259277,0.02822422981262207,1,0.5223020911216736,-0.4212590157985687,-0.3287850022315979,0.6645613312721252,-0.2164547145366669,-0.9712108373641968,-0.09948273748159409,0,0,0,-1,169546.029538375,3,2,1561841729.976037,1561841239.621676,31,1.858098,0,0,29.67847,0,0,1561841685.574557,169543.405799,0,0.480957,75.18842,0,182478453,1,1,1,-16.26109,-21.43721,4
1561841729.838718,25,0,0,1561841728.999533,4.634646875788118,-74.1510658153092,2557.235,0.66,176.8359375,4,30,-9999,1561841729.827671,9.58648681640625,-17.41459274291992,21.4532470703125,202.8765258789062,210.3697357177734,15,169546.140334875,-0.2188873291015625,-0.9547576904296875,-0.090423583984375,169546.140334875,-0.07490486776789568,0.05643904140150426,0.1009593716604679,169546.126967875,-64.572265625,-43.91403198242188,-541.2745361328125,169546.135268875,0.009750444890918534,-1.136336143904307,1.32843920928587,-0.0776364877820015,0.04589967802166939,0.08989686518907547,0.001035869121551514,0.01565110683441162,0.0114482045173645,1,0.5216534733772278,-0.4211519956588745,-0.3284626603126526,0.6652975678443909,-0.217695415019989,-0.9707750082015991,-0.1010173037648201,0,0,0,-1,169546.029538375,3,2,1561841729.976037,1561841239.621676,31,1.858098,0,0,29.67847,0,0,1561841685.574557,169543.405799,0,0.480957,75.18842,0,182478453,1,1,1,-16.26109,-21.43721,4
1561841729.859169,26,0,0,1561841728.999533,4.634646875788118,-74.1510658153092,2557.235,0.66,176.8359375,4,30,-9999,1561841729.853236,9.658149719238281,-17.56300735473633,21.7022705078125,202.8301391601562,210.3233489990234,15,169546.160598875,-0.224395751953125,-0.95855712890625,-0.0862579345703125,169546.160598875,-0.05589655548745511,0.03605920115967289,0.08133187442658391,169546.147078875,-64.75547790527344,-44.00038146972656,-541.3055419921875,169546.155532875,0.007748108876774233,-1.133390093633224,1.326077957673899,-0.06675800681114197,0.04270761460065842,0.08611597120761871,-0.0002691447734832764,0.01541745662689209,0.01293766498565674,1,0.520932674407959,-0.4210875332355499,-0.3278587758541107,0.6662003993988037,-0.219472661614418,-0.9702056050300598,-0.1026288792490959,0,0,0,-1,169546.029538375,3,2,1561841729.976037,1561841239.621676,31,1.858098,0,0,29.67847,0,0,1561841685.574557,169543.405799,0,0.480957,75.18842,0,182478453,1,1,1,-16.81837,-22.39726,4
1561841729.87929,27,0,0,1561841728.999533,4.634646875788118,-74.1510658153092,2557.235,0.66,176.8359375,4,30,-9999,1561841729.877706,9.447982788085938,-17.49183654785156,21.6021728515625,202.8302459716797,210.3234558105469,15,169546.180861875,-0.2311553955078125,-0.973114013671875,-0.0812835693359375,169546.180861875,-0.0256744708050179,-0.02422091748205266,0.07122065071588006,169546.167189875,-65.04248046875,-44.27410888671875,-541.1480712890625,169546.175795875,0.007125235655729763,-1.132525563813775,1.324289642892593,-0.03242133930325508,-0.01571468450129032,0.07057216763496399,-0.005897253751754761,0.0009902715682983398,0.01926541328430176,1,0.5203493237495422,-0.4212589263916016,-0.3274609446525574,0.6667435169219971,-0.2209551483392715,-0.9697707891464233,-0.1035549938678741,0,0,0,-1,169546.029538375,3,2,1561841729.976037,1561841239.621676,31,1.858098,0,0,29.67847,0,0,1561841685.574557,169543.405799,0,0.480957,75.18842,0,182478453,1,1,1,-17.37564,-22.15663,4
1561841729.917964,28,0,0,1561841728.999533,4.634646875788118,-74.1510658153092,2557.235,0.66,176.8359375,4,30,-9999,1561841729.909073,9.613227844238281,-17.65158462524414,21.35009765625,202.8979339599609,210.3911437988281,15,169546.201125875,-0.2393798828125,-0.968597412109375,-0.0767974853515625,169546.201125875,-0.01981658167127961,-0.04135223382620537,0.05112949713621328,169546.187331875,-64.96974182128906,-44.36213684082031,-541.303466796875,169546.196059875,0.007861532783478568,-1.134014301399397,1.322948781583487,-0.02256631478667259,-0.04941272735595703,0.05378440022468567,-0.01304903626441956,-0.0007721185684204102,0.02664279937744141,1,0.5198153853416443,-0.4217866361141205,-0.3273172974586487,0.6668969392776489,-0.2222872972488403,-0.9694427251815796,-0.1037760004401207,0,0,0,-1,169546.029538375,3,2,1561841729.976037,1561841239.621676,31,1.858098,0,0,29.67847,0,0,1561841685.574557,169543.405799,0,0.480957,75.18842,0,182478453,1,1,1,-18.4902,-21.49095,4
1561841729.920122,29,0,0,1561841728.999533,4.634646875788118,-74.1510658153092,2557.235,0.66,176.8359375,4,30,-9999,1561841729.909073,9.613227844238281,-17.65158462524414,21.35009765625,202.8979339599609,210.3911437988281,15,169546.221389875,-0.2349853515625,-0.964111328125,-0.0921630859375,169546.221389875,-0.06146202953350271,0.0185795433449378,0.04158419515715128,169546.207442875,-64.75830078125,-44.30838012695312,-541.120361328125,169546.216323875,0.007294417995501482,-1.134201665032525,1.321916401172831,-0.0483342632651329,-0.007450096309185028,0.03750662878155708,-0.01720452308654785,0.001949548721313477,0.0218970775604248,1,0.5193221569061279,-0.4221680760383606,-0.32733553647995,0.6670307517051697,-0.2232129871845245,-0.969188928604126,-0.1041572242975235,0,0,0,-1,169546.029538375,3,2,1561841729.976037,1561841239.621676,31,1.858098,0,0,29.67847,0,0,1561841685.574557,169543.405799,0,0.480957,75.18842,0,182478453,1,1,1,-18.4902,-21.49095,4
1561841729.942502,30,0,0,1561841728.999533,4.634646875788118,-74.1510658153092,2557.235,0.66,176.8359375,4,30,-9999,1561841729.909073,9.613227844238281,-17.65158462524414,21.35009765625,202.8979339599609,210.3911437988281,15,169546.241652875,-0.22412109375,-0.951629638671875,-0.1086273193359375,169546.241652875,-0.1391416448411519,0.1533900893052939,0.08452899931522403,169546.227553875,-64.79824829101562,-44.19482421875,-541.3621215820312,169546.236586875,0.002866542038007687,-1.128997539653406,1.320328697862934,-0.1248934790492058,0.1120017319917679,0.06915829330682755,-0.005463778972625732,0.01010215282440186,0.00238347053527832,1,0.5187107920646667,-0.4218429028987885,-0.3271254301071167,0.6678148508071899,-0.2240589261054993,-0.9687966108322144,-0.1059753596782684,0,0,0,-1,169546.029538375,3,2,1561841729.976037,1561841239.621676,31,1.858098,0,0,29.67847,0,0,1561841685.574557,169543.405799,0,0.480957,75.18842,0,182478453,1,1,1,-19.04748,-20.55467,4
1561841729.960557,31,0,0,1561841728.999533,4.634646875788118,-74.1510658153092,2557.235,0.66,176.8359375,4,30,-9999,1561841729.954731,9.520957946777344,-17.70999526977539,21.33074951171875,202.75146484375,210.2446746826172,15,169546.261916875,-0.2192230224609375,-0.95654296875,-0.103363037109375,169546.261916875,-0.1689450806002287,0.1815546157295359,0.1166507168032148,169546.247664875,-64.70930480957031,-44.08540344238281,-541.2227172851562,169546.256850875,-0.004600993963795963,-1.118461881647623,1.317312833813137,-0.1672204285860062,0.190033420920372,0.1166461855173111,0.006654351949691772,0.01768159866333008,0.002856075763702393,1,0.5178499221801758,-0.4207471609115601,-0.3262573778629303,0.6695964932441711,-0.2255569249391556,-0.9680446982383728,-0.109606571495533,0,0,0,-1,169546.029538375,3,2,1561841729.976037,1561841239.621676,31,1.858098,0,0,29.67847,0,0,1561841685.574557,169543.405799,0,0.480957,75.18842,0,182478453,1,1,1,-19.60476,-21.23953,4
1561841729.995953,32,0,0,1561841728.999533,4.634646875788118,-74.1510658153092,2557.235,0.66,176.8359375,4,30,-9999,1561841729.979259,9.432403564453125,-17.85344314575195,21.38848876953125,202.6635284423828,210.15673828125,15,169546.282180875,-0.231689453125,-0.9701690673828125,-0.1279144287109375,169546.282180875,-0.1630581630106085,-0.04204971571569712,-0.03737879747980715,169546.267775875,-64.90815734863281,-44.38801574707031,-541.5359497070312,169546.277083875,-0.01386634600189555,-1.107068546905,1.314409121409244,-0.1730791181325912,0.01134729385375977,0.0001235704403370619,0.0005035102367401123,-0.001056075096130371,0.006355106830596924,1,0.5167825818061829,-0.4197889268398285,-0.3258130252361298,0.6712368726730347,-0.2268066257238388,-0.9673124551773071,-0.11342603713274,0,0,0,-1,169546.029538375,3,2,1561841729.976037,1561841239.621676,31,1.858098,0,0,29.67847,0,0,1561841685.574557,169543.405799,0,0.480957,75.18842,0,182478453,1,1,1,-17.79623,-17.79623,4
1561841730.001018,33,0,0,1561841728.999533,4.634646875788118,-74.1510658153092,2557.235,0.66,176.8359375,4,30,-9999,1561841729.979259,9.432403564453125,-17.85344314575195,21.38848876953125,202.6635284423828,210.15673828125,15,169546.302413875,-0.23681640625,-0.953277587890625,-0.152130126953125,169546.302413875,-0.09540561552321665,-0.114912737875829,-0.1153500289268201,169546.287886875,-65.0228271484375,-44.65054321289062,-541.392333984375,169546.297347875,-0.02642315914135301,-1.096610526692155,1.314254663487236,-0.1134043410420418,-0.1309784203767776,-0.1107462272047997,-0.009626090526580811,0.002917766571044922,-0.03213512897491455,1,0.5158029794692993,-0.4195442199707031,-0.3272967040538788,0.6714214682579041,-0.2257407605648041,-0.9672732949256897,-0.1158598661422729,0,0,0,-1,169546.029538375,3,2,1561841729.976037,1561841239.621676,31,1.858098,0,0,29.67847,0,0,1561841685.574557,169543.405799,0,0.480957,75.18842,0,182478453,1,1,1,-17.79623,-17.79623,4
1561841730.021068,34,0,0,1561841728.999533,4.634646875788118,-74.1510658153092,2557.235,0.66,176.8359375,4,30,-9999,1561841730.007553,9.428924560546875,-17.80931854248047,21.35870361328125,202.8575286865234,210.3507385253906,15,169546.322676875,-0.225189208984375,-0.91619873046875,-0.1722869873046875,169546.322676875,-0.04267582488797475,0.009259811110205511,-0.05705636214218462,169546.307998875,-64.7432861328125,-44.376953125,-541.58837890625,169546.317611875,-0.03645976102976521,-1.088826360605535,1.315481154488191,-0.06212277710437775,-0.03738056495785713,-0.08977916091680527,-0.006123244762420654,0.03357797861099243,-0.04286366701126099,1,0.5153928399085999,-0.4193308651447296,-0.3289055228233337,0.6710835099220276,-0.2237809598445892,-0.9675837755203247,-0.1170636937022209,0,0,0,-1,169546.029538375,3,2,1561841729.976037,1561841239.621676,31,1.858098,0,0,29.67847,0,0,1561841685.574557,169543.405799,0,0.480957,75.18842,0,182478453,1,1,1,-16.11507,-18.23886,4
1561841730.043596,35,0,0,1561841728.999533,4.634646875788118,-74.1510658153092,2557.235,0.66,176.8359375,4,30,-9999,1561841730.029651,9.749298095703125,-17.7883415222168,21.26568603515625,202.9019775390625,210.3951873779297,15,169546.342940875,-0.223846435546875,-0.9110870361328125,-0.1632843017578125,169546.342940875,0.04917793268940322,0.1738197306595097,0.04523006268946975,169546.328109875,-64.71241760253906,-44.13893127441406,-541.3970947265625,169546.337874875,-0.03924307658776598,-1.085134606050257,1.315842594516956,0.02237665839493275,0.1368090808391571,0.02237694524228573,-0.002090603113174438,0.05855631828308105,-0.05501914024353027,1,0.5155403614044189,-0.418754518032074,-0.3289604485034943,0.6713030338287354,-0.2230375856161118,-0.9676749706268311,-0.1177255809307098,0,0,0,-1,169546.029538375,3,2,1561841729.976037,1561841239.621676,31,1.858098,0,0,29.67847,0,0,1561841685.574557,169543.405799,0,0.480957,75.18842,0,182478453,1,1,1,-16.11507,-19.22161,4
1561841730.072792,36,0,0,1561841729.999519,4.634642852474595,-74.15106497711888,2557.047,0.66,170.5078125,4,30,-9999,1561841730.029651,9.749298095703125,-17.7883415222168,21.26568603515625,202.9019775390625,210.3951873779297,15,169546.363204875,-0.23046875,-0.9287567138671875,-0.125732421875,169546.363204875,0.2054719328473195,0.1858327177046392,0.08832879755854908,169546.348250875,-64.92460632324219,-44.31852722167969,-541.7257080078125,169546.358138875,-0.03149504406200107,-1.088932007426175,1.315609310983958,0.1488930583000183,0.1968244761228561,0.07837735861539841,-0.003688067197799683,0.05135631561279297,-0.03195858001708984,1,0.5164586305618286,-0.4180661141872406,-0.3272918164730072,0.6718416810035706,-0.2236831188201904,-0.967616081237793,-0.1169824153184891,0,0,0,-1,169546.029538375,3,2,1561841729.976037,1561841239.621676,31,1.858098,0,0,29.67847,0,0,1561841685.574557,169543.405799,0,0.480957,75.18842,0,182478453,1,1,1,-16.11507,-20.17084,4
1561841730.08175,37,0,0,1561841729.999519,4.634642852474595,-74.15106497711888,2557.047,0.66,170.5078125,4,30,-9999,1561841730.079637,9.454025268554688,-17.60541915893555,21.40789794921875,202.6469421386719,210.1401519775391,15,169546.383467875,-0.2260589599609375,-0.9725341796875,-0.06744384765625,169546.383467875,0.4059083607055172,-0.01224015468611319,0.1293017972455272,169546.368361875,-65.02970886230469,-43.76483154296875,-541.142822265625,169546.378402875,-0.009592359197902547,-1.107310893704068,1.316250663182213,0.3674594759941101,0.04685149341821671,0.1143958121538162,-0.003016561269760132,0.01935243606567383,0.01989221572875977,1,0.5182605385780334,-0.4184721410274506,-0.3248217701911926,0.6713998317718506,-0.225239634513855,-0.9677777886390686,-0.1125741600990295,0,0,0,-1,169546.029538375,3,2,1561841729.976037,1561841239.621676,31,1.858098,0,0,29.67847,0,0,1561841685.574557,169543.405799,0,0.480957,75.18842,0,182478453,1,1,1,-16.11507,-20.94848,4
1561841730.102087,38,0,0,1561841729.999519,4.634642852474595,-74.15106497711888,2557.047,0.66,170.5078125,4,30,-9999,1561841730.079637,9.454025268554688,-17.60541915893555,21.40789794921875,202.6469421386719,210.1401519775391,15,169546.403731875,-0.2403564453125,-1.012863159179688,-0.05670166015625,169546.403731875,0.3466434390713298,-0.1897361129143683,0.1540199269030976,169546.388472875,-65.13294982910156,-44.12394714355469,-541.073974609375,169546.398665875,0.02396497792445178,-1.141323373038475,1.317311329556109,0.3879205286502838,-0.1775523275136948,0.1442645043134689,-0.001853793859481812,-0.02583682537078857,0.04360073804855347,1,0.5201521515846252,-0.4209876358509064,-0.322627067565918,0.6694198250770569,-0.2280046194791794,-0.9680443406105042,-0.1044223010540009,0,0,0,-1,169546.029538375,3,2,1561841729.976037,1561841239.621676,31,1.858098,0,0,29.67847,0,0,1561841685.574557,169543.405799,0,0.480957,75.18842,0,182478453,1,1,1,-16.11507,-22.00757,4
1561841730.124126,39,0,0,1561841729.999519,4.634642852474595,-74.15106497711888,2557.047,0.66,170.5078125,4,30,-9999,1561841730.107057,9.360038757324219,-17.32462692260742,21.70318603515625,202.4415283203125,209.9347381591797,15,169546.423995875,-0.274383544921875,-1.0469970703125,-0.049774169921875,169546.423995875,0.09042523796865946,-0.09313606964225112,0.1689844953843619,169546.408583875,-64.94319152832031,-43.89706420898438,-541.1556396484375,169546.418929875,0.04923639206728242,-1.169356282354196,1.316570845994189,0.1626181900501251,-0.1343449354171753,0.1706780046224594,-0.02695143222808838,-0.06334578990936279,0.04207253456115723,1,0.5207342505455017,-0.4239109754562378,-0.3213101625442505,0.6677538156509399,-0.2315019220113754,-0.9678583741188049,-0.09827064722776413,0,0,0,-1,169546.029538375,3,2,1561841729.976037,1561841239.621676,31,1.858098,0,0,29.67847,0,0,1561841685.574557,169543.405799,0,0.480957,75.18842,0,182478453,1,1,1,-16.11507,-22.54178,4
1561841730.148645,40,0,0,1561841729.999519,4.634642852474595,-74.15106497711888,2557.047,0.66,170.5078125,4,30,-9999,1561841730.130758,9.392120361328125,-17.63502883911133,21.66656494140625,202.5729370117188,210.0661468505859,15,169546.444258875,-0.3014678955078125,-1.091140747070312,-0.0591583251953125,169546.444258875,-0.1871262150460906,-0.01749909889069266,0.03682459365696166,169546.428695875,-65.04106140136719,-43.78877258300781,-541.1106567382812,169546.439162875,0.05420644111825407,-1.175698153476568,1.313978089702886,-0.1208167150616646,-0.03946928307414055,0.08191696554422379,-0.05139204859733582,-0.09871494770050049,0.05192857980728149,1,0.5199283361434937,-0.4251958727836609,-0.3207161724567413,0.6678503751754761,-0.2344355881214142,-0.9672030806541443,-0.09776598960161209,0,0,0,-1,169546.029538375,3,2,1561841729.976037,1561841239.621676,31,1.858098,0,0,29.67847,0,0,1561841685.574557,169543.405799,0,0.480957,75.18842,0,182478453,1,1,1,-16.11507,-20.28003,4
1561841730.16292,41,0,0,1561841729.999519,4.634642852474595,-74.15106497711888,2557.047,0.66,170.5078125,4,30,-9999,1561841730.158764,9.439910888671875,-17.58015823364258,21.4306640625,202.6445770263672,210.1377868652344,15,169546.464522875,-0.3353729248046875,-1.2020263671875,-0.0837860107421875,169546.464522875,-0.5117445129541381,0.1754969895140416,-0.1943092931382524,169546.448806875,-65.07023620605469,-44.00262451171875,-541.3391723632812,169546.459426875,0.03394610603513508,-1.155655320385918,1.312227630312398,-0.4237800538539886,0.1161136478185654,-0.1348760575056076,-0.08171126246452332,-0.1676424741744995,0.02752006053924561,1,0.5182744860649109,-0.4240611493587494,-0.321895569562912,0.6692883372306824,-0.2339778393507004,-0.9667569398880005,-0.1031273975968361,0,0,0,-1,169546.029538375,3,2,1561841729.976037,1561841239.621676,31,1.858098,0,0,29.67847,0,0,1561841685.574557,169543.405799,0,0.480957,75.18842,0,182478453,1,1,1,-16.11507,-20.28003,4
1561841730.183112,42,0,0,1561841729.999519,4.634642852474595,-74.15106497711888,2557.047,0.66,170.5078125,4,30,-9999,1561841730.181474,9.539535522460938,-17.5148811340332,21.45697021484375,202.5856781005859,210.0788879394531,15,169546.484755875,-0.3785552978515625,-1.321731567382812,-0.1173248291015625,169546.484755875,-0.9034169460526368,0.2051230587445191,-0.4857571207210359,169546.468947875,-64.99600219726562,-44.13645935058594,-541.38623046875,169546.479689875,-0.01865686663497066,-1.100874381714602,1.311912626502891,-0.8039121627807617,0.2278662770986557,-0.4145625829696655,-0.1282239556312561,-0.2985061407089233,0.0220191478729248,1,0.5159408450126648,-0.4193377792835236,-0.3253099620342255,0.6724092960357666,-0.2282518446445465,-0.9666763544082642,-0.1159217432141304,0,0,0,-1,169546.029538375,3,2,1561841729.976037,1561841239.621676,31,1.858098,0,0,29.67847,0,0,1561841685.574557,169543.405799,0,0.480957,75.18842,0,182478453,1,1,1,-16.11507,-20.54672,4
1561841730.203468,43,0,0,1561841729.999519,4.634642852474595,-74.15106497711888,2557.047,0.66,170.5078125,4,30,-9999,1561841730.181474,9.539535522460938,-17.5148811340332,21.45697021484375,202.5856781005859,210.0788879394531,15,169546.505019875,-0.4336090087890625,-1.46868896484375,-0.2435455322265625,169546.505019875,-1.138599636653098,9.427590258880503e-05,-0.9605436156475995,169546.489058875,-64.91807556152344,-44.562255859375,-541.6336669921875,169546.499953875,-0.1093571478944521,-1.010301763403499,1.312441407868872,-1.117473244667053,0.03474130108952522,-0.8073897361755371,-0.1840530335903168,-0.4195866584777832,-0.02879166603088379,1,0.512170135974884,-0.4120335876941681,-0.3327153921127319,0.6761735081672668,-0.216398611664772,-0.9668115973472595,-0.1358201503753662,0,0,0,-1,169546.029538375,3,2,1561841729.976037,1561841239.621676,31,1.858098,0,0,29.67847,0,0,1561841685.574557,169543.405799,0,0.480957,75.18842,0,182478453,1,1,1,-16.11507,-21.34645,4
1561841730.233783,44,0,0,1561841729.999519,4.634642852474595,-74.15106497711888,2557.047,0.66,170.5078125,4,30,-9999,1561841730.207884,9.5780029296875,-17.84032821655273,21.0838623046875,202.8136444091797,210.3068542480469,15,169546.525283875,-0.532073974609375,-1.681442260742188,-0.3589324951171875,169546.525283875,-1.125545886253966,0.254054116400872,-1.692785882635393,169546.509169875,-64.67979431152344,-44.83407592773438,-542.0498046875,169546.520217875,-0.2370011432409118,-0.8865036074686384,1.317915901634555,-1.128491878509521,0.1060335859656334,-1.511147379875183,-0.2805443704128265,-0.6079150438308716,-0.1552771329879761,1,0.5091555714607239,-0.4020991921424866,-0.3451965749263763,0.6781711578369141,-0.1938666254281998,-0.9681957960128784,-0.1581536829471588,0,0,0,-1,169546.029538375,3,2,1561841729.976037,1561841239.621676,31,1.858098,0,0,29.67847,0,0,1561841685.574557,169543.405799,0,0.480957,75.18842,0,182478453,1,1,1,-16.11507,-21.77866,4
1561841730.244107,45,0,0,1561841729.999519,4.634642852474595,-74.15106497711888,2557.047,0.66,170.5078125,4,30,-9999,1561841730.232804,9.776329040527344,-18.31716156005859,20.557861328125,202.8609313964844,210.3541412353516,15,169546.545546875,-0.6417083740234375,-1.775238037109375,-0.427978515625,169546.545546875,-1.338665885119775,0.8804274742586368,-2.468313039452463,169546.529280875,-64.18438720703125,-44.74491882324219,-542.046875,169546.540480875,-0.4150013901391562,-0.7053251519065892,1.328781351005855,-1.254549145698547,0.7568859457969666,-2.261210203170776,-0.4432508647441864,-0.7761217355728149,-0.2049133777618408,1,0.510199248790741,-0.3853029310703278,-0.360608845949173,0.6791167855262756,-0.1553666442632675,-0.9708570241928101,-0.1824767589569092,0,0,0,-1,169546.029538375,3,2,1561841729.976037,1561841239.621676,31,1.858098,0,0,29.67847,0,0,1561841685.574557,169543.405799,0,0.480957,75.18842,0,182478453,1,1,1,-16.11507,-22.16275,4
1561841730.264326,46,0,0,1561841729.999519,4.634642852474595,-74.15106497711888,2557.047,0.66,170.5078125,4,30,-9999,1561841730.258773,10.97179794311523,-18.26143646240234,19.9249267578125,201.9031066894531,209.3963165283203,15,169546.565810875,-0.720947265625,-1.806411743164062,-0.511474609375,169546.565810875,-1.532994086701767,0.9424429086666579,-3.614087764714453,169546.549392875,-63.59764099121094,-44.90597534179688,-542.6749267578125,169546.560744875,-0.6785760841733609,-0.4307982291097145,1.334247272029207,-1.569405913352966,0.9564749598503113,-3.288414716720581,-0.5709600448608398,-0.8248140811920166,-0.2703393697738647,1,0.5140892267227173,-0.3595048785209656,-0.3801260590553284,0.679685652256012,-0.09786318987607956,-0.9721524715423584,-0.2129370123147964,0,0,0,-1,169546.029538375,3,2,1561841729.976037,1561841239.621676,31,1.858098,0,0,29.67847,0,0,1561841685.574557,169543.405799,0,0.480957,75.18842,0,182478453,1,1,1,-16.11507,-20.98313,4
1561841730.284657,47,0,0,1561841729.999519,4.634642852474595,-74.15106497711888,2557.047,0.66,170.5078125,4,30,-9999,1561841730.283135,11.93494033813477,-17.90924453735352,19.62579345703125,200.6851196289062,208.1783294677734,15,169546.586074875,-0.9235382080078125,-1.813949584960938,-0.5003204345703125,169546.586074875,-0.321978306319452,0.8316737831308831,-4.899894695886116,169546.569503875,-62.86323547363281,-44.89854431152344,-543.19677734375,169546.581008875,-1.035248088432042,-0.06594540090785032,1.328043890884719,-0.772649884223938,0.8381288647651672,-4.613970279693604,-0.8018630743026733,-0.8351061344146729,-0.2647400498390198,1,0.5224161148071289,-0.3273453414440155,-0.4071217477321625,0.6739275455474854,-0.01584016159176826,-0.9706800580024719,-0.2398528605699539,0,0,0,-1,169546.029538375,3,2,1561841729.976037,1561841239.621676,31,1.858098,0,0,29.67847,0,0,1561841685.574557,169543.405799,0,0.480957,75.18842,0,182478453,1,1,1,-16.11507,-21.20746,4
1561841730.31928,48,0,0,1561841729.999519,4.634642852474595,-74.15106497711888,2557.047,0.66,170.5078125,4,30,-9999,1561841730.309822,13.37999725341797,-17.03653335571289,19.803466796875,199.3754425048828,206.86865234375,15,169546.606337875,-1.054473876953125,-1.701339721679688,-0.47509765625,169546.606337875,1.506767808918885,1.102522325998013,-5.864314276184217,169546.589614875,-61.4490966796875,-44.21661376953125,-543.22802734375,169546.601271875,-1.459718949498719,0.3633216495029539,1.315730033179377,1.12359881401062,1.008443117141724,-5.646012306213379,-1.083638668060303,-0.812718391418457,-0.259553074836731,1,0.5435001850128174,-0.2944285571575165,-0.4366044402122498,0.6536786556243896,0.08966585993766785,-0.967646598815918,-0.2358387410640717,0,0,0,-1,169546.029538375,3,2,1561841729.976037,1561841239.621676,31,1.858098,0,0,29.67847,0,0,1561841685.574557,169543.405799,0,0.480957,75.18842,0,182478453,1,1,1,-12.12784,-12.12784,4
1561841730.325388,49,0,0,1561841729.999519,4.634642852474595,-74.15106497711888,2557.047,0.66,170.5078125,4,30,-9999,1561841730.309822,13.37999725341797,-17.03653335571289,19.803466796875,199.3754425048828,206.86865234375,15,169546.626601875,-1.087234497070312,-1.490188598632812,-0.5159912109375,169546.626601875,1.982319163710519,1.13861002298135,-6.485185010597661,169546.609755875,-60.27566528320312,-42.44715881347656,-542.630859375,169546.621505875,-1.907656212606112,0.817748853365882,1.275134300872782,2.007650136947632,1.157580614089966,-6.387061595916748,-1.306292533874512,-0.6585180759429932,-0.2851149439811707,1,0.5765706300735474,-0.260645866394043,-0.4644560217857361,0.6196052432060242,0.2125883102416992,-0.9566094279289246,-0.1992600858211517,0,0,0,-1,169546.029538375,3,2,1561841729.976037,1561841239.621676,31,1.858098,0,0,29.67847,0,0,1561841685.574557,169543.405799,0,0.480957,75.18842,0,182478453,1,1,1,-12.12784,-12.12784,4
1561841730.345238,50,0,0,1561841729.999519,4.634642852474595,-74.15106497711888,2557.047,0.66,170.5078125,4,30,-9999,1561841730.333509,14.58664321899414,-15.15581512451172,20.39422607421875,198.3602447509766,205.8534545898438,15,169546.646834875,-0.97064208984375,-1.192214965820312,-0.3997344970703125,169546.646834875,1.65213113069868,1.22769808776668,-6.665830955763261,169546.629866875,-58.83981323242188,-39.9490966796875,-541.7645263671875,169546.641768875,-2.225099128308348,1.14097981797976,1.185404863387447,1.720978498458862,1.196785569190979,-6.644833087921143,-1.385292887687683,-0.4025875329971313,-0.3347153067588806,1,0.609697699546814,-0.2234828919172287,-0.4926083385944366,0.5793627500534058,0.3417290151119232,-0.9266513586044312,-0.1566482186317444,0,0,0,-1,169546.029538375,3,2,1561841729.976037,1561841239.621676,31,1.858098,0,0,29.67847,0,0,1561841685.574557,169543.405799,0,0.480957,75.18842,0,182478453,1,1,1,-12.12784,-12.88436,4
1561841730.365843,51,0,0,1561841729.999519,4.634642852474595,-74.15106497711888,2557.047,0.66,170.5078125,4,30,-9999,1561841730.360722,16.8866081237793,-10.1465950012207,21.76702880859375,197.6681060791016,205.1613159179688,15,169546.667098875,-0.63751220703125,-0.917877197265625,-0.2312469482421875,169546.667098875,1.633535342071092,1.208027713639246,-6.473388272233046,169546.649977875,-57.86209106445312,-37.45266723632812,-541.22509765625,169546.662032875,-2.401171340020028,1.32497309193655,1.068931066371899,1.585048913955688,1.1983323097229,-6.555761814117432,-1.303834199905396,-0.1942207813262939,-0.1830869317054749,1,0.6387556791305542,-0.1829120665788651,-0.5191794633865356,0.5375751852989197,0.4665996730327606,-0.8766868114471436,-0.1170687153935432,0,0,0,-1,169546.029538375,3,2,1561841729.976037,1561841239.621676,31,1.858098,0,0,29.67847,0,0,1561841685.574557,169543.405799,0,0.480957,75.18842,0,182478453,1,1,1,-12.12784,-13.86696,4
1561841730.398988,52,0,0,1561841729.999519,4.634642852474595,-74.15106497711888,2557.047,0.66,170.5078125,4,30,-9999,1561841730.384375,17.70560455322266,-7.561988830566406,22.39337158203125,197.6045227050781,205.0977325439453,15,169546.687362875,-0.3683624267578125,-0.614959716796875,-0.019927978515625,169546.687362875,2.167607797604455,1.123452641637164,-6.218444393711978,169546.670089875,-56.91514587402344,-35.10615539550781,-540.7337646484375,169546.682296875,-2.511570903588376,1.442767386519554,0.9478184279255077,1.992903232574463,1.165165305137634,-6.262667179107666,-1.041678190231323,0.05388957262039185,-0.05993455648422241,1,0.6648961901664734,-0.1437545716762543,-0.5418796539306641,0.4935727119445801,0.5786807537078857,-0.8121445775032043,-0.07449536025524139,0,0,0,-1,169546.029538375,3,2,1561841729.976037,1561841239.621676,31,1.858098,0,0,29.67847,0,0,1561841685.574557,169543.405799,0,0.480957,75.18842,0,182478453,1,1,1,-6.682705,-6.682705,4
1561841730.408602,53,0,0,1561841729.999519,4.634642852474595,-74.15106497711888,2557.047,0.66,170.5078125,4,30,-9999,1561841730.384375,17.70560455322266,-7.561988830566406,22.39337158203125,197.6045227050781,205.0977325439453,15,169546.707625875,-0.2405853271484375,-0.3926544189453125,0.1674652099609375,169546.707625875,2.930662039456138,0.727444582284016,-6.12211306339385,169546.690200875,-56.72465515136719,-32.11436462402344,-540.0612182617188,169546.702559875,-2.603214836894815,1.534746299712341,0.8262018619682623,2.749087572097778,0.8491743206977844,-6.168506622314453,-0.9889246821403503,0.2456014156341553,0.1084397435188293,1,0.6897916793823242,-0.1094303727149963,-0.5613314509391785,0.443981409072876,0.6772333979606628,-0.7353627681732178,-0.02442486584186554,0,0,0,-1,169546.029538375,3,2,1561841729.976037,1561841239.621676,31,1.858098,0,0,29.67847,0,0,1561841685.574557,169543.405799,0,0.480957,75.18842,0,182478453,1,1,1,-6.682705,-6.682705,4
1561841730.426378,54,0,0,1561841729.999519,4.634642852474595,-74.15106497711888,2557.047,0.66,170.5078125,4,30,-9999,1561841730.410354,17.9112548828125,-4.549560546875,22.89306640625,199.1205444335938,206.6137542724609,15,169546.727889875,-0.020538330078125,-0.1555328369140625,0.1685028076171875,169546.727889875,3.266303960064351,0.1368888768750539,-5.722257002581647,169546.710311875,-56.37461853027344,-28.76974487304688,-539.6144409179688,169546.722823875,-2.688764427753691,1.605563407703599,0.7035987629271021,3.248213052749634,0.2685293257236481,-5.865288257598877,-0.9059789180755615,0.3536005616188049,0.1637260913848877,1,0.7117429971694946,-0.08169768750667572,-0.5798753499984741,0.3879328966140747,0.7620580196380615,-0.6469659805297852,0.02650521323084831,0,0,0,-1,169546.029538375,3,2,1561841729.976037,1561841239.621676,31,1.858098,0,0,29.67847,0,0,1561841685.574557,169543.405799,0,0.480957,75.18842,0,182478453,1,1,1,-3.224653,-7.53261,4
1561841730.446764,55,0,0,1561841729.999519,4.634642852474595,-74.15106497711888,2557.047,0.66,170.5078125,4,30,-9999,1561841730.434964,18.24899673461914,-1.499259948730469,23.27813720703125,202.4534912109375,209.9467010498047,15,169546.748153875,0.2386627197265625,0.078277587890625,0.0780487060546875,169546.748153875,2.891842471826598,-0.2272651126796559,-4.949734157790296,169546.730422875,-56.25527954101562,-25.63958740234375,-539.4591674804688,169546.743087875,-2.761681012677858,1.650149508220023,0.5878140310729228,3.040684700012207,-0.1493305265903473,-5.149483680725098,-0.7144696712493896,0.5336692333221436,0.06408572196960449,1,0.7275646924972534,-0.06026645377278328,-0.5975446701049805,0.3315990269184113,0.8295361995697021,-0.5545432567596436,0.06596485525369644,0,0,0,-1,169546.029538375,3,2,1561841729.976037,1561841239.621676,31,1.858098,0,0,29.67847,0,0,1561841685.574557,169543.405799,0,0.480957,75.18842,0,182478453,1,1,1,-3.224653,-7.890061,4
1561841730.479026,56,0,0,1561841729.999519,4.634642852474595,-74.15106497711888,2557.047,0.66,170.5078125,4,30,-9999,1561841730.461824,18.22633743286133,4.587989807128906,23.0650634765625,298.7324829101562,306.2256774902344,15,169546.768416875,0.4647064208984375,0.168304443359375,-0.0172576904296875,169546.768416875,2.038948887446073,-0.5686014043306759,-4.359691643523392,169546.750533875,-56.29400634765625,-22.6024169921875,-539.8201904296875,169546.763350875,-2.814691058674202,1.670446067092453,0.4861109722357117,2.280352592468262,-0.5338640809059143,-4.487685203552246,-0.5170229077339172,0.6091434359550476,-0.06681156158447266,1,0.736339807510376,-0.04223494604229927,-0.6135716438293457,0.28204545378685,0.8797701001167297,-0.4671909213066101,0.08796020597219467,0,0,0,-1,169546.029538375,3,2,1561841729.976037,1561841239.621676,31,1.858098,0,0,29.67847,0,0,1561841685.574557,169544.350061,0,0.769043,75.1857,0,182478453,1,1,1,-3.224653,-8.682662,4
1561841730.487538,57,0,0,1561841729.999519,4.634642852474595,-74.15106497711888,2557.047,0.66,170.5078125,4,30,-9999,1561841730.485416,17.92037582397461,7.223793029785156,22.642578125,300.79443359375,308.2876281738281,15,169546.788680875,0.56597900390625,0.213623046875,-0.057373046875,169546.788680875,1.087394505741927,-0.450770108216229,-4.007048102516113,169546.770644875,-56.28131103515625,-19.82188415527344,-540.162109375,169546.783583875,-2.844898125649542,1.672292200725437,0.3966067889443482,1.2977614402771,-0.5028635263442993,-4.07787036895752,-0.3909884691238403,0.5681754946708679,-0.1259579658508301,1,0.7390506267547607,-0.02307775057852268,-0.6283649802207947,0.2417210936546326,0.9176303148269653,-0.3862907588481903,0.09345681965351105,0,0,0,-1,169546.029538375,3,2,1561841729.976037,1561841239.621676,31,1.858098,0,0,29.67847,0,0,1561841685.574557,169544.350061,0,0.769043,75.1857,0,182478453,1,1,1,-3.224653,-8.682662,4
1561841730.508204,58,0,0,1561841729.999519,4.634642852474595,-74.15106497711888,2557.047,0.66,170.5078125,4,30,-9999,1561841730.485416,17.92037582397461,7.223793029785156,22.642578125,300.79443359375,308.2876281738281,15,169546.808913875,0.6820831298828125,0.3297576904296875,-0.0726165771484375,169546.808913875,0.5337427561904107,-0.1378976822959759,-3.706493062953586,169546.790755875,-56.42955017089844,-17.90794372558594,-540.3519287109375,169546.803847875,-2.856352705089607,1.668335118280435,0.3151550284971619,0.6280534267425537,-0.2537850141525269,-3.80713939666748,-0.3232740759849548,0.5744597315788269,-0.1691564321517944,1,0.739116907119751,-0.0003700713277794421,-0.6402128934860229,0.209364727139473,0.9462293982505798,-0.3099638819694519,0.09258788079023361,0,0,0,-1,169546.029538375,3,2,1561841729.976037,1561841239.621676,31,1.858098,0,0,29.67847,0,0,1561841685.574557,169544.350061,0,0.769043,75.1857,0,182478453,1,1,1,-3.224653,-8.951363,4
1561841730.527615,59,0,0,1561841729.999519,4.634642852474595,-74.15106497711888,2557.047,0.66,170.5078125,4,30,-9999,1561841730.511657,17.50350952148438,9.094436645507812,22.441650390625,301.35693359375,308.8501281738281,15,169546.829177875,0.7775115966796875,0.5258941650390625,-0.0303955078125,169546.829177875,0.3013513247284612,0.06700806250359272,-3.255946127636705,169546.810866875,-57.54312133789062,-16.11642456054688,-540.5388793945312,169546.824111875,-2.858746783889616,1.667606569780057,0.2417419890679428,0.3388243019580841,0.04901266470551491,-3.372616052627563,-0.246054470539093,0.6636954545974731,-0.1472238302230835,1,0.739173412322998,0.02338600531220436,-0.6479151844978333,0.1824325770139694,0.9663760662078857,-0.2393943220376968,0.09384847432374954,0,0,0,-1,169546.029538375,3,2,1561841729.976037,1561841239.621676,31,1.858098,0,0,29.67847,0,0,1561841685.574557,169544.350061,0,0.769043,75.1857,0,182478453,1,1,1,-3.224653,-9.709321,4
1561841730.551563,60,0,0,1561841729.999519,4.634642852474595,-74.15106497711888,2557.047,0.66,170.5078125,4,30,-9999,1561841730.543802,17.09781646728516,10.7327299118042,22.24298095703125,301.37353515625,308.8667297363281,15,169546.849440875,0.9034271240234375,0.7249755859375,-0.0290374755859375,169546.849440875,0.09267214698035932,0.07491552041225599,-2.779001673278851,169546.830977875,-57.95924377441406,-14.80241394042969,-540.6922607421875,169546.844374875,-2.857619289520947,1.668502298783426,0.1778438519148914,0.153121292591095,0.05477814376354218,-2.910596132278442,-0.1420242786407471,0.8012059330940247,-0.1153753995895386,1,0.7388830780982971,0.04536284506320953,-0.6530362963676453,0.1598054021596909,0.9795333743095398,-0.1769078522920609,0.09601198136806488,0,0,0,-1,169546.029538375,3,2,1561841729.976037,1561841239.621676,31,1.858098,0,0,29.67847,0,0,1561841685.574557,169544.350061,0,0.769043,75.1857,0,182478453,1,1,1,-3.224653,-9.989038,4
1561841730.568031,61,0,0,1561841729.999519,4.634642852474595,-74.15106497711888,2557.047,0.66,170.5078125,4,30,-9999,1561841730.543802,17.09781646728516,10.7327299118042,22.24298095703125,301.37353515625,308.8667297363281,15,169546.869704875,1.04510498046875,0.9587860107421875,-0.0064544677734375,169546.869704875,-0.1108194592803773,0.03099786350797729,-2.144440160333529,169546.851088875,-58.84396362304688,-13.93690490722656,-540.6845092773438,169546.864638875,-2.852960069232064,1.669378337041869,0.1246463228284061,-0.07963234186172485,0.07321999967098236,-2.321183443069458,-0.01888769865036011,0.9697827696800232,-0.1243922710418701,1,0.7379739880561829,0.06499078869819641,-0.6565003395080566,0.1420488804578781,0.9874240756034851,-0.124323807656765,0.09765882045030594,0,0,0,-1,169546.029538375,3,2,1561841729.976037,1561841239.621676,31,1.858098,0,0,29.67847,0,0,1561841685.574557,169544.350061,0,0.769043,75.1857,0,182478453,1,1,1,-3.224653,-10.17621,4
1561841730.588335,62,0,0,1561841729.999519,4.634642852474595,-74.15106497711888,2557.047,0.66,170.5078125,4,30,-9999,1561841730.586717,14.92002487182617,13.37544631958008,22.3155517578125,300.6051940917969,308.098388671875,15,169546.889968875,1.201263427734375,1.15740966796875,0.02020263671875,169546.889968875,-0.206932943021337,-0.143513223770517,-1.375369038631029,169546.871199875,-59.03831481933594,-13.30465698242188,-540.6151123046875,169546.884902875,-2.846218378153773,1.667985600173509,0.08525500739793042,-0.1863084435462952,-0.1330729871988297,-1.591361880302429,0.1399410367012024,1.139793515205383,-0.08134889602661133,1,0.7361057996749878,0.08056181669235229,-0.6593614816665649,0.1300020217895508,0.9916660189628601,-0.08515176922082901,0.09668391197919846,0,0,0,-1,169546.029538375,3,2,1561841729.976037,1561841239.621676,31,1.858098,0,0,29.67847,0,0,1561841685.574557,169544.350061,0,0.769043,75.1857,0,182478453,1,1,1,-0.09999937,-2.194716,4
1561841730.609145,63,0,0,1561841729.999519,4.634642852474595,-74.15106497711888,2557.047,0.66,170.5078125,4,30,-9999,1561841730.586717,14.92002487182617,13.37544631958008,22.3155517578125,300.6051940917969,308.098388671875,15,169546.910231875,1.302871704101562,1.310714721679688,0.0443878173828125,169546.910231875,-0.2584307553363082,0.04963413218413379,-0.3010818128261452,169546.891341875,-59.72781372070312,-12.97712707519531,-540.4694213867188,169546.905165875,-2.839521943657564,1.665285379777425,0.06300204561002039,-0.2486431896686554,-0.0147364865988493,-0.5983452200889587,0.2713894844055176,1.299517393112183,-0.0717155933380127,1,0.7341173887252808,0.09029022604227066,-0.6614271402359009,0.1242316216230392,0.9935641288757324,-0.06296037882566452,0.09416133165359497,0,0,0,-1,169546.029538375,3,2,1561841729.976037,1561841239.621676,31,1.858098,0,0,29.67847,0,0,1561841685.574557,169544.350061,0,0.769043,75.1857,0,182478453,1,1,1,-0.09999937,-2.565499,4
1561841730.633255,64,0,0,1561841729.999519,4.634642852474595,-74.15106497711888,2557.047,0.66,170.5078125,4,30,-9999,1561841730.613003,14.55862808227539,13.70185947418213,22.263916015625,300.1487121582031,307.6419067382812,15,169546.930495875,1.347702026367188,1.398086547851562,0.0883636474609375,169546.930495875,-0.28894152668091,0.07669957202650007,0.7920645882381346,169546.911452875,-60.13432312011719,-12.82278442382812,-540.4366455078125,169546.925429875,-2.83404077346091,1.666280482252514,0.06307946015966023,-0.2831750810146332,0.08965863287448883,0.530953586101532,0.3292432427406311,1.432849645614624,-0.02817869186401367,1,0.7341991066932678,0.09233862906694412,-0.6607136726379395,0.1260260492563248,0.9934649467468262,-0.06303763389587402,0.09514950215816498,0,0,0,-1,169546.029538375,3,2,1561841729.976037,1561841239.621676,31,1.858098,0,0,29.67847,0,0,1561841685.574557,169544.350061,0,0.769043,75.1857,0,182478453,1,1,1,-0.09999937,-3.200184,4
1561841730.649113,65,0,0,1561841729.999519,4.634642852474595,-74.15106497711888,2557.047,0.66,170.5078125,4,30,-9999,1561841730.637338,14.49665451049805,13.77422142028809,22.38043212890625,299.808837890625,307.3020324707031,15,169546.950759875,1.280609130859375,1.324066162109375,0.09710693359375,169546.950759875,-0.4596999536673737,0.223032018126975,1.764975657671953,169546.931563875,-59.90107727050781,-13.01190185546875,-540.5828247070312,169546.945662875,-2.829683473962372,1.667696719074409,0.08455283640191352,-0.3888189494609833,0.1409396529197693,1.526729464530945,0.3409038186073303,1.463221073150635,0.002473711967468262,1,0.7352938055992126,0.08685971796512604,-0.6584205627441406,0.1352062076330185,0.9917530417442322,-0.08445212244987488,0.09640318155288696,0,0,0,-1,169546.029538375,3,2,1561841729.976037,1561841239.621676,31,1.858098,0,0,29.67847,0,0,1561841685.574557,169544.350061,0,0.769043,75.1857,0,182478453,1,1,1,-0.09999937,-3.200184,4
1561841730.669444,66,0,0,1561841729.999519,4.634642852474595,-74.15106497711888,2557.047,0.66,170.5078125,4,30,-9999,1561841730.66385,14.76213836669922,12.60044956207275,22.68243408203125,299.3462219238281,306.8394165039062,15,169546.971022875,1.173736572265625,1.156356811523438,0.10333251953125,169546.971022875,-0.7387294610871178,0.5143323065853681,2.587700154275734,169546.951674875,-59.71676635742188,-13.72119140625,-540.3361206054688,169546.965926875,-2.822691562335518,1.673082487367712,0.1254800320380954,-0.6912667155265808,0.4573024213314056,2.396097183227539,0.2377946376800537,1.375425696372986,-0.01033222675323486,1,0.7381415963172913,0.07615463435649872,-0.6528432369232178,0.1521287262439728,0.9869521260261536,-0.1251510083675385,0.1013050898909569,0,0,0,-1,169546.029538375,3,2,1561841729.976037,1561841239.621676,31,1.858098,0,0,29.67847,0,0,1561841685.574557,169544.350061,0,0.769043,75.1857,0,182478453,1,1,1,-0.09999937,-3.701068,4
1561841730.691752,67,0,0,1561841729.999519,4.634642852474595,-74.15106497711888,2557.047,0.66,170.5078125,4,30,-9999,1561841730.688059,15.28618621826172,11.38444519042969,22.9298095703125,298.6329345703125,306.1261291503906,15,169546.991256875,1.06072998046875,0.912445068359375,0.15185546875,169546.991256875,-0.8882393246841662,0.5408424773404529,3.279433876870659,169546.971785875,-59.27653503417969,-14.58699035644531,-540.1094360351562,169546.986190875,-2.812956917125174,1.682154988997656,0.182797112957222,-0.8466445803642273,0.5381530523300171,3.111502408981323,0.1436318159103394,1.223483085632324,0.02472555637359619,1,0.7422060966491699,0.06138958036899567,-0.6438068151473999,0.175710529088974,0.9772482514381409,-0.1817807853221893,0.10927714407444,0,0,0,-1,169546.029538375,3,2,1561841729.976037,1561841239.621676,31,1.858098,0,0,29.67847,0,0,1561841685.574557,169544.350061,0,0.769043,75.1857,0,182478453,1,1,1,-0.09999937,-4.586086,4
1561841730.713023,68,0,0,1561841729.999519,4.634642852474595,-74.15106497711888,2557.047,0.66,170.5078125,4,30,-9999,1561841730.688059,15.28618621826172,11.38444519042969,22.9298095703125,298.6329345703125,306.1261291503906,15,169547.011519875,0.9422149658203125,0.6864776611328125,0.132720947265625,169547.011519875,-1.136877636692253,0.5947283462048982,3.840668178677849,169546.991866875,-58.51679992675781,-15.85435485839844,-539.6009521484375,169547.006453875,-2.801645134959006,1.690820934614047,0.2539258105693805,-1.066409468650818,0.5755348205566406,3.709985971450806,0.03506273031234741,1.044128775596619,0.02755069732666016,1,0.7457347512245178,0.04275787621736526,-0.6325741410255432,0.2046980261802673,0.9609699249267578,-0.2512058019638062,0.115897111594677,0,0,0,-1,169546.029538375,3,2,1561841729.976037,1561841239.621676,31,1.858098,0,0,29.67847,0,0,1561841685.574557,169544.350061,0,0.769043,75.1857,0,182478453,1,1,1,-0.09999937,-5.566644,4
1561841730.730269,69,0,0,1561841729.999519,4.634642852474595,-74.15106497711888,2557.047,0.66,170.5078125,4,30,-9999,1561841730.714672,16.06286239624023,10.14858627319336,23.32257080078125,297.7330932617188,305.2262878417969,15,169547.031783875,0.8204498291015625,0.4686279296875,0.0962066650390625,169547.031783875,-1.41308765546593,0.6187122423499338,4.300081842528039,169547.011977875,-58.25247192382812,-17.65498352050781,-539.2755737304688,169547.026717875,-2.786540118823583,1.698496210411097,0.3365555671895902,-1.357055306434631,0.6145069599151611,4.19694185256958,-0.05045467615127563,0.9039225578308105,-0.001098155975341797,1,0.7480829358100891,0.02181916870176792,-0.6187766790390015,0.2387704849243164,0.9362121224403381,-0.330237865447998,0.1202083081007004,0,0,0,-1,169546.029538375,3,2,1561841729.976037,1561841239.621676,31,1.858098,0,0,29.67847,0,0,1561841685.574557,169544.350061,0,0.769043,75.1857,0,182478453,1,1,1,-0.09999937,-6.634686,4
1561841730.750477,70,0,0,1561841729.999519,4.634642852474595,-74.15106497711888,2557.047,0.66,170.5078125,4,30,-9999,1561841730.738671,16.51060104370117,8.299860000610352,23.5880126953125,296.4667358398438,303.9599304199219,15,169547.0520594167,0.7256011962890625,0.2740478515625,0.10406494140625,169547.0520594167,-1.4028573884545,0.4381621709835758,4.610201891461696,169547.0321004167,-57.87391662597656,-19.52751159667969,-539.0145874023438,169547.0469934167,-2.76789594136529,1.703252327064709,0.4283549889719936,-1.449692130088806,0.4910809099674225,4.535866260528564,-0.1315862536430359,0.7888643741607666,-0.03268849849700928,1,0.7483764290809631,-0.001012425636872649,-0.6027998328208923,0.2767019271850586,0.9016820788383484,-0.4153749942779541,0.1201366111636162,0,0,0,-1,169546.029538375,3,2,1561841729.976037,1561841239.621676,31,1.858098,0,0,29.67847,0,0,1561841685.574557,169544.350061,0,0.769043,75.1857,0,182478453,1,1,1,-0.09999937,-7.722692,4
1561841730.770876,71,0,0,1561841729.999519,4.634642852474595,-74.15106497711888,2557.047,0.66,170.5078125,4,30,-9999,1561841730.765794,16.7503547668457,4.200040817260742,24.2076416015625,295.2581481933594,302.7513427734375,15,169547.0723224167,0.5892791748046875,0.0869293212890625,0.12786865234375,169547.0723224167,-1.070419516953762,0.3024240460155452,4.863521241717814,169547.0522114167,-57.61109924316406,-21.7630615234375,-538.821044921875,169547.0672564167,-2.752223661944238,1.704255580434218,0.5258632721335981,-1.151824116706848,0.3299298286437988,4.8102707862854,-0.1940377354621887,0.6842413544654846,0.002956628799438477,1,0.7461892366409302,-0.02728187665343285,-0.5858993530273438,0.3149274587631226,0.8571999669075012,-0.5019598007202148,0.1150853559374809,0,0,0,-1,169546.029538375,3,2,1561841729.976037,1561841239.621676,31,1.858098,0,0,29.67847,0,0,1561841685.574557,169544.350061,0,0.769043,75.1857,0,182478453,1,1,1,-0.09999937,-8.811275,4
1561841730.795045,72,0,0,1561841729.999519,4.634642852474595,-74.15106497711888,2557.047,0.66,170.5078125,4,30,-9999,1561841730.790971,16.83050537109375,2.257911682128906,24.36737060546875,294.5439453125,302.0371398925781,15,169547.0925864167,0.4379425048828125,-0.07916259765625,0.122406005859375,169547.0925864167,-1.137040089518748,0.3132034568437499,5.005608342724594,169547.0723224167,-57.48187255859375,-23.77650451660156,-538.5189819335938,169547.0875204167,-2.742800582206692,1.705095110382337,0.6271297780724223,-1.057236909866333,0.2950208485126495,4.975503444671631,-0.2946877479553223,0.5778051614761353,0.02836263179779053,1,0.7422597408294678,-0.05708815157413483,-0.5675730109214783,0.3516422212123871,0.8024239540100098,-0.5868231058120728,0.1084171608090401,0,0,0,-1,169546.029538375,3,2,1561841729.976037,1561841239.621676,31,1.858098,0,0,29.67847,0,0,1561841685.574557,169544.350061,0,0.769043,75.1857,0,182478453,1,1,1,-0.09999937,-9.894068,4
1561841730.811345,73,0,0,1561841729.999519,4.634642852474595,-74.15106497711888,2557.047,0.66,170.5078125,4,30,-9999,1561841730.790971,16.83050537109375,2.257911682128906,24.36737060546875,294.5439453125,302.0371398925781,15,169547.1128504167,0.3124847412109375,-0.15875244140625,0.0518951416015625,169547.1128504167,-1.337151079091738,0.1285872711250589,5.079766193806723,169547.0924334167,-57.33279418945312,-25.60479736328125,-538.5079956054688,169547.1077844167,-2.72842851750047,1.702072567472335,0.7312664595863998,-1.364111661911011,0.2351732105016708,5.057050228118896,-0.3654273152351379,0.5495419502258301,-0.007832765579223633,1,0.7356699109077454,-0.08663690835237503,-0.5473926067352295,0.389416515827179,0.7379248738288879,-0.6678128242492676,0.09743234515190125,0,0,0,-1,169546.029538375,3,2,1561841729.976037,1561841239.621676,31,1.858098,0,0,29.67847,0,0,1561841685.574557,169544.350061,0,0.769043,75.1857,0,182478453,1,1,1,-0.09999937,-9.894068,4
1561841730.831551,74,0,0,1561841729.999519,4.634642852474595,-74.15106497711888,2557.047,0.66,170.5078125,4,30,-9999,1561841730.815612,16.90167999267578,0.04102325439453125,24.33660888671875,293.3350219726562,300.8282165527344,15,169547.1331134167,0.1544189453125,-0.319122314453125,0.0278167724609375,169547.1331134167,-0.6333457799077012,-0.3451661836146629,5.170868141008371,169547.1125444167,-57.72348022460938,-27.90476989746094,-538.5916748046875,169547.1280174167,-2.712835442975151,1.690794573920718,0.8367366605489382,-0.8690838217735291,-0.282095730304718,5.147592544555664,-0.4190239906311035,0.5184162259101868,-0.05132317543029785,1,0.7253916263580322,-0.1179125308990479,-0.5276679396629333,0.4259931147098541,0.665071964263916,-0.7424610257148743,0.08019275218248367,0,0,0,-1,169546.029538375,3,2,1561841729.976037,1561841239.621676,31,1.858098,0,0,29.67847,0,0,1561841685.574557,169544.350061,0,0.769043,75.1857,0,182478453,1,1,1,-0.09999937,-10.97182,4
1561841730.851837,75,0,0,1561841729.999519,4.634642852474595,-74.15106497711888,2557.047,0.66,170.5078125,4,30,-9999,1561841730.841068,16.55115509033203,-1.907283782958984,24.2896728515625,292.9384460449219,300.431640625,15,169547.1533464167,-0.1429443359375,-0.6643829345703125,0.065643310546875,169547.1533464167,-0.5969896362864845,0.1208840776720047,5.161589687770535,169547.1326564167,-58.21302795410156,-29.64218139648438,-538.5118408203125,169547.1482814167,-2.716372520646975,1.688090132788863,0.9422331909986146,-0.3786965310573578,-0.05797849968075752,5.190358638763428,-0.5615585446357727,0.3404741287231445,-0.01355659961700439,1,0.714566171169281,-0.1542710810899734,-0.5071550607681274,0.4564968943595886,0.5839431881904602,-0.808873176574707,0.06880875676870346,0,0,0,-1,169546.029538375,3,2,1561841729.976037,1561841239.621676,31,1.858098,0,0,29.67847,0,0,1561841685.574557,169544.350061,0,0.769043,75.1857,0,182478453,1,1,1,-0.09999937,-12.02831,4
1561841730.880845,76,0,0,1561841729.999519,4.634642852474595,-74.15106497711888,2557.047,0.66,170.5078125,4,30,-9999,1561841730.866544,15.6572265625,-5.592918395996094,24.365966796875,292.1661682128906,299.6593627929688,15,169547.1736104167,-0.42291259765625,-0.9347076416015625,0.022705078125,169547.1736104167,-2.314443048518737,0.4091132087613185,4.710554595025843,169547.1527674167,-58.62760925292969,-31.54464721679688,-538.6683349609375,169547.1685444167,-2.698496091125123,1.676619160077184,1.046791369722412,-1.938558220863342,0.3289945423603058,4.877623558044434,-0.790246844291687,0.02961009740829468,-0.02925980091094971,1,0.7016840577125549,-0.1845654845237732,-0.4833792150020599,0.489815890789032,0.497552752494812,-0.8658222556114197,0.05284987017512321,0,0,0,-1,169546.029538375,3,2,1561841729.976037,1561841239.621676,31,1.858098,0,0,29.67847,0,0,1561841685.574557,169544.350061,0,0.769043,75.1857,0,182478453,1,1,1,-0.09999937,-12.83132,4
1561841730.892299,77,0,0,1561841729.999519,4.634642852474595,-74.15106497711888,2557.047,0.66,170.5078125,4,30,-9999,1561841730.890931,14.72961044311523,-7.503604888916016,24.05755615234375,194.9599151611328,202.453125,15,169547.1938744167,-0.461212158203125,-0.9619903564453125,0.121337890625,169547.1938744167,-1.947798204396476,0.2119263700652355,4.176436333121731,169547.1728784167,-59.40328979492188,-33.500244140625,-538.600830078125,169547.1888084167,-2.60778560890427,1.604995555890098,1.14177336704,-2.332246541976929,0.4592041969299316,4.219026565551758,-0.881117045879364,-0.03197258710861206,0.127072811126709,1,0.6826785206794739,-0.2026370912790298,-0.4615243673324585,0.5290401577949524,0.4157392382621765,-0.9093726277351379,0.01422350667417049,0,0,0,-1,169546.029538375,3,2,1561841729.976037,1561841239.621676,31,1.858098,0,0,29.67847,0,0,1561841685.574557,169544.350061,0,0.769043,75.1857,0,182478453,1,1,1,-0.09999937,-13.56305,4
1561841730.912664,78,0,0,1561841729.999519,4.634642852474595,-74.15106497711888,2557.047,0.66,170.5078125,4,30,-9999,1561841730.890931,14.72961044311523,-7.503604888916016,24.05755615234375,194.9599151611328,202.453125,15,169547.2141374167,-0.410369873046875,-1.16937255859375,-0.2719268798828125,169547.2141374167,0.4729387937622666,-0.9395163609447699,4.463502461763007,169547.1929894167,-60.28129577636719,-35.36582946777344,-538.68798828125,169547.2090724167,-2.535936866085863,1.534494085488425,1.227997549501614,-0.1192220970988274,-0.8795945644378662,4.410373210906982,-0.7883410453796387,-0.1222845315933228,-0.1099166870117188,1,0.6652300953865051,-0.2266478091478348,-0.4423094093799591,0.5571911931037903,0.3359027206897736,-0.9418176412582397,-0.01219938136637211,0,0,0,-1,169546.029538375,3,2,1561841729.976037,1561841239.621676,31,1.858098,0,0,29.67847,0,0,1561841685.574557,169544.350061,0,0.769043,75.1857,0,182478453,1,1,1,-0.09999937,-14.30262,4
1561841730.932844,79,0,0,1561841729.999519,4.634642852474595,-74.15106497711888,2557.047,0.66,170.5078125,4,30,-9999,1561841730.916873,13.90421676635742,-9.382656097412109,24.01416015625,195.3843383789062,202.8775482177734,15,169547.2344014167,-0.5041656494140625,-1.223068237304688,-0.1806488037109375,169547.2344014167,1.559532753280515,-0.629372077245194,4.047946800008678,169547.2131004167,-60.51893615722656,-36.84304809570312,-539.0877685546875,169547.2293354167,-2.588080925757229,1.567365148699154,1.317245990525001,1.481138467788696,-0.7090936899185181,4.203718662261963,-0.6815043687820435,-0.2323046922683716,-0.1736235618591309,1,0.6554532051086426,-0.2644820511341095,-0.4208022654056549,0.5686436891555786,0.2508402764797211,-0.9680279493331909,-0.0008606810588389635,0,0,0,-1,169546.029538375,3,2,1561841729.976037,1561841239.621676,31,1.858098,0,0,29.67847,0,0,1561841685.574557,169544.350061,0,0.769043,75.1857,0,182478453,1,1,1,-0.09999937,-14.50058,4
1561841730.953587,80,0,0,1561841729.999519,4.634642852474595,-74.15106497711888,2557.047,0.66,170.5078125,4,30,-9999,1561841730.942265,13.18846893310547,-10.75382995605469,24.07830810546875,196.8276214599609,204.3208312988281,15,169547.2546654167,-0.5103759765625,-1.3377685546875,-0.18548583984375,169547.2546654167,0.8999058344714763,-0.09263672693786126,3.380427070676971,169547.2332114167,-61.03776550292969,-37.21879577636719,-539.0887451171875,169547.2495994167,-2.751213657697313,1.716278730253283,1.393632552233102,1.174501657485962,-0.2745680510997772,3.530247926712036,-0.7187192440032959,-0.3179290890693665,-0.2518676519393921,1,0.6506183743476868,-0.2991160154342651,-0.3977254927158356,0.5736199617385864,0.1743771880865097,-0.9843475222587585,0.02554931864142418,0,0,0,-1,169546.029538375,3,2,1561841729.976037,1561841239.621676,31,1.858098,0,0,29.67847,0,0,1561841685.574557,169544.350061,0,0.769043,75.1857,0,182478453,1,1,1,-0.09999937,-14.50058,4
1561841730.975433,81,0,0,1561841729.999519,4.634642852474595,-74.15106497711888,2557.047,0.66,170.5078125,4,30,-9999,1561841730.968022,12.40739440917969,-10.83868789672852,24.0836181640625,197.0551452636719,204.5483551025391,15,169547.2749284167,-0.414794921875,-1.275955200195312,0.0185089111328125,169547.2749284167,-0.1924072634877178,0.5979451784856049,2.876703466293934,169547.2533224167,-61.70880126953125,-37.35641479492188,-538.7527465820312,169547.2698634167,-2.937728475269252,1.902676721899688,1.455020370028309,0.02520113065838814,0.4619120955467224,2.992149591445923,-0.5605683326721191,-0.3149373531341553,-0.1329289674758911,1,0.6441977620124817,-0.3222238123416901,-0.3762600123882294,0.5827601552009583,0.1092133149504662,-0.9933054447174072,0.03763788193464279,0,0,0,-1,169546.029538375,3,2,1561841729.976037,1561841239.621676,31,1.858098,0,0,29.67847,0,0,1561841685.574557,169544.350061,0,0.769043,75.1857,0,182478453,1,1,1,-0.09999937,-15.36916,4
1561841730.993754,82,0,0,1561841729.999519,4.634642852474595,-74.15106497711888,2557.047,0.66,170.5078125,4,30,-9999,1561841730.992275,11.5794677734375,-11.33325958251953,24.09033203125,196.1345977783203,203.6278076171875,15,169547.2951924167,-0.4351043701171875,-1.361587524414062,0.114227294921875,169547.2951924167,-0.7914169074610273,0.6095118197320371,2.512360658617937,169547.2734334167,-62.4261474609375,-37.9132080078125,-538.860107421875,169547.2900964167,-3.130694970255739,2.107385657166464,1.509171673594208,-0.6644678115844727,0.6436778903007507,2.582366228103638,-0.4740723967552185,-0.3035796880722046,0.06132113933563232,1,0.6351358294487,-0.3351773917675018,-0.3569218814373016,0.5973820686340332,0.0529298223555088,-0.9981018304824829,0.03148281201720238,0,0,0,-1,169546.029538375,3,2,1561841729.976037,1561841239.621676,31,1.858098,0,0,29.67847,0,0,1561841685.574557,169544.350061,0,0.769043,75.1857,0,182478453,1,1,1,-0.09999937,-16.36414,4
1561841731.014553,83,0,0,1561841729.999519,4.634642852474595,-74.15106497711888,2557.047,0.66,170.5078125,4,30,-9999,1561841730.992275,11.5794677734375,-11.33325958251953,24.09033203125,196.1345977783203,203.6278076171875,15,169547.3154254167,-0.3651885986328125,-1.348663330078125,0.14996337890625,169547.3154254167,-1.331550983951519,0.2531896543110322,2.293455741232258,169547.2935444167,-63.40902709960938,-38.80450439453125,-538.474365234375,169547.3103594167,2.354515041876005,2.915788830411543,1.557297625365152,-1.186952114105225,0.3645501136779785,2.340012073516846,-0.4206531643867493,-0.3775019645690918,0.1227326393127441,1,0.6229183673858643,-0.3443053066730499,-0.3416634202003479,0.6137528419494629,0.003020118921995163,-0.9999088644981384,0.01314687356352806,0,0,0,-1,169546.029538375,3,2,1561841729.976037,1561841239.621676,31,1.858098,0,0,29.67847,0,0,1561841685.574557,169544.350061,0,0.769043,75.1857,0,182478453,1,1,1,-0.09999937,-16.96383,4
1561841731.042445,84,0,0,1561841729.999519,4.634642852474595,-74.15106497711888,2557.047,0.66,170.5078125,4,30,-9999,1561841731.018372,10.85116958618164,-12.18661117553711,24.28900146484375,195.5161895751953,203.0093994140625,15,169547.3356894167,-0.278839111328125,-1.304916381835938,0.1206207275390625,169547.3356894167,-1.819429046164694,-0.1509540958561984,2.133161673117043,169547.3136554167,-64.30204772949219,-39.07440185546875,-538.62060546875,169547.3306234167,0.1865345798647997,-1.196825655539848,1.525120404383933,-1.728367686271667,-0.0624089352786541,2.164745092391968,-0.2756083607673645,-0.3172050714492798,0.153506875038147,1,0.6061938405036926,-0.3524037003517151,-0.3318036794662476,0.631068229675293,-0.0425068661570549,-0.9989570379257202,-0.01668131910264492,0,0,0,-1,169546.029538375,3,2,1561841729.976037,1561841239.621676,31,1.858098,0,0,29.67847,0,0,1561841685.574557,169544.350061,0,0.769043,75.1857,0,182478453,1,1,1,-0.09999937,-17.7997,4
1561841731.054249,85,0,0,1561841729.999519,4.634642852474595,-74.15106497711888,2557.047,0.66,170.5078125,4,30,-9999,1561841731.044585,9.540321350097656,-14.43266677856445,23.6383056640625,195.7698822021484,203.2630920410156,15,169547.3559534167,-0.2632904052734375,-1.265518188476562,0.0388336181640625,169547.3559534167,-1.883569949438708,-0.5659691359092416,1.999184696577882,169547.3337664167,-64.57798767089844,-40.6346435546875,-539.0548706054688,169547.3508874167,-0.01031631134682506,-1.005766619759394,1.47000387527698,-1.912117481231689,-0.469973236322403,2.024890422821045,-0.1702511310577393,-0.2989290356636047,0.1447126865386963,1,0.5857154130935669,-0.3605535626411438,-0.3265411257743835,0.6483128070831299,-0.08498264104127884,-0.9949247241020203,-0.05387716740369797,0,0,0,-1,169546.029538375,3,2,1561841729.976037,1561841239.621676,31,1.858098,0,0,29.67847,0,0,1561841685.574557,169544.350061,0,0.769043,75.1857,0,182478453,1,1,1,-0.09999937,-18.88573,4
1561841731.075081,86,0,0,1561841730.999504,4.634643984031523,-74.15106707259467,2556.572,0.36,168.75,4,30,-9999,1561841731.068677,9.129158020019531,-15.48600006103516,23.3271484375,196.9049682617188,204.3981781005859,15,169547.3762164167,-0.3595428466796875,-1.2705078125,-0.0812530517578125,169547.3762164167,-1.754416756582007,-0.9439734273451265,1.666760939830921,169547.3538774167,-65.28675842285156,-41.65040588378906,-539.4974975585938,169547.3711504167,-0.08089204705348328,-0.9493537249364109,1.416736048749582,-1.758790016174316,-0.8684460520744324,1.775376558303833,-0.1784911751747131,-0.2540160417556763,0.0693974494934082,1,0.5641577243804932,-0.3702103495597839,-0.3244245052337646,0.662886917591095,-0.1247620135545731,-0.9881561398506165,-0.08934071660041809,0,0,0,-1,169546.029538375,3,2,1561841729.976037,1561841239.621676,31,1.858098,0,0,29.67847,0,0,1561841685.574557,169544.350061,0,0.769043,75.1857,0,182478453,1,1,1,-0.09999937,-19.98719,4
1561841731.094808,87,0,0,1561841730.999504,4.634643984031523,-74.15106707259467,2556.572,0.36,168.75,4,30,-9999,1561841731.093147,9.153022766113281,-16.62728500366211,22.497314453125,198.6962127685547,206.1894226074219,15,169547.3964804167,-0.4110565185546875,-1.363845825195312,-0.196319580078125,169547.3964804167,-1.743444266574771,-0.9947697630289708,1.205422076828712,169547.3739894167,-65.277099609375,-42.72113037109375,-540.3018188476562,169547.3914144167,-0.1387770932937447,-0.9122095217791627,1.370148465429707,-1.792924523353577,-1.012740850448608,1.304615378379822,-0.2429674565792084,-0.3567322492599487,-0.02258747816085815,1,0.5430348515510559,-0.3796392977237701,-0.326219230890274,0.6742167472839355,-0.1576215177774429,-0.9799376726150513,-0.121974304318428,0,0,0,-1,169546.029538375,3,2,1561841729.976037,1561841239.621676,31,1.858098,0,0,29.67847,0,0,1561841685.574557,169544.350061,0,0.769043,75.1857,0,182478453,1,1,1,-0.09999937,-20.90749,4
1561841731.115088,88,0,0,1561841730.999504,4.634643984031523,-74.15106707259467,2556.572,0.36,168.75,4,30,-9999,1561841731.093147,9.153022766113281,-16.62728500366211,22.497314453125,198.6962127685547,206.1894226074219,15,169547.4167444167,-0.381591796875,-1.362396240234375,-0.3539276123046875,169547.4167444167,-1.07814028727001,-1.006783549022427,0.9771851766672867,169547.3941004167,-65.35386657714844,-43.6112060546875,-541.1158447265625,169547.4116784167,-0.1899673905114076,-0.8826073233980872,1.33178299225077,-1.308313608169556,-1.017593145370483,1.012602210044861,-0.2195897698402405,-0.3940895795822144,-0.1134282350540161,1,0.5242040157318115,-0.3873335719108582,-0.3301021456718445,0.682799756526947,-0.182860791683197,-0.9715720415115356,-0.1503657102584839,0,0,0,-1,169546.029538375,3,2,1561841729.976037,1561841239.621676,31,1.858098,0,0,29.67847,0,0,1561841685.574557,169544.350061,0,0.769043,75.1857,0,182478453,1,1,1,-0.09999937,-20.90749,4
1561841731.135852,89,0,0,1561841730.999504,4.634643984031523,-74.15106707259467,2556.572,0.36,168.75,4,30,-9999,1561841731.119848,9.104377746582031,-17.44982528686523,21.7796630859375,200.5171508789062,208.0103607177734,15,169547.4370074167,-0.33624267578125,-1.29144287109375,-0.4020843505859375,169547.4370074167,-0.02547473372326196,-0.8752470933062146,0.8999524397905527,169547.4142114167,-65.18609619140625,-44.53465270996094,-541.5333862304688,169547.4319414167,-0.1929343873748834,-0.8995926081852833,1.306439551917959,-0.290137380361557,-0.9161536693572998,0.9012107253074646,-0.1480683386325836,-0.3741557598114014,-0.2386354804039001,1,0.5114968419075012,-0.3963831067085266,-0.3318897187709808,0.6863676905632019,-0.2046080231666565,-0.9652607440948486,-0.1625028252601624,0,0,0,-1,169546.029538375,3,2,1561841729.976037,1561841239.621676,31,1.858098,0,0,29.67847,0,0,1561841685.574557,169544.350061,0,0.769043,75.1857,0,182478453,1,1,1,-0.09999937,-21.3921,4
1561841731.155563,90,0,0,1561841730.999504,4.634643984031523,-74.15106707259467,2556.572,0.36,168.75,4,30,-9999,1561841731.143773,9.097938537597656,-18.22933959960938,21.16888427734375,201.8851623535156,209.3783721923828,15,169547.4572714167,-0.329254150390625,-1.196258544921875,-0.385833740234375,169547.4572714167,0.7315298713961975,-0.7620827206860226,0.9239536464826738,169547.4343224167,-65.45753479003906,-44.81121826171875,-541.75537109375,169547.4521754167,-0.1401228038652201,-0.9677055319812574,1.29394705810165,0.6040008664131165,-0.7984645366668701,0.9343143105506897,-0.1061908900737762,-0.2756274342536926,-0.2461864352226257,1,0.5062879920005798,-0.407625287771225,-0.3291637003421783,0.6849564909934998,-0.2251079231500626,-0.9619213938713074,-0.1550281941890717,0,0,0,-1,169546.029538375,3,2,1561841729.976037,1561841239.621676,31,1.858098,0,0,29.67847,0,0,1561841685.574557,169544.350061,0,0.769043,75.1857,0,182478453,1,1,1,-0.09999937,-22.13505,4
1561841731.175873,91,0,0,1561841730.999504,4.634643984031523,-74.15106707259467,2556.572,0.36,168.75,4,30,-9999,1561841731.169998,9.204963684082031,-18.2772102355957,21.02178955078125,202.7176208496094,210.2108306884766,15,169547.4775354167,-0.36962890625,-1.221893310546875,-0.343658447265625,169547.4775354167,0.7187988961211828,-0.5136974089814933,0.587228884575235,169547.4544334167,-65.35408020019531,-44.89382934570312,-541.963134765625,169547.4724384167,-0.05982383965691677,-1.059602187498397,1.287365796459379,0.7858598828315735,-0.6231188178062439,0.6974461078643799,-0.1000935137271881,-0.225429892539978,-0.2252957820892334,1,0.5055487751960754,-0.419541597366333,-0.3237979412078857,0.6808525323867798,-0.2439006119966507,-0.9601017236709595,-0.1368105709552765,0,0,0,-1,169546.029538375,3,2,1561841729.976037,1561841239.621676,31,1.858098,0,0,29.67847,0,0,1561841685.574557,169544.350061,0,0.769043,75.1857,0,182478453,1,1,1,-0.09999937,-23.13161,4
1561841731.196113,92,0,0,1561841730.999504,4.634643984031523,-74.15106707259467,2556.572,0.36,168.75,4,30,-9999,1561841731.194995,9.386550903320312,-18.0258903503418,21.1939697265625,202.9960174560547,210.4892272949219,15,169547.4977684167,-0.4063568115234375,-1.264602661132812,-0.2613983154296875,169547.4977684167,0.1871573740308446,0.03204235528750637,0.1605995326922474,169547.4745134167,-65.21771240234375,-44.81161499023438,-541.7208251953125,169547.4927024167,-0.006192538884439622,-1.118813193810829,1.284491520743075,0.334493488073349,-0.1075886636972427,0.2490257322788239,-0.1392142176628113,-0.2992204427719116,-0.1846867799758911,1,0.506372332572937,-0.4265159666538239,-0.3199767172336578,0.6777064800262451,-0.2540505528450012,-0.9592939615249634,-0.1233423799276352,0,0,0,-1,169546.029538375,3,2,1561841729.976037,1561841239.621676,31,1.858098,0,0,29.67847,0,0,1561841685.574557,169544.350061,0,0.769043,75.1857,0,182478453,1,1,1,-0.09999937,-23.9734,4
1561841731.216384,93,0,0,1561841730.999504,4.634643984031523,-74.15106707259467,2556.572,0.36,168.75,4,30,-9999,1561841731.194995,9.386550903320312,-18.0258903503418,21.1939697265625,202.9960174560547,210.4892272949219,15,169547.5180314167,-0.3640899658203125,-1.181915283203125,-0.181549072265625,169547.5180314167,-0.1937407082455204,0.2904555337606201,-0.09970768594813065,169547.4946244167,-65.12825012207031,-44.59819030761719,-541.4029541015625,169547.5129664167,0.0007308755160663412,-1.123111274422015,1.283597446280288,-0.1423449814319611,0.2682235836982727,-0.06027698516845703,-0.1366163492202759,-0.2801861763000488,-0.09525972604751587,1,0.5068590044975281,-0.4263609647750854,-0.3185286819934845,0.6781222224235535,-0.2553514242172241,-0.9590411186218262,-0.122620552778244,0,0,0,-1,169546.029538375,3,2,1561841729.976037,1561841239.621676,31,1.858098,0,0,29.67847,0,0,1561841685.574557,169544.350061,0,0.769043,75.1857,0,182478453,1,1,1,-0.09999937,-24.46511,4
1561841731.236645,94,0,0,1561841730.999504,4.634643984031523,-74.15106707259467,2556.572,0.36,168.75,4,30,-9999,1561841731.220725,9.111236572265625,-17.99426651000977,21.35028076171875,202.7330627441406,210.2262725830078,15,169547.5382954167,-0.30487060546875,-1.062896728515625,-0.1424407958984375,169547.5382954167,-0.1540470911462164,0.1788512409069964,-0.1292181739872987,169547.5147364167,-65.27015686035156,-44.59742736816406,-541.40380859375,169547.5332294167,-0.01600846238504385,-1.101769931103006,1.283974807406915,-0.1964505612850189,0.2071833908557892,-0.1456142514944077,-0.08178314566612244,-0.1600995063781738,-0.02837175130844116,1,0.5068326592445374,-0.4232984185218811,-0.3188827931880951,0.67989182472229,-0.252353847026825,-0.9591479301452637,-0.1278782039880753,0,0,0,-1,169546.029538375,3,2,1561841729.976037,1561841239.621676,31,1.858098,0,0,29.67847,0,0,1561841685.574557,169544.350061,0,0.769043,75.1857,0,182478453,1,1,1,-0.09999937,-25.35174,4
1561841731.267832,95,0,0,1561841730.999504,4.634643984031523,-74.15106707259467,2556.572,0.36,168.75,4,30,-9999,1561841731.245107,9.133613586425781,-18.00148391723633,21.159912109375,202.5159301757812,210.0091400146484,15,169547.5585594167,-0.2446136474609375,-0.975067138671875,-0.12445068359375,169547.5585594167,0.06064710223993846,0.03489247028610917,0.01318877266639941,169547.5348474167,-65.21620178222656,-44.64707946777344,-541.3987426757812,169547.5534934167,-0.0258069178207671,-1.08952088087905,1.284936807096356,0.008942265063524246,0.07169027626514435,-0.03804384917020798,-0.02383816242218018,-0.0522381067276001,0.002388954162597656,1,0.5070480108261108,-0.4214690625667572,-0.3193090558052063,0.6806671619415283,-0.2499502599239349,-0.9594196081161499,-0.130532294511795,0,0,0,-1,169546.029538375,3,2,1561841729.976037,1561841239.621676,31,1.858098,0,0,29.67847,0,0,1561841685.574557,169544.350061,0,0.769043,75.1857,0,182478453,1,1,1,-0.09999937,-26.3898,4
1561841731.2772,96,0,0,1561841730.999504,4.634643984031523,-74.15106707259467,2556.572,0.36,168.75,4,30,-9999,1561841731.271459,9.117485046386719,-18.16046142578125,21.1468505859375,202.4574127197266,209.9506225585938,15,169547.5788224167,-0.2220001220703125,-0.9445953369140625,-0.1317901611328125,169547.5788224167,0.2136627510959672,-0.07101878310525206,0.1761108481453049,169547.5549584167,-65.39201354980469,-44.70005798339844,-541.6411743164062,169547.5737574167,-0.01752218606895984,-1.097486774865912,1.284849644001759,0.1818993985652924,-0.05708953738212585,0.1444356739521027,0.02713435888290405,0.005385041236877441,-0.002650141716003418,1,0.5074949860572815,-0.4220913350582123,-0.3184924423694611,0.6803311109542847,-0.2510570883750916,-0.9593950510025024,-0.1285754889249802,0,0,0,-1,169546.029538375,3,2,1561841729.976037,1561841239.621676,31,1.858098,0,0,29.67847,0,0,1561841685.574557,169544.350061,0,0.769043,75.1857,0,182478453,1,1,1,-0.09999937,-26.3898,4
1561841731.297426,97,0,0,1561841730.999504,4.634643984031523,-74.15106707259467,2556.572,0.36,168.75,4,30,-9999,1561841731.2958,9.092857360839844,-18.13502883911133,21.28955078125,202.4964447021484,209.9896545410156,15,169547.5990864167,-0.2472991943359375,-0.9705657958984375,-0.117156982421875,169547.5990864167,0.3121206155445236,-0.1014712312219811,0.1544111452672303,169547.5750694167,-65.37928771972656,-44.65803527832031,-541.366455078125,169547.5940204167,0.003478514701592858,-1.119478857570892,1.283781971527771,0.2917345464229584,-0.1126633137464523,0.17756088078022,0.0231473445892334,0.007143259048461914,-0.002887845039367676,1,0.5080828070640564,-0.4244016706943512,-0.3167138695716858,0.6792845129966736,-0.254745215177536,-0.9590933322906494,-0.123470164835453,0,0,0,-1,169546.029538375,3,2,1561841729.976037,1561841239.621676,31,1.858098,0,0,29.67847,0,0,1561841685.574557,169544.350061,0,0.769043,75.1857,0,182478453,1,1,1,-0.09999937,-27.33546,4
1561841731.317686,98,0,0,1561841730.999504,4.634643984031523,-74.15106707259467,2556.572,0.36,168.75,4,30,-9999,1561841731.2958,9.092857360839844,-18.13502883911133,21.28955078125,202.4964447021484,209.9896545410156,15,169547.6193504167,-0.3058013916015625,-1.011825561523438,-0.0791778564453125,169547.6193504167,0.3198033026571843,0.01720561853856593,-0.09528364274529101,169547.5951494167,-65.22222900390625,-44.59393310546875,-541.365234375,169547.6142844167,0.0269197680244937,-1.143587326116937,1.284819718441746,0.3296696841716766,-0.02529085986316204,-0.0307164303958416,-0.02205166220664978,-0.03402161598205566,0.01623398065567017,1,0.5096104741096497,-0.4264465868473053,-0.3151204884052277,0.6775984168052673,-0.2567416727542877,-0.9593865871429443,-0.1168809458613396,0,0,0,-1,169546.029538375,3,2,1561841729.976037,1561841239.621676,31,1.858098,0,0,29.67847,0,0,1561841685.574557,169544.350061,0,0.769043,75.1857,0,182478453,1,1,1,-0.09999937,-28.012,4
1561841731.348168,99,0,0,1561841730.999504,4.634643984031523,-74.15106707259467,2556.572,0.36,168.75,4,30,-9999,1561841731.346994,9.063095092773438,-17.83689117431641,21.7574462890625,202.2475738525391,209.7407836914062,15,169547.6396144167,-0.297393798828125,-0.99676513671875,-0.062835693359375,169547.6396144167,0.2040572616762694,0.0941169118717273,-0.2393414829587292,169547.6152604167,-65.26974487304688,-44.59996032714844,-541.330078125,169547.6345174167,0.04196532429620967,-1.157270274343746,1.289954338007263,0.2380968034267426,0.08342204988002777,-0.2302953749895096,-0.0548214316368103,-0.05144566297531128,0.04529047012329102,1,0.5123723149299622,-0.4263642728328705,-0.3146650195121765,0.6757767200469971,-0.2538028061389923,-0.9608224034309387,-0.1113762333989143,0,0,0,-1,169546.029538375,3,2,1561841729.976037,1561841239.621676,31,1.858098,0,0,29.67847,0,0,1561841685.574557,169544.350061,0,0.769043,75.1857,0,182478453,1,1,1,-0.09999937,-28.57134,4
1561841731.358347,100,0,0,1561841730.999504,4.634643984031523,-74.15106707259467,2556.572,0.36,168.75,4,30,-9999,1561841731.346994,9.063095092773438,-17.83689117431641,21.7574462890625,202.2475738525391,209.7407836914062,15,169547.6598474167,-0.246917724609375,-0.9537353515625,-0.0779266357421875,169547.6598474167,0.06538380055475339,0.03455717830486819,-0.1686244360049832,169547.6353724167,-65.31929016113281,-44.25424194335938,-541.2283935546875,169547.6547814167,0.04619669798335525,-1.15977351150741,1.29560214617468,0.09238382428884506,0.04822837561368942,-0.2022895812988281,-0.02277892827987671,-0.01255738735198975,0.03868532180786133,1,0.5147444605827332,-0.4251503646373749,-0.3151444792747498,0.6745141744613647,-0.2491021454334259,-0.9623724222183228,-0.1085706129670143,0,0,0,-1,169546.029538375,3,2,1561841729.976037,1561841239.621676,31,1.858098,0,0,29.67847,0,0,1561841685.574557,169544.350061,0,0.769043,75.1857,0,182478453,1,1,1,-0.09999937,-28.85886,4
1561841731.378491,101,0,0,1561841730.999504,4.634643984031523,-74.15106707259467,2556.572,0.36,168.75,4,30,-9999,1561841731.373236,9.120193481445312,-17.60782241821289,21.6737060546875,202.1947479248047,209.6879577636719,15,169547.6801104167,-0.23699951171875,-0.9289703369140625,-0.0820770263671875,169547.6801104167,-0.0434603921451121,-0.02731338013985267,-0.07819919803632369,169547.6554834167,-65.38101196289062,-44.34207153320312,-541.2561645507812,169547.6750444167,0.04434147216251797,-1.15781154979482,1.298548052759992,-0.01823643408715725,-0.02364953979849815,-0.09162484109401703,0.01109156012535095,0.02559244632720947,0.02790361642837524,1,0.5156310200691223,-0.4244576692581177,-0.3159240782260895,0.6739082336425781,-0.2462905198335648,-0.9631687998771667,-0.1079206764698029,0,0,0,-1,169546.029538375,3,2,1561841729.976037,1561841239.621676,31,1.858098,0,0,29.67847,0,0,1561841685.574557,169544.350061,0,0.769043,75.1857,0,182478453,1,1,1,-0.09999937,-29.01594,4
1561841731.39878,102,0,0,1561841730.999504,4.634643984031523,-74.15106707259467,2556.572,0.36,168.75,4,30,-9999,1561841731.397195,9.410591125488281,-17.55154800415039,21.67779541015625,202.2520599365234,209.7452697753906,15,169547.7003744167,-0.2520751953125,-0.9586944580078125,-0.0919189453125,169547.7003744167,-0.091922200817393,0.01792254150401526,-0.1208015196782123,169547.6755944167,-65.0614013671875,-44.02433776855469,-541.1755981445312,169547.6953084167,0.03745823545147165,-1.151735069668286,1.299625775492703,-0.0912693664431572,-0.009245832450687885,-0.1048351973295212,-0.001579821109771729,0.02487462759017944,0.0204765796661377,1,0.5154882073402405,-0.4239994287490845,-0.3169167041778564,0.6738398671150208,-0.244681790471077,-0.9634580016136169,-0.1089927852153778,0,0,0,-1,169546.029538375,3,2,1561841729.976037,1561841239.621676,31,1.858098,0,0,29.67847,0,0,1561841685.574557,169544.350061,0,0.769043,75.1857,0,182478453,1,1,1,-0.09999937,-29.46743,4
1561841731.434644,103,0,0,1561841730.999504,4.634643984031523,-74.15106707259467,2556.572,0.36,168.75,4,30,-9999,1561841731.424288,9.380424499511719,-17.60299682617188,21.686767578125,202.1599731445312,209.6531829833984,15,169547.7206384167,-0.279205322265625,-0.9842529296875,-0.0926666259765625,169547.7206384167,-0.07189682731665117,0.1576370322956432,-0.2691965840429535,169547.6957054167,-64.89582824707031,-43.98431396484375,-541.120361328125,169547.7155724167,0.02708924074390705,-1.140928909905583,1.301643353209209,-0.08085667341947556,0.1118648797273636,-0.2246947586536407,-0.0191112756729126,-0.007606923580169678,0.01702439785003662,1,0.5156779289245605,-0.4226891994476318,-0.3180683553218842,0.6739752888679504,-0.2417224943637848,-0.9639964699745178,-0.1108202263712883,0,0,0,-1,169546.029538375,3,2,1561841729.976037,1561841239.621676,31,1.858098,0,0,29.67847,0,0,1561841685.574557,169545.294439,0,1.022705,75.18332,0,182478453,1,1,1,-0.09999937,-30.39469,4
1561841731.440073,104,0,0,1561841730.999504,4.634643984031523,-74.15106707259467,2556.572,0.36,168.75,4,30,-9999,1561841731.424288,9.380424499511719,-17.60299682617188,21.686767578125,202.1599731445312,209.6531829833984,15,169547.7409014167,-0.28973388671875,-1.005264282226562,-0.08148193359375,169547.7409014167,-0.03579048820568389,0.2339483154352098,-0.5230432401949083,169547.7158164167,-64.9713134765625,-44.21205139160156,-541.4281005859375,169547.7358354167,0.0124967037326307,-1.123220876419238,1.307149955837073,-0.04770004749298096,0.2278972119092941,-0.4576824605464935,-0.05257311463356018,-0.0336993932723999,0.02640390396118164,1,0.5172662138938904,-0.4195756614208221,-0.3196006119251251,0.6739787459373474,-0.2349329590797424,-0.9654461741447449,-0.11278385668993,0,0,0,-1,169546.029538375,3,2,1561841729.976037,1561841239.621676,31,1.858098,0,0,29.67847,0,0,1561841685.574557,169545.294439,0,1.022705,75.18332,0,182478453,1,1,1,-0.09999937,-30.39469,4
1561841731.459818,105,0,0,1561841730.999504,4.634643984031523,-74.15106707259467,2556.572,0.36,168.75,4,30,-9999,1561841731.447832,9.52001953125,-17.40301132202148,21.49859619140625,201.8691253662109,209.3623352050781,15,169547.7611654167,-0.2643890380859375,-0.99749755859375,-0.078033447265625,169547.7611654167,0.009624930495655375,0.2022841290224947,-0.7378381010702683,169547.7359274167,-64.98802185058594,-44.3411865234375,-541.0847778320312,169547.7560994167,-0.009677106758993538,-1.097402669718671,1.317579313488427,-0.003656425978988409,0.2031202167272568,-0.7023507952690125,-0.06027975678443909,-0.03788518905639648,0.03299176692962646,1,0.5202950239181519,-0.4149529337882996,-0.322550892829895,0.6731033325195312,-0.2229691594839096,-0.968111515045166,-0.114214301109314,0,0,0,-1,169546.029538375,3,2,1561841729.976037,1561841239.621676,31,1.858098,0,0,29.67847,0,0,1561841685.574557,169545.294439,0,1.022705,75.18332,0,182478453,1,1,1,-0.09999937,-30.65318,4
1561841731.479969,106,0,0,1561841730.999504,4.634643984031523,-74.15106707259467,2556.572,0.36,168.75,4,30,-9999,1561841731.474248,9.748573303222656,-17.35150909423828,21.57965087890625,201.5940704345703,209.0872802734375,15,169547.7814294167,-0.2352447509765625,-0.9663238525390625,-0.079193115234375,169547.7814294167,0.06546715749687287,0.15104224648828,-0.7824881272743187,169547.7560384167,-64.79652404785156,-44.26884460449219,-541.27001953125,169547.7763634167,-0.03735108038834831,-1.066838308036196,1.331309394600622,0.04953062906861305,0.1596289426088333,-0.7902069091796875,-0.0433843731880188,-0.01294577121734619,0.03902888298034668,1,0.5242156982421875,-0.4097872376441956,-0.3266169726848602,0.6712626814842224,-0.2077142745256424,-0.9714598059654236,-0.1145446449518204,0,0,0,-1,169546.029538375,3,2,1561841729.976037,1561841239.621676,31,1.858098,0,0,29.67847,0,0,1561841685.574557,169545.294439,0,1.022705,75.18332,0,182478453,1,1,1,-0.09999937,-24.55911,4
1561841731.52635,107,0,0,1561841730.999504,4.634643984031523,-74.15106707259467,2556.572,0.36,168.75,4,30,-9999,1561841731.499144,9.829673767089844,-17.41207504272461,21.5841064453125,201.3867340087891,208.8799438476562,15,169547.8016924167,-0.1896514892578125,-0.9426422119140625,-0.09613037109375,169547.8016924167,0.05266321160798991,0.1138269670994038,-0.6689921910984118,169547.7761494167,-64.54908752441406,-43.96760559082031,-541.135986328125,169547.7965964167,-0.06492984579020976,-1.037263628360068,1.34521137879398,0.06098169088363647,0.1188482195138931,-0.7095959186553955,-0.01908087730407715,0.02170634269714355,0.02849090099334717,1,0.5282266139984131,-0.4050902724266052,-0.3307174444198608,0.6689577698707581,-0.192589059472084,-0.9746634364128113,-0.1137570291757584,0,0,0,-1,169546.029538375,3,2,1561841729.976037,1561841239.621676,31,1.858098,0,0,29.67847,0,0,1561841685.574557,169545.294439,0,1.022705,75.18332,0,182478453,1,1,1,-0.6572783,-25.77347,4
1561841731.52881,108,0,0,1561841730.999504,4.634643984031523,-74.15106707259467,2556.572,0.36,168.75,4,30,-9999,1561841731.525099,10.06014251708984,-17.09692001342773,21.54888916015625,201.2820892333984,208.7752990722656,15,169547.8219264167,-0.16046142578125,-0.9328155517578125,-0.1010894775390625,169547.8219264167,-0.005232845225896695,0.04773503201079828,-0.4959945782674096,169547.7962604167,-64.50819396972656,-43.66729736328125,-541.4154052734375,169547.8168604167,-0.09129360424929756,-1.00969007484882,1.356194989813445,0.006923247594386339,0.0615449845790863,-0.5412508845329285,0.007666677236557007,0.04328453540802002,0.01195579767227173,1,0.5312952995300293,-0.4013294577598572,-0.3342000544071198,0.6670609712600708,-0.1803046017885208,-0.97706139087677,-0.1133199408650398,0,0,0,-1,169546.029538375,3,2,1561841729.976037,1561841239.621676,31,1.858098,0,0,29.67847,0,0,1561841685.574557,169545.294439,0,1.022705,75.18332,0,182478453,1,1,1,-0.6572783,-25.77347,4
1561841731.541087,109,0,0,1561841730.999504,4.634643984031523,-74.15106707259467,2556.572,0.36,168.75,4,30,-9999,1561841731.525099,10.06014251708984,-17.09692001342773,21.54888916015625,201.2820892333984,208.7752990722656,15,169547.8421894167,-0.14483642578125,-0.9422607421875,-0.1010284423828125,169547.8421894167,-0.04138046333376021,-0.006063751486001417,-0.3314975093198312,169547.8163714167,-64.30999755859375,-43.56074523925781,-541.0986938476562,169547.8371234167,-0.1154038916977122,-0.9856904460657879,1.36353119756515,-0.04040564969182014,-0.006064952816814184,-0.3748136758804321,0.02120843529701233,0.04004454612731934,0.01111340522766113,1,0.5330588817596436,-0.3987756371498108,-0.3371056616306305,0.6657222509384155,-0.171553298830986,-0.9785973429679871,-0.1136524379253387,0,0,0,-1,169546.029538375,3,2,1561841729.976037,1561841239.621676,31,1.858098,0,0,29.67847,0,0,1561841685.574557,169545.294439,0,1.022705,75.18332,0,182478453,1,1,1,-1.214557,-26.25699,4
1561841731.561079,110,0,0,1561841730.999504,4.634643984031523,-74.15106707259467,2556.572,0.36,168.75,4,30,-9999,1561841731.549294,10.34220886230469,-17.05706787109375,21.74981689453125,201.2975921630859,208.7908020019531,15,169547.8624534167,-0.1511688232421875,-0.9470977783203125,-0.0861358642578125,169547.8624534167,-0.02362357044954788,-0.006245645388453829,-0.2158990074633067,169547.8364824167,-64.33580017089844,-43.70359802246094,-541.0969848632812,169547.8573874167,-0.134263497731765,-0.9674682120213932,1.367957972120884,-0.03409475833177567,-0.008799753151834011,-0.241022065281868,0.01921737194061279,0.03587996959686279,0.01981782913208008,1,0.5339415669441223,-0.3971854448318481,-0.3392457067966461,0.6648778319358826,-0.1658848226070404,-0.9794987440109253,-0.1143002510070801,0,0,0,-1,169546.029538375,3,2,1561841729.976037,1561841239.621676,31,1.858098,0,0,29.67847,0,0,1561841685.574557,169545.294439,0,1.022705,75.18332,0,182478453,1,1,1,-1.771836,-26.49587,4
1561841731.610995,111,0,0,1561841730.999504,4.634643984031523,-74.15106707259467,2556.572,0.36,168.75,4,30,-9999,1561841731.575776,10.24644470214844,-16.95158767700195,21.6895751953125,201.3287811279297,208.8219909667969,15,169547.8827174167,-0.1578216552734375,-0.950775146484375,-0.080810546875,169547.8827174167,-0.009028116095368617,-0.03017547936336083,-0.1287401365716295,169547.8565934167,-64.09500122070312,-43.79965209960938,-541.130859375,169547.8776514167,-0.1463572498115607,-0.9560477661281472,1.370877271796215,-0.01360359974205494,-0.02930795773863792,-0.1547540128231049,0.005646020174026489,0.03022301197052002,0.03236877918243408,1,0.5345138311386108,-0.39626544713974,-0.3406781554222107,0.6642341613769531,-0.1622317284345627,-0.980082631111145,-0.1145373210310936,0,0,0,-1,169546.029538375,3,2,1561841729.976037,1561841239.621676,31,1.858098,0,0,29.67847,0,0,1561841685.574557,169545.294439,0,1.022705,75.18332,0,182478453,1,1,1,-2.886394,-26.97945,4
1561841731.613966,112,0,0,1561841730.999504,4.634643984031523,-74.15106707259467,2556.572,0.36,168.75,4,30,-9999,1561841731.575776,10.24644470214844,-16.95158767700195,21.6895751953125,201.3287811279297,208.8219909667969,15,169547.9029804167,-0.15283203125,-0.95037841796875,-0.08282470703125,169547.9029804167,-0.01445989945469423,-0.04877712694534628,-0.04691637629170792,169547.8767054167,-64.15878295898438,-43.32778930664062,-541.0091552734375,169547.8979144167,-0.1534460783450693,-0.94998319732629,1.372490974535484,-0.01720046438276768,-0.05393847078084946,-0.06633654236793518,0.004272758960723877,0.02903163433074951,0.03410923480987549,1,0.5347151160240173,-0.3959546089172363,-0.3416617810726166,0.6637522578239441,-0.1602481007575989,-0.980401873588562,-0.114599384367466,0,0,0,-1,169546.029538375,3,2,1561841729.976037,1561841239.621676,31,1.858098,0,0,29.67847,0,0,1561841685.574557,169545.294439,0,1.022705,75.18332,0,182478453,1,1,1,-2.886394,-26.97945,4
1561841731.621826,113,0,0,1561841730.999504,4.634643984031523,-74.15106707259467,2556.572,0.36,168.75,4,30,-9999,1561841731.616968,10.15492248535156,-16.84849548339844,21.7686767578125,201.396240234375,208.8894500732422,15,169547.9232444167,-0.15509033203125,-0.94500732421875,-0.095184326171875,169547.9232444167,-0.04616669644485061,-0.0681470965018196,0.003632818042977089,169547.8968164167,-64.11434936523438,-43.43173217773438,-540.9395751953125,169547.9181784167,-0.1574562985733758,-0.9472578190649107,1.372762531801641,-0.03865382447838783,-0.06660100072622299,-0.004863853566348553,0.007848054170608521,0.03242677450180054,0.02776765823364258,1,0.5344833135604858,-0.3960903286933899,-0.3423059582710266,0.6635259985923767,-0.1597188115119934,-0.9804552793502808,-0.1148800775408745,0,0,0,-1,169546.029538375,3,2,1561841729.976037,1561841239.621676,31,1.858098,0,0,29.67847,0,0,1561841685.574557,169545.294439,0,1.022705,75.18332,0,182478453,1,1,1,-2.886394,-26.97945,4
1561841731.642399,114,0,0,1561841730.999504,4.634643984031523,-74.15106707259467,2556.572,0.36,168.75,4,30,-9999,1561841731.616968,10.15492248535156,-16.84849548339844,21.7686767578125,201.396240234375,208.8894500732422,15,169547.9435084167,-0.1658782958984375,-0.9413299560546875,-0.105743408203125,169547.9435084167,-0.04550649881061997,-0.03032674691327732,0.01420290440950159,169547.9169274167,-63.92489624023438,-43.50088500976562,-541.1988525390625,169547.9384424167,-0.1616935863026095,-0.9445013889574979,1.372211366544652,-0.05171316489577293,-0.05548043549060822,0.0002635305281728506,-0.0006677508354187012,0.03863525390625,0.01408946514129639,1,0.5339204668998718,-0.3963717818260193,-0.3428910076618195,0.6635090112686157,-0.1598394513130188,-0.9803467392921448,-0.1156366914510727,0,0,0,-1,169546.029538375,3,2,1561841729.976037,1561841239.621676,31,1.858098,0,0,29.67847,0,0,1561841685.574557,169545.294439,0,1.022705,75.18332,0,182478453,1,1,1,-3.443673,-27.25963,4
1561841731.681706,115,0,0,1561841730.999504,4.634643984031523,-74.15106707259467,2556.572,0.36,168.75,4,30,-9999,1561841731.676927,10.72186660766602,-16.97882461547852,21.6856689453125,201.5751800537109,209.0683898925781,15,169547.9637714167,-0.1595306396484375,-0.9456634521484375,-0.1109161376953125,169547.9637714167,-0.01350915094553594,0.01428200029387694,0.06339042447882909,169547.9370384167,-63.96153259277344,-43.78343200683594,-541.16748046875,169547.9586754167,-0.1632510344270557,-0.9434090747089011,1.371404788265589,-0.02148282714188099,0.00474961195141077,0.04955544695258141,-0.0071125328540802,0.03769767284393311,0.00780034065246582,1,0.5335126519203186,-0.3965182602405548,-0.3429935574531555,0.6636964082717896,-0.1603526920080185,-0.9801872968673706,-0.1162750422954559,0,0,0,-1,169546.029538375,3,2,1561841729.976037,1561841239.621676,31,1.858098,0,0,29.67847,0,0,1561841685.574557,169545.294439,0,1.022705,75.18332,0,182478453,1,1,1,-4.558231,-19.36407,4
1561841731.684005,116,0,0,1561841730.999504,4.634643984031523,-74.15106707259467,2556.572,0.36,168.75,4,30,-9999,1561841731.676927,10.72186660766602,-16.97882461547852,21.6856689453125,201.5751800537109,209.0683898925781,15,169547.9840354167,-0.14715576171875,-0.955902099609375,-0.0997772216796875,169547.9840354167,-0.02258547025663499,-0.008802013718820891,0.0956998948236704,169547.9571184167,-63.70925903320312,-43.58572387695312,-541.2054443359375,169547.9789384167,-0.1600583918147521,-0.9464317561848816,1.370098746242987,-0.01802657730877399,-0.001816944684833288,0.08884985744953156,0.0142357349395752,0.02747410535812378,0.010856032371521,1,0.533163845539093,-0.3968212306499481,-0.3425399959087372,0.6640298962593079,-0.1617424339056015,-0.9799277782440186,-0.1165384501218796,0,0,0,-1,169546.029538375,3,2,1561841729.976037,1561841239.621676,31,1.858098,0,0,29.67847,0,0,1561841685.574557,169545.294439,0,1.022705,75.18332,0,182478453,1,1,1,-4.558231,-19.36407,4
1561841731.702847,117,0,0,1561841730.999504,4.634643984031523,-74.15106707259467,2556.572,0.36,168.75,4,30,-9999,1561841731.701247,10.5787467956543,-17.14240264892578,21.67181396484375,201.6305084228516,209.1237182617188,15,169548.0042684167,-0.164337158203125,-0.9687347412109375,-0.0970611572265625,169548.0042684167,-0.05552504451538906,-0.05382461615937346,0.09032616837610852,169547.9772294167,-63.78256225585938,-43.78414916992188,-541.1434326171875,169547.9992024167,-0.1572867418163837,-0.9497273907621524,1.368189505316905,-0.05210385099053383,-0.05349931120872498,0.09189037978649139,0.009547621011734009,0.02085089683532715,0.01833784580230713,1,0.5324723720550537,-0.3974000513553619,-0.3422039151191711,0.6644116044044495,-0.1636461466550827,-0.9795453548431396,-0.1170927435159683,0,0,0,-1,169546.029538375,3,2,1561841729.976037,1561841239.621676,31,1.858098,0,0,29.67847,0,0,1561841685.574557,169545.294439,0,1.022705,75.18332,0,182478453,1,1,1,-5.11551,-19.80844,4
1561841731.723461,118,0,0,1561841730.999504,4.634643984031523,-74.15106707259467,2556.572,0.36,168.75,4,30,-9999,1561841731.701247,10.5787467956543,-17.14240264892578,21.67181396484375,201.6305084228516,209.1237182617188,15,169548.0245324167,-0.1842193603515625,-0.9826507568359375,-0.0930633544921875,169548.0245324167,-0.1034305188359524,-0.05962524732967506,0.06246417705169952,169547.9973414167,-63.87118530273438,-43.65557861328125,-541.2876586914062,169548.0194664167,-0.1579430105868918,-0.9503724372871967,1.36604520925278,-0.0901324599981308,-0.06891608983278275,0.06968308985233307,-0.008901804685592651,-0.003096640110015869,0.02444243431091309,1,0.5314702391624451,-0.3980395793914795,-0.3422621786594391,0.6648009419441223,-0.1654298454523087,-0.9791116118431091,-0.1182077527046204,0,0,0,-1,169546.029538375,3,2,1561841729.976037,1561841239.621676,31,1.858098,0,0,29.67847,0,0,1561841685.574557,169545.294439,0,1.022705,75.18332,0,182478453,1,1,1,-5.672789,-20.53735,4
1561841731.767056,119,0,0,1561841730.999504,4.634643984031523,-74.15106707259467,2556.572,0.36,168.75,4,30,-9999,1561841731.752291,10.24309539794922,-17.1627082824707,21.72412109375,201.8357696533203,209.3289794921875,15,169548.04480625,-0.1865997314453125,-0.9762420654296875,-0.111785888671875,169548.04480625,-0.1390654784339757,-0.02565982341902247,0.03814632050596799,169548.0174524167,-63.74343872070312,-43.72068786621094,-541.2189331054688,169548.0397294167,-0.1643960296491791,-0.9452201328504789,1.363813505225166,-0.1387055963277817,-0.03835657984018326,0.03675176575779915,-0.02223703265190125,0.0005823373794555664,0.01923370361328125,1,0.5302737951278687,-0.3982969522476196,-0.3426964581012726,0.6653784513473511,-0.1665905117988586,-0.9786553978919983,-0.1203384771943092,0,0,0,-1,169546.029538375,3,2,1561841729.976037,1561841239.621676,31,1.858098,0,0,29.67847,0,0,1561841685.574557,169545.294439,0,1.022705,75.18332,0,182478453,1,1,1,-6.230067,-21.14433,4
1561841731.769696,120,0,0,1561841730.999504,4.634643984031523,-74.15106707259467,2556.572,0.36,168.75,4,30,-9999,1561841731.752291,10.24309539794922,-17.1627082824707,21.72412109375,201.8357696533203,209.3289794921875,15,169548.06507025,-0.165252685546875,-0.9618072509765625,-0.13519287109375,169548.06507025,-0.09839607911126662,-0.007413974158671591,0.07334851642685337,169548.03757425,-64.07832336425781,-43.49969482421875,-541.2630004882812,169548.06000425,-0.1725800689934298,-0.9377647241699795,1.361543349289557,-0.1194445416331291,-0.01781375333666801,0.05832896381616592,-0.009965300559997559,0.01007723808288574,-0.002353250980377197,1,0.5291121006011963,-0.39823979139328,-0.3431015312671661,0.6661282181739807,-0.1674791872501373,-0.9781863689422607,-0.122890904545784,0,0,0,-1,169546.029538375,3,2,1561841729.976037,1561841239.621676,31,1.858098,0,0,29.67847,0,0,1561841685.574557,169545.294439,0,1.022705,75.18332,0,182478453,1,1,1,-6.787346,-20.32322,4
1561841731.783953,121,0,0,1561841730.999504,4.634643984031523,-74.15106707259467,2556.572,0.36,168.75,4,30,-9999,1561841731.778353,10.36845397949219,-17.33091354370117,21.47528076171875,201.8813323974609,209.3745422363281,15,169548.08533425,-0.1567230224609375,-0.9510040283203125,-0.1345367431640625,169548.08533425,-0.009287507985542336,-0.02108983898844649,0.1348142743858822,169548.05768525,-63.88578796386719,-43.81742858886719,-541.3846435546875,169548.08026825,-0.1735518485732476,-0.9371144890608233,1.35926371872068,-0.03179645165801048,-0.02041459828615189,0.117864191532135,0.01076403260231018,0.0208774209022522,-0.009789466857910156,1,0.5282143950462341,-0.3985342383384705,-0.3429097831249237,0.6667630672454834,-0.1691960543394089,-0.9777103066444397,-0.1243200302124023,0,0,0,-1,169546.029538375,3,2,1561841729.976037,1561841239.621676,31,1.858098,0,0,29.67847,0,0,1561841685.574557,169545.294439,0,1.022705,75.18332,0,182478453,1,1,1,-6.787346,-20.32322,4
1561841731.804142,122,0,0,1561841730.999504,4.634643984031523,-74.15106707259467,2556.572,0.36,168.75,4,30,-9999,1561841731.802574,10.46833419799805,-17.41477584838867,21.487060546875,201.9343872070312,209.4275970458984,15,169548.10559725,-0.170440673828125,-0.9584197998046875,-0.1291351318359375,169548.10559725,0.01519360033501106,-0.03683524630132198,0.1550814629136032,169548.07779625,-63.97505187988281,-43.82972717285156,-541.3535766601562,169548.10053125,-0.1654971792329226,-0.9457232538930926,1.357019481934948,0.01643392816185951,-0.04467199742794037,0.153356671333313,0.009364217519760132,0.02353179454803467,-0.009952247142791748,1,0.5275446772575378,-0.399531751871109,-0.3421550393104553,0.6670837998390198,-0.1720381826162338,-0.9772366285324097,-0.1241419836878777,0,0,0,-1,169546.029538375,3,2,1561841729.976037,1561841239.621676,31,1.858098,0,0,29.67847,0,0,1561841685.574557,169545.294439,0,1.022705,75.18332,0,182478453,1,1,1,-7.344625,-21.23673,4
