loggingTime,loggingSample,identifierForVendor,deviceID,locationTimestamp_since1970,locationLatitude,locationLongitude,locationAltitude,locationSpeed,locationCourse,locationVerticalAccuracy,locationHorizontalAccuracy,locationFloor,locationHeadingTimestamp_since1970,locationHeadingX,locationHeadingY,locationHeadingZ,locationTrueHeading,locationMagneticHeading,locationHeadingAccuracy,accelerometerTimestamp_sinceReboot,accelerometerAccelerationX,accelerometerAccelerationY,accelerometerAccelerationZ,gyroTimestamp_sinceReboot,gyroRotationX,gyroRotationY,gyroRotationZ,magnetometerTimestamp_sinceReboot,magnetometerX,magnetometerY,magnetometerZ,motionTimestamp_sinceReboot,motionYaw,motionRoll,motionPitch,motionRotationRateX,motionRotationRateY,motionRotationRateZ,motionUserAccelerationX,motionUserAccelerationY,motionUserAccelerationZ,motionAttitudeReferenceFrame,motionQuaternionX,motionQuaternionY,motionQuaternionZ,motionQuaternionW,motionGravityX,motionGravityY,motionGravityZ,motionMagneticFieldX,motionMagneticFieldY,motionMagneticFieldZ,motionMagneticFieldCalibrationAccuracy,activityTimestamp_sinceReboot,activity,activityActivityConfidence,activityActivityStartDate,pedometerStartDate,pedometerNumberofSteps,pedometerAverageActivePace,pedometerCurrentPace,pedometerCurrentCadence,pedometerDistance,pedometerFloorAscended,pedometerFloorDescended,pedometerEndDate,altimeterTimestamp_sinceReboot,altimeterReset,altimeterRelativeAltitude,altimeterPressure,IP_en0,IP_pdp_ip0,deviceOrientation,batteryState,batteryLevel,avAudioRecorderPeakPower,avAudioRecorderAveragePower,label
1561827191.774956,1,0,0,1561827190.998323,4.634649138901974,-74.15109372704676,2552.656,0.99,229.921875,4,10,-9999,1561827191.758878,-30.40007781982422,-6.858722686767578,3.625,89.98814392089844,97.48133850097656,15,157129.094356375,-0.404205322265625,-0.200103759765625,-0.7402801513671875,157129.085232375,-0.7166854114800959,-0.1557312742195825,0.8445259322354965,157129.074398375,-109.4328155517578,-35.15507507324219,-559.60595703125,157129.085232375,0.3049996840239823,-0.503302273914478,0.1947179623197209,-0.7191019654273987,-0.1618037670850754,0.8415263891220093,0.03662168979644775,-0.02771684527397156,0.1103405356407166,1,0.1306977868080139,-0.2306468039751053,0.1225044205784798,0.9564061760902405,-0.4732061624526978,-0.1934898346662521,-0.8594402670860291,0,0,0,-1,157127.4379427917,4,2,1561827190.137999,1561827055.717469,12,1.562096,0,0,11.78992,0,0,1561827143.457785,157126.61511,0,0.3198242,75.37328,0,182478453,5,1,0.19,-1.100402,-39.10934,0
1561827191.785864,2,0,0,1561827190.998323,4.634649138901974,-74.15109372704676,2552.656,0.99,229.921875,4,10,-9999,1561827191.781317,-30.53208923339844,-6.034332275390625,3.74884033203125,89.36254119873047,96.85573577880859,15,157129.114620375,-0.414764404296875,-0.1829071044921875,-0.81024169921875,157129.105495375,-0.4550189154193414,-0.2046657939853525,0.746770875998612,157129.094509375,-109.1134185791016,-34.50836181640625,-559.6573486328125,157129.105495375,0.3137758367239237,-0.5080953986905651,0.1767911353853719,-0.4574354588985443,-0.2107382863759995,0.7437713146209717,0.09024375677108765,-0.00805780291557312,0.09426200389862061,1,0.123512327671051,-0.233917236328125,0.1287251710891724,0.9557495713233948,-0.4789308905601501,-0.1758716404438019,-0.8600548505783081,0,0,0,-1,157127.4379427917,4,2,1561827190.137999,1561827055.717469,12,1.562096,0,0,11.78992,0,0,1561827143.457785,157126.61511,0,0.3198242,75.37328,0,182478453,5,1,0.19,-1.100402,-39.10934,0
1561827191.81729,3,0,0,1561827190.998323,4.634649138901974,-74.15109372704676,2552.656,0.99,229.921875,4,10,-9999,1561827191.804501,-30.74674224853516,-5.780387878417969,3.94818115234375,88.709716796875,96.20291137695312,15,157129.134884375,-0.487396240234375,-0.171661376953125,-0.835540771484375,157129.125759375,-0.3313752702257965,-0.458735889352765,0.7140656599157849,157129.114620375,-109.271484375,-34.28948974609375,-559.486083984375,157129.125759375,0.3225919309850417,-0.5165483153788852,0.1627394773788171,-0.3337918221950531,-0.4648083746433258,0.7110661268234253,0.03272053599357605,-0.02257873117923737,0.02117180824279785,1,0.1184469237923622,-0.238642543554306,0.1342666298151016,0.9544593691825867,-0.4873561561107635,-0.1620220988988876,-0.8580401539802551,0,0,0,-1,157127.4379427917,4,2,1561827190.137999,1561827055.717469,12,1.562096,0,0,11.78992,0,0,1561827143.457785,157126.61511,0,0.3198242,75.37328,0,182478453,5,1,0.19,-1.100402,-40.49146,0
1561827191.829968,4,0,0,1561827190.998323,4.634649138901974,-74.15109372704676,2552.656,0.99,229.921875,4,10,-9999,1561827191.804501,-30.74674224853516,-5.780387878417969,3.94818115234375,88.709716796875,96.20291137695312,15,157129.155147375,-0.5104217529296875,-0.1576385498046875,-0.8139801025390625,157129.146023375,-0.1744535629989486,-0.4704708423800901,0.6839453079869887,157129.134762375,-109.4886779785156,-33.71522521972656,-559.2962646484375,157129.146023375,0.3325994217814674,-0.5281867800435202,0.1511543579317299,-0.1768701076507568,-0.4765433371067047,0.6809457540512085,-0.009529680013656616,-0.00831034779548645,0.0333479642868042,1,0.1149686574935913,-0.244632750749588,0.139901414513588,0.952556848526001,-0.498221755027771,-0.150579422712326,-0.8538740277290344,0,0,0,-1,157127.4379427917,4,2,1561827190.137999,1561827055.717469,12,1.562096,0,0,11.78992,0,0,1561827143.457785,157126.61511,0,0.3198242,75.37328,0,182478453,5,1,0.19,-1.100402,-40.49146,0
1561827191.846781,5,0,0,1561827190.998323,4.634649138901974,-74.15109372704676,2552.656,0.99,229.921875,4,10,-9999,1561827191.831622,-30.77783203125,-5.340301513671875,4.17279052734375,88.00698089599609,95.50017547607422,15,157129.175411375,-0.4990692138671875,-0.1372528076171875,-0.820098876953125,157129.166286375,-0.2096011641174874,-0.3128151679568164,0.4765199464800961,157129.154873375,-109.4585418701172,-33.26220703125,-559.212158203125,157129.166286375,0.3411688217242275,-0.5374160337037875,0.1420635567221376,-0.2120177149772644,-0.3188876509666443,0.473520427942276,0.0005047917366027832,-0.01284801959991455,0.03519481420516968,1,0.1123868748545647,-0.2493571937084198,0.1446851491928101,0.9509239792823792,-0.5067608952522278,-0.1415861845016479,-0.8503803610801697,0,0,0,-1,157127.4379427917,4,2,1561827190.137999,1561827055.717469,12,1.562096,0,0,11.78992,0,0,1561827143.457785,157126.61511,0,0.3198242,75.37328,0,182478453,5,1,0.19,-1.657681,-41.29416,0
1561827191.867061,6,0,0,1561827190.998323,4.634649138901974,-74.15109372704676,2552.656,0.99,229.921875,4,10,-9999,1561827191.855247,-30.73979187011719,-4.784030914306641,4.24603271484375,87.65322113037109,95.14641571044922,15,157129.195675375,-0.4961700439453125,-0.0710906982421875,-0.84991455078125,157129.186550375,-0.4079006715170054,-0.369503747552461,0.3884204470914028,157129.174984375,-109.3526000976562,-32.9295654296875,-558.5823974609375,157129.186550375,0.3450838286767149,-0.544667821123066,0.1326475337674487,-0.4103172123432159,-0.3755762279033661,0.3854209184646606,0.01529127359390259,0.02091550827026367,0.0126723051071167,1,0.1089636832475662,-0.2534442842006683,0.1474341154098511,0.9498189687728882,-0.5135822892189026,-0.132258877158165,-0.8477858304977417,0,0,0,-1,157127.4379427917,4,2,1561827190.137999,1561827055.717469,12,1.562096,0,0,11.78992,0,0,1561827143.457785,157126.61511,0,0.3198242,75.37328,0,182478453,5,1,0.19,-2.21496,-41.9721,0
1561827191.900826,7,0,0,1561827190.998323,4.634649138901974,-74.15109372704676,2552.656,0.99,229.921875,4,10,-9999,1561827191.88173,-30.73740386962891,-4.477832794189453,4.82080078125,87.42678070068359,94.91997528076172,15,157129.215938375,-0.4452056884765625,-0.011444091796875,-0.8632049560546875,157129.206814375,-0.4036910127819172,-0.5269530269912537,0.5235393871059901,157129.195095375,-109.4649505615234,-32.949462890625,-558.647216796875,157129.206814375,0.3479937473424715,-0.5542001363781099,0.1201413603853049,-0.4061075747013092,-0.5330255627632141,0.5205398201942444,0.04827249050140381,0.08552027493715286,-0.0213320255279541,1,0.1041471585631371,-0.2589541077613831,0.150040328502655,0.948464035987854,-0.5224698781967163,-0.1198525503277779,-0.8441922664642334,0,0,0,-1,157127.4379427917,4,2,1561827190.137999,1561827055.717469,12,1.562096,0,0,11.78992,0,0,1561827143.457785,157126.61511,0,0.3198242,75.37328,0,182478453,5,1,0.19,-2.772239,-42.38551,0
1561827191.907506,8,0,0,1561827190.998323,4.634649138901974,-74.15109372704676,2552.656,0.99,229.921875,4,10,-9999,1561827191.88173,-30.73740386962891,-4.477832794189453,4.82080078125,87.42678070068359,94.91997528076172,15,157129.236202375,-0.4207000732421875,0.0459747314453125,-0.84735107421875,157129.227077375,-0.06440109411251416,-0.6570718820592172,0.6186547180703881,157129.215236375,-109.4089660644531,-32.68588256835938,-558.330322265625,157129.227077375,0.3554571692057756,-0.5671405776137336,0.109868577198377,-0.06681764870882034,-0.6631444096565247,0.6156551837921143,0.1085377931594849,0.1257151812314987,-0.01386356353759766,1,0.1012732982635498,-0.2656429708003998,0.1543575674295425,0.9462300539016724,-0.5339833498001099,-0.1096476688981056,-0.8383550643920898,0,0,0,-1,157127.4379427917,4,2,1561827190.137999,1561827055.717469,12,1.562096,0,0,11.78992,0,0,1561827143.457785,157126.61511,0,0.3198242,75.37328,0,182478453,5,1,0.19,-3.329518,-42.94636,0
1561827191.929896,9,0,0,1561827190.998323,4.634649138901974,-74.15109372704676,2552.656,0.99,229.921875,4,10,-9999,1561827191.906465,-30.74996948242188,-4.218967437744141,5.153076171875,86.80408477783203,94.29727935791016,15,157129.256466375,-0.419830322265625,0.035491943359375,-0.813323974609375,157129.247341375,0.09366044606088772,-0.793624934320812,0.6304293521979555,157129.235348375,-109.600830078125,-32.40896606445312,-557.9102783203125,157129.247341375,0.3664551510445926,-0.5831664056975895,0.1037126902256668,0.09124388545751572,-0.7996974587440491,0.6274297833442688,0.1269955039024353,0.1599691212177277,-0.0004047155380249023,1,0.1011218056082726,-0.2732314169406891,0.1596276462078094,0.943206250667572,-0.5477108359336853,-0.1035268604755402,-0.8302379250526428,0,0,0,-1,157127.4379427917,4,2,1561827190.137999,1561827055.717469,12,1.562096,0,0,11.78992,0,0,1561827143.457785,157126.61511,0,0.3198242,75.37328,0,182478453,5,1,0.19,-3.886797,-43.62515,0
1561827191.948058,10,0,0,1561827190.998323,4.634649138901974,-74.15109372704676,2552.656,0.99,229.921875,4,10,-9999,1561827191.932273,-30.622314453125,-3.878528594970703,5.650634765625,85.96958160400391,93.46277618408203,15,157129.276699375,-0.4475860595703125,-0.0012969970703125,-0.777679443359375,157129.267574375,0.1036733991273676,-0.8509694504929433,0.7064548781525565,157129.255459375,-109.6744079589844,-32.03865051269531,-557.5774536132812,157129.267574375,0.3785681868889151,-0.6013171180478326,0.09790599564792331,0.1012568399310112,-0.8570419549942017,0.7034553289413452,0.1328898072242737,0.1106738448143005,0.02257710695266724,1,0.1015590354800224,-0.2817172706127167,0.1652673929929733,0.939685046672821,-0.5630198121070862,-0.09774965792894363,-0.8206422924995422,0,0,0,-1,157127.4379427917,4,2,1561827190.137999,1561827055.717469,12,1.562096,0,0,11.78992,0,0,1561827143.457785,157126.61511,0,0.3198242,75.37328,0,182478453,5,1,0.19,-3.886797,-43.62515,0
1561827191.978009,11,0,0,1561827190.998323,4.634649138901974,-74.15109372704676,2552.656,0.99,229.921875,4,10,-9999,1561827191.956421,-30.57025146484375,-2.958160400390625,6.45391845703125,84.95079803466797,92.44399261474609,15,157129.296963375,-0.5337371826171875,-0.0194091796875,-0.74847412109375,157129.287838375,0.1884713777126897,-0.9696673392261019,0.964461924559433,157129.275570375,-109.1245422363281,-31.42814636230469,-556.920654296875,157129.287838375,0.3937426916808177,-0.6209481142756643,0.0905521376736276,0.1860548257827759,-0.9757398366928101,0.9614623785018921,0.1008614301681519,0.0804644450545311,0.04751330614089966,1,0.1019613146781921,-0.290871798992157,0.1724987775087357,0.9355435371398926,-0.5794228911399841,-0.09042844176292419,-0.8099949955940247,0,0,0,-1,157127.4379427917,4,2,1561827190.137999,1561827055.717469,12,1.562096,0,0,11.78992,0,0,1561827143.457785,157126.61511,0,0.3198242,75.37328,0,182478453,5,1,0.19,-5.001355,-44.11428,0
1561827191.988562,12,0,0,1561827190.998323,4.634649138901974,-74.15109372704676,2552.656,0.99,229.921875,4,10,-9999,1561827191.983565,-30.45165252685547,-2.29292106628418,6.8875732421875,83.36055755615234,90.85375213623047,15,157129.317226375,-0.616241455078125,-0.034942626953125,-0.7034912109375,157129.308101375,0.4193703736997587,-1.250474772989583,1.284280939867049,157129.295681375,-109.0989837646484,-30.80889892578125,-556.3367309570312,157129.308101375,0.4157252046362019,-0.6450554492348229,0.08164267764658885,0.416953831911087,-1.256547331809998,1.281281352043152,0.00829768180847168,0.04486988484859467,0.07168865203857422,1,0.1032297909259796,-0.3018960058689117,0.1829080730676651,0.9299178123474121,-0.5992400646209717,-0.08155200630426407,-0.7964048385620117,0,0,0,-1,157127.4379427917,4,2,1561827190.137999,1561827055.717469,12,1.562096,0,0,11.78992,0,0,1561827143.457785,157126.61511,0,0.3198242,75.37328,0,182478453,5,1,0.19,-5.001355,-44.11428,0
1561827192.008761,13,0,0,1561827190.998323,4.634649138901974,-74.15109372704676,2552.656,0.99,229.921875,4,10,-9999,1561827192.007272,-30.03660583496094,-1.252758026123047,8.1268310546875,81.08224487304688,88.575439453125,15,157129.337490375,-0.6487274169921875,-0.01702880859375,-0.64794921875,157129.328365375,0.7915266296979386,-1.695711897725063,1.492826959560647,157129.315792375,-108.9821472167969,-29.94720458984375,-555.6795654296875,157129.328365375,0.4455432909002908,-0.6772363726986841,0.07385597016054064,0.7891100645065308,-1.701784372329712,1.489827394485474,-0.004918873310089111,0.0498630702495575,0.1016764640808105,1,0.1073031574487686,-0.3160609304904938,0.1962846964597702,0.9219891428947449,-0.6249334216117859,-0.0737888440489769,-0.7771830558776855,0,0,0,-1,157127.4379427917,4,2,1561827190.137999,1561827055.717469,12,1.562096,0,0,11.78992,0,0,1561827143.457785,157126.61511,0,0.3198242,75.37328,0,182478453,5,1,0.19,-5.558633,-40.91285,0
1561827192.029544,14,0,0,1561827190.998323,4.634649138901974,-74.15109372704676,2552.656,0.99,229.921875,4,10,-9999,1561827192.007272,-30.03660583496094,-1.252758026123047,8.1268310546875,81.08224487304688,88.575439453125,15,157129.357754375,-0.7099456787109375,-0.0301055908203125,-0.61627197265625,157129.348629375,1.069971040626192,-2.188003883128935,1.497868856136385,157129.335933375,-108.6903228759766,-28.84611511230469,-554.8942260742188,157129.348629375,0.4814025018220031,-0.7191503015397747,0.06876014516190185,1.067554473876953,-2.194076299667358,1.494869351387024,-0.01090186834335327,0.0550951361656189,0.1201251745223999,1,0.1150795295834541,-0.3338604271411896,0.2112599015235901,0.9114071726799011,-0.6571889519691467,-0.0687059760093689,-0.7505878210067749,0,0,0,-1,157127.4379427917,4,2,1561827190.137999,1561827055.717469,12,1.562096,0,0,11.78992,0,0,1561827143.457785,157126.61511,0,0.3198242,75.37328,0,182478453,5,1,0.19,-6.115912,-41.28482,0
1561827192.05837,15,0,0,1561827191.99831,4.634652868848885,-74.15110487497797,2552.689,0.99,223.2421875,4,10,-9999,1561827192.033465,-29.68113708496094,-0.377227783203125,8.82171630859375,78.42855834960938,85.9217529296875,15,157129.378017375,-0.8273162841796875,-0.07476806640625,-0.591827392578125,157129.368892375,1.292171087228627,-2.641925842495273,1.388189762434779,157129.356045375,-108.2494964599609,-27.96247863769531,-553.9697265625,157129.368892375,0.5191178708784399,-0.7709580948038814,0.0665667459107326,1.289754509925842,-2.647998332977295,1.38519024848938,-0.07168829441070557,0.002293363213539124,0.1102776527404785,1,0.126251757144928,-0.3552929162979126,0.2255956530570984,0.8982951045036316,-0.6952794790267944,-0.06651759892702103,-0.7156548500061035,0,0,0,-1,157127.4379427917,4,2,1561827190.137999,1561827055.717469,12,1.562096,0,0,11.78992,0,0,1561827143.457785,157126.61511,0,0.3198242,75.37328,0,182478453,5,1,0.19,-6.673191,-39.32264,0
1561827192.069623,16,0,0,1561827191.99831,4.634652868848885,-74.15110487497797,2552.689,0.99,223.2421875,4,10,-9999,1561827192.063964,-28.78695678710938,1.771650314331055,11.71978759765625,75.61229705810547,83.10549163818359,15,157129.398281375,-0.909698486328125,-0.0491790771484375,-0.53790283203125,157129.389156375,1.567190939311147,-2.987942639762108,1.377503295928618,157129.376156375,-107.6831970214844,-27.02012634277344,-552.1011962890625,157129.389156375,0.5591621901153191,-0.8309825586391385,0.06670636532469509,1.56477427482605,-2.994015216827393,1.3745037317276,-0.137743353843689,-0.002694293856620789,0.1026284098625183,1,0.1406487077474594,-0.3793315589427948,0.2393964976072311,0.8826181292533875,-0.7369514107704163,-0.06665690243244171,-0.6726509928703308,0,0,0,-1,157127.4379427917,4,2,1561827190.137999,1561827055.717469,12,1.562096,0,0,11.78992,0,0,1561827143.457785,157126.61511,0,0.3198242,75.37328,0,182478453,5,1,0.19,-7.23047,-40.12621,0
1561827192.089816,17,0,0,1561827191.99831,4.634652868848885,-74.15110487497797,2552.689,0.99,223.2421875,4,10,-9999,1561827192.08407,-28.07881927490234,2.885158538818359,13.29071044921875,72.31544494628906,79.80863952636719,15,157129.418545375,-0.936279296875,-0.0277252197265625,-0.4760894775390625,157129.409420375,1.983509863033893,-3.357278075533676,1.437295523458642,157129.396267375,-107.0732879638672,-25.97952270507812,-550.5338745117188,157129.409420375,0.6050158434167253,-0.8984957995048486,0.06811105795805997,1.981093287467957,-3.363350629806519,1.434296011924744,-0.1501939296722412,0.03389397263526917,0.1162470579147339,1,0.1585837602615356,-0.4051906168460846,0.2540830373764038,0.8637786507606506,-0.7805768847465515,-0.06805840879678726,-0.6213434934616089,0,0,0,-1,157127.4379427917,4,2,1561827190.137999,1561827055.717469,12,1.562096,0,0,11.78992,0,0,1561827143.457785,157126.61511,0,0.3198242,75.37328,0,182478453,5,1,0.19,-7.23047,-40.12621,0
1561827192.112146,18,0,0,1561827191.99831,4.634652868848885,-74.15110487497797,2552.689,0.99,223.2421875,4,10,-9999,1561827192.108295,-26.91545867919922,4.071220397949219,14.939453125,68.27938842773438,75.7725830078125,15,157129.438808375,-0.978240966796875,-0.00238037109375,-0.38800048828125,157129.429683375,2.566174622132951,-3.83224939383989,1.353625659911077,157129.416408375,-105.9774017333984,-24.64012145996094,-549.2960815429688,157129.429683375,0.6588583196746913,-0.9747062738081886,0.07211325351048616,2.56375789642334,-3.838321924209595,1.350626111030579,-0.1308211088180542,0.0567767322063446,0.1228792667388916,1,0.1815334409475327,-0.4325154423713684,0.2696799635887146,0.8409807682037354,-0.8253862261772156,-0.07205076515674591,-0.5599520206451416,0,0,0,-1,157127.4379427917,4,2,1561827190.137999,1561827055.717469,12,1.562096,0,0,11.78992,0,0,1561827143.457785,157126.61511,0,0.3198242,75.37328,0,182478453,5,1,0.19,-7.787749,-40.94435,0
1561827192.139827,19,0,0,1561827191.99831,4.634652868848885,-74.15110487497797,2552.689,0.99,223.2421875,4,10,-9999,1561827192.134769,-25.40470886230469,5.525724411010742,16.49908447265625,63.34027862548828,70.83347320556641,15,157129.459072375,-0.962371826171875,-0.0342864990234375,-0.301727294921875,157129.449947375,3.280256261015276,-4.387349903024409,1.058010784170647,157129.436519375,-104.8334808349609,-23.26348876953125,-547.5432739257812,157129.449947375,0.7225896056885995,-1.063203299539997,0.08239345476855373,3.277839660644531,-4.393422603607178,1.05501127243042,-0.1031230688095093,0.05982407927513123,0.1416679620742798,1,0.2122444808483124,-0.4612365961074829,0.2849153876304626,0.8130413293838501,-0.8709522485733032,-0.08230026066303253,-0.4844261705875397,0,0,0,-1,157127.4379427917,4,2,1561827190.137999,1561827055.717469,12,1.562096,0,0,11.78992,0,0,1561827143.457785,157126.61511,0,0.3198242,75.37328,0,182478453,5,1,0.19,-8.902307,-42.32476,0
1561827192.150598,20,0,0,1561827191.99831,4.634652868848885,-74.15110487497797,2552.689,0.99,223.2421875,4,10,-9999,1561827192.134769,-25.40470886230469,5.525724411010742,16.49908447265625,63.34027862548828,70.83347320556641,15,157129.479336375,-0.9622955322265625,0.0009613037109375,-0.1601409912109375,157129.470211375,4.039000442958775,-5.145529761132921,0.7134238380930759,157129.456631375,-103.0663146972656,-21.69697570800781,-545.8231201171875,157129.470211375,0.7968437624148669,-1.165820251839191,0.09862405457497443,4.03658390045166,-5.151602268218994,0.7104243040084839,-0.0460936427116394,0.0826103687286377,0.1499099731445312,1,0.2512265145778656,-0.4907587468624115,0.2984959483146667,0.7790643572807312,-0.9146454930305481,-0.0984642505645752,-0.3920821845531464,0,0,0,-1,157127.4379427917,4,2,1561827190.137999,1561827055.717469,12,1.562096,0,0,11.78992,0,0,1561827143.457785,157126.61511,0,0.3198242,75.37328,0,182478453,5,1,0.19,-8.902307,-42.32476,0
1561827192.171345,21,0,0,1561827191.99831,4.634652868848885,-74.15110487497797,2552.689,0.99,223.2421875,4,10,-9999,1561827192.162193,-21.59231567382812,9.234476089477539,19.46527099609375,57.03816223144531,64.53135681152344,15,157129.499569375,-0.928955078125,0.0164642333984375,0.0745391845703125,157129.490475375,5.423969112055103,-6.636572935395433,0.2066929922071208,157129.476742375,-100.6474456787109,-19.98080444335938,-544.283447265625,157129.490475375,0.8901034764680611,-1.294217417901564,0.1212127067628382,5.421549797058105,-6.642648696899414,0.2036939859390259,-0.0007669329643249512,0.1312920749187469,0.2165124416351318,1,0.3026836812496185,-0.5223516821861267,0.3098799288272858,0.7345105409622192,-0.9549368023872375,-0.1209161058068275,-0.2710626125335693,0,0,0,-1,157127.4379427917,4,2,1561827190.137999,1561827055.717469,12,1.562096,0,0,11.78992,0,0,1561827143.457785,157126.61511,0,0.3198242,75.37328,0,182478453,5,1,0.19,-9.459586,-40.66146,0
1561827192.191105,22,0,0,1561827191.99831,4.634652868848885,-74.15110487497797,2552.689,0.99,223.2421875,4,10,-9999,1561827192.185872,-18.58725738525391,11.48441505432129,20.89739990234375,47.80255126953125,55.29574584960938,15,157129.519832375,-0.896209716796875,0.020050048828125,0.3951568603515625,157129.510708375,7.432331860697725,-8.50744839486606,-0.4917114162862351,157129.496883375,-97.98146057128906,-17.92106628417969,-542.6536865234375,157129.510708375,1.017426343814376,-1.465163417732844,0.1483519578031169,7.429912567138672,-8.513524055480957,-0.4947104156017303,0.07411003112792969,0.1661036908626556,0.3305815458297729,1,0.3729605078697205,-0.5556628704071045,0.3178178369998932,0.6716629862785339,-0.9835033416748047,-0.1478083878755569,-0.1042784675955772,0,0,0,-1,157127.4379427917,4,2,1561827190.137999,1561827055.717469,12,1.562096,0,0,11.78992,0,0,1561827143.457785,157126.61511,0,0.3198242,75.37328,0,182478453,5,1,0.19,-10.01686,-41.16046,0
1561827192.219343,23,0,0,1561827191.99831,4.634652868848885,-74.15110487497797,2552.689,0.99,223.2421875,4,10,-9999,1561827192.212766,-14.87142181396484,14.70706748962402,21.3472900390625,34.21500778198242,41.70820236206055,15,157129.540096375,-0.8930206298828125,-0.0265960693359375,0.6736907958984375,157129.530971375,9.719186158219895,-9.916152487177719,-1.324679762023006,157129.516994375,-94.70907592773438,-14.64936828613281,-541.796875,157129.530971375,1.193830480612001,-1.681416729030279,0.1660223334320558,9.716766357421875,-9.92222785949707,-1.327678680419922,0.08895599842071533,0.1728290319442749,0.4353888034820557,1,0.4631194770336151,-0.5830599069595337,0.3224911093711853,0.5844323039054871,-0.9802219271659851,-0.1652606874704361,0.1088770106434822,0,0,0,-1,157127.4379427917,4,2,1561827190.137999,1561827055.717469,12,1.562096,0,0,11.78992,0,0,1561827143.457785,157126.61511,0,0.3198242,75.37328,0,182478453,5,1,0.19,-10.57414,-41.54763,0
1561827192.231736,24,0,0,1561827191.99831,4.634652868848885,-74.15110487497797,2552.689,0.99,223.2421875,4,10,-9999,1561827192.212766,-14.87142181396484,14.70706748962402,21.3472900390625,34.21500778198242,41.70820236206055,15,157129.560360375,-0.884490966796875,-0.0834808349609375,0.8707275390625,157129.551235375,11.18243977913965,-10.20114907333589,-1.983893091914756,157129.537105375,-90.83647155761719,-11.2083740234375,-542.3484497070312,157129.551235375,1.412094185305277,-1.922360082977995,0.1498710879695296,11.18002033233643,-10.20722484588623,-1.986891984939575,0.04110443592071533,0.1019473671913147,0.4580168724060059,1,0.5630796551704407,-0.5943015813827515,0.3237416744232178,0.4742766320705414,-0.9283114075660706,-0.1493106633424759,0.3405061364173889,0,0,0,-1,157127.4379427917,4,2,1561827190.137999,1561827055.717469,12,1.562096,0,0,11.78992,0,0,1561827143.457785,157126.61511,0,0.3198242,75.37328,0,182478453,5,1,0.19,-11.13142,-42.12429,0
1561827192.251882,25,0,0,1561827191.99831,4.634652868848885,-74.15110487497797,2552.689,0.99,223.2421875,4,10,-9999,1561827192.236046,-11.07547760009766,18.52091789245605,20.252685546875,18.04220199584961,25.53539657592773,15,157129.580623375,-0.8605804443359375,-0.080413818359375,0.876007080078125,157129.571499375,10.91597985943286,-8.489423587976185,-2.021364301084389,157129.557216375,-87.73161315917969,-7.133834838867188,-544.9478759765625,157129.571499375,1.635093487765844,-2.142972209445426,0.0853387978709671,10.91355991363525,-8.495499610900879,-2.024363279342651,-0.0476192831993103,-0.02186620235443115,0.341580867767334,1,0.6537991166114807,-0.5850579142570496,0.3233515620231628,0.3545385897159576,-0.8376651406288147,-0.08523525297641754,0.5394920706748962,0,0,0,-1,157127.4379427917,4,2,1561827190.137999,1561827055.717469,12,1.562096,0,0,11.78992,0,0,1561827143.457785,157126.61511,0,0.3198242,75.37328,0,182478453,5,1,0.19,-11.13142,-42.12429,0
1561827192.27222,26,0,0,1561827191.99831,4.634652868848885,-74.15110487497797,2552.689,0.99,223.2421875,4,10,-9999,1561827192.260952,-7.001274108886719,25.15541076660156,13.1968994140625,4.144916534423828,11.63811206817627,15,157129.600887375,-0.703887939453125,-0.021820068359375,0.8680877685546875,157129.591762375,8.71999368356863,-5.021061601265888,-1.396375520677356,157129.577358375,-85.7606201171875,-4.045501708984375,-548.5902709960938,157129.591762375,1.817610880883613,-2.288760730254078,-0.008291488334165972,8.717574119567871,-5.027137279510498,-1.399374485015869,-0.04668426513671875,-0.05328956246376038,0.2183294296264648,1,0.7170786261558533,-0.5609931945800781,0.3285607695579529,0.2512620687484741,-0.7531204223632812,0.008291393518447876,0.6578302383422852,0,0,0,-1,157127.4379427917,4,2,1561827190.137999,1561827055.717469,12,1.562096,0,0,11.78992,0,0,1561827143.457785,157126.61511,0,0.3198242,75.37328,0,182478453,5,1,0.19,-11.6887,-42.60931,0
1561827192.298075,27,0,0,1561827191.99831,4.634652868848885,-74.15110487497797,2552.689,0.99,223.2421875,4,10,-9999,1561827192.286827,-6.430442810058594,26.60308456420898,9.89080810546875,356.4244384765625,3.917634010314941,15,157129.62116525,-0.5012054443359375,0.0550994873046875,0.9514923095703125,157129.61204025,4.439197654706617,-1.299071603929131,-0.07835126453456721,157129.597469375,-85.21234130859375,-1.890182495117188,-552.8512573242188,157129.61204025,1.928123804844722,-2.34772737367292,-0.08947699694073008,4.43677806854248,-1.305147528648376,-0.08135026693344116,0.1133837103843689,-0.0921500027179718,0.1827223300933838,1,0.7470260858535767,-0.5395339727401733,0.340790718793869,0.1863246113061905,-0.7102160453796387,0.0893576517701149,0.6982897520065308,0,0,0,-1,157127.4379427917,4,2,1561827190.137999,1561827055.717469,12,1.562096,0,0,11.78992,0,0,1561827143.457785,157126.61511,0,0.3198242,75.37328,0,182478453,5,1,0.19,-12.24598,-42.97537,0
1561827192.312804,28,0,0,1561827191.99831,4.634652868848885,-74.15110487497797,2552.689,0.99,223.2421875,4,10,-9999,1561827192.286827,-6.430442810058594,26.60308456420898,9.89080810546875,356.4244384765625,3.917634010314941,15,157129.64142825,-0.34228515625,0.12261962890625,1.25244140625,157129.63230425,0.2665310261078932,1.227435500083198,1.297170106910814,157129.61759425,-84.74324035644531,-1.263992309570312,-555.12060546875,157129.63230425,1.950305825809594,-2.342598921485646,-0.1299262101844077,0.2641117870807648,1.221359491348267,1.294171094894409,0.2902804017066956,-0.009474307298660278,0.3893979787826538,1,0.7468301653862,-0.5366746187210083,0.354846328496933,0.1682531535625458,-0.7106142640113831,0.1295609772205353,0.6915498971939087,0,0,0,-1,157127.4379427917,4,2,1561827190.137999,1561827055.717469,12,1.562096,0,0,11.78992,0,0,1561827143.457785,157126.61511,0,0.3198242,75.37328,0,182478453,5,1,0.19,-12.80326,-43.59874,0
1561827192.332926,29,0,0,1561827191.99831,4.634652868848885,-74.15110487497797,2552.689,0.99,223.2421875,4,10,-9999,1561827192.312248,-5.980453491210938,27.21538734436035,8.13543701171875,356.195068359375,3.688279151916504,15,157129.66169225,-0.1768646240234375,0.06927490234375,1.4090576171875,157129.65256725,-1.480976425342012,1.409626611313263,1.608633454298306,157129.63770525,-84.25532531738281,-0.891204833984375,-555.5056762695312,157129.65256725,1.917406868475346,-2.31734446622469,-0.1418433430840614,-1.48339569568634,1.403550624847412,1.605634450912476,0.4987602233886719,-0.04778602719306946,0.6802806854248047,1,0.7317260503768921,-0.5483806729316711,0.3643172681331635,0.1764327734708786,-0.7266654968261719,0.141368180513382,0.6722887754440308,0,0,0,-1,157127.4379427917,4,2,1561827190.137999,1561827055.717469,12,1.562096,0,0,11.78992,0,0,1561827143.457785,157126.61511,0,0.3198242,75.37328,0,182478453,5,1,0.19,-13.36054,-44.30177,0
1561827192.353185,30,0,0,1561827191.99831,4.634652868848885,-74.15110487497797,2552.689,0.99,223.2421875,4,10,-9999,1561827192.337355,-5.384437561035156,27.46889877319336,7.9744873046875,359.3447570800781,6.837942123413086,15,157129.68195625,-0.1935272216796875,0.002105712890625,1.40228271484375,157129.67283125,-2.2776251127645,0.5058099247810056,1.72354486059359,157129.65781625,-83.56231689453125,-0.7562408447265625,-554.9944458007812,157129.67283125,1.866591192657936,-2.305447291773775,-0.1406092119208664,-2.280044317245483,0.4997338950634003,1.720545887947083,0.5665589570999146,-0.1106968820095062,0.751387357711792,1,0.7155864238739014,-0.5655019283294678,0.3636589050292969,0.1894622892141342,-0.7347413301467896,0.1401463449001312,0.663712739944458,0,0,0,-1,157127.4379427917,4,2,1561827190.137999,1561827055.717469,12,1.562096,0,0,11.78992,0,0,1561827143.457785,157126.61511,0,0.3198242,75.37328,0,182478453,5,1,0.19,-13.91782,-44.39944,0
1561827192.380542,31,0,0,1561827191.99831,4.634652868848885,-74.15110487497797,2552.689,0.99,223.2421875,4,10,-9999,1561827192.361782,-3.499443054199219,27.19136810302734,9.982666015625,4.095327377319336,11.58852291107178,15,157129.70221925,-0.3517913818359375,-0.1567535400390625,1.34503173828125,157129.69309525,-3.892148680445735,0.4714242540503385,2.380435115066464,157129.67795825,-82.40367126464844,-1.038589477539062,-553.9075927734375,157129.69309525,1.793941084911105,-2.307660029184688,-0.1305779503003884,-3.894567966461182,0.4653482437133789,2.377435922622681,0.4838172793388367,-0.1863900721073151,0.7098506689071655,1,0.6964783668518066,-0.5899507403373718,0.3530221879482269,0.2055514007806778,-0.7342750430107117,0.1302071958780289,0.6662479639053345,0,0,0,-1,157127.4379427917,4,2,1561827190.137999,1561827055.717469,12,1.562096,0,0,11.78992,0,0,1561827143.457785,157126.61511,0,0.3198242,75.37328,0,182478453,5,1,0.19,-14.4751,-44.88453,0
1561827192.396459,32,0,0,1561827191.99831,4.634652868848885,-74.15110487497797,2552.689,0.99,223.2421875,4,10,-9999,1561827192.388487,-2.145599365234375,26.27964210510254,12.45904541015625,12.84025096893311,20.33344650268555,15,157129.72248325,-0.695281982421875,-0.3836822509765625,1.26324462890625,157129.71335825,-7.279711424947465,1.704610584191454,3.086983736489391,157129.69806925,-81.40249633789062,-1.750411987304688,-551.830322265625,157129.71335825,1.673953557438461,-2.301626280576759,-0.09793155697823921,-7.282130718231201,1.698534607887268,3.083984613418579,0.2284946441650391,-0.3631101846694946,0.6447315216064453,1,0.6639063358306885,-0.6255981922149658,0.3323685526847839,0.239554300904274,-0.7410526275634766,0.09777509421110153,0.6642894148826599,0,0,0,-1,157127.4379427917,4,2,1561827190.137999,1561827055.717469,12,1.562096,0,0,11.78992,0,0,1561827143.457785,157126.61511,0,0.3198242,75.37328,0,182478453,5,1,0.19,-15.03238,-45.54541,0
1561827192.413948,33,0,0,1561827191.99831,4.634652868848885,-74.15110487497797,2552.689,0.99,223.2421875,4,10,-9999,1561827192.412725,-0.89984130859375,23.92855262756348,16.6358642578125,28.0734977722168,35.56669235229492,15,157129.74271625,-1.125640869140625,-0.51898193359375,1.133865356445312,157129.73359225,-12.07076911866866,3.653063926216089,3.251575347655668,157129.71818025,-80.05694580078125,-3.181655883789062,-548.271240234375,157129.73359225,1.483308237724498,-2.259313552022905,-0.02022953876975213,-12.07318878173828,3.646987915039062,3.248576164245605,-0.1358975172042847,-0.4858043193817139,0.5668857097625732,1,0.6076235771179199,-0.6696454286575317,0.2951512634754181,0.308632880449295,-0.7720309495925903,0.02022815868258476,0.6352628469467163,0,0,0,-1,157127.4379427917,4,2,1561827190.137999,1561827055.717469,12,1.562096,0,0,11.78992,0,0,1561827143.457785,157126.61511,0,0.3198242,75.37328,0,182478453,5,1,0.19,-15.03238,-45.54541,0
1561827192.434129,34,0,0,1561827191.99831,4.634652868848885,-74.15110487497797,2552.689,0.99,223.2421875,4,10,-9999,1561827192.412725,-0.89984130859375,23.92855262756348,16.6358642578125,28.0734977722168,35.56669235229492,15,157129.76298025,-1.441650390625,-0.475860595703125,1.031112670898438,157129.75385525,-16.35147246952474,5.735366146731453,2.301786375438135,157129.73829125,-79.56919860839844,-7.400146484375,-542.8690795898438,157129.75385525,1.215340243934543,-2.153277442795928,0.1068070323346814,-16.35389137268066,5.729290008544922,2.298787355422974,-0.4730947017669678,-0.4132170975208282,0.5342442989349365,1,0.5227198600769043,-0.7072802782058716,0.2318330109119415,0.4156585037708282,-0.8303415775299072,-0.1066040769219398,0.5469629168510437,0,0,0,-1,157127.4379427917,4,2,1561827190.137999,1561827055.717469,12,1.562096,0,0,11.78992,0,0,1561827143.457785,157126.61511,0,0.3198242,75.37328,0,182478453,5,1,0.19,-15.58965,-46.17478,0
1561827192.457483,35,0,0,1561827191.99831,4.634652868848885,-74.15110487497797,2552.689,0.99,223.2421875,4,10,-9999,1561827192.438777,-1.193275451660156,18.86630058288574,22.009033203125,50.038330078125,57.53152465820312,15,157129.78324425,-1.678176879882812,-0.28631591796875,0.8786163330078125,157129.77411925,-19.31787812555137,7.919500723112613,0.9714031876246156,157129.75840225,-81.12095642089844,-14.5330810546875,-537.5390014648438,157129.77411925,0.8734935459144344,-1.953482861029429,0.2477136358151179,-19.32029724121094,7.913424968719482,0.9684041738510132,-0.6652575135231018,-0.1642052829265594,0.5901327133178711,1,0.4104984104633331,-0.7158902883529663,0.1421813815832138,0.5466045141220093,-0.8993481993675232,-0.2451880276203156,0.3620156943798065,0,0,0,-1,157127.4379427917,4,2,1561827190.137999,1561827055.717469,12,1.562096,0,0,11.78992,0,0,1561827143.457785,157126.61511,0,0.3198242,75.37328,0,182478453,5,1,0.19,-16.14693,-46.75249,0
1561827192.474779,36,0,0,1561827191.99831,4.634652868848885,-74.15110487497797,2552.689,0.99,223.2421875,4,10,-9999,1561827192.462942,-7.937034606933594,-0.03649520874023438,28.06597900390625,78.88899993896484,86.38219451904297,15,157129.80350725,-1.862457275390625,0.0558013916015625,0.7586822509765625,157129.79438325,-20.99646003851283,10.2424568323719,-0.6216401216523669,157129.77854425,-84.93637084960938,-24.92451477050781,-535.0050048828125,157129.79438325,0.4544731608038179,-1.645465350380221,0.3395029496238873,-20.99887847900391,10.2363805770874,-0.6246391534805298,-0.83894282579422,0.1954757273197174,0.7460494041442871,1,0.2747233211994171,-0.6780102252960205,0.03039263375103474,0.6811061501502991,-0.94029301404953,-0.3330184519290924,0.07034153491258621,0,0,0,-1,157127.4379427917,4,2,1561827190.137999,1561827055.717469,12,1.562096,0,0,11.78992,0,0,1561827143.457785,157126.61511,0,0.3198242,75.37328,0,182478453,5,1,0.19,-16.70421,-41.40364,0
1561827192.495811,37,0,0,1561827191.99831,4.634652868848885,-74.15110487497797,2552.689,0.99,223.2421875,4,10,-9999,1561827192.489327,-13.46889495849609,-11.63689804077148,23.46502685546875,110.8519134521484,118.3451080322266,15,157129.82377125,-1.888702392578125,0.498016357421875,0.626556396484375,157129.81464625,-20.56867327682009,12.72729585165274,-2.05271822923011,157129.79865525,-90.6043701171875,-36.90110778808594,-537.3431396484375,157129.81464625,0.004904266979014385,-1.261956383842212,0.3192745654740422,-20.57109069824219,12.72122001647949,-2.05571722984314,-0.9926145076751709,0.5824936032295227,0.9984622597694397,1,0.1297802925109863,-0.5821173787117004,-0.09182103723287582,0.7974116206169128,-0.9045411944389343,-0.3138778805732727,-0.2885928750038147,0,0,0,-1,157127.4379427917,4,2,1561827190.137999,1561827055.717469,12,1.562096,0,0,11.78992,0,0,1561827143.457785,157126.61511,0,0.3198242,75.37328,0,182478453,5,1,0.19,-17.26149,-37.30583,0
1561827192.515295,38,0,0,1561827191.99831,4.634652868848885,-74.15110487497797,2552.689,0.99,223.2421875,4,10,-9999,1561827192.514214,-17.59188079833984,-20.22332763671875,13.198486328125,135.7309112548828,143.2241058349609,15,157129.84403525,-1.787399291992188,0.79302978515625,0.3690185546875,157129.83491025,-18.0102255502739,13.95062209417394,-2.522207963064614,157129.81876625,-95.65190124511719,-46.71281433105469,-546.4844970703125,157129.83491025,-0.3757825967053425,-0.8916456460500807,0.1751271606782297,-18.01264381408691,13.94454574584961,-2.525207042694092,-1.10009765625,0.8373802900314331,1.106638193130493,1,-0.002719178795814514,-0.4367267191410065,-0.2049302309751511,0.875937283039093,-0.7662048935890198,-0.1742333620786667,-0.6185247302055359,0,0,0,-1,157127.4379427917,4,2,1561827190.137999,1561827055.717469,12,1.562096,0,0,11.78992,0,0,1561827143.457785,157126.61511,0,0.3198242,75.37328,0,182478453,5,1,0.19,-17.81877,-22.56931,0
1561827192.537627,39,0,0,1561827191.99831,4.634652868848885,-74.15110487497797,2552.689,0.99,223.2421875,4,10,-9999,1561827192.514214,-17.59188079833984,-20.22332763671875,13.198486328125,135.7309112548828,143.2241058349609,15,157129.86429825,-1.546844482421875,1.116134643554688,0.1415252685546875,157129.85517425,-14.01842084920518,13.96489557235233,-2.450644030884223,157129.83887725,-97.78536987304688,-51.82752990722656,-558.662841796875,157129.85517425,-0.6336757635201213,-0.5865811555539167,-0.0311757631079404,-14.02084064483643,13.95881938934326,-2.453643083572388,-1.12128210067749,0.9316741228103638,1.081090450286865,1,-0.1042421460151672,-0.2700313925743103,-0.2939406633377075,0.9109421372413635,-0.5532479882240295,0.03117071278393269,-0.8324332237243652,0,0,0,-1,157127.4379427917,4,2,1561827190.137999,1561827055.717469,12,1.562096,0,0,11.78992,0,0,1561827143.457785,157126.61511,0,0.3198242,75.37328,0,182478453,5,1,0.19,-18.37605,-23.48618,0
1561827192.555768,40,0,0,1561827191.99831,4.634652868848885,-74.15110487497797,2552.689,0.99,223.2421875,4,10,-9999,1561827192.539822,-15.79575347900391,-23.32102966308594,-9.128173828125,149.9082336425781,157.4014282226562,15,157129.88456225,-1.07086181640625,1.346099853515625,0.0496368408203125,157129.87543725,-8.951977385067687,13.54236482538698,-2.664369898898025,157129.85901925,-95.65843200683594,-52.2183837890625,-569.8408813476562,157129.87543725,-0.7847468145005362,-0.3256057126511913,-0.2178919265772157,-8.954397201538086,13.53628921508789,-2.66736888885498,-1.234525203704834,0.8999627828598022,1.066580057144165,1,-0.1607498675584793,-0.107852041721344,-0.3588049113750458,0.9131191372871399,-0.3123192191123962,0.2161718755960464,-0.9250548481941223,0,0,0,-1,157127.4379427917,4,2,1561827190.137999,1561827055.717469,12,1.562096,0,0,11.78992,0,0,1561827143.457785,157126.61511,0,0.3198242,75.37328,0,182478453,5,1,0.19,-12.18419,-12.18419,0
1561827192.578662,41,0,0,1561827191.99831,4.634652868848885,-74.15110487497797,2552.689,0.99,223.2421875,4,10,-9999,1561827192.56422,-10.80490112304688,-21.86626434326172,-15.7757568359375,157.2687835693359,164.7619781494141,15,157129.90482625,-0.4309844970703125,1.587844848632812,0.041412353515625,157129.89570125,-4.297051165207529,12.70634636125374,-3.650066538409205,157129.87913025,-91.38919067382812,-50.85763549804688,-577.75634765625,157129.89570125,-0.8787866273788244,-0.0843863404845162,-0.3343655218255828,-4.2994704246521,12.700270652771,-3.65306568145752,-0.6929646730422974,1.135987281799316,0.9823035001754761,1,-0.1681572645902634,0.03308245912194252,-0.4127338230609894,0.8945834040641785,-0.07961834222078323,0.3281698822975159,-0.9412573575973511,0,0,0,-1,157127.4379427917,4,2,1561827190.137999,1561827055.717469,12,1.562096,0,0,11.78992,0,0,1561827143.457785,157126.61511,0,0.3198242,75.37328,0,182478453,5,1,0.19,-12.18419,-12.85602,0
1561827192.596341,42,0,0,1561827191.99831,4.634652868848885,-74.15110487497797,2552.689,0.99,223.2421875,4,10,-9999,1561827192.590633,-4.115257263183594,-20.69362640380859,-18.95269775390625,163.7190093994141,171.2122039794922,15,157129.92508925,0.8136138916015625,1.570236206054688,0.02386474609375,157129.91596525,-1.243213930593591,11.04849129842415,-4.53720571124706,157129.89924125,-84.7991943359375,-49.49366760253906,-582.09423828125,157129.91596525,-0.9682796254547964,0.1256252565292769,-0.3896376041637289,-1.245633125305176,11.04241561889648,-4.540204524993896,-0.0153636634349823,1.243742942810059,0.970521867275238,1,-0.1423387676477432,0.1444340348243713,-0.4664969742298126,0.8609640598297119,0.1159038171172142,0.379853218793869,-0.917756974697113,0,0,0,-1,157127.4379427917,4,2,1561827190.137999,1561827055.717469,12,1.562096,0,0,11.78992,0,0,1561827143.457785,157126.61511,0,0.3198242,75.37328,0,182478453,5,1,0.19,-12.18419,-12.85602,0
1561827192.61976,43,0,0,1561827191.99831,4.634652868848885,-74.15110487497797,2552.689,0.99,223.2421875,4,10,-9999,1561827192.614886,2.275901794433594,-20.4141731262207,-19.427978515625,169.9452819824219,177.4384765625,15,157129.94535325,2.237335205078125,1.695602416992188,-0.0473175048828125,157129.93622825,-0.7078005734513735,7.996006949643973,-4.188757714221092,157129.91935225,-78.52030944824219,-49.12101745605469,-583.1983642578125,157129.93622825,-1.063438604752379,0.2841738083479211,-0.4242048978509924,-0.7102198004722595,7.989931106567383,-4.191756725311279,1.373650908470154,1.180963516235352,0.8383614420890808,1,-0.1094334200024605,0.2249822020530701,-0.5163543224334717,0.8190149664878845,0.2555147409439087,0.411596268415451,-0.8748146891593933,0,0,0,-1,157127.4379427917,4,2,1561827190.137999,1561827055.717469,12,1.562096,0,0,11.78992,0,0,1561827143.457785,157126.61511,0,0.3198242,75.37328,0,182478453,5,1,0.19,-12.18419,-13.64831,0
1561827192.63707,44,0,0,1561827191.99831,4.634652868848885,-74.15110487497797,2552.689,0.99,223.2421875,4,10,-9999,1561827192.614886,2.275901794433594,-20.4141731262207,-19.427978515625,169.9452819824219,177.4384765625,15,157129.96558625,2.757080078125,1.665618896484375,-0.126739501953125,157129.95649225,-2.269931773007479,2.583620990434059,0.6830411647969068,157129.93946325,-72.73089599609375,-48.52098083496094,-582.6181640625,157129.95649225,-1.097761050587368,0.3810317292481044,-0.4641126638892359,-2.272351026535034,2.577544927597046,0.6800421476364136,2.217553853988647,1.312426090240479,0.7762235403060913,1,-0.09649763256311417,0.2750357985496521,-0.5357139110565186,0.7924987077713013,0.3325407803058624,0.4476295113563538,-0.8300870060920715,0,0,0,-1,157127.4379427917,4,2,1561827190.137999,1561827055.717469,12,1.562096,0,0,11.78992,0,0,1561827143.457785,157126.61511,0,0.3198242,75.37328,0,182478453,5,1,0.19,-12.18419,-14.66727,0
1561827192.657075,45,0,0,1561827191.99831,4.634652868848885,-74.15110487497797,2552.689,0.99,223.2421875,4,10,-9999,1561827192.641291,6.927589416503906,-18.90916442871094,-19.79815673828125,167.1503295898438,174.6435241699219,15,157129.98585025,1.895706176757812,1.338714599609375,-0.583892822265625,157129.97672525,-2.553371741508504,-3.927518389199186,7.006689476314721,157129.95960525,-70.83842468261719,-47.37394714355469,-582.5601196289062,157129.97672525,-0.9891046317371411,0.4151996277568501,-0.4812484065009427,-2.555790901184082,-3.933594465255737,7.003690719604492,2.242403745651245,0.9243666529655457,0.4989091157913208,1,-0.1102413013577461,0.2868708372116089,-0.4942984879016876,0.8131548762321472,0.3575566112995148,0.4628861546516418,-0.8111039400100708,0,0,0,-1,157127.4379427917,4,2,1561827190.137999,1561827055.717469,12,1.562096,0,0,11.78992,0,0,1561827143.457785,157126.61511,0,0.3198242,75.37328,0,182478453,5,1,0.19,-12.18419,-15.73772,0
1561827192.678725,46,0,0,1561827191.99831,4.634652868848885,-74.15110487497797,2552.689,0.99,223.2421875,4,10,-9999,1561827192.665509,2.335990905761719,-18.53934860229492,-20.95965576171875,154.8056640625,162.2988586425781,15,157130.00611425,0.362762451171875,1.524078369140625,-0.80126953125,157129.99698925,0.3494663898268138,-6.191051651371641,7.940915734070158,157129.97971625,-74.38189697265625,-46.93637084960938,-584.0302124023438,157129.99698925,-0.8109777452669986,0.3844303797319061,-0.4423997724026485,0.3470471501350403,-6.197127342224121,7.93791675567627,0.7021356821060181,1.004629850387573,0.1115390658378601,1,-0.1243755966424942,0.2562182247638702,-0.4162832200527191,0.8634762167930603,0.3389257490634918,0.4281094372272491,-0.8377658724784851,0,0,0,-1,157127.4379427917,4,2,1561827190.137999,1561827055.717469,12,1.562096,0,0,11.78992,0,0,1561827143.457785,157127.561719,0,0.3198242,75.37328,0,182478453,5,1,0.19,-12.18419,-16.82749,0
1561827192.701666,47,0,0,1561827191.99831,4.634652868848885,-74.15110487497797,2552.689,0.99,223.2421875,4,10,-9999,1561827192.694271,-2.884735107421875,-19.01327514648438,-20.50152587890625,146.6473846435547,154.1405792236328,15,157130.02637725,-0.1767120361328125,1.40521240234375,-0.868438720703125,157130.01725225,4.601010789907614,-4.199439919669508,5.00480406807539,157129.99982725,-80.28857421875,-47.21553039550781,-584.4249267578125,157130.01725225,-0.6951705013008265,0.3202076633977615,-0.3490318242955603,4.598591327667236,-4.20551586151123,5.001805305480957,-0.4041069149971008,1.166159987449646,0.05255317687988281,1,-0.1076816916465759,0.2059977352619171,-0.357189416885376,0.9046465754508972,0.2957847714424133,0.3419881761074066,-0.8919391632080078,0,0,0,-1,157127.4379427917,4,2,1561827190.137999,1561827055.717469,12,1.562096,0,0,11.78992,0,0,1561827143.457785,157127.561719,0,0.3198242,75.37328,0,182478453,5,1,0.19,-12.18419,-17.91599,0
1561827192.717884,48,0,0,1561827191.99831,4.634652868848885,-74.15110487497797,2552.689,0.99,223.2421875,4,10,-9999,1561827192.716168,-6.764778137207031,-20.64947128295898,-18.50616455078125,142.3043975830078,149.7975921630859,15,157130.04664125,0.0690460205078125,1.384414672851562,-0.9476318359375,157130.03751625,7.028160946287376,-2.975115524371741,5.012689688063115,157130.01993825,-84.4998779296875,-48.18974304199219,-582.749755859375,157130.03751625,-0.6384433456886039,0.2678016269750711,-0.2058773235542258,7.025741577148438,-2.981191635131836,5.009690761566162,-0.2569793164730072,1.187114477157593,-0.0001783967018127441,1,-0.05501779168844223,0.1580449044704437,-0.3223972320556641,0.9316945672035217,0.2590239942073822,0.204426035284996,-0.9439896941184998,0,0,0,-1,157130.03235925,1,2,1561827192.732415,1561827055.717469,12,1.562096,0,0,11.78992,0,0,1561827143.457785,157127.561719,0,0.3198242,75.37328,0,182478453,5,1,0.19,-12.18419,-18.99968,0
1561827192.738124,49,0,0,1561827191.99831,4.634652868848885,-74.15110487497797,2552.689,0.99,223.2421875,4,10,-9999,1561827192.716168,-6.764778137207031,-20.64947128295898,-18.50616455078125,142.3043975830078,149.7975921630859,15,157130.06690525,-0.083404541015625,1.23516845703125,-0.773834228515625,157130.05778025,7.487039581074569,-3.51980573685514,8.069252401736639,157130.04004925,-87.55317687988281,-50.12007141113281,-579.85107421875,157130.05778025,-0.5451739453554775,0.214289025064272,-0.02925712883882892,7.484620094299316,-3.525881767272949,8.066252708435059,-0.1463080942630768,1.294340133666992,0.1084387898445129,1,0.01478045992553234,0.1068957820534706,-0.2691578567028046,0.95703125,0.2125617563724518,0.02925295569002628,-0.9767096638679504,0,0,0,-1,157130.03235925,1,2,1561827192.732415,1561827055.717469,12,1.562096,0,0,11.78992,0,0,1561827143.457785,157127.561719,0,0.3198242,75.37328,0,182478453,5,1,0.19,-12.18419,-18.99968,0
1561827192.758375,50,0,0,1561827191.99831,4.634652868848885,-74.15110487497797,2552.689,0.99,223.2421875,4,10,-9999,1561827192.744321,-15.04769897460938,-22.43517684936523,-11.494873046875,133.2730865478516,140.7662811279297,15,157130.08716825,-0.713714599609375,1.071929931640625,-0.4385528564453125,157130.07804325,7.62620040067557,-4.570039824326646,8.99061133036925,157130.06019125,-92.03498840332031,-50.91714477539062,-575.7652587890625,157130.07804325,-0.394909601186501,0.1219497055567181,0.1508874253352052,7.623780727386475,-4.576115608215332,8.987611770629883,-0.5169939994812012,1.294678926467896,0.3653748035430908,1,0.08569053560495377,0.04482444375753403,-0.1907489448785782,0.9768638014793396,0.1202655136585236,-0.1503155380487442,-0.9812958240509033,0,0,0,-1,157130.03235925,1,2,1561827192.732415,1561827055.717469,12,1.562096,0,0,11.78992,0,0,1561827143.457785,157127.561719,0,0.3198242,75.37328,0,182478453,5,1,0.19,-12.18419,-20.10327,0
1561827192.783324,51,0,0,1561827191.99831,4.634652868848885,-74.15110487497797,2552.689,0.99,223.2421875,4,10,-9999,1561827192.76686,-19.94686126708984,-21.19595336914062,-6.7406005859375,121.6829833984375,129.1761779785156,15,157130.10743225,-1.098876953125,0.82855224609375,-0.08209228515625,157130.09830725,9.608302783073356,-5.456574193280944,7.419763338249205,157130.08030225,-97.17726135253906,-50.05488586425781,-571.7258911132812,157130.09830725,-0.2320475291604199,-0.01886827516451585,0.3307581347383301,9.605883598327637,-5.462649822235107,7.416764259338379,-0.9327628016471863,1.30132269859314,0.6957043409347534,1,0.1624349355697632,-0.02829960361123085,-0.1157217174768448,0.9795011281967163,-0.01784448698163033,-0.3247601687908173,-0.9456280469894409,0,0,0,-1,157130.03235925,1,2,1561827192.732415,1561827055.717469,12,1.562096,0,0,11.78992,0,0,1561827143.457785,157127.561719,0,0.3198242,75.37328,0,182478453,5,1,0.19,-12.18419,-21.13277,0
1561827192.798992,52,0,0,1561827191.99831,4.634652868848885,-74.15110487497797,2552.689,0.99,223.2421875,4,10,-9999,1561827192.794387,-23.32558441162109,-19.17880630493164,-1.0191650390625,108.3711700439453,115.8643646240234,15,157130.12769625,-1.325057983398438,0.626983642578125,0.112060546875,157130.11857125,12.83067017778969,-6.146775532984638,6.680737733648871,157130.10041325,-101.3753356933594,-48.17095947265625,-566.62158203125,157130.11857125,-0.04942870927883294,-0.2144242883310615,0.5403162785621559,12.82825088500977,-6.152851581573486,6.677738666534424,-1.039283037185669,1.238543629646301,0.8488632440567017,1,0.2627220153808594,-0.1096514239907265,-0.05222845077514648,0.9571968913078308,-0.1824728697538376,-0.514407217502594,-0.8379074335098267,0,0,0,-1,157130.03235925,1,2,1561827192.732415,1561827055.717469,12,1.562096,0,0,11.78992,0,0,1561827143.457785,157127.561719,0,0.3198242,75.37328,0,182478453,5,1,0.19,-12.18419,-22.19322,0
1561827192.819242,53,0,0,1561827191.99831,4.634652868848885,-74.15110487497797,2552.689,0.99,223.2421875,4,10,-9999,1561827192.81796,-25.46695709228516,-15.49978637695312,5.78594970703125,131.129638671875,138.6228332519531,15,157130.14795925,-1.35760498046875,0.441131591796875,0.442413330078125,157130.13883425,16.30836654412071,-5.911817080547961,6.758145173893114,157130.12052425,-103.7888793945312,-45.53495788574219,-559.841064453125,157130.13883425,0.2461690144043209,-0.5199425195662246,0.7685012724482951,16.30594825744629,-5.917892932891846,6.755146503448486,-1.034205555915833,1.202596426010132,0.8985695838928223,1,0.3887854814529419,-0.1920284181833267,0.01436556316912174,0.90097975730896,-0.3571976721286774,-0.6950585246086121,-0.6239418983459473,0,0,0,-1,157130.03235925,1,2,1561827192.732415,1561827055.717469,12,1.562096,0,0,11.78992,0,0,1561827143.457785,157127.561719,0,0.3198242,75.37328,0,182478453,5,1,0.19,-12.18419,-23.15318,0
1561827192.840164,54,0,0,1561827191.99831,4.634652868848885,-74.15110487497797,2552.689,0.99,223.2421875,4,10,-9999,1561827192.81796,-25.46695709228516,-15.49978637695312,5.78594970703125,131.129638671875,138.6228332519531,15,157130.16822325,-1.3548583984375,0.375457763671875,1.031387329101562,157130.15909825,19.73189101808622,-5.96582279166146,5.479561001913853,157130.14063525,-105.1961975097656,-40.12730407714844,-552.8828735351562,157130.15909825,0.7779192807830677,-1.047155513545279,0.9428459932928872,19.72947311401367,-5.971898555755615,5.476562023162842,-0.8462748527526855,1.217253446578979,0.9891538619995117,1,0.5328595638275146,-0.2630173861980438,0.08249200135469437,0.8000485301017761,-0.5087666511535645,-0.8092333674430847,-0.2937650680541992,0,0,0,-1,157130.03235925,1,2,1561827192.732415,1561827055.717469,12,1.562096,0,0,11.78992,0,0,1561827143.457785,157127.561719,0,0.3198242,75.37328,0,182478453,5,1,0.19,-12.18419,-24.14185,0
1561827192.86293,55,0,0,1561827191.99831,4.634652868848885,-74.15110487497797,2552.689,0.99,223.2421875,4,10,-9999,1561827192.844145,-25.09664154052734,-1.080783843994141,16.48291015625,122.8638153076172,130.3570098876953,15,157130.18845625,-0.9840850830078125,0.3010406494140625,1.712478637695312,157130.17936225,23.21167317218299,-6.798484607556762,3.677084307668059,157130.16074625,-104.2073974609375,-32.30545043945312,-547.7753295898438,157130.17936225,1.534084652725116,-1.792052030966646,0.9155587369352112,23.20925521850586,-6.80456018447876,3.674085140228271,-0.6269574761390686,1.132182359695435,1.227298617362976,1,0.6849009990692139,-0.3126863837242126,0.1404565721750259,0.6429694890975952,-0.5944933295249939,-0.7929031848907471,0.1337243020534515,0,0,0,-1,157130.03235925,1,2,1561827192.732415,1561827055.717469,12,1.562096,0,0,11.78992,0,0,1561827143.457785,157127.561719,0,0.3198242,75.37328,0,182478453,5,1,0.19,-12.18419,-25.19898,0
1561827192.88077,56,0,0,1561827191.99831,4.634652868848885,-74.15110487497797,2552.689,0.99,223.2421875,4,10,-9999,1561827192.868175,-22.48782348632812,8.662431716918945,17.40484619140625,108.8203353881836,116.3135299682617,15,157130.20872025,-0.42047119140625,0.2614898681640625,2.104324340820312,157130.19959525,23.98586901477113,-8.116570382720733,2.678378392547951,157130.18085725,-102.2028198242188,-22.84121704101562,-545.5289306640625,157130.19959525,2.086905517429072,-2.339171825267005,0.6213608079372855,23.98344993591309,-8.122646331787109,2.675379276275635,-0.1260051727294922,0.8612253665924072,1.417047262191772,1,0.8175200223922729,-0.3379285335540771,0.1796945482492447,0.4303197264671326,-0.5846424102783203,-0.582142174243927,0.5650693774223328,0,0,0,-1,157130.03235925,1,2,1561827192.732415,1561827055.717469,12,1.562096,0,0,11.78992,0,0,1561827143.457785,157127.561719,0,0.3198242,75.37328,0,182478453,5,1,0.19,-12.18419,-26.11327,0
1561827192.900254,57,0,0,1561827191.99831,4.634652868848885,-74.15110487497797,2552.689,0.99,223.2421875,4,10,-9999,1561827192.89498,-19.01631164550781,17.54617118835449,13.99517822265625,13.89550304412842,21.38869857788086,15,157130.22898325,-0.2178802490234375,0.0969390869140625,1.762969970703125,157130.21985925,19.56086281288133,-7.505925654260975,1.49028923335791,157130.20099925,-98.79209899902344,-13.05227661132812,-547.5996704101562,157130.21985925,2.353318933216892,-2.619210526457187,0.2375142654671734,19.55844497680664,-7.512001514434814,1.487290263175964,0.247008204460144,0.4310881793498993,1.176007390022278,1,0.897477924823761,-0.3401248753070831,0.1927991658449173,0.2041493058204651,-0.4849385023117065,-0.2352874130010605,0.8423030972480774,0,0,0,-1,157130.03235925,1,2,1561827192.732415,1561827055.717469,12,1.562096,0,0,11.78992,0,0,1561827143.457785,157127.561719,0,0.3198242,75.37328,0,182478453,5,1,0.19,-12.18419,-26.11327,0
1561827192.920461,58,0,0,1561827191.99831,4.634652868848885,-74.15110487497797,2552.689,0.99,223.2421875,4,10,-9999,1561827192.918775,-16.69646453857422,22.79535484313965,8.55462646484375,21.02655029296875,28.51974487304688,15,157130.24924725,-0.414337158203125,-0.14959716796875,1.074615478515625,157130.24012225,8.58514665230134,-1.307017411357491,-0.5565910804466365,157130.22111025,-95.750244140625,-6.338592529296875,-553.1300048828125,157130.24012225,2.476946249717775,-2.730458633667549,-0.0307478748696188,8.582727432250977,-1.313093423843384,-0.5595901012420654,0.1357119679450989,-0.07774009555578232,0.5044347047805786,1,0.9242511987686157,-0.3222997188568115,0.1978410929441452,0.0523587241768837,-0.3994601368904114,0.03074303083121777,0.9162347912788391,0,0,0,-1,157130.03235925,1,2,1561827192.732415,1561827055.717469,12,1.562096,0,0,11.78992,0,0,1561827143.457785,157127.561719,0,0.3198242,75.37328,0,182478453,5,1,0.19,-12.18419,-27.15032,0
1561827192.940756,59,0,0,1561827191.99831,4.634652868848885,-74.15110487497797,2552.689,0.99,223.2421875,4,10,-9999,1561827192.918775,-16.69646453857422,22.79535484313965,8.55462646484375,21.02655029296875,28.51974487304688,15,157130.26951125,-0.250946044921875,0.4132843017578125,1.316238403320312,157130.26038625,-2.163866588905111,5.533373367532213,-1.978366500020623,157130.24122125,-95.14218139648438,-3.732742309570312,-557.773193359375,157130.26038625,2.522933408258724,-2.677264116517432,-0.0669380426532821,-2.166285753250122,5.527297496795654,-1.981365442276001,0.00344499945640564,-0.06920740008354187,0.0906984806060791,1,0.9241189956665039,-0.3034206926822662,0.2289546728134155,0.03898367285728455,-0.4468196332454681,0.06688806414604187,0.8921200633049011,0,0,0,-1,157130.03235925,1,2,1561827192.732415,1561827055.717469,12,1.562096,0,0,11.78992,0,0,1561827143.457785,157127.561719,0,0.3198242,75.37328,0,182478453,5,1,0.19,-12.18419,-26.29714,0
1561827192.962046,60,0,0,1561827191.99831,4.634652868848885,-74.15110487497797,2552.689,0.99,223.2421875,4,10,-9999,1561827192.945348,-18.07855224609375,23.72903823852539,3.92828369140625,22.2979621887207,29.79115867614746,15,157130.28977425,0.5216217041015625,1.147201538085938,1.854843139648438,157130.28065025,-2.245117503234557,3.707413185110208,-1.0062594389199,157130.26133225,-96.17732238769531,-4.24755859375,-559.5533447265625,157130.28065025,2.522543823060917,-2.56824793311842,0.003838021405390225,-2.247536659240723,3.701337099075317,-1.009258389472961,0.6758486032485962,0.8435444235801697,0.7782161235809326,1,0.9137716293334961,-0.291657418012619,0.268763542175293,0.08788397908210754,-0.5424410104751587,-0.003838011994957924,0.8400852680206299,0,0,0,-1,157130.03235925,1,2,1561827192.732415,1561827055.717469,12,1.562096,0,0,11.78992,0,0,1561827143.457785,157127.561719,0,0.3198242,75.37328,0,182478453,5,1,0.19,-12.18419,-26.86921,0
1561827192.981325,61,0,0,1561827191.99831,4.634652868848885,-74.15110487497797,2552.689,0.99,223.2421875,4,10,-9999,1561827192.969937,-18.67230224609375,23.09821701049805,3.50347900390625,22.47967147827148,29.97286796569824,15,157130.31003825,0.4029388427734375,1.1905517578125,1.761032104492188,157130.30091325,4.386073716230044,-2.882447372133017,1.035221848406729,157130.28144325,-97.73289489746094,-5.00665283203125,-559.7315673828125,157130.30091325,2.531185638270535,-2.563714595661554,-0.01248515425835584,4.383654117584229,-2.88852334022522,1.032222867012024,1.179551839828491,1.260281324386597,1.024090170860291,1,0.9136959910392761,-0.2897220253944397,0.273560106754303,0.07991057634353638,-0.5462052822113037,0.0124848298728466,0.8375584483146667,0,0,0,-1,157130.03235925,1,2,1561827192.732415,1561827055.717469,12,1.562096,0,0,11.78992,0,0,1561827143.457785,157127.561719,0,0.3198242,75.37328,0,182478453,5,1,0.19,-12.18419,-17.93145,0
1561827193.018582,62,0,0,1561827191.99831,4.634652868848885,-74.15110487497797,2552.689,0.99,223.2421875,4,10,-9999,1561827192.995883,-18.10718536376953,23.83185577392578,2.22479248046875,25.81586074829102,33.30905532836914,15,157130.33030225,-0.0605926513671875,0.7581329345703125,1.563308715820312,157130.32117725,7.811789172824358,-3.163308335434408,1.291368144159968,157130.30158525,-97.32392883300781,-4.820358276367188,-560.458251953125,157130.32117725,2.578716100608446,-2.631117766674069,-0.142020037911725,7.809369564056396,-3.169384479522705,1.288369178771973,0.582946240901947,0.8532231450080872,0.7769272327423096,1,0.9222171902656555,-0.2852710485458374,0.2609979808330536,0.003994304686784744,-0.483672559261322,0.1415431052446365,0.8637282252311707,0,0,0,-1,157130.03235925,1,2,1561827192.732415,1561827055.717469,12,1.562096,0,0,11.78992,0,0,1561827143.457785,157127.561719,0,0.3198242,75.37328,0,182478453,5,1,0.19,-12.18419,-17.77966,0
1561827193.021844,63,0,0,1561827191.99831,4.634652868848885,-74.15110487497797,2552.689,0.99,223.2421875,4,10,-9999,1561827193.020289,-17.34227752685547,24.29657936096191,-0.5369873046875,27.45437622070312,34.94757080078125,15,157130.35056525,0.062774658203125,0.3738555908203125,1.476974487304688,157130.34144125,3.587674000390829,-1.454028430903718,1.239837574963588,157130.32169625,-96.23733520507812,-4.059707641601562,-562.7337036132812,157130.34144125,2.616812662434842,-2.668854568212764,-0.2636712175096113,3.585254669189453,-1.46010434627533,1.236838579177856,0.3789969384670258,0.4975062906742096,0.7037537097930908,1,0.9227866530418396,-0.279718279838562,0.2573462128639221,-0.06320949643850327,-0.4395895898342133,0.2606266438961029,0.8595550656318665,0,0,0,-1,157130.03235925,1,2,1561827192.732415,1561827055.717469,12,1.562096,0,0,11.78992,0,0,1561827143.457785,157127.561719,0,0.3198242,75.37328,0,182478453,5,1,0.19,-12.18419,-18.25797,0
1561827193.04211,64,0,0,1561827191.99831,4.634652868848885,-74.15110487497797,2552.689,0.99,223.2421875,4,10,-9999,1561827193.020289,-17.34227752685547,24.29657936096191,-0.5369873046875,27.45437622070312,34.94757080078125,15,157130.37082925,0.148590087890625,0.405731201171875,1.61114501953125,157130.36170425,-1.865866319776297,-0.4423920697429487,1.891874750982011,157130.34180725,-95.43943786621094,-3.818374633789062,-565.0059814453125,157130.36170425,2.593886107670845,-2.693308102825076,-0.2889905108749253,-1.868285536766052,-0.4484680891036987,1.888875842094421,0.5227013230323792,0.07348999381065369,0.6961302757263184,1,0.9202156662940979,-0.2917428910732269,0.2497252821922302,-0.07567442953586578,-0.4154472947120667,0.2849847376346588,0.8638215661048889,0,0,0,-1,157130.03235925,1,2,1561827192.732415,1561827055.717469,12,1.562096,0,0,11.78992,0,0,1561827143.457785,157127.561719,0,0.3198242,75.37328,0,182478453,5,1,0.19,-12.18419,-18.25797,0
1561827193.062341,65,0,0,1561827192.998298,4.634655299600805,-74.15111300542405,2552.722,0.63,214.1015625,4,10,-9999,1561827193.047488,-15.38364410400391,24.85394859313965,-0.50152587890625,23.85577774047852,31.34897422790527,15,157130.39109325,0.0494384765625,0.4230804443359375,1.6719970703125,157130.38196825,-3.31783186609964,-0.9451817035316954,2.285717394052815,157130.36191825,-94.43893432617188,-3.421859741210938,-564.4705810546875,157130.38196825,2.527779594053466,-2.723291725535543,-0.2534927300003683,-3.320250988006592,-0.9512577056884766,2.282718420028687,0.5058062076568604,0.1811134219169617,0.7511031627655029,1,0.9170893430709839,-0.3181762099266052,0.2336961030960083,-0.05565080046653748,-0.3932268917560577,0.2507866024971008,0.8845779299736023,0,0,0,-1,157130.03235925,1,2,1561827192.732415,1561827055.717469,12,1.562096,0,0,11.78992,0,0,1561827143.457785,157127.561719,0,0.3198242,75.37328,0,182478453,5,1,0.19,-12.18419,-18.89735,0
1561827193.099172,66,0,0,1561827192.998298,4.634655299600805,-74.15111300542405,2552.722,0.63,214.1015625,4,10,-9999,1561827193.097754,-12.87322235107422,25.89881134033203,3.36383056640625,13.79329586029053,21.28649139404297,15,157130.41135625,-0.08404541015625,0.2850189208984375,1.51519775390625,157130.40223225,-2.975740834595692,-2.532499482781116,2.405057104608683,157130.40214025,-92.19383239746094,-2.457061767578125,-560.48193359375,157130.40223225,2.456955047598549,-2.774304247199523,-0.2133670475301298,-2.97816014289856,-2.538575649261475,2.402058124542236,0.3656679689884186,0.168283611536026,0.7031242847442627,1,0.9143467545509338,-0.3464682996273041,0.2061820775270462,-0.03766660764813423,-0.3509432673454285,0.211751788854599,0.9121405482292175,0,0,0,-1,157130.03235925,1,2,1561827192.732415,1561827055.717469,12,1.562096,0,0,11.78992,0,0,1561827143.457785,157127.561719,0,0.3198242,75.37328,0,182478453,5,1,0.19,-12.18419,-15.05397,0
1561827193.102635,67,0,0,1561827192.998298,4.634655299600805,-74.15111300542405,2552.722,0.63,214.1015625,4,10,-9999,1561827193.097754,-12.87322235107422,25.89881134033203,3.36383056640625,13.79329586029053,21.28649139404297,15,157130.43159025,-0.27392578125,0.0186309814453125,1.312026977539062,157130.42246525,-4.379017138289661,-2.194867914522506,2.329067265012689,157130.42228225,-90.68891906738281,-2.288253784179688,-557.93994140625,157130.42246525,2.388002624178355,-2.839698096666842,-0.1630613264016814,-4.381436347961426,-2.200943946838379,2.326068162918091,0.06728076934814453,-0.001496791839599609,0.4685807228088379,1,0.9117157459259033,-0.3739374876022339,0.1689858585596085,-0.01972072198987007,-0.2933855056762695,0.1623396873474121,0.9421097040176392,0,0,0,-1,157130.03235925,1,2,1561827192.732415,1561827055.717469,12,1.562096,0,0,11.78992,0,0,1561827143.457785,157127.561719,0,0.3198242,75.37328,0,182478453,5,1,0.19,-12.18419,-15.05397,0
1561827193.123023,68,0,0,1561827192.998298,4.634655299600805,-74.15111300542405,2552.722,0.63,214.1015625,4,10,-9999,1561827193.121453,-11.40638732910156,25.93630790710449,6.2384033203125,7.405013084411621,14.89820861816406,15,157130.45185325,-0.319580078125,-0.21221923828125,1.263153076171875,157130.44272825,-8.124421381614285,-1.036433054070497,2.654083439187594,157130.44239325,-88.85073852539062,-2.97467041015625,-554.1493530273438,157130.44272825,2.305378820075201,-2.880766418141072,-0.05689473378110358,-8.126840591430664,-1.042509078979492,2.651084423065186,-0.01962262392044067,-0.1582739651203156,0.3103034496307373,1,0.904230535030365,-0.4058007299900055,0.1302445232868195,0.0270078256726265,-0.2574617266654968,0.05686404556035995,0.96461421251297,0,0,0,-1,157130.03235925,1,2,1561827192.732415,1561827055.717469,12,1.562096,0,0,11.78992,0,0,1561827143.457785,157127.561719,0,0.3198242,75.37328,0,182478453,5,1,0.19,-12.18419,-15.85281,0
1561827193.143823,69,0,0,1561827192.998298,4.634655299600805,-74.15111300542405,2552.722,0.63,214.1015625,4,10,-9999,1561827193.121453,-11.40638732910156,25.93630790710449,6.2384033203125,7.405013084411621,14.89820861816406,15,157130.47211725,-0.589263916015625,-0.463775634765625,1.102951049804688,157130.46299225,-12.43712421086432,-0.1839970007652476,3.051094711323374,157130.46250425,-87.49613952636719,-5.016021728515625,-548.6802368164062,157130.46299225,2.19651804647237,-2.889210607583209,0.1302933155980337,-12.43954372406006,-0.1900730133056641,3.048095703125,-0.1702672690153122,-0.2166326493024826,0.2500466108322144,1,0.8851915001869202,-0.4432746171951294,0.08243212103843689,0.1146673411130905,-0.2475946694612503,-0.1299249827861786,0.9601127505302429,0,0,0,-1,157130.03235925,1,2,1561827192.732415,1561827055.717469,12,1.562096,0,0,11.78992,0,0,1561827143.457785,157127.561719,0,0.3198242,75.37328,0,182478453,5,1,0.19,-12.18419,-16.77123,0
1561827193.176179,70,0,0,1561827192.998298,4.634655299600805,-74.15111300542405,2552.722,0.63,214.1015625,4,10,-9999,1561827193.172173,-7.70904541015625,15.81055736541748,22.63330078125,345.7177734375,353.2109680175781,15,157130.49238125,-0.9795074462890625,-0.571502685546875,0.89361572265625,157130.48325625,-15.94528394427254,0.8529974476630386,2.667937469494295,157130.48261525,-86.50767517089844,-10.16267395019531,-542.400634765625,157130.48325625,2.057465279299747,-2.847704658423258,0.3937484761438568,-15.94770336151123,0.846921443939209,2.664938449859619,-0.517601490020752,-0.1602010130882263,0.1226322650909424,1,0.8458195328712463,-0.4759525954723358,0.02317753992974758,0.2398357689380646,-0.2675089538097382,-0.3836527466773987,0.8838831186294556,0,0,0,-1,157130.03235925,1,2,1561827192.732415,1561827055.717469,12,1.562096,0,0,11.78992,0,0,1561827143.457785,157127.561719,0,0.3198242,75.37328,0,182478453,5,1,0.19,-12.18419,-17.69672,0
1561827193.183954,71,0,0,1561827192.998298,4.634655299600805,-74.15111300542405,2552.722,0.63,214.1015625,4,10,-9999,1561827193.172173,-7.70904541015625,15.81055736541748,22.63330078125,345.7177734375,353.2109680175781,15,157130.51264425,-1.226211547851562,-0.51666259765625,0.641998291015625,157130.50352025,-18.30216126896838,2.620919626765055,1.866461269963821,157130.50272625,-86.74928283691406,-18.37326049804688,-537.4548950195312,157130.50352025,1.863257162446818,-2.710813125584312,0.7046627905762296,-18.30459594726562,2.614821434020996,1.863465547561646,-0.8110565543174744,0.08240830898284912,0.08361876010894775,1,0.7798804640769958,-0.4877512156963348,-0.04009799659252167,0.3902272880077362,-0.318124383687973,-0.6477769613265991,0.6922295689582825,0,0,0,-1,157130.03235925,1,2,1561827192.732415,1561827055.717469,12,1.562096,0,0,11.78992,0,0,1561827143.457785,157127.561719,0,0.3198242,75.37328,0,182478453,5,1,0.19,-12.18419,-18.6431,0
1561827193.204092,72,0,0,1561827192.998298,4.634655299600805,-74.15111300542405,2552.722,0.63,214.1015625,4,10,-9999,1561827193.198424,-8.46160888671875,6.997219085693359,26.30194091796875,152.5035705566406,159.9967651367188,15,157130.53290825,-1.391921997070312,-0.1782989501953125,0.434234619140625,157130.52378325,-20.02169833843751,5.0097298508276,0.7259694573562211,157130.52286825,-88.65760803222656,-28.93316650390625,-536.3583984375,157130.52378325,1.489698690002568,-2.347007703726648,1.013388501731934,-20.02413368225098,5.003631591796875,0.7229737639427185,-0.9541782736778259,0.432110071182251,0.1630772352218628,1,0.6845731735229492,-0.4654664695262909,-0.09966561198234558,0.5520572662353516,-0.3774714767932892,-0.8486291766166687,0.3705989420413971,0,0,0,-1,157130.03235925,1,2,1561827192.732415,1561827055.717469,12,1.562096,0,0,11.78992,0,0,1561827143.457785,157127.561719,0,0.3198242,75.37328,0,182478453,5,1,0.19,-12.18419,-18.6431,0
1561827193.224388,73,0,0,1561827192.998298,4.634655299600805,-74.15111300542405,2552.722,0.63,214.1015625,4,10,-9999,1561827193.223243,-10.92005920410156,-3.995903015136719,26.0560302734375,155.5077514648438,163.0009460449219,15,157130.55317225,-1.13653564453125,0.3203277587890625,0.2955780029296875,157130.54404725,-20.3997883836605,7.219095748008389,0.04458318086068951,157130.54297925,-91.89006042480469,-39.65444946289062,-540.187744140625,157130.54404725,0.6289026078058068,-1.448042197371779,1.15388134335746,-20.40222358703613,7.212997436523438,0.04158750921487808,-0.9005040526390076,1.039296746253967,0.3853379487991333,1,0.5603104829788208,-0.4015724062919617,-0.1493965536355972,0.7088529467582703,-0.4018946588039398,-0.9143425226211548,-0.04958353191614151,0,0,0,-1,157130.03235925,1,2,1561827192.732415,1561827055.717469,12,1.562096,0,0,11.78992,0,0,1561827143.457785,157127.561719,0,0.3198242,75.37328,0,182478453,5,1,0.19,-12.18419,-19.39748,0
1561827193.255778,74,0,0,1561827192.998298,4.634655299600805,-74.15111300542405,2552.722,0.63,214.1015625,4,10,-9999,1561827193.249222,-17.14922332763672,-20.33585357666016,12.51336669921875,155.3931274414062,162.8863220214844,15,157130.57343525,-0.9422607421875,0.5536346435546875,0.1359710693359375,157130.56431125,-18.33327338208712,8.27662210317675,0.7172103205309505,157130.56309025,-95.01336669921875,-47.7109375,-547.82373046875,157130.56431125,-0.06705368589875302,-0.6738863382094243,0.946034120319057,-18.33570861816406,8.270523071289062,0.7142146229743958,-0.6346678733825684,1.278616189956665,0.7079917192459106,1,0.4198502600193024,-0.3085497319698334,-0.1786919087171555,0.8346208333969116,-0.3649963736534119,-0.8111022114753723,-0.4570456445217133,0,0,0,-1,157130.03235925,1,2,1561827192.732415,1561827055.717469,12,1.562096,0,0,11.78992,0,0,1561827143.457785,157127.561719,0,0.3198242,75.37328,0,182478453,5,1,0.19,-12.18419,-20.14397,0
1561827193.264809,75,0,0,1561827192.998298,4.634655299600805,-74.15111300542405,2552.722,0.63,214.1015625,4,10,-9999,1561827193.249222,-17.14922332763672,-20.33585357666016,12.51336669921875,155.3931274414062,162.8863220214844,15,157130.59369925,-1.199951171875,0.7631378173828125,0.0689697265625,157130.58457425,-15.85044558206151,9.069655016787237,1.769570942132885,157130.58320125,-97.77981567382812,-50.81942749023438,-557.6156616210938,157130.58457425,-0.2750637581192639,-0.3478134250418851,0.6304727078663291,-15.85288238525391,9.063556671142578,1.766575336456299,-0.767470121383667,1.207187175750732,0.8160064816474915,1,0.2799277603626251,-0.2048167437314987,-0.1815171837806702,0.9201858639717102,-0.2753155529499054,-0.5895266532897949,-0.759381115436554,0,0,0,-1,157130.03235925,1,2,1561827192.732415,1561827055.717469,12,1.562096,0,0,11.78992,0,0,1561827143.457785,157127.561719,0,0.3198242,75.37328,0,182478453,5,1,0.19,-12.18419,-20.14397,0
1561827193.285755,76,0,0,1561827192.998298,4.634655299600805,-74.15111300542405,2552.722,0.63,214.1015625,4,10,-9999,1561827193.27331,-19.20146179199219,-22.36831283569336,2.71295166015625,125.5213775634766,133.0145721435547,15,157130.6139745,-1.049179077148438,1.13763427734375,0.056182861328125,157130.60483825,-12.8641674179807,10.63838579584067,1.534766686723324,157130.6033235,-98.58966064453125,-50.6590576171875,-567.2955322265625,157130.60483825,-0.3158743866777239,-0.1266757707817682,0.3388175670982048,-12.86660385131836,10.63228702545166,1.531770944595337,-1.078339695930481,1.264073848724365,1.015318393707275,1,0.1563546359539032,-0.08807734400033951,-0.1652577817440033,0.9697863459587097,-0.1191547736525536,-0.3323721289634705,-0.9355912208557129,0,0,0,-1,157130.03235925,1,2,1561827192.732415,1561827055.717469,12,1.562096,0,0,11.78992,0,0,1561827143.457785,157127.561719,0,0.3198242,75.37328,0,182478453,5,1,0.19,-10.17191,-10.17191,0
1561827193.305485,77,0,0,1561827192.998298,4.634655299600805,-74.15111300542405,2552.722,0.63,214.1015625,4,10,-9999,1561827193.299738,-19.48497772216797,-21.45734786987305,-6.55999755859375,124.3339691162109,131.8271636962891,15,157130.6342375,-0.1691131591796875,1.57952880859375,0.196044921875,157130.6251135,-7.329743699714565,9.893769150847822,0.6209921745591507,157130.6234655,-97.29244995117188,-48.30181884765625,-575.0601806640625,157130.6251135,-0.298834355786101,0.0850885153786219,0.1276137146269518,-7.332180023193359,9.887670516967773,0.6179965138435364,-0.7692923545837402,1.537683248519897,1.120985746383667,1,0.06931447982788086,0.03248858079314232,-0.145742729306221,0.9863564968109131,0.08429481089115143,-0.1272676289081573,-0.9882799983024597,0,0,0,-1,157130.03235925,1,2,1561827192.732415,1561827055.717469,12,1.562096,0,0,11.78992,0,0,1561827143.457785,157127.561719,0,0.3198242,75.37328,0,182478453,5,1,0.19,-7.29104,-10.71876,0
1561827193.335171,78,0,0,1561827192.998298,4.634655299600805,-74.15111300542405,2552.722,0.63,214.1015625,4,10,-9999,1561827193.3242,-17.54591369628906,-19.72726440429688,-13.08587646484375,124.1938629150391,131.6870574951172,15,157130.6544705,0.48211669921875,1.562210083007812,0.2698211669921875,157130.6453765,0.4437604019110314,4.596935088175357,-0.2550578618157229,157130.6435765,-95.13749694824219,-47.53623962402344,-578.451416015625,157130.6453765,-0.2847688651852265,0.2353734008493518,0.05857634473860131,0.4413241147994995,4.590837001800537,-0.2580535411834717,-0.02629368007183075,1.672236084938049,1.184489369392395,1,0.04544166103005409,0.1120504289865494,-0.1374582350254059,0.983099639415741,0.2328061312437057,-0.05854285135865211,-0.9707595109939575,0,0,0,-1,157130.03235925,1,2,1561827192.732415,1561827055.717469,12,1.562096,0,0,11.78992,0,0,1561827143.457785,157127.561719,0,0.3198242,75.37328,0,182478453,5,1,0.19,-7.29104,-11.56034,0
1561827193.345997,79,0,0,1561827192.998298,4.634655299600805,-74.15111300542405,2552.722,0.63,214.1015625,4,10,-9999,1561827193.3242,-17.54591369628906,-19.72726440429688,-13.08587646484375,124.1938629150391,131.6870574951172,15,157130.6747345,0.5203399658203125,1.096343994140625,0.1771697998046875,157130.6656095,6.004121178665671,-1.124002051770047,-1.325834774987773,157130.6636875,-94.26467895507812,-49.30198669433594,-577.351806640625,157130.6656095,-0.3211111109241994,0.2699928541183869,0.1238792839520153,6.00168514251709,-1.13010048866272,-1.328830480575562,0.3342269062995911,1.493450999259949,1.208492875099182,1,0.08202265948057175,0.1227953061461449,-0.1498845815658569,0.9776135683059692,0.2646805644035339,-0.1235626861453056,-0.9563872218132019,0,0,0,-1,157130.03235925,1,2,1561827192.732415,1561827055.717469,12,1.562096,0,0,11.78992,0,0,1561827143.457785,157127.561719,0,0.3198242,75.37328,0,182478453,5,1,0.19,-7.29104,-12.20409,0
1561827193.366159,80,0,0,1561827192.998298,4.634655299600805,-74.15111300542405,2552.722,0.63,214.1015625,4,10,-9999,1561827193.350434,-15.78215789794922,-21.60060119628906,-12.744873046875,128.0951995849609,135.5883941650391,15,157130.6949985,0.2303924560546875,0.54071044921875,-0.009521484375,157130.6858735,7.156804410111436,-3.710865440831278,-0.7215741762931543,157130.6837985,-94.66616821289062,-51.37483215332031,-573.6651000976562,157130.6858735,-0.379369290062853,0.227225572781601,0.2524008927196736,7.15436840057373,-3.716963768005371,-0.7245698571205139,0.1865102499723434,1.047962546348572,1.030644416809082,1,0.1440168023109436,0.08687081933021545,-0.1718305349349976,0.9706631898880005,0.2181375771760941,-0.2497294992208481,-0.9434252381324768,0,0,0,-1,157130.03235925,1,2,1561827192.732415,1561827055.717469,12,1.562096,0,0,11.78992,0,0,1561827143.457785,157127.561719,0,0.3198242,75.37328,0,182478453,5,1,0.19,-7.29104,-12.20409,0
1561827193.386645,81,0,0,1561827192.998298,4.634655299600805,-74.15111300542405,2552.722,0.63,214.1015625,4,10,-9999,1561827193.374612,-16.11733245849609,-23.43971252441406,-8.9398193359375,130.7934265136719,138.28662109375,15,157130.7152615,-0.0899505615234375,0.1414031982421875,0.0209503173828125,157130.7061375,6.809014746506936,-4.547345430781427,0.4936177069945138,157130.7039395,-95.83041381835938,-52.69465637207031,-569.3775024414062,157130.7061375,-0.408755433118114,0.1512988750217555,0.3893645663818309,6.806578636169434,-4.553443431854248,0.4906220436096191,-0.1059782803058624,0.7031632661819458,0.8768466711044312,1,0.2039360105991364,0.03345546126365662,-0.1842378228902817,0.9609096050262451,0.1394408047199249,-0.3796006143093109,-0.9145816564559937,0,0,0,-1,157130.03235925,1,2,1561827192.732415,1561827055.717469,12,1.562096,0,0,11.78992,0,0,1561827143.457785,157127.561719,0,0.3198242,75.37328,0,182478453,5,1,0.19,-6.917699,-12.59397,0
1561827193.416103,82,0,0,1561827192.998298,4.634655299600805,-74.15111300542405,2552.722,0.63,214.1015625,4,10,-9999,1561827193.401121,-17.23886108398438,-24.51933288574219,-4.25347900390625,130.7865905761719,138.27978515625,15,157130.7355255,-0.2124176025390625,-0.1599884033203125,0.2386016845703125,157130.7264005,8.63892120103222,-5.931787060298029,0.8660839549435789,157130.7240515,-96.49465942382812,-52.96221923828125,-564.1149291992188,157130.7264005,-0.408812630825708,0.04706089589581695,0.5421251675454921,8.636484146118164,-5.937885284423828,0.8630882501602173,-0.2065426558256149,0.5089995861053467,0.9529099464416504,1,0.266710102558136,-0.03213826194405556,-0.189351424574852,0.944446325302124,0.04029814898967743,-0.5159575939178467,-0.8556656837463379,0,0,0,-1,157130.03235925,1,2,1561827192.732415,1561827055.717469,12,1.562096,0,0,11.78992,0,0,1561827143.457785,157127.561719,0,0.3198242,75.37328,0,182478453,5,1,0.19,-6.917699,-14.61276,0
1561827193.427074,83,0,0,1561827192.998298,4.634655299600805,-74.15111300542405,2552.722,0.63,214.1015625,4,10,-9999,1561827193.425797,-17.60666656494141,-23.17910003662109,9.28277587890625,142.552001953125,150.0451965332031,15,157130.7557895,-0.452362060546875,-0.385406494140625,0.685394287109375,157130.7466645,12.60269400109898,-8.044946795731923,0.6110093152129886,157130.7441625,-96.74838256835938,-52.48341369628906,-556.6166381835938,157130.7466645,-0.3796400011216505,-0.1135180728865609,0.7549203631370326,12.60025691986084,-8.051045417785645,0.6080136299133301,-0.2427861392498016,0.4145702719688416,1.157476305961609,1,0.3514076173305511,-0.1212166994810104,-0.1956495344638824,0.9074912667274475,-0.08250071853399277,-0.6852306723594666,-0.7236384153366089,0,0,0,-1,157130.03235925,1,2,1561827192.732415,1561827055.717469,12,1.562096,0,0,11.78992,0,0,1561827143.457785,157127.561719,0,0.3198242,75.37328,0,182478453,5,1,0.19,-6.917699,-14.61276,0
1561827193.447247,84,0,0,1561827192.998298,4.634655299600805,-74.15111300542405,2552.722,0.63,214.1015625,4,10,-9999,1561827193.425797,-17.60666656494141,-23.17910003662109,9.28277587890625,142.552001953125,150.0451965332031,15,157130.7760525,-0.64544677734375,-0.3927764892578125,1.289291381835938,157130.7669285,16.96101891035094,-9.058010611236975,-0.4405334496181824,157130.7642735,-94.77264404296875,-49.02037048339844,-547.7201538085938,157130.7669285,-0.2551463223937382,-0.3881019629864366,1.045387735138909,16.95858383178711,-9.064108848571777,-0.4435291290283203,-0.381617397069931,0.4341803193092346,1.47432017326355,1,0.4646075367927551,-0.2280515730381012,-0.2036548107862473,0.8310578465461731,-0.1898089796304703,-0.8651190996170044,-0.4642646312713623,0,0,0,-1,157130.03235925,1,2,1561827192.732415,1561827055.717469,12,1.562096,0,0,11.78992,0,0,1561827143.457785,157127.561719,0,0.3198242,75.37328,0,182478453,5,1,0.19,-6.917699,-15.65536,0
1561827193.467488,85,0,0,1561827192.998298,4.634655299600805,-74.15111300542405,2552.722,0.63,214.1015625,4,10,-9999,1561827193.451741,-15.10591888427734,-18.71741485595703,18.49530029296875,151.2003631591797,158.6935577392578,15,157130.7963165,-0.68035888671875,-0.1637420654296875,1.752960205078125,157130.7871915,20.43391093407547,-8.738088265279064,-1.248243576628315,157130.7843845,-91.38307189941406,-41.75987243652344,-539.1632080078125,157130.7871915,0.4783352393266682,-1.264503618921281,1.334451269860821,20.43147468566895,-8.744187355041504,-1.25123929977417,-0.4526650905609131,0.6742419004440308,1.624527215957642,1,0.5949554443359375,-0.3327561616897583,-0.2051649689674377,0.7022882699966431,-0.2232534736394882,-0.9722002744674683,-0.07060271501541138,0,0,0,-1,157130.03235925,1,2,1561827192.732415,1561827055.717469,12,1.562096,0,0,11.78992,0,0,1561827143.457785,157127.561719,0,0.3198242,75.37328,0,182478453,5,1,0.19,-6.917699,-16.60989,0
1561827193.49453,86,0,0,1561827192.998298,4.634655299600805,-74.15111300542405,2552.722,0.63,214.1015625,4,10,-9999,1561827193.476766,-10.76891326904297,-9.820911407470703,25.5845947265625,156.3338928222656,163.8270874023438,15,157130.8165805,-0.7119598388671875,-0.0793609619140625,1.696762084960938,157130.8074555,19.62125478428884,-5.600263451999515,-0.5243561786123174,157130.8045255,-86.632568359375,-30.55047607421875,-534.855224609375,157130.8074555,1.782891546152848,-2.677469575833687,1.153872507868657,19.61881828308105,-5.606361865997314,-0.5273518562316895,-0.4984469413757324,0.8366869688034058,1.423502445220947,1,0.7133931517601013,-0.4148807227611542,-0.1835562288761139,0.5340891480445862,-0.1812710762023926,-0.9143389463424683,0.3621115982532501,0,0,0,-1,157130.03235925,1,2,1561827192.732415,1561827055.717469,12,1.562096,0,0,11.78992,0,0,1561827143.457785,157127.561719,0,0.3198242,75.37328,0,182478453,5,1,0.19,-6.917699,-17.64596,0
1561827193.508346,87,0,0,1561827192.998298,4.634655299600805,-74.15111300542405,2552.722,0.63,214.1015625,4,10,-9999,1561827193.502453,-7.124603271484375,0.9421176910400391,28.1796875,153.6178283691406,161.1110229492188,15,157130.8368445,-0.86102294921875,-0.329559326171875,1.356475830078125,157130.8277195,7.835681456227895,2.829108250240365,3.333108557060661,157130.8246365,-84.76649475097656,-21.27487182617188,-535.947265625,157130.8277195,1.942967043466788,-2.851629333455274,0.8666976387601172,7.833245277404785,2.823009967803955,3.33011269569397,-0.5449690818786621,0.5679509043693542,0.8847882747650146,1,0.7757556438446045,-0.4564700424671173,-0.1261084824800491,0.4170551896095276,-0.1850876659154892,-0.762195348739624,0.6203234195709229,0,0,0,-1,157130.03235925,1,2,1561827192.732415,1561827055.717469,12,1.562096,0,0,11.78992,0,0,1561827143.457785,157127.561719,0,0.3198242,75.37328,0,182478453,5,1,0.19,-6.917699,-18.65819,0
1561827193.528411,88,0,0,1561827192.998298,4.634655299600805,-74.15111300542405,2552.722,0.63,214.1015625,4,10,-9999,1561827193.526558,-9.645118713378906,8.035514831542969,26.36639404296875,144.5156860351562,152.0088806152344,15,157130.8571075,-0.9521942138671875,-0.1387939453125,1.969619750976562,157130.8479825,-5.610284394549265,7.671738324787053,6.720390071751279,157130.8447485,-87.37063598632812,-19.57887268066406,-537.1566162109375,157130.8479825,1.791092191361716,-2.617978738121352,0.8182899214315877,-5.612720489501953,7.665639877319336,6.717394351959229,-0.6534796953201294,0.4294257164001465,0.986852765083313,1,0.7560864686965942,-0.4735843539237976,-0.05485149845480919,0.4483776092529297,-0.3417443037033081,-0.729978084564209,0.5918977856636047,0,0,0,-1,157130.03235925,1,2,1561827192.732415,1561827055.717469,12,1.562096,0,0,11.78992,0,0,1561827143.457785,157127.561719,0,0.3198242,75.37328,0,182478453,5,1,0.19,-6.917699,-18.65819,0
1561827193.549398,89,0,0,1561827192.998298,4.634655299600805,-74.15111300542405,2552.722,0.63,214.1015625,4,10,-9999,1561827193.526558,-9.645118713378906,8.035514831542969,26.36639404296875,144.5156860351562,152.0088806152344,15,157130.8773715,-0.8586578369140625,0.41790771484375,2.383010864257812,157130.8682465,-5.175026400734421,3.649825256014444,7.328406260215127,157130.8648595,-90.02934265136719,-21.46864318847656,-537.4375,157130.8682465,1.508613254475069,-2.285911459290537,0.8268324414987664,-5.177462577819824,3.64372706413269,7.325410842895508,-0.3938460350036621,0.9389302730560303,1.849819660186768,1,0.6920402646064758,-0.4930567443370819,-0.006192519329488277,0.5271972417831421,-0.5113053917884827,-0.735789954662323,0.4440493583679199,0,0,0,-1,157130.03235925,1,2,1561827192.732415,1561827055.717469,12,1.562096,0,0,11.78992,0,0,1561827143.457785,157127.561719,0,0.3198242,75.37328,0,182478453,5,1,0.19,-6.917699,-19.20699,0
1561827193.577804,90,0,0,1561827192.998298,4.634655299600805,-74.15111300542405,2552.722,0.63,214.1015625,4,10,-9999,1561827193.553081,-11.17875671386719,6.960075378417969,25.916015625,144.0637817382812,151.5569763183594,15,157130.8976045,-1.476943969726562,0.37152099609375,1.989532470703125,157130.8884795,1.980520464710279,-1.889305599478411,7.792639446690034,157130.8849705,-89.31710815429688,-20.7288818359375,-537.4052124023438,157130.8884795,1.342915345206351,-2.158363205395682,0.7224524001574759,1.978084206581116,-1.895403981208801,7.78964376449585,-0.4220127463340759,1.174928784370422,1.770483732223511,1,0.6436715722084045,-0.5418626666069031,0.0307925920933485,0.5395586490631104,-0.6243740320205688,-0.6612263917922974,0.4158564805984497,0,0,0,-1,157130.03235925,1,2,1561827192.732415,1561827055.717469,12,1.562096,0,0,11.78992,0,0,1561827143.457785,157127.561719,0,0.3198242,75.37328,0,182478453,5,1,0.19,-6.917699,-18.41143,0
1561827193.589605,91,0,0,1561827192.998298,4.634655299600805,-74.15111300542405,2552.722,0.63,214.1015625,4,10,-9999,1561827193.577714,-9.532920837402344,8.639148712158203,25.785888671875,142.4515380859375,149.9447326660156,15,157130.9178685,-2.123748779296875,-0.1881256103515625,1.758468627929688,157130.9087435,4.018234444358883,-0.4228860126547723,7.985845924820884,157130.9050815,-86.76220703125,-17.62007141113281,-537.9869384765625,157130.9087435,1.308982150891022,-2.169956736617641,0.5493269374027887,4.015798091888428,-0.4289843738079071,7.982850551605225,-1.19700813293457,0.6311831474304199,1.362542033195496,1,0.6186133623123169,-0.59816974401474,0.08331330120563507,0.502562940120697,-0.704313337802887,-0.5221133232116699,0.4809790551662445,0,0,0,-1,157130.03235925,1,2,1561827192.732415,1561827055.717469,12,1.562096,0,0,11.78992,0,0,1561827143.457785,157127.561719,0,0.3198242,75.37328,0,182478453,5,1,0.19,-6.917699,-18.41143,0
1561827193.61012,92,0,0,1561827192.998298,4.634655299600805,-74.15111300542405,2552.722,0.63,214.1015625,4,10,-9999,1561827193.603724,-7.27972412109375,11.63808631896973,25.078125,37.64595794677734,45.13915252685547,15,157130.9381315,-2.197662353515625,-0.4853363037109375,1.67987060546875,157130.9290075,-0.9096884241036644,0.9609665256287041,9.0687580641321,157130.9251925,-84.46914672851562,-15.3359375,-538.5302734375,157130.9290075,1.237762144705387,-2.12780484314981,0.3845660106640643,-0.9121246933937073,0.9548681974411011,9.065762519836426,-1.386009454727173,-0.02761411666870117,1.204084873199463,1,0.5733960270881653,-0.6451632976531982,0.1403553187847137,0.4850583672523499,-0.7868420481681824,-0.3751568794250488,0.4900373816490173,0,0,0,-1,157130.03235925,1,2,1561827192.732415,1561827055.717469,12,1.562096,0,0,11.78992,0,0,1561827143.457785,157128.50808,0,0.6420898,75.37023,0,182478453,5,1,0.19,-6.917699,-19.36344,0
1561827193.62987,93,0,0,1561827192.998298,4.634655299600805,-74.15111300542405,2552.722,0.63,214.1015625,4,10,-9999,1561827193.628157,-2.982940673828125,10.71246910095215,26.352783203125,51.21689987182617,58.7100944519043,15,157130.9583955,-2.460861206054688,-0.4629669189453125,1.433609008789062,157130.9492705,-6.096179200698658,0.5261237186278029,9.706123885705274,157130.9453335,-82.10792541503906,-16.33187866210938,-537.738525390625,157130.9492705,1.070737643168359,-2.062602967038413,0.2560794802405466,-6.098615169525146,0.520025372505188,9.703127861022949,-1.442368507385254,-0.2430633306503296,1.159680604934692,1,0.4905334711074829,-0.6984175443649292,0.1656990200281143,0.4940988421440125,-0.8527364134788513,-0.2532898485660553,0.4568203091621399,0,0,0,-1,157130.03235925,1,2,1561827192.732415,1561827055.717469,12,1.562096,0,0,11.78992,0,0,1561827143.457785,157128.50808,0,0.6420898,75.37023,0,182478453,5,1,0.19,-6.917699,-20.22637,0
1561827193.660674,94,0,0,1561827192.998298,4.634655299600805,-74.15111300542405,2552.722,0.63,214.1015625,4,10,-9999,1561827193.654782,-0.9959030151367188,5.918056488037109,27.7510986328125,70.71593475341797,78.20912933349609,15,157130.9786595,-2.531234741210938,-0.429412841796875,1.093978881835938,157130.9695345,-9.95048595995102,0.424993105709243,10.21964845553202,157130.9654455,-80.06973266601562,-20.74757385253906,-536.1517944335938,157130.9695345,0.8275144110114345,-2.004194503823612,0.1478355199860658,-9.952922821044922,0.4188947379589081,10.21665287017822,-1.654845714569092,-0.2703964710235596,0.8225845098495483,1,0.374260276556015,-0.753403902053833,0.1589528471231461,0.5167647004127502,-0.897644579410553,-0.1472976058721542,0.4153763949871063,0,0,0,-1,157130.03235925,1,2,1561827192.732415,1561827055.717469,12,1.562096,0,0,11.78992,0,0,1561827143.457785,157128.50808,0,0.6420898,75.37023,0,182478453,5,1,0.19,-6.917699,-21.30564,0
1561827193.670959,95,0,0,1561827192.998298,4.634655299600805,-74.15111300542405,2552.722,0.63,214.1015625,4,10,-9999,1561827193.654782,-0.9959030151367188,5.918056488037109,27.7510986328125,70.71593475341797,78.20912933349609,15,157130.9989225,-2.430679321289062,-0.4178924560546875,0.8208465576171875,157130.9897985,-12.68529673599775,-0.2881404478250142,9.769098058105724,157130.9855565,-79.24009704589844,-27.10519409179688,-534.8336791992188,157130.9897985,0.5330178617265987,-1.97337865927534,0.05323259889437839,-12.68773365020752,-0.294238805770874,9.76610279083252,-1.537259817123413,-0.3997954726219177,0.5705971717834473,1,0.233780562877655,-0.8006041049957275,0.1237654909491539,0.5376447439193726,-0.9187490940093994,-0.05320746079087257,0.3912405669689178,0,0,0,-1,157130.03235925,1,2,1561827192.732415,1561827055.717469,12,1.562096,0,0,11.78992,0,0,1561827143.457785,157128.50808,0,0.6420898,75.37023,0,182478453,5,1,0.19,-6.917699,-22.08568,0
1561827193.690733,96,0,0,1561827192.998298,4.634655299600805,-74.15111300542405,2552.722,0.63,214.1015625,4,10,-9999,1561827193.678828,-0.2796478271484375,-1.218093872070312,28.2574462890625,93.99758911132812,101.4907836914062,15,157131.0191865,-2.479110717773438,-0.1339874267578125,0.4720001220703125,157131.0100615,-15.48865834376756,-0.6330557616649916,8.309189900147329,157131.0056675,-78.96340942382812,-35.29855346679688,-535.5108642578125,157131.0100615,0.1989493550250827,-1.97827869969854,-0.004129691494808106,-15.4910945892334,-0.6391540765762329,8.306194305419922,-1.526420831680298,-0.3118689358234406,0.2679346799850464,1,0.08185039460659027,-0.8315337300300598,0.05627885460853577,0.5465205907821655,-0.9181135296821594,0.004129679873585701,0.3962956666946411,0,0,0,-1,157130.03235925,1,2,1561827192.732415,1561827055.717469,12,1.562096,0,0,11.78992,0,0,1561827143.457785,157128.50808,0,0.6420898,75.37023,0,182478453,5,1,0.19,-6.917699,-22.08568,0
1561827193.711161,97,0,0,1561827192.998298,4.634655299600805,-74.15111300542405,2552.722,0.63,214.1015625,4,10,-9999,1561827193.705591,-0.8063888549804688,-9.830997467041016,26.73284912109375,121.3032531738281,128.7964477539062,15,157131.0394505,-2.57696533203125,0.4917449951171875,0.0998382568359375,157131.0303255,-18.95976391903286,0.7143594065840206,6.56594377275766,157131.0257785,-80.5772705078125,-44.82302856445312,-539.434326171875,157131.0303255,-0.1810041478267941,-1.983964241506729,-0.004071458442456862,-18.96220016479492,0.7082610726356506,6.562948226928711,-1.611909747123718,0.1188380941748619,-0.1454364061355591,1,-0.07676587253808975,-0.833583652973175,-0.04774268716573715,0.5449458956718445,-0.9158459901809692,0.004071447066962719,0.4015094041824341,0,0,0,-1,157130.03235925,1,2,1561827192.732415,1561827055.717469,12,1.562096,0,0,11.78992,0,0,1561827143.457785,157128.50808,0,0.6420898,75.37023,0,182478453,5,1,0.19,-6.917699,-15.46918,0
1561827193.739625,98,0,0,1561827192.998298,4.634655299600805,-74.15111300542405,2552.722,0.63,214.1015625,4,10,-9999,1561827193.731333,-5.47100830078125,-25.63851928710938,12.1766357421875,152.0904541015625,159.5836486816406,15,157131.0597135,-2.20574951171875,1.3193359375,-0.0970001220703125,157131.0505895,-21.47421835489981,3.211254023487432,4.203305764307868,157131.0459195,-83.28683471679688,-52.52705383300781,-547.7836303710938,157131.0505895,-0.6048977635027721,-1.934442225969045,0.05549140230297353,-21.47665405273438,3.205155611038208,4.200310230255127,-1.536711454391479,0.9514590501785278,-0.3398473262786865,1,-0.2301048040390015,-0.7903290987014771,-0.190800204873085,0.5348149538040161,-0.9331677556037903,-0.05546292662620544,0.3551366031169891,0,0,0,-1,157130.03235925,1,2,1561827192.732415,1561827055.717469,12,1.562096,0,0,11.78992,0,0,1561827143.457785,157128.50808,0,0.6420898,75.37023,0,182478453,5,1,0.19,-5.776778,-11.69861,0
1561827193.751202,99,0,0,1561827192.998298,4.634655299600805,-74.15111300542405,2552.722,0.63,214.1015625,4,10,-9999,1561827193.731333,-5.47100830078125,-25.63851928710938,12.1766357421875,152.0904541015625,159.5836486816406,15,157131.0799775,-1.389450073242188,1.889175415039062,-0.3204345703125,157131.0708525,-20.21314979341,4.908421072432114,3.281918606167703,157131.0660315,-86.42634582519531,-56.73948669433594,-559.107666015625,157131.0708525,-1.037722342492047,-1.812252479728508,0.1153832037420491,-20.21558570861816,4.902322769165039,3.27892279624939,-0.850452721118927,1.767562627792358,-0.4503870010375977,1,-0.358793318271637,-0.7000219821929932,-0.3447684347629547,0.5122219324111938,-0.9645344614982605,-0.1151273548603058,0.2375268489122391,0,0,0,-1,157130.03235925,1,2,1561827192.732415,1561827055.717469,12,1.562096,0,0,11.78992,0,0,1561827143.457785,157128.50808,0,0.6420898,75.37023,0,182478453,5,1,0.19,-5.776778,-11.69861,0
1561827193.77169,100,0,0,1561827192.998298,4.634655299600805,-74.15111300542405,2552.722,0.63,214.1015625,4,10,-9999,1561827193.755676,-7.878387451171875,-28.19147491455078,0.8602294921875,181.3971862792969,188.890380859375,15,157131.1002415,-0.7507781982421875,2.039474487304688,-0.5717315673828125,157131.0911165,-15.61691298607247,6.011064572259726,3.077070918279898,157131.0861425,-87.778564453125,-56.14881896972656,-570.0249633789062,157131.0911165,-1.411572191224074,-1.656722474233446,0.1135923898990782,-15.61934947967529,6.004966259002686,3.074075222015381,-0.03290683031082153,2.161657571792603,-0.5230724811553955,1,-0.44794762134552,-0.5847876667976379,-0.4696570336818695,0.4866093695163727,-0.9898898005485535,-0.1133482605218887,0.08526737242937088,0,0,0,-1,157130.03235925,1,2,1561827192.732415,1561827055.717469,12,1.562096,0,0,11.78992,0,0,1561827143.457785,157128.50808,0,0.6420898,75.37023,0,182478453,5,1,0.19,-5.776778,-6.779791,0
1561827193.791718,101,0,0,1561827192.998298,4.634655299600805,-74.15111300542405,2552.722,0.63,214.1015625,4,10,-9999,1561827193.779924,-9.004371643066406,-26.65741729736328,-8.96697998046875,202.2570190429688,209.7502136230469,15,157131.1204745,-0.393951416015625,1.820541381835938,-0.619354248046875,157131.1113805,-10.55449728676761,7.245043459141249,2.823183249447156,157131.1062535,-87.7974853515625,-52.72671508789062,-577.8226928710938,157131.1113805,-1.67743936207812,-1.498525042409973,0.05624214417197011,-10.55693340301514,7.238945007324219,2.820187568664551,0.4582300186157227,1.989241600036621,-0.5789220333099365,1,-0.4926320612430573,-0.4703897833824158,-0.5571804046630859,0.4749705493450165,-0.9958124756813049,-0.05621249973773956,-0.07209420949220657,0,0,0,-1,157130.03235925,1,2,1561827192.732415,1561827055.717469,12,1.562096,0,0,11.78992,0,0,1561827143.457785,157128.50808,0,0.6420898,75.37023,0,182478453,5,1,0.19,-5.271724,-7.625857,0
1561827193.819577,102,0,0,1561827192.998298,4.634655299600805,-74.15111300542405,2552.722,0.63,214.1015625,4,10,-9999,1561827193.806498,-8.71832275390625,-23.28435516357422,-16.01104736328125,213.3797912597656,220.8729858398438,15,157131.1407385,-0.2165069580078125,1.768692016601562,-0.379669189453125,157131.1316135,-5.878668181827527,7.260700183189825,1.751178352696471,157131.1263945,-86.17037963867188,-49.26779174804688,-582.505615234375,157131.1316135,-1.834456211334861,-1.344762343153546,-0.01503090239285249,-5.881104469299316,7.254601955413818,1.748182773590088,0.6754415035247803,1.763961315155029,-0.274827778339386,1,-0.4980541169643402,-0.3740289807319641,-0.6182517409324646,0.4793841242790222,-0.9744527339935303,0.0150303365662694,-0.2240888327360153,0,0,0,-1,157130.03235925,1,2,1561827192.732415,1561827055.717469,12,1.562096,0,0,11.78992,0,0,1561827143.457785,157128.50808,0,0.6420898,75.37023,0,182478453,5,1,0.19,-5.271724,-8.655638,0
1561827193.832297,103,0,0,1561827192.998298,4.634655299600805,-74.15111300542405,2552.722,0.63,214.1015625,4,10,-9999,1561827193.831077,-4.370948791503906,-18.94221878051758,-21.53106689453125,217.03759765625,224.5307922363281,15,157131.1610015,-0.0700225830078125,1.884689331054688,-0.2311553955078125,157131.1518765,-1.746148972977856,5.205085499958146,-0.2788060682042864,157131.1465055,-83.736572265625,-47.31291198730469,-584.9317016601562,157131.1518765,-1.903496077022513,-1.218754162588607,-0.05097636918377806,-1.748585224151611,5.198987007141113,-0.2818017303943634,0.7918517589569092,1.748316287994385,0.05995893478393555,1,-0.4781201183795929,-0.3149879276752472,-0.6591562628746033,0.487541526556015,-0.9374511241912842,0.05095429345965385,-0.344367504119873,0,0,0,-1,157130.03235925,1,2,1561827192.732415,1561827055.717469,12,1.562096,0,0,11.78992,0,0,1561827143.457785,157128.50808,0,0.6420898,75.37023,0,182478453,5,1,0.19,-5.271724,-8.655638,0
1561827193.852692,104,0,0,1561827192.998298,4.634655299600805,-74.15111300542405,2552.722,0.63,214.1015625,4,10,-9999,1561827193.831077,-4.370948791503906,-18.94221878051758,-21.53106689453125,217.03759765625,224.5307922363281,15,157131.1812655,0.0975494384765625,1.973098754882812,-0.3034820556640625,157131.1721405,0.8701079913506887,2.87920097876421,-1.451684050196122,157131.1666165,-81.81474304199219,-46.887451171875,-585.379150390625,157131.1721405,-1.916757857241918,-1.139316647480275,-0.03383810873166976,0.8676717281341553,2.87310266494751,-1.454679727554321,0.9333559274673462,1.899991035461426,0.1641460061073303,1,-0.4494507610797882,-0.2983388006687164,-0.6837014555931091,0.4914676249027252,-0.9078279733657837,0.0338316522538662,-0.4179759323596954,0,0,0,-1,157130.03235925,1,2,1561827192.732415,1561827055.717469,12,1.562096,0,0,11.78992,0,0,1561827143.457785,157128.50808,0,0.6420898,75.37023,0,182478453,5,1,0.19,-5.271724,-8.900754,0
1561827193.873172,105,0,0,1561827192.998298,4.634655299600805,-74.15111300542405,2552.722,0.63,214.1015625,4,10,-9999,1561827193.857441,-2.326393127441406,-18.89204406738281,-21.7554931640625,216.8857116699219,224.37890625,15,157131.2015295,0.0941925048828125,2.06591796875,-0.430633544921875,157131.1924045,1.085505525580734,2.273403736120616,-0.6842244072692291,157131.1867285,-79.70771789550781,-48.10792541503906,-584.923583984375,157131.1924045,-1.906496993109607,-1.090282424210571,-0.001292373895033534,1.083069205284119,2.267305374145508,-0.6872200965881348,1.009956121444702,2.031681776046753,0.09706121683120728,1,-0.4230850040912628,-0.2998029589653015,-0.6969320774078369,0.4953815042972565,-0.8867567181587219,0.001292373519390821,-0.4622345268726349,0,0,0,-1,157130.03235925,1,2,1561827192.732415,1561827055.717469,12,1.562096,0,0,11.78992,0,0,1561827143.457785,157128.50808,0,0.6420898,75.37023,0,182478453,5,1,0.19,-5.271724,-9.296826,0
1561827193.906958,106,0,0,1561827192.998298,4.634655299600805,-74.15111300542405,2552.722,0.63,214.1015625,4,10,-9999,1561827193.882145,-0.7177200317382812,-19.55334854125977,-21.3543701171875,216.0583953857422,223.5515899658203,15,157131.2217925,-0.043426513671875,2.055511474609375,-0.4630889892578125,157131.2126675,-0.3586058260557478,2.838435439326149,1.561902167702359,157131.2068395,-78.9395751953125,-48.09831237792969,-584.6526489257812,157131.2126675,-1.895599718822908,-1.039059482807696,-0.003829691439217207,-0.3610421121120453,2.832337141036987,1.558906555175781,0.8884412050247192,2.078430414199829,0.02703171968460083,1,-0.4041707515716553,-0.2883267104625702,-0.704418957233429,0.5072550177574158,-0.8619214296340942,0.003829682013019919,-0.5070274472236633,0,0,0,-1,157130.03235925,1,2,1561827192.732415,1561827055.717469,12,1.562096,0,0,11.78992,0,0,1561827143.457785,157128.50808,0,0.6420898,75.37023,0,182478453,5,1,0.19,-5.271724,-11.24331,0
1561827193.913588,107,0,0,1561827192.998298,4.634655299600805,-74.15111300542405,2552.722,0.63,214.1015625,4,10,-9999,1561827193.911142,0.3043975830078125,-19.50658416748047,-21.52447509765625,215.0106048583984,222.5037994384766,15,157131.2420565,-0.19244384765625,1.931503295898438,-0.335723876953125,157131.2329315,-1.340711192836956,2.819947775038819,3.871141399451081,157131.2269505,-78.23976135253906,-47.87864685058594,-584.9068603515625,157131.2329315,-1.881545527791639,-0.9793564488073107,-0.06159594530297104,-1.34314751625061,2.813849449157715,3.868145704269409,0.7223784923553467,1.939282178878784,0.1548728942871094,1,-0.3958726823329926,-0.2550197243690491,-0.7041881084442139,0.5313838720321655,-0.8285644054412842,0.06155700236558914,-0.5564995408058167,0,0,0,-1,157130.03235925,1,2,1561827192.732415,1561827055.717469,12,1.562096,0,0,11.78992,0,0,1561827143.457785,157128.50808,0,0.6420898,75.37023,0,182478453,5,1,0.19,-5.271724,-11.24331,0
1561827193.934074,108,0,0,1561827192.998298,4.634655299600805,-74.15111300542405,2552.722,0.63,214.1015625,4,10,-9999,1561827193.931839,-0.5948028564453125,-18.76572036743164,-22.0299072265625,211.9683380126953,219.4615325927734,15,157131.2623205,-0.4025421142578125,1.906143188476562,-0.1955718994140625,157131.2531955,-0.7615993569481732,1.589559894571159,5.030481202041498,157131.2470615,-78.91142272949219,-47.06031799316406,-585.4999389648438,157131.2531955,-1.847793353352997,-0.929253122860193,-0.1506384622961743,-0.7640356421470642,1.58346152305603,5.027485847473145,0.5051130056381226,1.729309916496277,0.3276785612106323,1,-0.397086888551712,-0.2156251817941666,-0.6910193562507629,0.5641986131668091,-0.7921003103256226,0.1500694006681442,-0.5916555523872375,0,0,0,-1,157130.03235925,1,2,1561827192.732415,1561827055.717469,12,1.562096,0,0,11.78992,0,0,1561827143.457785,157128.50808,0,0.6420898,75.37023,0,182478453,5,1,0.19,-5.271724,-12.08326,0
1561827193.954212,109,0,0,1561827192.998298,4.634655299600805,-74.15111300542405,2552.722,0.63,214.1015625,4,10,-9999,1561827193.931839,-0.5948028564453125,-18.76572036743164,-22.0299072265625,211.9683380126953,219.4615325927734,15,157131.2825835,-0.6118316650390625,2.0228271484375,-0.1058349609375,157131.2734585,1.954366891225156,-0.7489847618127948,5.377708938655991,157131.2672025,-80.56562805175781,-47.05023193359375,-585.5075073242188,157131.2734585,-1.775007646419092,-0.9056574152632795,-0.2291382573169035,1.951930642127991,-0.7550830841064453,5.37471342086792,0.2507165670394897,1.725772976875305,0.4525691866874695,1,-0.401965320110321,-0.1946927756071091,-0.6611891388893127,0.602783203125,-0.7662652730941772,0.2271383851766586,-0.6010372042655945,0,0,0,-1,157130.03235925,1,2,1561827192.732415,1561827055.717469,12,1.562096,0,0,11.78992,0,0,1561827143.457785,157128.50808,0,0.6420898,75.37023,0,182478453,5,1,0.19,-5.271724,-13.10883,0
1561827193.991805,110,0,0,1561827192.998298,4.634655299600805,-74.15111300542405,2552.722,0.63,214.1015625,4,10,-9999,1561827193.931839,-0.5948028564453125,-18.76572036743164,-22.0299072265625,211.9683380126953,219.4615325927734,15,157131.3028475,-0.919281005859375,2.173294067382812,-0.0908660888671875,157131.2937225,5.962330854840148,-2.912475312371987,6.131610961105508,157131.2873135,-83.42208862304688,-47.86311340332031,-584.3406982421875,157131.2937225,-1.636812750839896,-0.9098001255291316,-0.2706501678541424,5.95989465713501,-2.918573617935181,6.128615379333496,-0.003087520599365234,1.848105192184448,0.4903136491775513,1,-0.4006559252738953,-0.2090381681919098,-0.6093097329139709,0.6515515446662903,-0.7606453895568848,0.2673580050468445,-0.5915557742118835,0,0,0,-1,157130.03235925,1,2,1561827192.732415,1561827055.717469,12,1.562096,0,0,11.78992,0,0,1561827143.457785,157128.50808,0,0.6420898,75.37023,0,182478453,5,1,0.19,-5.271724,-14.13534,0
1561827193.997218,111,0,0,1561827192.998298,4.634655299600805,-74.15111300542405,2552.722,0.63,214.1015625,4,10,-9999,1561827193.931839,-0.5948028564453125,-18.76572036743164,-22.0299072265625,211.9683380126953,219.4615325927734,15,157131.3231115,-1.276611328125,2.213333129882812,-0.05743408203125,157131.3139865,9.506528484119324,-3.621043941481739,7.626718119191481,157131.3074255,-87.58241271972656,-50.13131713867188,-580.987548828125,157131.3139865,-1.417747039248989,-0.9181200047112265,-0.2837054868467696,9.504092216491699,-3.627142190933228,7.623722553253174,-0.2979205846786499,1.918525576591492,0.5019063353538513,1,-0.3817634284496307,-0.2504756152629852,-0.5301675200462341,0.7144516110420227,-0.7627025246620178,0.279914915561676,-0.5830373167991638,0,0,0,-1,157130.03235925,1,2,1561827192.732415,1561827055.717469,12,1.562096,0,0,11.78992,0,0,1561827143.457785,157128.50808,0,0.6420898,75.37023,0,182478453,5,1,0.19,-5.271724,-14.91261,0
1561827194.014986,112,0,0,1561827192.998298,4.634655299600805,-74.15111300542405,2552.722,0.63,214.1015625,4,10,-9999,1561827193.998895,-2.575309753417969,-18.83766555786133,-21.87738037109375,204.4782562255859,211.9714508056641,15,157131.3433745,-1.823898315429688,2.330474853515625,0.166290283203125,157131.3342505,11.53456933005654,-3.684133961389608,8.797802728505257,157131.3275365,-92.31515502929688,-51.81207275390625,-575.89794921875,157131.3342505,-1.133184445128753,-0.9102036287851636,-0.2861386162151318,11.53213214874268,-3.690232276916504,8.794807434082031,-0.7800745964050293,1.955451488494873,0.6202380657196045,1,-0.3415808081626892,-0.2983353435993195,-0.4243217706680298,0.783753514289856,-0.7575231194496155,0.2822499573230743,-0.5886371731758118,0,0,0,-1,157130.03235925,1,2,1561827192.732415,1561827055.717469,12,1.562096,0,0,11.78992,0,0,1561827143.457785,157128.50808,0,0.6420898,75.37023,0,182478453,5,1,0.19,-5.271724,-14.91261,0
1561827194.035114,113,0,0,1561827192.998298,4.634655299600805,-74.15111300542405,2552.722,0.63,214.1015625,4,10,-9999,1561827194.033256,-20.12405395507812,-22.6494255065918,-3.46099853515625,146.2366485595703,153.7298431396484,15,157131.3636075,-2.221389770507812,2.40142822265625,0.49896240234375,157131.3544835,13.52971907126684,-5.343495308131743,8.349152230200621,157131.3476475,-97.47877502441406,-51.39546203613281,-569.296875,157131.3544835,-0.8138152530867053,-0.910321133621171,-0.2700180533900582,13.52728271484375,-5.349593639373779,8.346157073974609,-1.308462738990784,2.128499507904053,0.9426118135452271,1,-0.283424973487854,-0.3521914482116699,-0.2979038655757904,0.8407643437385559,-0.7610868215560913,0.26674884557724,-0.5912629365921021,0,0,0,-1,157130.03235925,1,2,1561827192.732415,1561827055.717469,12,1.562096,0,0,11.78992,0,0,1561827143.457785,157128.50808,0,0.6420898,75.37023,0,182478453,5,1,0.19,-5.271724,-15.77938,0
1561827194.070578,114,0,0,1561827193.998286,4.634656431157733,-74.15112021386078,2552.761,0.63,211.2890625,4,10,-9999,1561827194.033256,-20.12405395507812,-22.6494255065918,-3.46099853515625,146.2366485595703,153.7298431396484,15,157131.3838715,-2.48162841796875,2.095428466796875,0.893829345703125,157131.3747465,17.37757139330129,-7.783373243993212,6.824853630774073,157131.3677885,-101.4870758056641,-49.14860534667969,-560.8922729492188,157131.3747465,-0.4625325086254781,-0.9595601644690445,-0.2087202923648969,17.37513542175293,-7.789471626281738,6.821857929229736,-1.538891673088074,2.081366062164307,1.253334999084473,1,-0.1951735317707062,-0.4256696701049805,-0.1554218977689743,0.8698026537895203,-0.8011656999588013,0.2072081416845322,-0.5614252686500549,0,0,0,-1,157130.03235925,1,2,1561827192.732415,1561827055.717469,12,1.562096,0,0,11.78992,0,0,1561827143.457785,157128.50808,0,0.6420898,75.37023,0,182478453,5,1,0.19,-5.271724,-17.84509,0
1561827194.078839,115,0,0,1561827193.998286,4.634656431157733,-74.15112021386078,2552.761,0.63,211.2890625,4,10,-9999,1561827194.033256,-20.12405395507812,-22.6494255065918,-3.46099853515625,146.2366485595703,153.7298431396484,15,157131.4041355,-2.522064208984375,1.589874267578125,1.422744750976562,157131.3950105,22.30404656739527,-8.689160669732129,4.704043698792818,157131.3878995,-102.5993194580078,-43.22695922851562,-550.58154296875,157131.3950105,-0.05250857739672213,-1.06633189613983,-0.09566039458898708,22.30161094665527,-8.695259094238281,4.701048374176025,-1.729765295982361,1.701680898666382,1.65146279335022,1,-0.05448885634541512,-0.5064252614974976,0.00171084888279438,0.860558807849884,-0.8714309930801392,0.09551456570625305,-0.4811288416385651,0,0,0,-1,157130.03235925,1,2,1561827192.732415,1561827055.717469,12,1.562096,0,0,11.78992,0,0,1561827143.457785,157128.50808,0,0.6420898,75.37023,0,182478453,5,1,0.19,-5.271724,-17.84509,0
1561827194.09607,116,0,0,1561827193.998286,4.634656431157733,-74.15112021386078,2552.761,0.63,211.2890625,4,10,-9999,1561827194.068693,-23.25366973876953,-19.24540328979492,5.47052001953125,119.0397644042969,126.532958984375,15,157131.4243985,-2.141983032226562,1.447662353515625,1.713241577148438,157131.4152745,24.66829232619514,-8.343155324057982,0.7569111281651977,157131.4080105,-100.3054809570312,-33.16065979003906,-542.8132934570312,157131.4152745,0.4110945951487882,-1.230831700828379,0.05265041796236177,24.66585731506348,-8.34925365447998,0.7539154291152954,-1.419379830360413,1.567335605621338,1.954680442810059,1,0.1388279348611832,-0.5605630874633789,0.1517232954502106,0.8021694421768188,-0.9414600133895874,-0.05262609571218491,-0.3329916596412659,0,0,0,-1,157130.03235925,1,2,1561827192.732415,1561827055.717469,12,1.562096,0,0,11.78992,0,0,1561827143.457785,157128.50808,0,0.6420898,75.37023,0,182478453,5,1,0.19,-5.271724,-18.93829,0
1561827194.115916,117,0,0,1561827193.998286,4.634656431157733,-74.15112021386078,2552.761,0.63,211.2890625,4,10,-9999,1561827194.112699,-16.97386169433594,9.626447677612305,21.62103271484375,52.74406051635742,60.23725509643555,15,157131.4446625,-1.458511352539062,1.308334350585938,1.421600341796875,157131.4355375,22.67923057123676,-7.275050893039825,-1.408672667010797,157131.4281225,-96.38331604003906,-21.81019592285156,-540.8922119140625,157131.4355375,0.8855895346825228,-1.447490302277083,0.1781911365920764,22.67679405212402,-7.281148910522461,-1.411668300628662,-0.8163361549377441,1.534473180770874,1.743574380874634,1,0.3428467810153961,-0.5673913359642029,0.2665514349937439,0.6996238827705383,-0.9766936898231506,-0.1772496402263641,-0.1210463121533394,0,0,0,-1,157130.03235925,1,2,1561827192.732415,1561827055.717469,12,1.562096,0,0,11.78992,0,0,1561827143.457785,157128.50808,0,0.6420898,75.37023,0,182478453,5,1,0.19,-5.271724,-19.5151,0
1561827194.139792,118,0,0,1561827193.998286,4.634656431157733,-74.15112021386078,2552.761,0.63,211.2890625,4,10,-9999,1561827194.13449,-14.96158599853516,17.36135101318359,18.13958740234375,26.10380935668945,33.59700393676758,15,157131.4649265,-1.049362182617188,1.2921142578125,1.048309326171875,157131.4558015,16.43349783109918,-5.000998943509884,-1.656926418557476,157131.4482335,-94.05302429199219,-12.78279113769531,-544.0389404296875,157131.4558015,1.29389498852105,-1.657164812179293,0.2174621407549541,16.43106269836426,-5.007097244262695,-1.659922122955322,-0.2231601476669312,1.520073533058167,1.117033958435059,1,0.5001174807548523,-0.5403677225112915,0.341194361448288,0.5843557715415955,-0.9728085398674011,-0.2157522290945053,0.08422954380512238,0,0,0,-1,157130.03235925,1,2,1561827192.732415,1561827055.717469,12,1.562096,0,0,11.78992,0,0,1561827143.457785,157128.50808,0,0.6420898,75.37023,0,182478453,5,1,0.19,-5.271724,-12.78013,0
1561827194.156373,119,0,0,1561827193.998286,4.634656431157733,-74.15112021386078,2552.761,0.63,211.2890625,4,10,-9999,1561827194.13449,-14.96158599853516,17.36135101318359,18.13958740234375,26.10380935668945,33.59700393676758,15,157131.4851895,-0.9078216552734375,1.452743530273438,1.01702880859375,157131.4760655,9.240889883292716,-1.463634719271743,-2.020867621541089,157131.4683445,-93.20692443847656,-7.930648803710938,-548.1111450195312,157131.4760655,1.560417223805563,-1.780111347085353,0.2154746917180091,9.238452911376953,-1.469733119010925,-2.023863315582275,-0.01737761497497559,1.529210329055786,0.7749662399291992,1,0.5915704369544983,-0.5015344619750977,0.3807557821273804,0.5035203099250793,-0.9555532932281494,-0.2138111740350723,0.2029847949743271,0,0,0,-1,157130.03235925,1,2,1561827192.732415,1561827055.717469,12,1.562096,0,0,11.78992,0,0,1561827143.457785,157128.50808,0,0.6420898,75.37023,0,182478453,5,1,0.19,-5.271724,-12.78013,0
1561827194.17864,120,0,0,1561827193.998286,4.634656431157733,-74.15112021386078,2552.761,0.63,211.2890625,4,10,-9999,1561827194.162887,-14.68856811523438,20.936767578125,14.06573486328125,11.76376056671143,19.25695610046387,15,157131.5054535,-0.5561065673828125,1.7523193359375,1.278274536132812,157131.4963285,5.967718962357596,-0.5313397859388321,-2.318003694896173,157131.4884555,-94.32073974609375,-6.034042358398438,-551.3365478515625,157131.4963285,1.71675406069259,-1.827601710357524,0.2249328229312849,5.965276718139648,-0.5374463796615601,-2.320998191833496,0.1915751695632935,1.840487718582153,0.88795006275177,1,0.6402623057365417,-0.4624511301517487,0.4011886417865753,0.4639513790607452,-0.9428415894508362,-0.2230408787727356,0.2475937306880951,0,0,0,-1,157130.03235925,1,2,1561827192.732415,1561827055.717469,12,1.562096,0,0,11.78992,0,0,1561827143.457785,157128.50808,0,0.6420898,75.37023,0,182478453,5,1,0.19,-5.271724,-13.7019,0
1561827194.197187,121,0,0,1561827193.998286,4.634656431157733,-74.15112021386078,2552.761,0.63,211.2890625,4,10,-9999,1561827194.185082,-15.72021484375,22.46191024780273,11.3162841796875,2.413968086242676,9.907163619995117,15,157131.5257175,-0.3113861083984375,1.8743896484375,1.349029541015625,157131.5165925,5.614871955843036,-2.111178343582875,-1.897112123581761,157131.5085665,-94.89767456054688,-5.392822265625,-553.71142578125,157131.5165925,1.844386279340724,-1.883445677757211,0.2347671010071257,5.612429618835449,-2.117285013198853,-1.900106549263,0.5222983360290527,2.082576751708984,1.054418206214905,1,0.6815668940544128,-0.4301606416702271,0.4084795117378235,0.4284539818763733,-0.9254202842712402,-0.2326164841651917,0.2991432249546051,0,0,0,-1,157130.03235925,1,2,1561827192.732415,1561827055.717469,12,1.562096,0,0,11.78992,0,0,1561827143.457785,157128.50808,0,0.6420898,75.37023,0,182478453,5,1,0.19,-5.271724,-14.70988,0
1561827194.219176,122,0,0,1561827193.998286,4.634656431157733,-74.15112021386078,2552.761,0.63,211.2890625,4,10,-9999,1561827194.212988,-16.71810150146484,23.49847602844238,7.41375732421875,354.9352722167969,2.428473472595215,15,157131.5459805,-0.175567626953125,1.786575317382812,1.1973876953125,157131.5368565,3.875339340277373,-2.136577443531178,-0.7847627331613554,157131.5287085,-95.08181762695312,-5.110183715820312,-555.4940185546875,157131.5368565,1.951154704242943,-1.955003215567652,0.2271588519941559,3.872896671295166,-2.142683982849121,-0.7877571582794189,0.6564528942108154,2.054876327514648,0.9206938743591309,1,0.7176236510276794,-0.4094065129756927,0.4072765707969666,0.3892664611339569,-0.9032790660858154,-0.2252102792263031,0.3651947975158691,0,0,0,-1,157130.03235925,1,2,1561827192.732415,1561827055.717469,12,1.562096,0,0,11.78992,0,0,1561827143.457785,157128.50808,0,0.6420898,75.37023,0,182478453,5,1,0.19,-5.271724,-14.85676,0
1561827194.237432,123,0,0,1561827193.998286,4.634656431157733,-74.15112021386078,2552.761,0.63,211.2890625,4,10,-9999,1561827194.235723,-16.34387969970703,23.67588806152344,7.183349609375,353.9549865722656,1.448174238204956,15,157131.5662445,-0.0391387939453125,1.809951782226562,1.092453002929688,157131.5571195,-0.02484329822880417,-0.4753518840259873,0.7989448649143543,157131.5488195,-95.38539123535156,-4.754959106445312,-556.1832275390625,157131.5571195,1.98933564564269,-1.990665075138015,0.2120250736061825,-0.02728587202727795,-0.4814584851264954,0.7959504127502441,0.8061465620994568,1.982900977134705,0.7283340692520142,1,0.7309391498565674,-0.4061823487281799,0.4054510295391083,0.3692606687545776,-0.8926944136619568,-0.2104400545358658,0.3985122740268707,0,0,0,-1,157130.03235925,1,2,1561827192.732415,1561827055.717469,12,1.562096,0,0,11.78992,0,0,1561827143.457785,157128.50808,0,0.6420898,75.37023,0,182478453,5,1,0.19,-5.271724,-15.43649,0
