loggingTime,loggingSample,identifierForVendor,deviceID,locationTimestamp_since1970,locationLatitude,locationLongitude,locationAltitude,locationSpeed,locationCourse,locationVerticalAccuracy,locationHorizontalAccuracy,locationFloor,locationHeadingTimestamp_since1970,locationHeadingX,locationHeadingY,locationHeadingZ,locationTrueHeading,locationMagneticHeading,locationHeadingAccuracy,accelerometerTimestamp_sinceReboot,accelerometerAccelerationX,accelerometerAccelerationY,accelerometerAccelerationZ,gyroTimestamp_sinceReboot,gyroRotationX,gyroRotationY,gyroRotationZ,magnetometerTimestamp_sinceReboot,magnetometerX,magnetometerY,magnetometerZ,motionTimestamp_sinceReboot,motionYaw,motionRoll,motionPitch,motionRotationRateX,motionRotationRateY,motionRotationRateZ,motionUserAccelerationX,motionUserAccelerationY,motionUserAccelerationZ,motionAttitudeReferenceFrame,motionQuaternionX,motionQuaternionY,motionQuaternionZ,motionQuaternionW,motionGravityX,motionGravityY,motionGravityZ,motionMagneticFieldX,motionMagneticFieldY,motionMagneticFieldZ,motionMagneticFieldCalibrationAccuracy,activityTimestamp_sinceReboot,activity,activityActivityConfidence,activityActivityStartDate,pedometerStartDate,pedometerNumberofSteps,pedometerAverageActivePace,pedometerCurrentPace,pedometerCurrentCadence,pedometerDistance,pedometerFloorAscended,pedometerFloorDescended,pedometerEndDate,altimeterTimestamp_sinceReboot,altimeterReset,altimeterRelativeAltitude,altimeterPressure,IP_en0,IP_pdp_ip0,deviceOrientation,batteryState,batteryLevel,avAudioRecorderPeakPower,avAudioRecorderAveragePower,label
1561243394.691289,1,0,0,1561243393.990304,4.602342559960301,-74.06501426368399,2657.086,0,292.1484375,3,10,-9999,1561243394.673891,-20.86527252197266,1.519650220870972,24.72079467773438,112.2085189819336,119.7522048950195,20,65494.564909,-0.76666259765625,0.636383056640625,0.074737548828125,65494.559843,0.01862588234790518,-0.009917878215564091,0.001590972435213337,65494.55160400001,17.10073852539062,3.475387573242188,-510.1475219726562,65494.559843,-1.18559281024148,-1.672254004148821,-0.6933693488106678,0.01744408905506134,-0.01540177501738071,-0.001009193132631481,-0.0001017451286315918,-0.003466248512268066,-0.004258155822753906,1,-0.5788146257400513,-0.451577365398407,-0.1431098282337189,0.6637552380561829,-0.7651417851448059,0.6391321420669556,0.07789697498083115,0,0,0,-1,65494.337828,3,2,1561243394.45923,1561243107.271691,28,1.054203,0,0,24.53997,0,0,1561243350.380748,65491.722875,0,-3.783936,74.58327,2650634390,177292352,1,1,0.15,-24.82957,-31.32293,2
1561243394.698194,2,0,0,1561243393.990304,4.602342559960301,-74.06501426368399,2657.086,0,292.1484375,3,10,-9999,1561243394.673891,-20.86527252197266,1.519650220870972,24.72079467773438,112.2085189819336,119.7522048950195,20,65494.58517300001,-0.7670440673828125,0.6356353759765625,0.0742034912109375,65494.580107,0.02815893378595282,-0.02602014911451019,0.002182460513319936,65494.571684,17.18345642089844,3.459869384765625,-510.1199340820312,65494.580107,-1.184965987146999,-1.672429544944432,-0.693421124509163,0.02697714045643806,-0.03150404617190361,-0.0004177051596343517,-0.001307845115661621,-0.003307759761810303,-0.004205942153930664,1,-0.5786954760551453,-0.451802521944046,-0.1428327560424805,0.6637656688690186,-0.7650953531265259,0.6391719579696655,0.07802794873714447,0,0,0,-1,65494.337828,3,2,1561243394.45923,1561243107.271691,28,1.054203,0,0,24.53997,0,0,1561243350.380748,65491.722875,0,-3.783936,74.58327,2650634390,177292352,1,1,0.15,-24.82957,-31.32293,2
1561243394.718649,3,0,0,1561243393.990304,4.602342559960301,-74.06501426368399,2657.086,0,292.1484375,3,10,-9999,1561243394.710511,-20.95347595214844,1.537130117416382,24.8909912109375,112.1447525024414,119.6884384155273,20,65494.60543700001,-0.76568603515625,0.63531494140625,0.0760955810546875,65494.600371,0.00628532648869601,0.01860803916860165,0.009174057323104961,65494.59179500001,17.2880859375,3.64288330078125,-510.1805419921875,65494.600371,-1.184511438807446,-1.672389490172829,-0.6934996505373932,0.005103534553200006,0.01312414277344942,0.00657389173284173,-0.003612995147705078,-0.003398597240447998,-0.00252223014831543,1,-0.5786049365997314,-0.4518986940383911,-0.1426657438278198,0.6638150215148926,-0.7650485038757324,0.6392323970794678,0.07799220830202103,0,0,0,-1,65494.337828,3,2,1561243394.45923,1561243107.271691,28,1.054203,0,0,24.53997,0,0,1561243350.380748,65491.722875,0,-3.783936,74.58327,2650634390,177292352,1,1,0.15,-25.38685,-28.01251,2
1561243394.743352,4,0,0,1561243393.990304,4.602342559960301,-74.06501426368399,2657.086,0,292.1484375,3,10,-9999,1561243394.740541,-20.70458221435547,1.473914384841919,24.77627563476562,112.1655960083008,119.7092819213867,20,65494.6257,-0.7640228271484375,0.6361083984375,0.0765380859375,65494.620604,-0.01833293462799647,0.03155446417580385,0.01379650602715549,65494.611876,17.44978332519531,3.493682861328125,-510.302978515625,65494.620604,-1.184781798544286,-1.672104329320146,-0.6936913204393379,-0.01951472647488117,0.02607056871056557,0.01119633950293064,-0.000462651252746582,-0.003576517105102539,-0.002459526062011719,1,-0.5786823034286499,-0.4516720175743103,-0.1427702903747559,0.6638793349266052,-0.7649487257003784,0.6393797397613525,0.07776164263486862,0,0,0,-1,65494.337828,3,2,1561243394.45923,1561243107.271691,28,1.054203,0,0,24.53997,0,0,1561243350.380748,65491.722875,0,-3.783936,74.58327,2650634390,177292352,1,1,0.15,-25.94413,-28.69801,2
1561243394.75899,5,0,0,1561243393.990304,4.602342559960301,-74.06501426368399,2657.086,0,292.1484375,3,10,-9999,1561243394.740541,-20.70458221435547,1.473914384841919,24.77627563476562,112.1655960083008,119.7092819213867,20,65494.64593300001,-0.7620086669921875,0.63458251953125,0.076080322265625,65494.640868,-0.003310575551077501,0.006088785200248162,0.0103013734125355,65494.631987,17.19561767578125,3.538116455078125,-510.106201171875,65494.640868,-1.185145772834648,-1.672039839276341,-0.6938349593017574,-0.004492367617785931,0.0006048888899385929,0.007701207417994738,0.001510858535766602,-0.003534376621246338,-0.001485347747802734,1,-0.5787873268127441,-0.4515049755573273,-0.1428590565919876,0.663882315158844,-0.7648623585700989,0.6394901871681213,0.07770302891731262,0,0,0,-1,65494.337828,3,2,1561243394.45923,1561243107.271691,28,1.054203,0,0,24.53997,0,0,1561243350.380748,65491.722875,0,-3.783936,74.58327,2650634390,177292352,1,1,0.15,-26.50141,-29.43567,2
1561243394.779258,6,0,0,1561243393.990304,4.602342559960301,-74.06501426368399,2657.086,0,292.1484375,3,10,-9999,1561243394.761755,-20.91546249389648,1.435230016708374,24.95217895507812,112.1845855712891,119.728271484375,20,65494.66619700001,-0.7625274658203125,0.631195068359375,0.07373046875,65494.661131,0.01060657167345858,-0.005793174319249367,0.01167236874170829,65494.652068,17.3779296875,3.622955322265625,-510.2935791015625,65494.661131,-1.185035489859504,-1.672109320359275,-0.6939754636636322,0.009424779564142227,-0.01127707026898861,0.009072203189134598,0.00252997875213623,-0.007273972034454346,-0.002658605575561523,1,-0.5787942409515381,-0.4515205025672913,-0.1427527219057083,0.6638885736465454,-0.7647675275802612,0.6395981907844543,0.07774707674980164,0,0,0,-1,65494.656706,2,0,1561243394.778108,1561243107.271691,28,1.054203,0,0,24.53997,0,0,1561243350.380748,65491.722875,0,-3.783936,74.58327,2650634390,177292352,1,1,0.15,-26.50141,-29.43567,2
1561243394.79951,7,0,0,1561243393.990304,4.602342559960301,-74.06501426368399,2657.086,0,292.1484375,3,10,-9999,1561243394.787648,-20.84633636474609,1.398196220397949,24.90618896484375,112.1700210571289,119.7137069702148,20,65494.686461,-0.7669219970703125,0.6334228515625,0.0727081298828125,65494.68139500001,0.01249422025410675,-0.001873533826870744,0.002694586390942173,65494.672179,17.30461120605469,3.584365844726562,-510.3062744140625,65494.68139500001,-1.184735524114745,-1.672098483704133,-0.6941150122757741,0.01131242886185646,-0.007357430178672075,9.442074224352837e-05,-0.0001061558723449707,-0.008556127548217773,-0.00644075870513916,1,-0.5787523984909058,-0.4515645503997803,-0.1426070183515549,0.6639264225959778,-0.7646795511245728,0.63970547914505,0.07772976160049438,0,0,0,-1,65494.656706,2,0,1561243394.778108,1561243107.271691,28,1.054203,0,0,24.53997,0,0,1561243350.380748,65491.722875,0,-3.783936,74.58327,2650634390,177292352,1,1,0.15,-27.05868,-29.80376,2
1561243394.827237,8,0,0,1561243393.990304,4.602342559960301,-74.06501426368399,2657.086,0,292.1484375,3,10,-9999,1561243394.811931,-20.91548347473145,1.574799537658691,24.78213500976562,112.1600112915039,119.7036972045898,20,65494.706724,-0.7688140869140625,0.6412200927734375,0.074859619140625,65494.70165900001,-0.01147662640158747,0.01771082019735396,0.002083390920768988,65494.692259,17.45394897460938,3.377044677734375,-510.143310546875,65494.70165900001,-1.184657455882567,-1.671978238586457,-0.6940650900041239,-0.01265841908752918,0.01222692336887121,-0.0005167745985090733,-0.0036354660987854,-0.002292215824127197,-0.002674579620361328,1,-0.5787166357040405,-0.4515612721443176,-0.1426335573196411,0.6639541983604431,-0.7647208571434021,0.6396670937538147,0.07764105498790741,0,0,0,-1,65494.656706,2,0,1561243394.778108,1561243107.271691,28,1.054203,0,0,24.53997,0,0,1561243350.380748,65491.722875,0,-3.783936,74.58327,2650634390,177292352,1,1,0.15,-27.61596,-30.51581,2
1561243394.84008,9,0,0,1561243393.990304,4.602342559960301,-74.06501426368399,2657.086,0,292.1484375,3,10,-9999,1561243394.838292,-20.90291213989258,1.262082576751709,24.75665283203125,112.2160720825195,119.7597579956055,20,65494.726988,-0.764801025390625,0.6383819580078125,0.074493408203125,65494.721922,-0.03310362498190295,0.03530366235841741,0.005334577979537722,65494.71237,17.21864318847656,3.520599365234375,-510.4724731445312,65494.721922,-1.185401761494761,-1.672038790033474,-0.6940771926712885,-0.03428541868925095,0.02981976792216301,0.0027344124391675,-0.003632605075836182,0.0002314448356628418,-0.004490137100219727,1,-0.5788912773132324,-0.4513625800609589,-0.1428588479757309,0.6638886332511902,-0.7647084593772888,0.6396763920783997,0.07768657803535461,0,0,0,-1,65494.656706,2,0,1561243394.778108,1561243107.271691,28,1.054203,0,0,24.53997,0,0,1561243350.380748,65491.722875,0,-3.783936,74.58327,2650634390,177292352,1,1,0.15,-28.17324,-30.84943,2
1561243394.860252,10,0,0,1561243393.990304,4.602342559960301,-74.06501426368399,2657.086,0,292.1484375,3,10,-9999,1561243394.838292,-20.90291213989258,1.262082576751709,24.75665283203125,112.2160720825195,119.7597579956055,20,65494.74722100001,-0.760711669921875,0.635101318359375,0.076507568359375,65494.74215500001,-0.001207210922132919,0.01487375468809255,0.007953530595521644,65494.732451,16.97503662109375,3.345947265625,-510.4793701171875,65494.74215500001,-1.185979615013845,-1.671991330188392,-0.6941401229481147,-0.002389003057032824,0.009389857761561871,0.005353364627808332,0.00103074312210083,-0.003387451171875,-0.003793716430664062,1,-0.5790302753448486,-0.4511618912220001,-0.14304219186306,0.6638643741607666,-0.7646721601486206,0.6397247910499573,0.07764622569084167,0,0,0,-1,65494.656706,2,0,1561243394.778108,1561243107.271691,28,1.054203,0,0,24.53997,0,0,1561243350.380748,65491.722875,0,-3.783936,74.58327,2650634390,177292352,1,1,0.15,-27.58568,-31.71191,2
1561243394.880538,11,0,0,1561243393.990304,4.602342559960301,-74.06501426368399,2657.086,0,292.1484375,3,10,-9999,1561243394.862516,-20.96311187744141,1.411069869995117,24.76834106445312,112.2442245483398,119.7879104614258,20,65494.767485,-0.7631683349609375,0.63201904296875,0.0773773193359375,65494.76241900001,0.01656033460643973,-0.01886876263932041,0.01079725400750826,65494.752562,17.23208618164062,3.486221313476562,-510.2230224609375,65494.76241900001,-1.185809634524203,-1.672078945344859,-0.6942678650730786,0.01537854224443436,-0.02435265854001045,0.008197087794542313,0.002666831016540527,-0.006949424743652344,-0.001670360565185547,1,-0.5790225863456726,-0.4512042999267578,-0.1429152935743332,0.6638695597648621,-0.764583945274353,0.6398229598999023,0.07770495116710663,0,0,0,-1,65494.656706,2,0,1561243394.778108,1561243107.271691,28,1.054203,0,0,24.53997,0,0,1561243350.380748,65491.722875,0,-3.783936,74.58327,2650634390,177292352,1,1,0.15,-27.58568,-32.00069,2
1561243394.909742,12,0,0,1561243393.990304,4.602342559960301,-74.06501426368399,2657.086,0,292.1484375,3,10,-9999,1561243394.888926,-20.91446113586426,1.353269577026367,24.83648681640625,112.223030090332,119.766716003418,20,65494.787749,-0.7678070068359375,0.633453369140625,0.078765869140625,65494.782683,0.01088034463351873,-0.02154523953485004,0.001015729639756221,65494.772642,17.31585693359375,3.361297607421875,-510.2316589355469,65494.782683,-1.185467431557192,-1.672391309580721,-0.6943212173738821,0.009698553010821342,-0.0270291343331337,-0.00158443592954427,-0.0007027387619018555,-0.007402420043945312,0.0003373622894287109,1,-0.5789778828620911,-0.4513920247554779,-0.1426924020051956,0.6638287901878357,-0.7645255327224731,0.6398639678955078,0.07794030010700226,0,0,0,-1,65494.656706,2,0,1561243394.778108,1561243107.271691,28,1.054203,0,0,24.53997,0,0,1561243350.380748,65491.722875,0,-3.783936,74.58327,2650634390,177292352,1,1,0.15,-27.34864,-31.28021,2
1561243394.921246,13,0,0,1561243393.990304,4.602342559960301,-74.06501426368399,2657.086,0,292.1484375,3,10,-9999,1561243394.913191,-20.90716361999512,1.313153266906738,24.76971435546875,112.2260208129883,119.7697067260742,20,65494.808012,-0.7704925537109375,0.6346282958984375,0.074554443359375,65494.802946,-0.02052764568233077,0.009105347766980916,0.0009084042478260282,65494.792754,17.17774963378906,3.628570556640625,-510.2697143554688,65494.802946,-1.185610278554337,-1.672730196524447,-0.6942278358029664,-0.02170943841338158,0.003621451556682587,-0.001691761310212314,-0.004468977451324463,-0.005179107189178467,0.0001789331436157227,1,-0.5790164470672607,-0.4514894187450409,-0.1426747292280197,0.6637328267097473,-0.764558732509613,0.6397922039031982,0.07820548117160797,0,0,0,-1,65494.656706,2,0,1561243394.778108,1561243107.271691,28,1.054203,0,0,24.53997,0,0,1561243350.380748,65491.722875,0,-3.783936,74.58327,2650634390,177292352,1,1,0.15,-27.34864,-31.28021,2
1561243394.941324,14,0,0,1561243393.990304,4.602342559960301,-74.06501426368399,2657.086,0,292.1484375,3,10,-9999,1561243394.9395,-20.90990447998047,1.583646059036255,24.78826904296875,112.2744979858398,119.8181838989258,20,65494.82827600001,-0.7669830322265625,0.6340179443359375,0.06903076171875,65494.82321,-0.02332023640138786,0.02393595924541418,-0.007255249757702868,65494.812834,17.19265747070312,3.592041015625,-510.3013305664062,65494.82321,-1.186260265795813,-1.672847701112144,-0.6940943175887381,-0.02450202777981758,0.01845206320285797,-0.009855415672063828,-0.002440094947814941,-0.00457298755645752,-0.006892919540405273,1,-0.5791460871696472,-0.4513776898384094,-0.1429035365581512,0.6636464595794678,-0.7646344304084778,0.639689564704895,0.07830401510000229,0,0,0,-1,65494.656706,2,0,1561243394.778108,1561243107.271691,28,1.054203,0,0,24.53997,0,0,1561243350.380748,65491.722875,0,-3.783936,74.58327,2650634390,177292352,1,1,0.15,-27.34864,-32.12029,2
1561243394.9617,15,0,0,1561243393.990304,4.602342559960301,-74.06501426368399,2657.086,0,292.1484375,3,10,-9999,1561243394.9395,-20.90990447998047,1.583646059036255,24.78826904296875,112.2744979858398,119.8181838989258,20,65494.84854000001,-0.763885498046875,0.634521484375,0.070404052734375,65494.84344300001,-0.009349293322832174,0.01119486395825709,-0.01439118989857019,65494.83291500001,17.32223510742188,3.32598876953125,-510.2539672851562,65494.84344300001,-1.186650480763744,-1.672869715734416,-0.693731138223154,-0.01053108461201191,0.005710967816412449,-0.01699135452508926,-0.002210855484008789,-0.00525510311126709,-0.008199930191040039,1,-0.5791664719581604,-0.451373964548111,-0.1431548595428467,0.6635770201683044,-0.7648637890815735,0.6394103765487671,0.07834451645612717,0,0,0,-1,65494.656706,2,0,1561243394.778108,1561243107.271691,28,1.054203,0,0,24.53997,0,0,1561243350.380748,65491.722875,0,-3.783936,74.58327,2650634390,177292352,1,1,0.15,-27.34864,-28.69512,2
1561243394.997974,16,0,0,1561243393.990304,4.602342559960301,-74.06501426368399,2657.086,0,292.1484375,3,10,-9999,1561243394.990156,-21.07093238830566,1.367342948913574,24.83560180664062,112.2986068725586,119.8422927856445,20,65494.868773,-0.762115478515625,0.6349639892578125,0.0713043212890625,65494.863707,4.02137324601965e-05,0.001847434848187968,-0.009160741517654563,65494.853026,17.14913940429688,3.625350952148438,-510.3294372558594,65494.863707,-1.186806632433269,-1.672953996235599,-0.6933901909132423,-0.001141578308306634,-0.003636461682617664,-0.01176090724766254,0.002897381782531738,-0.005099713802337646,-0.008469700813293457,1,-0.5791427493095398,-0.4514524042606354,-0.1433026045560837,0.6635124087333679,-0.7650738954544067,0.6391481757164001,0.07843119651079178,0,0,0,-1,65494.656706,2,0,1561243394.778108,1561243107.271691,28,1.054203,0,0,24.53997,0,0,1561243350.380748,65491.722875,0,-3.783936,74.58327,2650634390,177292352,1,1,0.15,-27.34864,-30.17355,2
1561243395.00237,17,0,0,1561243393.990304,4.602342559960301,-74.06501426368399,2657.086,0,292.1484375,3,10,-9999,1561243394.990156,-21.07093238830566,1.367342948913574,24.83560180664062,112.2986068725586,119.8422927856445,20,65494.889037,-0.7642364501953125,0.638153076171875,0.07476806640625,65494.883971,0.02380040434592914,-0.01518161611010571,0.002457831370034129,65494.87310600001,17.17071533203125,3.849929809570312,-510.2348022460938,65494.883971,-1.186521668005057,-1.67300393262848,-0.6932373137449284,0.02261861227452755,-0.02066551148891449,-0.0001423342619091272,0.002319395542144775,-0.002967953681945801,-0.005344033241271973,1,-0.5790528059005737,-0.4515944421291351,-0.1432476192712784,0.6635062098503113,-0.7651672959327698,0.6390306353569031,0.07847938686609268,0,0,0,-1,65494.656706,2,0,1561243394.778108,1561243107.271691,28,1.054203,0,0,24.53997,0,0,1561243350.380748,65491.722875,0,-3.783936,74.58327,2650634390,177292352,1,1,0.15,-27.34864,-30.17355,2
1561243395.022305,18,0,0,1561243393.990304,4.602342559960301,-74.06501426368399,2657.086,0,292.1484375,3,10,-9999,1561243395.014406,-20.99461555480957,1.576976299285889,24.74200439453125,112.254035949707,119.797721862793,20,65494.90929325001,-0.762603759765625,0.6356964111328125,0.075927734375,65494.90422725,0.02169064813036837,-0.0127448237126832,0.002101234100072519,65494.89321025,17.37403869628906,3.486312866210938,-510.1854858398438,65494.90422725,-1.185836157858924,-1.672948047845994,-0.6932890782632602,0.02050885558128357,-0.01822872087359428,-0.0004989313893020153,0.001131296157836914,-0.0002764463424682617,-0.00165104866027832,1,-0.57890385389328,-0.4517598450183868,-0.1430181115865707,0.663573145866394,-0.7651388645172119,0.639070451259613,0.07843326032161713,0,0,0,-1,65494.656706,2,0,1561243394.778108,1561243107.271691,28,1.054203,0,0,24.53997,0,0,1561243350.380748,65491.722875,0,-3.783936,74.58327,2650634390,177292352,1,1,0.15,-27.34864,-30.82158,2
1561243395.042535,19,0,0,1561243393.990304,4.602342559960301,-74.06501426368399,2657.086,0,292.1484375,3,10,-9999,1561243395.014406,-20.99461555480957,1.576976299285889,24.74200439453125,112.254035949707,119.797721862793,20,65494.92955725001,-0.764129638671875,0.63336181640625,0.077880859375,65494.92449125001,0.00334013663917738,0.0004838963700673976,-0.002878344506157641,65494.91329125001,17.20585632324219,3.502853393554688,-510.3380126953125,65494.92449125001,-1.185560989939675,-1.672986958274305,-0.6932645478344303,0.002158344723284245,-0.004999999888241291,-0.005478509701788425,0.0008994340896606445,-0.005903363227844238,-0.003101468086242676,1,-0.5788398385047913,-0.4518592059612274,-0.1429241448640823,0.6635814309120178,-0.7651511430740356,0.6390515565872192,0.07846460491418839,0,0,0,-1,65494.656706,2,0,1561243394.778108,1561243107.271691,28,1.054203,0,0,24.53997,0,0,1561243350.380748,65491.722875,0,-3.783936,74.58327,2650634390,177292352,1,1,0.15,-27.34864,-31.22556,2
1561243395.076671,20,0,0,1561243394.990289,4.602342559960301,-74.06501426368399,2657.367,0,292.1484375,3,10,-9999,1561243395.014406,-20.99461555480957,1.576976299285889,24.74200439453125,112.254035949707,119.797721862793,20,65494.94982125,-0.7628631591796875,0.6357269287109375,0.0779571533203125,65494.94475525001,0.00461898659463343,-0.003120692165354851,-0.00422403980497468,65494.93340225,17.25827026367188,3.375045776367188,-510.2691650390625,65494.94475525001,-1.185448934515275,-1.672985570427784,-0.6930823607957297,0.003437194507569075,-0.00860458891838789,-0.006824205163866282,0.0008170008659362793,-0.003977954387664795,-0.0006861686706542969,1,-0.5787796378135681,-0.4519422948360443,-0.1429516971111298,0.6635714173316956,-0.765267014503479,0.6389114260673523,0.07847541570663452,0,0,0,-1,65494.656706,2,0,1561243394.778108,1561243107.271691,28,1.054203,0,0,24.53997,0,0,1561243350.380748,65491.722875,0,-3.783936,74.58327,2650634390,177292352,1,1,0.15,-27.34864,-32.06188,2
1561243395.083076,21,0,0,1561243394.990289,4.602342559960301,-74.06501426368399,2657.367,0,292.1484375,3,10,-9999,1561243395.014406,-20.99461555480957,1.576976299285889,24.74200439453125,112.254035949707,119.797721862793,20,65494.97008425,-0.764678955078125,0.6363067626953125,0.0768585205078125,65494.96498825,-0.0003624562243597843,-0.003764910833045019,-0.00106340022326864,65494.95348325001,17.2593994140625,3.275970458984375,-510.3130493164062,65494.96498825,-1.185378601835281,-1.673176078399877,-0.6930054411158082,-0.001544248196296394,-0.009248807094991207,-0.003663565730676055,0.002605795860290527,-0.002667546272277832,-0.001752495765686035,1,-0.5787626504898071,-0.4520474672317505,-0.1429004222154617,0.6635257005691528,-0.7653011083602905,0.6388522386550903,0.07862623780965805,0,0,0,-1,65494.656706,2,0,1561243394.778108,1561243107.271691,28,1.054203,0,0,24.53997,0,0,1561243350.380748,65491.722875,0,-3.783936,74.58327,2650634390,177292352,1,1,0.15,-27.34864,-32.66128,2
1561243395.103274,22,0,0,1561243394.990289,4.602342559960301,-74.06501426368399,2657.367,0,292.1484375,3,10,-9999,1561243395.099441,-20.76031875610352,1.303229093551636,24.68341064453125,112.229377746582,119.773063659668,20,65494.99031725001,-0.7661285400390625,0.63360595703125,0.0727386474609375,65494.98525125001,-0.007298126651253145,-0.002562227284765235,0.00439980843691991,65494.97359425,17.18400573730469,3.2271728515625,-510.2493896484375,65494.98525125001,-1.185496897523235,-1.673368412685025,-0.6930278067646807,-0.008479919284582138,-0.008046124130487442,0.001799643039703369,-0.0004601478576660156,-0.00265425443649292,-0.00288999080657959,1,-0.5788074135780334,-0.4520707428455353,-0.1428760886192322,0.6634759902954102,-0.7652716636657715,0.6388694643974304,0.07877195626497269,0,0,0,-1,65494.656706,2,0,1561243394.778108,1561243107.271691,28,1.054203,0,0,24.53997,0,0,1561243350.380748,65491.722875,0,-3.783936,74.58327,2650634390,177292352,1,1,0.15,-27.34864,-32.66128,2
1561243395.124438,23,0,0,1561243394.990289,4.602342559960301,-74.06501426368399,2657.367,0,292.1484375,3,10,-9999,1561243395.099441,-20.76031875610352,1.303229093551636,24.68341064453125,112.229377746582,119.773063659668,20,65495.01058125,-0.7672576904296875,0.6333770751953125,0.0762481689453125,65495.00551525001,0.004000334273408024,-0.01317039685487786,-0.005770803766092701,65494.99367425001,17.16587829589844,3.125030517578125,-510.175537109375,65495.00551525001,-1.185571407928465,-1.673720618437623,-0.6929567341865717,0.002818542066961527,-0.01865429431200027,-0.008370969444513321,-0.002655267715454102,-0.005895435810089111,-0.006673693656921387,1,-0.5788358449935913,-0.4521859586238861,-0.1428239792585373,0.6633839011192322,-0.7652890682220459,0.6388147473335266,0.07904615253210068,0,0,0,-1,65494.656706,2,0,1561243394.778108,1561243107.271691,28,1.054203,0,0,24.53997,0,0,1561243350.380748,65491.722875,0,-3.783936,74.58327,2650634390,177292352,1,1,0.15,-27.34864,-32.92117,2
1561243395.143869,24,0,0,1561243394.990289,4.602342559960301,-74.06501426368399,2657.367,0,292.1484375,3,10,-9999,1561243395.142159,-21.02802658081055,1.327999830245972,25.007568359375,112.2251586914062,119.7688446044922,20,65495.03084525,-0.768524169921875,0.6335601806640625,0.0728607177734375,65495.02577925001,0.01960539299683633,-0.026719761532874,-0.009142365706133016,65495.01375525,17.41136169433594,3.272857666015625,-510.1268310546875,65495.02577925001,-1.185251510671845,-1.674066427897043,-0.6927896928355278,0.0184259582310915,-0.03220008313655853,-0.01174298673868179,-0.002728939056396484,-0.005339682102203369,-0.005820274353027344,1,-0.5787562727928162,-0.4524401426315308,-0.1426768451929092,0.663311779499054,-0.7653679847717285,0.6386862397193909,0.07932180911302567,0,0,0,-1,65494.656706,2,0,1561243394.778108,1561243107.271691,28,1.054203,0,0,24.53997,0,0,1561243350.380748,65491.722875,0,-3.783936,74.58327,2650634390,177292352,1,1,0.15,-27.34864,-33.30753,2
1561243395.164066,25,0,0,1561243394.990289,4.602342559960301,-74.06501426368399,2657.367,0,292.1484375,3,10,-9999,1561243395.142159,-21.02802658081055,1.327999830245972,25.007568359375,112.2251586914062,119.7688446044922,20,65495.05110825,-0.7664794921875,0.6342926025390625,0.07220458984375,65495.04604225,0.02796185986528696,-0.0232813542494727,-0.007235009733418267,65495.03386625001,17.0050048828125,3.5242919921875,-510.072021484375,65495.04604225,-1.18457792386731,-1.67420533362127,-0.6925983498323547,0.02678242512047291,-0.02876167744398117,-0.009835631586611271,-0.0005279183387756348,-0.003040969371795654,-0.004748940467834473,1,-0.5785772204399109,-0.4527347683906555,-0.1424808502197266,0.6633090972900391,-0.7654785513877869,0.6385390162467957,0.07944074273109436,0,0,0,-1,65494.656706,2,0,1561243394.778108,1561243107.271691,28,1.054203,0,0,24.53997,0,0,1561243350.380748,65491.722875,0,-3.783936,74.58327,2650634390,177292352,1,1,0.15,-27.34864,-33.43814,2
1561243395.184549,26,0,0,1561243394.990289,4.602342559960301,-74.06501426368399,2657.367,0,292.1484375,3,10,-9999,1561243395.166452,-20.92754173278809,1.344642400741577,25.05545043945312,112.1755981445312,119.7192840576172,20,65495.07137225,-0.765167236328125,0.635650634765625,0.0786285400390625,65495.06630625,0.02518871022218745,-0.005150287232104239,-0.008099738139366996,65495.05394625,17.51808166503906,3.16400146484375,-509.9126586914062,65495.06630625,-1.183809595743823,-1.674136217559423,-0.6924261316893296,0.02400927618145943,-0.01063060946762562,-0.01070035994052887,7.510185241699219e-05,-0.004861533641815186,-0.004448056221008301,1,-0.5783654451370239,-0.4529823362827301,-0.1423068344593048,0.6633620858192444,-0.7655933499336243,0.6384064555168152,0.07939916849136353,0,0,0,-1,65494.656706,2,0,1561243394.778108,1561243107.271691,28,1.054203,0,0,24.53997,0,0,1561243350.380748,65491.722875,0,-3.783936,74.58327,2650634390,177292352,1,1,0.15,-27.34864,-33.04687,2
1561243395.206343,27,0,0,1561243394.990289,4.602342559960301,-74.06501426368399,2657.367,0,292.1484375,3,10,-9999,1561243395.192736,-20.80145454406738,1.337812185287476,25.04837036132812,112.1343002319336,119.6779861450195,20,65495.09163625001,-0.76409912109375,0.6367340087890625,0.0787506103515625,65495.08653925001,0.005478654994511009,-0.003262106019238059,0.005696501571679491,65495.07405825001,17.3233642578125,3.583099365234375,-510.1568908691406,65495.08653925001,-1.1834642544228,-1.674093077805568,-0.6923616901398111,0.004299220629036427,-0.008742428384721279,0.003095879685133696,-0.000231623649597168,-0.002904593944549561,-0.001016497611999512,1,-0.5782718658447266,-0.4530858993530273,-0.1422274857759476,0.6633898615837097,-0.7656375169754028,0.6383568644523621,0.07937036454677582,0,0,0,-1,65494.656706,2,0,1561243394.778108,1561243107.271691,28,1.054203,0,0,24.53997,0,0,1561243350.380748,65492.663664,0,-3.929199,74.58464,2650634390,177292352,1,1,0.15,-27.34864,-33.43475,2
1561243395.233985,28,0,0,1561243394.990289,4.602342559960301,-74.06501426368399,2657.367,0,292.1484375,3,10,-9999,1561243395.223901,-20.99126434326172,1.367941379547119,24.98263549804688,112.1285247802734,119.6722106933594,20,65495.11186925,-0.7628631591796875,0.6360626220703125,0.0805511474609375,65495.10680325,0.009373794404860903,-0.01620213943982407,0.004768123615677868,65495.09413825,17.178955078125,3.5284423828125,-510.2015075683594,65495.10680325,-1.183328340307972,-1.674276764803052,-0.6924210104160752,0.008194359950721264,-0.02168246172368526,0.002167501486837864,0.003454387187957764,-0.00192791223526001,-0.0009548664093017578,1,-0.5782654881477356,-0.4531694650650024,-0.1421083062887192,0.6633638143539429,-0.7655851244926453,0.63840252161026,0.07950707525014877,0,0,0,-1,65494.656706,2,0,1561243394.778108,1561243107.271691,28,1.054203,0,0,24.53997,0,0,1561243350.380748,65492.663664,0,-3.929199,74.58464,2650634390,177292352,1,1,0.15,-27.34864,-34.00431,2
1561243395.245264,29,0,0,1561243394.990289,4.602342559960301,-74.06501426368399,2657.367,0,292.1484375,3,10,-9999,1561243395.223901,-20.99126434326172,1.367941379547119,24.98263549804688,112.1285247802734,119.6722106933594,20,65495.13213325,-0.764190673828125,0.636810302734375,0.0777435302734375,65495.12706725,0.01135438730755283,-0.02070607747536608,0.007639543903001303,65495.11421925,17.548583984375,3.625198364257812,-510.1264038085938,65495.12706725,-1.183047573526463,-1.674577887852291,-0.6924965526325826,0.0101749524474144,-0.02618640102446079,0.005038921721279621,0.003138422966003418,-0.001284122467041016,0.0006048679351806641,1,-0.5782376527786255,-0.4533293843269348,-0.1419014632701874,0.6633231639862061,-0.7655133008956909,0.638460636138916,0.07973262667655945,0,0,0,-1,65494.656706,2,0,1561243394.778108,1561243107.271691,28,1.054203,0,0,24.53997,0,0,1561243350.380748,65492.663664,0,-3.929199,74.58464,2650634390,177292352,1,1,0.15,-27.34864,-34.00431,2
1561243395.265453,30,0,0,1561243394.990289,4.602342559960301,-74.06501426368399,2657.367,0,292.1484375,3,10,-9999,1561243395.223901,-20.99126434326172,1.367941379547119,24.98263549804688,112.1285247802734,119.6722106933594,20,65495.15239625001,-0.7672576904296875,0.636383056640625,0.0772705078125,65495.14733025,0.01832308093196318,-0.01759284216106345,0.003591272729971853,65495.13433025,17.57374572753906,3.458450317382812,-510.2236938476562,65495.14733025,-1.182690200532277,-1.674808193646119,-0.6926125325095991,0.01714364625513554,-0.02307316474616528,0.000990650849416852,-0.000417172908782959,-0.001266598701477051,-0.001806735992431641,1,-0.5781950950622559,-0.4534766376018524,-0.1416754126548767,0.6633080244064331,-0.765421450138092,0.6385499238967896,0.07990125566720963,0,0,0,-1,65494.656706,2,0,1561243394.778108,1561243107.271691,28,1.054203,0,0,24.53997,0,0,1561243350.380748,65492.663664,0,-3.929199,74.58464,2650634390,177292352,1,1,0.15,-19.13814,-20.96619,2
1561243395.286274,31,0,0,1561243394.990289,4.602342559960301,-74.06501426368399,2657.367,0,292.1484375,3,10,-9999,1561243395.269609,-20.80744552612305,1.502701997756958,25.02908325195312,112.0812072753906,119.6248931884766,20,65495.17266025001,-0.766998291015625,0.636444091796875,0.0790252685546875,65495.16759425,0.03235527671559068,-0.03054832191597192,-0.005749232161263059,65495.15441025,17.34022521972656,3.566070556640625,-510.118896484375,65495.16759425,-1.182030614960453,-1.674997309033176,-0.6925521365366381,0.03117584064602852,-0.03602864220738411,-0.008349854499101639,-0.001324713230133057,-0.002410292625427246,-0.001574039459228516,1,-0.5780473351478577,-0.4537469446659088,-0.1414233446121216,0.6633057594299316,-0.7654446959495544,0.6385034322738647,0.0800500214099884,0,0,0,-1,65494.656706,2,0,1561243394.778108,1561243107.271691,28,1.054203,0,0,24.53997,0,0,1561243350.380748,65492.663664,0,-3.929199,74.58464,2650634390,177292352,1,1,0.15,-14.9011,-21.17812,2
1561243395.312214,32,0,0,1561243394.990289,4.602342559960301,-74.06501426368399,2657.367,0,292.1484375,3,10,-9999,1561243395.294603,-20.69683837890625,1.532535552978516,25.05368041992188,112.0270843505859,119.5707702636719,20,65495.19292425,-0.7642364501953125,0.6329345703125,0.0791168212890625,65495.18785825001,0.01750335994843678,-0.03244875366985246,-0.004546015980765259,65495.17452125,17.68278503417969,3.582977294921875,-510.2500610351562,65495.18785825001,-1.181337170234821,-1.675327825521679,-0.6924811820488926,0.01632392592728138,-0.03792907670140266,-0.007146637886762619,-0.0002686977386474609,-0.003561139106750488,-0.0006873607635498047,1,-0.5778997540473938,-0.4540767967700958,-0.1411229074001312,0.6632725596427917,-0.7654631733894348,0.6384488344192505,0.0803077295422554,0,0,0,-1,65494.656706,2,0,1561243394.778108,1561243107.271691,28,1.054203,0,0,24.53997,0,0,1561243350.380748,65492.663664,0,-3.929199,74.58464,2650634390,177292352,1,1,0.15,-14.9011,-21.76882,2
1561243395.326284,33,0,0,1561243394.990289,4.602342559960301,-74.06501426368399,2657.367,0,292.1484375,3,10,-9999,1561243395.318569,-20.58733177185059,1.547800779342651,24.991943359375,112.0062942504883,119.5499801635742,20,65495.21318725,-0.760498046875,0.6330108642578125,0.079010009765625,65495.20809125,0.002474076652683612,-0.00171374416146599,-0.002167546811215492,65495.19460225001,17.54495239257812,3.585525512695312,-510.3358154296875,65495.20809125,-1.181096395874361,-1.675632955081968,-0.6923424422250148,0.001294642454013228,-0.007194066420197487,-0.004768168553709984,0.002510786056518555,-0.006124615669250488,-0.001067519187927246,1,-0.5778400897979736,-0.4542863667011261,-0.1410039216279984,0.6632062792778015,-0.7655265927314758,0.638342022895813,0.08055054396390915,0,0,0,-1,65494.656706,2,0,1561243394.778108,1561243107.271691,28,1.054203,0,0,24.53997,0,0,1561243350.380748,65492.663664,0,-3.929199,74.58464,2650634390,177292352,1,1,0.15,-14.9011,-22.60577,2
1561243395.346586,34,0,0,1561243394.990289,4.602342559960301,-74.06501426368399,2657.367,0,292.1484375,3,10,-9999,1561243395.344776,-20.73796844482422,1.360244512557983,24.96481323242188,112.0151290893555,119.5588150024414,20,65495.23342025001,-0.759918212890625,0.6341094970703125,0.0743255615234375,65495.22835425,-0.003798732978889025,-0.001666073577953571,0.009684585304073149,65495.21471325,17.40910339355469,3.380783081054688,-510.2623901367188,65495.22835425,-1.181222610799474,-1.675825626983061,-0.6923874653940624,-0.00497816689312458,-0.007146396208554506,0.007083963137120008,0.004358887672424316,-0.005136966705322266,-0.004385828971862793,1,-0.577890932559967,-0.4543012082576752,-0.1409742087125778,0.6631581783294678,-0.7654825448989868,0.6383767127990723,0.08069503307342529,0,0,0,-1,65494.656706,2,0,1561243394.778108,1561243107.271691,28,1.054203,0,0,24.53997,0,0,1561243350.380748,65492.663664,0,-3.929199,74.58464,2650634390,177292352,1,1,0.15,-14.9011,-23.36321,2
1561243395.391134,35,0,0,1561243394.990289,4.602342559960301,-74.06501426368399,2657.367,0,292.1484375,3,10,-9999,1561243395.369204,-20.66900444030762,1.526324987411499,25.1356201171875,111.986198425293,119.5298843383789,20,65495.25368425,-0.763397216796875,0.6346588134765625,0.0760650634765625,65495.24861825001,0.02829502131765587,-0.01832334724807218,0.01281379958491626,65495.23479425001,17.20797729492188,3.449203491210938,-510.1148071289062,65495.24861825001,-1.181008481335338,-1.675963655325809,-0.6925917273661354,0.0271155871450901,-0.02380366995930672,0.01021317765116692,0.003638207912445068,-0.004683852195739746,-0.007178544998168945,1,-0.5778910517692566,-0.4543516635894775,-0.1407911032438278,0.6631624102592468,-0.7653416991233826,0.638533890247345,0.08078700304031372,0,0,0,-1,65494.656706,2,0,1561243394.778108,1561243107.271691,28,1.054203,0,0,24.53997,0,0,1561243350.380748,65492.663664,0,-3.929199,74.58464,2650634390,177292352,1,1,0.15,-14.9011,-24.27526,2
1561243395.393547,36,0,0,1561243394.990289,4.602342559960301,-74.06501426368399,2657.367,0,292.1484375,3,10,-9999,1561243395.369204,-20.66900444030762,1.526324987411499,25.1356201171875,111.986198425293,119.5298843383789,20,65495.27394825,-0.7667083740234375,0.634521484375,0.078277587890625,65495.26888225001,0.04786898901362927,-0.03432468434170428,0.004802744709848898,65495.25490525,17.52371215820312,3.818572998046875,-510.1181640625,65495.26888225001,-1.180054127775378,-1.676018320694013,-0.6928179202252743,0.04668955504894257,-0.03980500623583794,0.002202122937887907,-0.0002785921096801758,-0.004857897758483887,-0.00462651252746582,1,-0.5777212381362915,-0.4545822441577911,-0.1403789073228836,0.6632398366928101,-0.7651938796043396,0.6387079358100891,0.0808136910200119,0,0,0,-1,65494.656706,2,0,1561243394.778108,1561243107.271691,28,1.054203,0,0,24.53997,0,0,1561243350.380748,65492.663664,0,-3.929199,74.58464,2650634390,177292352,1,1,0.15,-14.9011,-24.27526,2
1561243395.407347,37,0,0,1561243394.990289,4.602342559960301,-74.06501426368399,2657.367,0,292.1484375,3,10,-9999,1561243395.395412,-20.68123054504395,1.666715145111084,25.0811767578125,111.9099884033203,119.4536743164062,20,65495.29421125,-0.771636962890625,0.637542724609375,0.0819549560546875,65495.28914525,0.03076217375150528,-0.02292955066947323,0.002575010457997615,65495.27498525001,17.37602233886719,3.569869995117188,-509.8293762207031,65495.28914525,-1.179046288773158,-1.676134383439296,-0.6929309233874178,0.02958273887634277,-0.02840987406671047,-2.561137080192566e-05,-0.003762602806091309,-0.001206398010253906,-0.0001759529113769531,1,-0.5775218605995178,-0.4548801481723785,-0.1399711519479752,0.6632953286170959,-0.765112578868866,0.6387948989868164,0.08089489489793777,0,0,0,-1,65494.656706,2,0,1561243394.778108,1561243107.271691,28,1.054203,0,0,24.53997,0,0,1561243350.380748,65492.663664,0,-3.929199,74.58464,2650634390,177292352,1,1,0.15,-14.9011,-24.27526,2
1561243395.427549,38,0,0,1561243394.990289,4.602342559960301,-74.06501426368399,2657.367,0,292.1484375,3,10,-9999,1561243395.419815,-20.77474975585938,1.806475639343262,24.97201538085938,111.8663940429688,119.4100799560547,20,65495.31447525,-0.7798309326171875,0.6400146484375,0.08367919921875,65495.30937925,0.01213336192640101,0.01195279960449364,-0.006921289357006932,65495.29509625,17.51148986816406,3.616165161132812,-509.9035339355469,65495.30937925,-1.178473054764341,-1.676006855484496,-0.6928768573593452,0.01095392741262913,0.006472477223724127,-0.009521910920739174,-0.008707523345947266,-0.001057982444763184,0.001413345336914062,1,-0.5773721933364868,-0.4550184905529022,-0.1398369818925858,0.6633590459823608,-0.7651572227478027,0.6387532949447632,0.08080095052719116,0,0,0,-1,65494.656706,2,0,1561243394.778108,1561243107.271691,28,1.054203,0,0,24.53997,0,0,1561243350.380748,65492.663664,0,-3.929199,74.58464,2650634390,177292352,1,1,0.15,-14.9011,-24.9556,2
1561243395.472872,39,0,0,1561243394.990289,4.602342559960301,-74.06501426368399,2657.367,0,292.1484375,3,10,-9999,1561243395.446031,-20.56088447570801,1.572582483291626,25.00311279296875,111.879264831543,119.4229507446289,20,65495.33470825,-0.80230712890625,0.6535186767578125,0.0883331298828125,65495.32964225001,-0.02658740242669707,0.05867955882658792,-0.02256123549071527,65495.31517725001,17.41050720214844,3.598907470703125,-510.1673583984375,65495.32964225001,-1.178614041852784,-1.675420565897484,-0.6925246637855709,-0.02776683680713177,0.05319923534989357,-0.0251618567854166,-0.02290189266204834,0.008398771286010742,0.005897283554077148,1,-0.5772957801818848,-0.4548818469047546,-0.1401775628328323,0.663447380065918,-0.7654281854629517,0.6384822726249695,0.08037582784891129,0,0,0,-1,65494.656706,2,0,1561243394.778108,1561243107.271691,28,1.054203,0,0,24.53997,0,0,1561243350.380748,65492.663664,0,-3.929199,74.58464,2650634390,177292352,1,1,0.15,-14.9011,-26.53368,2
1561243395.47617,40,0,0,1561243394.990289,4.602342559960301,-74.06501426368399,2657.367,0,292.1484375,3,10,-9999,1561243395.47029,-20.93794059753418,1.423469543457031,24.90805053710938,111.9617691040039,119.5054550170898,20,65495.35497225,-0.823486328125,0.6482086181640625,0.089019775390625,65495.34990625001,-0.05707873269534129,0.1042821977525598,-0.1064675877430788,65495.33528825,17.45964050292969,3.56719970703125,-510.2057495117188,65495.34990625001,-1.179646931739286,-1.674500432918128,-0.6913733155646943,-0.05825816839933395,0.0988018810749054,-0.1090682148933411,-0.0557129979133606,0.0149616003036499,0.008814454078674316,1,-0.57724529504776,-0.4546005129814148,-0.1411928087472916,0.6634687185287476,-0.7662321925163269,0.6375957727432251,0.0797475129365921,0,0,0,-1,65494.656706,2,0,1561243394.778108,1561243107.271691,28,1.054203,0,0,24.53997,0,0,1561243350.380748,65492.663664,0,-3.929199,74.58464,2650634390,177292352,1,1,0.15,-14.9011,-26.53368,2
1561243395.488422,41,0,0,1561243394.990289,4.602342559960301,-74.06501426368399,2657.367,0,292.1484375,3,10,-9999,1561243395.47029,-20.93794059753418,1.423469543457031,24.90805053710938,111.9617691040039,119.5054550170898,20,65495.37523625,-0.8405914306640625,0.656219482421875,0.09722900390625,65495.37017025,-0.08218222176264621,0.1892282480944902,-0.1814459587570607,65495.35536925001,17.4263916015625,3.488815307617188,-510.3079528808594,65495.37017025,-1.180968792628816,-1.672440265708618,-0.6881234628098277,-0.08336165547370911,0.1837479323148727,-0.1840465813875198,-0.06150376796722412,0.01192963123321533,0.01621055603027344,1,-0.5767749547958374,-0.4544446766376495,-0.1433738619089127,0.6635168194770813,-0.7684522867202759,0.6350888013839722,0.07837862521409988,0,0,0,-1,65494.656706,2,0,1561243394.778108,1561243107.271691,28,1.054203,0,0,24.53997,0,0,1561243350.380748,65492.663664,0,-3.929199,74.58464,2650634390,177292352,1,1,0.15,-14.9011,-27.36997,2
1561243395.50857,42,0,0,1561243394.990289,4.602342559960301,-74.06501426368399,2657.367,0,292.1484375,3,10,-9999,1561243395.497148,-20.9173755645752,1.360369205474854,24.8123779296875,112.1013946533203,119.6450805664062,20,65495.39549925001,-0.8900909423828125,0.6885833740234375,0.1005401611328125,65495.39043325,-0.150805757783481,0.2558155311458504,-0.1972616735227142,65495.37548025,17.27549743652344,3.450164794921875,-510.184814453125,65495.39043325,-1.183643096967353,-1.669760849256486,-0.6840420424804567,-0.1519851833581924,0.2503352165222168,-0.1998623013496399,-0.09334558248519897,0.0414852499961853,0.02280569076538086,1,-0.5764014720916748,-0.4539259374141693,-0.1464736461639404,0.6635195016860962,-0.7712326645851135,0.6319308876991272,0.07657482475042343,0,0,0,-1,65494.656706,2,0,1561243394.778108,1561243107.271691,28,1.054203,0,0,24.53997,0,0,1561243350.380748,65492.663664,0,-3.929199,74.58464,2650634390,177292352,1,1,0.15,-14.9011,-27.6963,2
1561243395.553777,43,0,0,1561243394.990289,4.602342559960301,-74.06501426368399,2657.367,0,292.1484375,3,10,-9999,1561243395.52085,-21.10116386413574,1.147160530090332,24.73321533203125,112.3683013916016,119.9119873046875,20,65495.41576325001,-0.9281768798828125,0.68536376953125,0.11749267578125,65495.41069725,-0.2070722263463481,0.2857665060293175,-0.1811295752195592,65495.39556025001,16.9903564453125,3.238449096679688,-510.4501953125,65495.41069725,-1.187595862812105,-1.666942037385382,-0.6798328112910934,-0.2082516551017761,0.2802861928939819,-0.1837301999330521,-0.1372295618057251,0.06158357858657837,0.03221726417541504,1,-0.5762748718261719,-0.4530285894870758,-0.1500799357891083,0.6634368896484375,-0.7740863561630249,0.6286630034446716,0.07465526461601257,0,0,0,-1,65494.656706,2,0,1561243394.778108,1561243107.271691,28,1.054203,0,0,24.53997,0,0,1561243350.380748,65492.663664,0,-3.929199,74.58464,2650634390,177292352,1,1,0.15,-14.9011,-28.67737,2
1561243395.556223,44,0,0,1561243394.990289,4.602342559960301,-74.06501426368399,2657.367,0,292.1484375,3,10,-9999,1561243395.52085,-21.10116386413574,1.147160530090332,24.73321533203125,112.3683013916016,119.9119873046875,20,65495.43602725001,-0.9404144287109375,0.68426513671875,0.141876220703125,65495.43093025,-0.3591278056294033,0.1385879736505245,-0.2553811695720585,65495.41567125,16.94371032714844,3.135406494140625,-510.4698791503906,65495.43093025,-1.194733496558323,-1.666637938808287,-0.6748988745549563,-0.3603072166442871,0.1331076472997665,-0.2579817771911621,-0.1527294516563416,0.05886691808700562,0.05469405651092529,1,-0.5769124031066895,-0.4522498846054077,-0.1542684584856033,0.6624525189399719,-0.7771869301795959,0.6248183846473694,0.074715755879879,0,0,0,-1,65494.656706,2,0,1561243394.778108,1561243107.271691,28,1.054203,0,0,24.53997,0,0,1561243350.380748,65492.663664,0,-3.929199,74.58464,2650634390,177292352,1,1,0.15,-14.9011,-28.67737,2
1561243395.569263,45,0,0,1561243394.990289,4.602342559960301,-74.06501426368399,2657.367,0,292.1484375,3,10,-9999,1561243395.558242,-21.1634693145752,0.9982726573944092,24.61737060546875,112.8831100463867,120.4267959594727,20,65495.45626025,-0.961334228515625,0.703857421875,0.175262451171875,65495.45119425,-0.3851053441664722,0.1199224102023771,-0.3087495862367013,65495.43575225001,16.97703552246094,2.945816040039062,-510.550537109375,65495.45119425,-1.203579988897509,-1.669616707496483,-0.6684725302591554,-0.3862847685813904,0.1144420877099037,-0.3113501965999603,-0.1716809272766113,0.06510275602340698,0.09342765808105469,1,-0.5779061913490295,-0.4524786770343781,-0.1585906445980072,0.6604062914848328,-0.7809405326843262,0.6197879910469055,0.0774250403046608,0,0,0,-1,65494.656706,2,0,1561243394.778108,1561243107.271691,28,1.054203,0,0,24.53997,0,0,1561243350.380748,65492.663664,0,-3.929199,74.58464,2650634390,177292352,1,1,0.15,-14.9011,-28.67737,2
1561243395.589592,46,0,0,1561243394.990289,4.602342559960301,-74.06501426368399,2657.367,0,292.1484375,3,10,-9999,1561243395.558242,-21.1634693145752,0.9982726573944092,24.61737060546875,112.8831100463867,120.4267959594727,20,65495.47652325001,-0.954803466796875,0.7085723876953125,0.138275146484375,65495.47145725,-0.3523713659438723,0.119683258336488,-0.4163516806041539,65495.45586325,16.89718627929688,2.237838745117188,-510.4799194335938,65495.47145725,-1.212652307739446,-1.673387145706626,-0.6602869883717983,-0.3535507917404175,0.1142029389739037,-0.4189522862434387,-0.1665765643119812,0.08271658420562744,0.05911350250244141,1,-0.5786911249160767,-0.4533866941928864,-0.163361057639122,0.6579287052154541,-0.7856634259223938,0.6133435368537903,0.08088582754135132,0,0,0,-1,65494.656706,2,0,1561243394.778108,1561243107.271691,28,1.054203,0,0,24.53997,0,0,1561243350.380748,65492.663664,0,-3.929199,74.58464,2650634390,177292352,1,1,0.15,-14.9011,-29.53832,2
1561243395.619932,47,0,0,1561243394.990289,4.602342559960301,-74.06501426368399,2657.367,0,292.1484375,3,10,-9999,1561243395.598184,-21.09412574768066,0.267695426940918,24.61456298828125,114.0636138916016,121.6072998046875,20,65495.49678725001,-0.9636688232421875,0.722259521484375,0.11895751953125,65495.49172125,-0.1041839271083358,0.1355327952479856,-0.4521360435393306,65495.47594425001,17.00950622558594,1.994186401367188,-510.480224609375,65495.49172125,-1.217558609096432,-1.673655438785171,-0.6508050659027996,-0.1053633615374565,0.1300524771213531,-0.4547366499900818,-0.1685087084770203,0.1145555973052979,0.04349303245544434,1,-0.5780054330825806,-0.4547029435634613,-0.1682155132293701,0.6563980579376221,-0.7913911938667297,0.6058270931243896,0.08169009536504745,0,0,0,-1,65494.656706,2,0,1561243394.778108,1561243107.271691,28,1.054203,0,0,24.53997,0,0,1561243350.380748,65492.663664,0,-3.929199,74.58464,2650634390,177292352,1,1,0.15,-14.9011,-27.80266,2
1561243395.629992,48,0,0,1561243394.990289,4.602342559960301,-74.06501426368399,2657.367,0,292.1484375,3,10,-9999,1561243395.622096,-21.37236976623535,-0.4027186632156372,24.57156372070312,114.0408782958984,121.5845642089844,20,65495.51705125,-0.976318359375,0.732177734375,0.1352081298828125,65495.51198525001,0.1528316244247043,0.02485048876374739,-0.4298618968141258,65495.49605525001,16.78424072265625,1.57562255859375,-510.4691162109375,65495.51198525001,-1.215694585347375,-1.670922093922095,-0.6419463219256761,0.1516522020101547,0.01937016472220421,-0.4324625134468079,-0.1735690832138062,0.1311334371566772,0.04631328582763672,1,-0.5756347179412842,-0.4568092226982117,-0.1714886873960495,0.6561719179153442,-0.7969204783439636,0.598755419254303,0.08005999028682709,0,0,0,-1,65494.656706,2,0,1561243394.778108,1561243107.271691,28,1.054203,0,0,24.53997,0,0,1561243350.380748,65492.663664,0,-3.929199,74.58464,2650634390,177292352,1,1,0.15,-14.9011,-27.80266,2
1561243395.650467,49,0,0,1561243394.990289,4.602342559960301,-74.06501426368399,2657.367,0,292.1484375,3,10,-9999,1561243395.64848,-21.15413856506348,-0.6859128475189209,24.61032104492188,113.5617294311523,121.1054153442383,20,65495.53731425,-0.97906494140625,0.7220306396484375,0.158233642578125,65495.53224825001,0.2670828330857576,-0.09681043299823344,-0.4711036094550929,65495.51613525001,16.971435546875,1.317916870117188,-510.6692504882812,65495.53224825001,-1.208915797454854,-1.667758669690052,-0.6334752009061246,0.2659034132957458,-0.1022907495498657,-0.4737042188644409,-0.1769670248031616,0.1349337100982666,0.07372188568115234,1,-0.5721495151519775,-0.4600634276866913,-0.1731293648481369,0.6565156579017639,-0.8021894693374634,0.5919492244720459,0.07802685350179672,0,0,0,-1,65494.656706,2,0,1561243394.778108,1561243107.271691,28,1.054203,0,0,24.53997,0,0,1561243350.380748,65492.663664,0,-3.929199,74.58464,2650634390,177292352,1,1,0.15,-14.9011,-28.34802,2
1561243395.670631,50,0,0,1561243394.990289,4.602342559960301,-74.06501426368399,2657.367,0,292.1484375,3,10,-9999,1561243395.64848,-21.15413856506348,-0.6859128475189209,24.61032104492188,113.5617294311523,121.1054153442383,20,65495.55757825,-0.9666595458984375,0.702117919921875,0.1524200439453125,65495.55248225,0.1610826301139878,-0.08908726583700365,-0.6043447545850653,65495.53624625001,17.06013488769531,1.333877563476562,-510.7320556640625,65495.55248225,-1.202015446258405,-1.666153032992897,-0.6230553956726804,0.1599031984806061,-0.09456758201122284,-0.6069453358650208,-0.1641546487808228,0.1257551312446594,0.07815003395080566,1,-0.568346381187439,-0.4643740952014923,-0.1749576777219772,0.6562994122505188,-0.8084099888801575,0.5835191607475281,0.07732181996107101,0,0,0,-1,65494.656706,2,0,1561243394.778108,1561243107.271691,28,1.054203,0,0,24.53997,0,0,1561243350.380748,65492.663664,0,-3.929199,74.58464,2650634390,177292352,1,1,0.15,-14.9011,-25.99726,2
1561243395.700332,51,0,0,1561243394.990289,4.602342559960301,-74.06501426368399,2657.367,0,292.1484375,3,10,-9999,1561243395.672776,-21.27169609069824,-0.7335802316665649,24.4835205078125,113.1327285766602,120.6764144897461,20,65495.57781125,-0.9541778564453125,0.7288360595703125,0.1334381103515625,65495.57274525001,-0.08108073833578944,-0.02740366130080635,-0.6123195904693076,65495.55632725001,16.97908020019531,1.3809814453125,-510.463134765625,65495.57274525001,-1.199443477304007,-1.665612236429894,-0.61029210129098,-0.08226016908884048,-0.03288398310542107,-0.6149201989173889,-0.1410177946090698,0.1405772566795349,0.0632246732711792,1,-0.5651331543922424,-0.4684188663959503,-0.1787160485982895,0.6551861166954041,-0.8157998323440552,0.5731068849563599,0.0775834321975708,0,0,0,-1,65494.656706,2,0,1561243394.778108,1561243107.271691,28,1.054203,0,0,24.53997,0,0,1561243350.380748,65492.663664,0,-3.929199,74.58464,2650634390,177292352,1,1,0.15,-14.9011,-26.52214,2
1561243395.711094,52,0,0,1561243394.990289,4.602342559960301,-74.06501426368399,2657.367,0,292.1484375,3,10,-9999,1561243395.702849,-21.36955261230469,-1.258516311645508,24.67471313476562,113.1833648681641,120.72705078125,20,65495.59807525,-0.9354705810546875,0.719512939453125,0.136444091796875,65495.59300925001,-0.2747791023199776,-0.05377907610473311,-0.2787200481010769,65495.57643825001,16.90249633789062,0.8717193603515625,-510.7859497070312,65495.59300925001,-1.202894898430171,-1.668663435338975,-0.6006241799867841,-0.2759585380554199,-0.05925939977169037,-0.2813206613063812,-0.1285191178321838,0.1719793081283569,0.06564557552337646,1,-0.5642631649971008,-0.4710753858089447,-0.1823490560054779,0.6530267000198364,-0.8210353255271912,0.5651575326919556,0.08060988038778305,0,0,0,-1,65494.656706,2,0,1561243394.778108,1561243107.271691,28,1.054203,0,0,24.53997,0,0,1561243350.380748,65492.663664,0,-3.929199,74.58464,2650634390,177292352,1,1,0.15,-14.9011,-26.52214,2
1561243395.731773,53,0,0,1561243394.990289,4.602342559960301,-74.06501426368399,2657.367,0,292.1484375,3,10,-9999,1561243395.723405,-21.07260131835938,-1.612866282463074,24.68777465820312,113.7145614624023,121.2582473754883,20,65495.61833925,-0.9203643798828125,0.645111083984375,0.0931854248046875,65495.61327325,-0.4383105090562933,0.3912346094152896,-0.1190880418328553,65495.59651925,17.1890869140625,0.5774383544921875,-510.4463806152344,65495.61327325,-1.211344826391948,-1.671362925454086,-0.5963881840590407,-0.4394899308681488,0.3857542872428894,-0.1216886639595032,-0.1018748879432678,0.1285582184791565,0.03097867965698242,1,-0.5656455159187317,-0.470720648765564,-0.1858145445585251,0.6511068344116211,-0.8231891989707947,0.5616578459739685,0.08306555449962616,0,0,0,-1,65494.656706,2,0,1561243394.778108,1561243107.271691,28,1.054203,0,0,24.53997,0,0,1561243350.380748,65492.663664,0,-3.929199,74.58464,2650634390,177292352,1,1,0.15,-14.9011,-27.08251,2
1561243395.751674,54,0,0,1561243394.990289,4.602342559960301,-74.06501426368399,2657.367,0,292.1484375,3,10,-9999,1561243395.749814,-21.27638816833496,-1.933789491653442,24.37454223632812,114.6057357788086,122.1494216918945,20,65495.63860225,-0.8848114013671875,0.622222900390625,0.0202484130859375,65495.63353625,-0.6046470233687893,1.037250644525152,-0.198766359538609,65495.61663025001,17.17964172363281,0.2089080810546875,-510.4237670898438,65495.63353625,-1.223666523654199,-1.663056455181043,-0.5921273378731667,-0.6058264970779419,1.031770348548889,-0.201366975903511,-0.07836037874221802,0.06191343069076538,-0.01086246967315674,1,-0.5668827295303345,-0.4656891226768494,-0.1936556398868561,0.6513640880584717,-0.8262264132499695,0.5581274628639221,0.07644477486610413,0,0,0,-1,65494.656706,2,0,1561243394.778108,1561243107.271691,28,1.054203,0,0,24.53997,0,0,1561243350.380748,65492.663664,0,-3.929199,74.58464,2650634390,177292352,1,1,0.15,-14.9011,-27.94335,2
1561243395.789379,55,0,0,1561243394.990289,4.602342559960301,-74.06501426368399,2657.367,0,292.1484375,3,10,-9999,1561243395.774141,-21.86417961120605,-2.34735107421875,23.95916748046875,115.7626113891602,123.3062973022461,20,65495.65886625001,-0.87274169921875,0.6645965576171875,0.001922607421875,65495.65380025,-0.6927640996206771,1.310714944214957,-0.08135424497974057,65495.63671025,16.52644348144531,0.02520751953125,-511.1103515625,65495.65380025,-1.239424143030593,-1.647495906415684,-0.5878372136466825,-0.6939435601234436,1.305234670639038,-0.08395487070083618,-0.04437363147735596,0.08291912078857422,-0.04844260215759277,1,-0.5681008696556091,-0.4573211073875427,-0.2046863287687302,0.6528570652008057,-0.8296955823898315,0.5545625686645508,0.06376238912343979,0,0,0,-1,65494.656706,2,0,1561243394.778108,1561243107.271691,28,1.054203,0,0,24.53997,0,0,1561243350.380748,65492.663664,0,-3.929199,74.58464,2650634390,177292352,1,1,0.15,-14.9011,-29.17164,2
1561243395.792217,56,0,0,1561243394.990289,4.602342559960301,-74.06501426368399,2657.367,0,292.1484375,3,10,-9999,1561243395.774141,-21.86417961120605,-2.34735107421875,23.95916748046875,115.7626113891602,123.3062973022461,20,65495.67913025001,-0.900665283203125,0.6868133544921875,-0.0219573974609375,65495.67403325,-0.5623709389604354,0.8414068379667957,0.1151958318997045,65495.65682125001,15.93016052246094,-0.4207916259765625,-511.4396362304688,65495.67403325,-1.254985495486539,-1.632858727567565,-0.5875444935893235,-0.5635504126548767,0.8359264731407166,0.1125952079892159,-0.06050288677215576,0.1194481253623962,-0.06614804267883301,1,-0.5700319409370422,-0.4481901526451111,-0.2140373885631561,0.6545053124427795,-0.8307019472122192,0.5543189644813538,0.05162165313959122,0,0,0,-1,65494.656706,2,0,1561243394.778108,1561243107.271691,28,1.054203,0,0,24.53997,0,0,1561243350.380748,65492.663664,0,-3.929199,74.58464,2650634390,177292352,1,1,0.15,-14.9011,-29.17164,2
1561243395.812398,57,0,0,1561243394.990289,4.602342559960301,-74.06501426368399,2657.367,0,292.1484375,3,10,-9999,1561243395.800646,-22.70223045349121,-2.993077993392944,23.0592041015625,116.7627410888672,124.3064270019531,20,65495.69936325,-0.8928070068359375,0.637542724609375,-0.0437164306640625,65495.69429725,-0.3884042018087533,0.1781471011147795,0.02095082197954436,65495.67690225,15.43359375,-1.00225830078125,-512.0280151367188,65495.69429725,-1.26708204678363,-1.62991554892118,-0.5890318658511796,-0.3895836174488068,0.1726667732000351,0.01835020072758198,-0.07565927505493164,0.1327676773071289,-0.08906006813049316,1,-0.5727114677429199,-0.4433570206165314,-0.2183296382427216,0.6540398597717285,-0.8300260901451111,0.5555562973022461,0.04912774637341499,0,0,0,-1,65494.656706,2,0,1561243394.778108,1561243107.271691,28,1.054203,0,0,24.53997,0,0,1561243350.380748,65492.663664,0,-3.929199,74.58464,2650634390,177292352,1,1,0.15,-14.9011,-30.06834,2
1561243395.832675,58,0,0,1561243394.990289,4.602342559960301,-74.06501426368399,2657.367,0,292.1484375,3,10,-9999,1561243395.825435,-22.7034912109375,-3.432525634765625,22.93115234375,117.2651138305664,124.8087997436523,20,65495.71962625001,-0.8436279296875,0.550079345703125,-0.0570220947265625,65495.71456125,-0.03241120309848235,0.1624309885738949,-0.4228809526487012,65495.69701325001,15.37216186523438,-1.115890502929688,-512.005126953125,65495.71456125,-1.272142316906644,-1.630447280869814,-0.5847603997176763,-0.03359063714742661,0.1569506675004959,-0.4254815578460693,-0.03757286071777344,0.02514880895614624,-0.09962165355682373,1,-0.5730292201042175,-0.4432748258113861,-0.2212799340486526,0.6528246998786926,-0.8323612213134766,0.5519996285438538,0.04971011728048325,0,0,0,-1,65494.656706,2,0,1561243394.778108,1561243107.271691,28,1.054203,0,0,24.53997,0,0,1561243350.380748,65492.663664,0,-3.929199,74.58464,2650634390,177292352,1,1,0.15,-14.9011,-30.42579,2
1561243395.872828,59,0,0,1561243394.990289,4.602342559960301,-74.06501426368399,2657.367,0,292.1484375,3,10,-9999,1561243395.85456,-22.84295654296875,-3.539848804473877,22.87841796875,116.8265228271484,124.3702087402344,20,65495.73989025001,-0.803924560546875,0.5154876708984375,-0.0442352294921875,65495.73482425,0.4637871069923183,0.1794216900124914,-0.6284303834837419,65495.71709325,15.4443359375,-1.590408325195312,-512.3529052734375,65495.73482425,-1.26623679277675,-1.623630230753168,-0.5735952276121743,0.4626076817512512,0.1739413738250732,-0.6310309767723083,0.0255814790725708,-0.0153878927230835,-0.1084749698638916,1,-0.5686829090118408,-0.4458458125591278,-0.2250772565603256,0.6535758972167969,-0.838783323764801,0.5426554083824158,0.04435747861862183,0,0,0,-1,65494.656706,2,0,1561243394.778108,1561243107.271691,28,1.054203,0,0,24.53997,0,0,1561243350.380748,65492.663664,0,-3.929199,74.58464,2650634390,177292352,1,1,0.15,-14.9011,-31.20394,2
1561243395.876103,60,0,0,1561243394.990289,4.602342559960301,-74.06501426368399,2657.367,0,292.1484375,3,10,-9999,1561243395.85456,-22.84295654296875,-3.539848804473877,22.87841796875,116.8265228271484,124.3702087402344,20,65495.76015425001,-0.79583740234375,0.52606201171875,-0.0912628173828125,65495.75508825001,0.4161604656378862,0.07505427110504913,-0.5274057643765672,65495.73717425,15.16496276855469,-1.836532592773438,-512.2763671875,65495.75508825001,-1.253538096297285,-1.614355441686908,-0.5620823056384782,0.4149810373783112,0.06957395374774933,-0.5300063490867615,0.04183191061019897,-0.001409411430358887,-0.08654367923736572,1,-0.5623981356620789,-0.4495900571346283,-0.2274315804243088,0.6556309461593628,-0.8453444838523865,0.5329492688179016,0.03684576600790024,0,0,0,-1,65494.656706,2,0,1561243394.778108,1561243107.271691,28,1.054203,0,0,24.53997,0,0,1561243350.380748,65492.663664,0,-3.929199,74.58464,2650634390,177292352,1,1,0.15,-14.9011,-31.84607,2
1561243395.893441,61,0,0,1561243394.990289,4.602342559960301,-74.06501426368399,2657.367,0,292.1484375,3,10,-9999,1561243395.875629,-22.95306396484375,-3.968019008636475,22.92303466796875,116.0073089599609,123.5509948730469,20,65495.78041725,-0.772064208984375,0.48895263671875,-0.076904296875,65495.77532125,0.1865216774786427,0.1651354286608704,-0.3787494439088891,65495.75728525,14.98991394042969,-1.844161987304688,-512.183349609375,65495.77532125,-1.246502873044267,-1.609270915358979,-0.55307623378703,0.1853422522544861,0.1596551090478897,-0.381350040435791,0.06202912330627441,-0.005654036998748779,-0.1356815099716187,1,-0.5583228468894958,-0.4523724317550659,-0.2295834571123123,0.6564497351646423,-0.8502829074859619,0.525307297706604,0.03273043781518936,0,0,0,-1,65494.656706,2,0,1561243394.778108,1561243107.271691,28,1.054203,0,0,24.53997,0,0,1561243350.380748,65492.663664,0,-3.929199,74.58464,2650634390,177292352,1,1,0.15,-14.9011,-31.84607,2
1561243395.913689,62,0,0,1561243394.990289,4.602342559960301,-74.06501426368399,2657.367,0,292.1484375,3,10,-9999,1561243395.902275,-23.00368309020996,-3.94351863861084,22.61749267578125,115.6494979858398,123.1931838989258,20,65495.80065125001,-0.712738037109375,0.4405975341796875,-0.08575439453125,65495.79558525,0.1242332690588884,0.194366018469471,-0.2765860571195964,65495.77736625,15.27825927734375,-1.88629150390625,-512.4234008789062,65495.79558525,-1.242456690461172,-1.602533318688461,-0.5464484227760414,0.1230538338422775,0.1888857036828995,-0.2791866660118103,0.1153131127357483,-0.07576268911361694,-0.09510397911071777,1,-0.5552058219909668,-0.4531024992465973,-0.2323585152626038,0.6576125025749207,-0.8539453148841858,0.5196561217308044,0.0271107591688633,0,0,0,-1,65494.656706,2,0,1561243394.778108,1561243107.271691,28,1.054203,0,0,24.53997,0,0,1561243350.380748,65492.663664,0,-3.929199,74.58464,2650634390,177292352,1,1,0.15,-14.9011,-30.10892,2
1561243395.951718,63,0,0,1561243394.990289,4.602342559960301,-74.06501426368399,2657.367,0,292.1484375,3,10,-9999,1561243395.92605,-23.10637283325195,-3.844362735748291,22.60687255859375,115.4113464355469,122.9550323486328,20,65495.82091425001,-0.686004638671875,0.452117919921875,-0.0788726806640625,65495.81584825001,0.1990678293740059,-0.08906622686439203,-0.3221367644043117,65495.79747725,15.01094055175781,-1.821334838867188,-512.46435546875,65495.81584825001,-1.239011706357022,-1.600457907208376,-0.5407444996473914,0.1978884041309357,-0.09454654902219772,-0.3247373700141907,0.1650997400283813,-0.0632210373878479,-0.121861457824707,1,-0.5529453158378601,-0.4549334347248077,-0.2337151616811752,0.6577721834182739,-0.8569485545158386,0.5147744417190552,0.02542590536177158,0,0,0,-1,65494.656706,2,0,1561243394.778108,1561243107.271691,28,1.054203,0,0,24.53997,0,0,1561243350.380748,65492.663664,0,-3.929199,74.58464,2650634390,177292352,1,1,0.15,-14.9011,-31.34399,2
1561243395.955174,64,0,0,1561243394.990289,4.602342559960301,-74.06501426368399,2657.367,0,292.1484375,3,10,-9999,1561243395.952596,-22.81496047973633,-3.90362024307251,22.7666015625,114.9018020629883,122.4454879760742,20,65495.84117825,-0.7181854248046875,0.4310150146484375,-0.0833740234375,65495.83611225001,0.3570627905201558,0.2052519557412789,-0.4718857798672492,65495.81755725,15.13200378417969,-1.728118896484375,-512.2988891601562,65495.83611225001,-1.231830180362258,-1.59637885971831,-0.5328410314584244,0.3558833599090576,0.1997716277837753,-0.474486380815506,0.1658341288566589,-0.07290869951248169,-0.1120909452438354,1,-0.5490978360176086,-0.4577208161354065,-0.235125407576561,0.6585585474967957,-0.8610855937004089,0.5079825520515442,0.02203355729579926,0,0,0,-1,65494.656706,2,0,1561243394.778108,1561243107.271691,28,1.054203,0,0,24.53997,0,0,1561243350.380748,65492.663664,0,-3.929199,74.58464,2650634390,177292352,1,1,0.15,-14.9011,-31.34399,2
1561243395.974514,65,0,0,1561243394.990289,4.602342559960301,-74.06501426368399,2657.367,0,292.1484375,3,10,-9999,1561243395.952596,-22.81496047973633,-3.90362024307251,22.7666015625,114.9018020629883,122.4454879760742,20,65495.86144225,-0.7047576904296875,0.4367523193359375,-0.058502197265625,65495.85637625001,0.2170963646894064,0.314651950160644,-0.380594481912096,65495.83766825,15.18887329101562,-2.165298461914062,-512.3546142578125,65495.85637625001,-1.224435047761653,-1.586806310480826,-0.5235616285691369,0.2159169316291809,0.3091716170310974,-0.3831951022148132,0.1526151299476624,-0.06881546974182129,-0.08585572242736816,1,-0.5442067980766296,-0.4590983986854553,-0.2384067326784134,0.6604769825935364,-0.8659330010414124,0.4999678432941437,0.01386475749313831,0,0,0,-1,65494.656706,2,0,1561243394.778108,1561243107.271691,28,1.054203,0,0,24.53997,0,0,1561243350.380748,65492.663664,0,-3.929199,74.58464,2650634390,177292352,1,1,0.15,-14.9011,-32.20985,2
1561243395.994747,66,0,0,1561243394.990289,4.602342559960301,-74.06501426368399,2657.367,0,292.1484375,3,10,-9999,1561243395.976683,-22.85660171508789,-4.178714752197266,22.43951416015625,114.4591217041016,122.0028076171875,20,65495.88170525,-0.684112548828125,0.4342193603515625,-0.02691650390625,65495.87663925,0.0330583512433716,0.2412608231563493,-0.1951889352463055,65495.85774925,15.0130615234375,-2.140777587890625,-512.4605102539062,65495.87663925,-1.221712000086231,-1.58017452982745,-0.5179390074527175,0.03187891840934753,0.2357805073261261,-0.1977895647287369,0.1687605381011963,-0.05066299438476562,-0.02848803997039795,1,-0.5415194630622864,-0.4591630399227142,-0.2411814481019974,0.6616324782371521,-0.8688032627105713,0.495090514421463,0.008148051798343658,0,0,0,-1,65494.656706,2,0,1561243394.778108,1561243107.271691,28,1.054203,0,0,24.53997,0,0,1561243350.380748,65492.663664,0,-3.929199,74.58464,2650634390,177292352,1,1,0.15,-14.9011,-32.9765,2
1561243396.033961,67,0,0,1561243394.990289,4.602342559960301,-74.06501426368399,2657.367,0,292.1484375,3,10,-9999,1561243396.02983,-23.4222469329834,-4.226505756378174,22.2396240234375,113.8518524169922,121.3955383300781,20,65495.90198316667,-0.6822509765625,0.4200439453125,-0.0352630615234375,65495.89687325001,0.2139290672049751,0.4688457814829238,-0.0009877664483103894,65495.87786025,15.05291748046875,-2.276931762695312,-512.6944580078125,65495.89687325001,-1.219340304087328,-1.571658716252754,-0.5156942991355464,0.212749645113945,0.4633654654026031,-0.003588388208299875,0.1914070248603821,-0.08678215742111206,-0.02730047702789307,1,-0.5394335389137268,-0.4575877785682678,-0.2434432655572891,0.6635963916778564,-0.8699501156806946,0.4931389689445496,0.0007502359803766012,0,0,0,-1,65494.656706,2,0,1561243394.778108,1561243107.271691,28,1.054203,0,0,24.53997,0,0,1561243350.380748,65492.663664,0,-3.929199,74.58464,2650634390,177292352,1,1,0.15,-14.9011,-32.66913,2
1561243396.036797,68,0,0,1561243394.990289,4.602342559960301,-74.06501426368399,2657.367,0,292.1484375,3,10,-9999,1561243396.02983,-23.4222469329834,-4.226505756378174,22.2396240234375,113.8518524169922,121.3955383300781,20,65495.92221616667,-0.716949462890625,0.473358154296875,-0.0611114501953125,65495.91715016667,0.5023677890720781,0.3432913182072471,0.2081739760893139,65495.89798516667,14.719482421875,-2.291000366210938,-512.8838500976562,65495.91715016667,-1.210896336458886,-1.559616280527353,-0.5180230653046659,0.501188337802887,0.3378109931945801,0.2055733501911163,0.1674973964691162,-0.03292903304100037,-0.04666817188262939,1,-0.5365771651268005,-0.4552235007286072,-0.2431001961231232,0.6676517724990845,-0.8687455654144287,0.4951635599136353,-0.009713020175695419,0,0,0,-1,65494.656706,2,0,1561243394.778108,1561243107.271691,28,1.054203,0,0,24.53997,0,0,1561243350.380748,65492.663664,0,-3.929199,74.58464,2650634390,177292352,1,1,0.15,-14.9011,-33.13295,2
1561243396.055466,69,0,0,1561243395.990275,4.602342559960301,-74.06501426368399,2657.669,0,292.1484375,3,10,-9999,1561243396.053811,-23.55608749389648,-3.800621509552002,22.08551025390625,113.010124206543,120.5538101196289,20,65495.94248016667,-0.7531280517578125,0.480712890625,-0.063720703125,65495.93741416667,0.4680367131437577,0.3516587040361671,0.1929287104291553,65495.91806616667,14.5341796875,-1.894088745117188,-512.9758911132812,65495.93741416667,-1.198897127610015,-1.546578900601614,-0.5221919858806287,0.4668572843074799,0.3461783826351166,0.1903280764818192,0.113818883895874,-0.01552009582519531,-0.0391165018081665,1,-0.5332454442977905,-0.4529407918453217,-0.2411869019269943,0.6725495457649231,-0.8664738535881042,0.4987812042236328,-0.02098787017166615,0,0,0,-1,65494.656706,2,0,1561243394.778108,1561243107.271691,28,1.054203,0,0,24.53997,0,0,1561243350.380748,65492.663664,0,-3.929199,74.58464,2650634390,177292352,1,1,0.15,-14.9011,-33.13295,2
1561243396.075932,70,0,0,1561243395.990275,4.602342559960301,-74.06501426368399,2657.669,0,292.1484375,3,10,-9999,1561243396.053811,-23.55608749389648,-3.800621509552002,22.08551025390625,113.010124206543,120.5538101196289,20,65495.96274316667,-0.6995391845703125,0.43841552734375,-0.0453033447265625,65495.95767816667,0.1880133140051961,0.2459045771491205,-0.002865295016816252,65495.93817716667,14.43209838867188,-1.817901611328125,-513.1793212890625,65495.95767816667,-1.190994266042537,-1.536542724983647,-0.5240060098556006,0.1868338882923126,0.2404242604970932,-0.005465916823595762,0.1352723240852356,-0.04507613182067871,-0.0112113356590271,1,-0.5306780934333801,-0.4511705935001373,-0.2405926883220673,0.6759741306304932,-0.8653138279914856,0.5003526210784912,-0.0296517126262188,0,0,0,-1,65495.95325216667,3,2,1561243396.074654,1561243107.271691,28,1.054203,0,0,24.53997,0,0,1561243350.380748,65492.663664,0,-3.929199,74.58464,2650634390,177292352,1,1,0.15,-14.9011,-33.92685,2
1561243396.109169,71,0,0,1561243395.990275,4.602342559960301,-74.06501426368399,2657.669,0,292.1484375,3,10,-9999,1561243396.077974,-23.68942642211914,-3.520633459091187,21.9332275390625,112.563102722168,120.1067886352539,20,65495.98300716667,-0.70947265625,0.5094757080078125,0.0932464599609375,65495.97794116667,-0.1479306090706314,-0.3829607005406314,0.210058695192763,65495.95825716667,14.3831787109375,-1.403701782226562,-513.4137573242188,65495.97794116667,-1.188654971004349,-1.534000891630362,-0.52555684407917,-0.1491100341081619,-0.3884410262107849,0.2074580639600754,0.2252988815307617,-0.103455662727356,0.0948413610458374,1,-0.5302134156227112,-0.4505135715007782,-0.2399637550115585,0.6769996881484985,-0.8644590973854065,0.5016947984695435,-0.03182251006364822,0,0,0,-1,65495.95325216667,3,2,1561243396.074654,1561243107.271691,28,1.054203,0,0,24.53997,0,0,1561243350.380748,65492.663664,0,-3.929199,74.58464,2650634390,177292352,1,1,0.15,-7.822948,-22.24476,2
1561243396.116264,72,0,0,1561243395.990275,4.602342559960301,-74.06501426368399,2657.669,0,292.1484375,3,10,-9999,1561243396.113754,-23.71990585327148,-3.405668020248413,22.0087890625,112.751106262207,120.294792175293,20,65496.00327116667,-0.7464599609375,0.3944549560546875,-0.0138702392578125,65495.99820516667,-0.1420037440646601,0.4232282288548475,0.05954002617479252,65495.97836816667,14.53985595703125,-1.3438720703125,-513.021240234375,65495.99820516667,-1.194355073347416,-1.539507190302544,-0.5273092602160107,-0.143183171749115,0.4177479147911072,0.05693940445780754,0.2287315130233765,-0.07457530498504639,-0.1050150394439697,1,-0.532572329044342,-0.450388103723526,-0.2398491352796555,0.6752700805664062,-0.8637412190437317,0.5032099485397339,-0.02703454159200191,0,0,0,-1,65495.95325216667,3,2,1561243396.074654,1561243107.271691,28,1.054203,0,0,24.53997,0,0,1561243350.380748,65492.663664,0,-3.929199,74.58464,2650634390,177292352,1,1,0.15,-7.822948,-22.24476,2
1561243396.13652,73,0,0,1561243395.990275,4.602342559960301,-74.06501426368399,2657.669,0,292.1484375,3,10,-9999,1561243396.113754,-23.71990585327148,-3.405668020248413,22.0087890625,112.751106262207,120.294792175293,20,65496.02353416667,-0.7444305419921875,0.438140869140625,-0.08551025390625,65496.01843816667,0.2355640552685608,0.7184124714470123,0.3589062306267087,65495.99844916667,14.46060180664062,-1.356796264648438,-513.3233032226562,65496.01843816667,-1.192976560402796,-1.525379858620211,-0.5311934609922946,0.2343846261501312,0.7129321098327637,0.3563056290149689,0.09414780139923096,-0.07438802719116211,-0.007302999496459961,1,-0.5314816832542419,-0.4449211657047272,-0.2418596297502518,0.6790258884429932,-0.8613138794898987,0.5065627098083496,-0.03914475440979004,0,0,0,-1,65495.95325216667,3,2,1561243396.074654,1561243107.271691,28,1.054203,0,0,24.53997,0,0,1561243350.380748,65493.604352,0,-3.929199,74.58464,2650634390,177292352,1,1,0.15,-7.822948,-22.78458,2
1561243396.156836,74,0,0,1561243395.990275,4.602342559960301,-74.06501426368399,2657.669,0,292.1484375,3,10,-9999,1561243396.155054,-24.04411315917969,-3.158624172210693,21.382080078125,112.1505737304688,119.6942596435547,20,65496.04376816667,-0.736663818359375,0.4075469970703125,-0.1001739501953125,65496.03870216667,0.4570817999997168,0.8729599705620545,0.5196967119691147,65496.01856016667,14.15339660644531,-1.133132934570312,-513.7692260742188,65496.03870216667,-1.183869331057019,-1.50534966059242,-0.5399681773556922,0.4559094309806824,0.8674904108047485,0.5170947313308716,0.1073384284973145,-0.06473737955093384,-0.01967990398406982,1,-0.5291522145271301,-0.4381213784217834,-0.2411826401948929,0.6854768991470337,-0.855888843536377,0.5141087174415588,-0.0560951828956604,0,0,0,-1,65495.95325216667,3,2,1561243396.074654,1561243107.271691,28,1.054203,0,0,24.53997,0,0,1561243350.380748,65493.604352,0,-3.929199,74.58464,2650634390,177292352,1,1,0.15,-7.822948,-23.45061,2
1561243396.185111,75,0,0,1561243395.990275,4.602342559960301,-74.06501426368399,2657.669,0,292.1484375,3,10,-9999,1561243396.155054,-24.04411315917969,-3.158624172210693,21.382080078125,112.1505737304688,119.6942596435547,20,65496.06403116667,-0.7320098876953125,0.403472900390625,-0.0399017333984375,65496.05896516667,0.5749394614089555,0.6397799771013326,0.5649574010111205,65496.03864116667,13.7476806640625,-0.6593475341796875,-514.230712890625,65496.05896516667,-1.1706317268646,-1.480549372348163,-0.5503753752427653,0.5737670660018921,0.6343104243278503,0.5623553991317749,0.1157052516937256,-0.1261870861053467,-0.009793281555175781,1,-0.5258280634880066,-0.4302290380001068,-0.2397584915161133,0.6934865117073059,-0.8488595485687256,0.5230072140693665,-0.0768156424164772,0,0,0,-1,65495.95325216667,3,2,1561243396.074654,1561243107.271691,28,1.054203,0,0,24.53997,0,0,1561243350.380748,65493.604352,0,-3.929199,74.58464,2650634390,177292352,1,1,0.15,-7.822948,-24.36877,2
1561243396.19732,76,0,0,1561243395.990275,4.602342559960301,-74.06501426368399,2657.669,0,292.1484375,3,10,-9999,1561243396.183117,-24.58726119995117,-2.704875707626343,20.90130615234375,111.1417770385742,118.6854629516602,20,65496.08429516667,-0.7916717529296875,0.4131317138671875,0.1174774169921875,65496.07922916667,0.6232002014189354,-0.6992126778841949,0.2092016899539755,65496.05875216667,13.17460632324219,-0.1263885498046875,-514.313720703125,65496.07922916667,-1.154841432774345,-1.473550282457149,-0.5577048291691047,0.6220278143882751,-0.7046822309494019,0.206599697470665,0.09695059061050415,-0.1142622232437134,0.1341078281402588,1,-0.523411750793457,-0.4299416840076447,-0.2337130606174469,0.6975446939468384,-0.8444634079933167,0.5292401909828186,-0.08238057792186737,0,0,0,-1,65495.95325216667,3,2,1561243396.074654,1561243107.271691,28,1.054203,0,0,24.53997,0,0,1561243350.380748,65493.604352,0,-3.929199,74.58464,2650634390,177292352,1,1,0.15,-7.822948,-24.36877,2
1561243396.217597,77,0,0,1561243395.990275,4.602342559960301,-74.06501426368399,2657.669,0,292.1484375,3,10,-9999,1561243396.205678,-24.65908432006836,-1.806936740875244,20.77471923828125,110.138313293457,117.681999206543,20,65496.10455916667,-0.831451416015625,0.3541412353515625,0.0970916748046875,65496.09949316667,0.2846290699277447,-0.9011226327735335,-0.4303641689957148,65496.07883216667,13.49678039550781,0.2332000732421875,-514.5443115234375,65496.09949316667,-1.144225936878459,-1.486297739538848,-0.5543316407015194,0.2834567129611969,-0.9065921902656555,-0.4329661428928375,0.03455102443695068,-0.1532672047615051,0.1706671118736267,1,-0.5217432975769043,-0.4380685985088348,-0.2277883738279343,0.6956955790519714,-0.8472188711166382,0.5263751149177551,-0.0717596709728241,0,0,0,-1,65495.95325216667,3,2,1561243396.074654,1561243107.271691,28,1.054203,0,0,24.53997,0,0,1561243350.380748,65493.604352,0,-3.929199,74.58464,2650634390,177292352,1,1,0.15,-7.822948,-25.20721,2
1561243396.237973,78,0,0,1561243395.990275,4.602342559960301,-74.06501426368399,2657.669,0,292.1484375,3,10,-9999,1561243396.230381,-24.25858879089355,-1.777413606643677,21.41326904296875,109.8364105224609,117.3800964355469,20,65496.12482216667,-0.7906341552734375,0.3460540771484375,0.045135498046875,65496.11975616667,0.08167994958105726,-0.6232505351635379,-0.5914337496203612,65496.09891316667,13.81221008300781,0.4427947998046875,-513.7593383789062,65496.11975616667,-1.14141014087282,-1.500152848330016,-0.5426551146710031,0.08050757646560669,-0.6287201046943665,-0.5940357446670532,0.01953375339508057,-0.1622702479362488,0.1454665660858154,1,-0.5198068022727966,-0.4467422068119049,-0.227042093873024,0.6918628811836243,-0.8542047739028931,0.5164114832878113,-0.06044457852840424,0,0,0,-1,65495.95325216667,3,2,1561243396.074654,1561243107.271691,28,1.054203,0,0,24.53997,0,0,1561243350.380748,65493.604352,0,-3.929199,74.58464,2650634390,177292352,1,1,0.15,-7.822948,-26.21464,2
1561243396.268942,79,0,0,1561243395.990275,4.602342559960301,-74.06501426368399,2657.669,0,292.1484375,3,10,-9999,1561243396.256389,-23.91159248352051,-2.053208589553833,21.71112060546875,109.7345123291016,117.2781982421875,20,65496.14508616667,-0.7555999755859375,0.397216796875,0.0469512939453125,65496.13999016667,0.09918597269058413,-0.08689308741488737,-0.102273641658422,65496.11902416667,14.38522338867188,-0.002960205078125,-513.5767822265625,65496.13999016667,-1.139968618776331,-1.506976096665154,-0.5347268420700567,0.09801360219717026,-0.0923626720905304,-0.1048756390810013,0.08013755083084106,-0.1360098123550415,0.101764440536499,1,-0.5182977318763733,-0.45158651471138,-0.2273859977722168,0.6897338032722473,-0.8586562871932983,0.5096060037612915,-0.05487416312098503,0,0,0,-1,65495.95325216667,3,2,1561243396.074654,1561243107.271691,28,1.054203,0,0,24.53997,0,0,1561243350.380748,65493.604352,0,-3.929199,74.58464,2650634390,177292352,1,1,0.15,-7.822948,-27.31918,2
1561243396.278977,80,0,0,1561243395.990275,4.602342559960301,-74.06501426368399,2657.669,0,292.1484375,3,10,-9999,1561243396.256389,-23.91159248352051,-2.053208589553833,21.71112060546875,109.7345123291016,117.2781982421875,20,65496.16531916667,-0.7659149169921875,0.4800567626953125,0.0217437744140625,65496.16025316667,-0.1406122423950937,0.4413664864071592,0.4741452057360724,65496.13913516667,14.47488403320312,0.1411895751953125,-513.300048828125,65496.16025316667,-1.139667819252152,-1.503095720187567,-0.5391565268862647,-0.1417846083641052,0.4358969032764435,0.4715432226657867,0.1136987805366516,-0.07818591594696045,0.0824970006942749,1,-0.5188851952552795,-0.4491458237171173,-0.2268280386924744,0.691068172454834,-0.8561761975288391,0.5134123563766479,-0.05805236473679543,0,0,0,-1,65495.95325216667,3,2,1561243396.074654,1561243107.271691,28,1.054203,0,0,24.53997,0,0,1561243350.380748,65493.604352,0,-3.929199,74.58464,2650634390,177292352,1,1,0.15,-7.822948,-27.31918,2
1561243396.298596,81,0,0,1561243395.990275,4.602342559960301,-74.06501426368399,2657.669,0,292.1484375,3,10,-9999,1561243396.280681,-23.77052307128906,-1.694507360458374,21.8505859375,109.826286315918,117.3699722290039,20,65496.18558316667,-0.855804443359375,0.5228271484375,-0.01007080078125,65496.18051716667,-0.3305140039292649,0.3427520280865061,0.3614538105254785,65496.15921616667,14.31623840332031,0.1112213134765625,-513.4204711914062,65496.18051716667,-1.145075752131862,-1.497147903806092,-0.5489619918510851,-0.3316863775253296,0.3372824490070343,0.358851820230484,0.03674346208572388,-0.01582056283950806,0.07479417324066162,1,-0.5218378305435181,-0.4430577456951141,-0.2270171344280243,0.692710816860199,-0.8507540225982666,0.5218020081520081,-0.06277022510766983,0,0,0,-1,65495.95325216667,3,2,1561243396.074654,1561243107.271691,28,1.054203,0,0,24.53997,0,0,1561243350.380748,65493.604352,0,-3.929199,74.58464,2650634390,177292352,1,1,0.15,-7.822948,-27.91807,2
1561243396.318895,82,0,0,1561243395.990275,4.602342559960301,-74.06501426368399,2657.669,0,292.1484375,3,10,-9999,1561243396.306999,-24.13459968566895,-1.994060158729553,21.32244873046875,110.3191833496094,117.8628692626953,20,65496.20584616667,-0.87225341796875,0.5372467041015625,-0.1274566650390625,65496.20078116667,-0.1943942479770259,-0.01244947914779341,-0.1014989280973179,65496.17932716667,14.22328186035156,0.1610565185546875,-513.69384765625,65496.20078116667,-1.151812955397616,-1.497353545070291,-0.5519401081833835,-0.1955666095018387,-0.01791906356811523,-0.1041009202599525,-0.03080683946609497,0.002072751522064209,-0.000308990478515625,1,-0.5240814089775085,-0.4405657649040222,-0.2283159643411636,0.6921793222427368,-0.8492133021354675,0.5243402123451233,-0.06248096749186516,0,0,0,-1,65495.95325216667,3,2,1561243396.074654,1561243107.271691,28,1.054203,0,0,24.53997,0,0,1561243350.380748,65493.604352,0,-3.929199,74.58464,2650634390,177292352,1,1,0.15,-7.822948,-28.481,2
1561243396.349636,83,0,0,1561243395.990275,4.602342559960301,-74.06501426368399,2657.669,0,292.1484375,3,10,-9999,1561243396.331364,-24.27121543884277,-1.991201519966125,21.43621826171875,110.4646377563477,118.0083236694336,20,65496.22611016667,-0.875518798828125,0.585784912109375,-0.1312408447265625,65496.22104416667,0.2445940355766925,-0.3348144764575249,-0.3165023144860311,65496.19940716667,13.79206848144531,0.3024749755859375,-513.7576293945312,65496.22104416667,-1.151807049957203,-1.501084668865508,-0.547297192048404,0.2434216737747192,-0.3402840495109558,-0.3191042840480804,-0.0224534273147583,0.04687964916229248,-0.08517241477966309,1,-0.5233686566352844,-0.443108081817627,-0.2288648188114166,0.6909133791923523,-0.8518599271774292,0.5203810930252075,-0.05948095396161079,0,0,0,-1,65495.95325216667,3,2,1561243396.074654,1561243107.271691,28,1.054203,0,0,24.53997,0,0,1561243350.380748,65493.604352,0,-3.929199,74.58464,2650634390,177292352,1,1,0.15,-7.822948,-29.30558,2
1561243396.359509,84,0,0,1561243395.990275,4.602342559960301,-74.06501426368399,2657.669,0,292.1484375,3,10,-9999,1561243396.357791,-24.02595901489258,-2.14413046836853,21.43218994140625,109.8841094970703,117.4277954101562,20,65496.24637416667,-0.9169158935546875,0.6074066162109375,-0.1171112060546875,65496.24127716667,0.4410799302738667,-0.6148653061553143,-0.4143444560905612,65496.21951816667,14.23519897460938,0.0931243896484375,-513.7201538085938,65496.24127716667,-1.143522882426943,-1.506850202475715,-0.539310620129468,0.4399075508117676,-0.6203348636627197,-0.4169464409351349,-0.03071486949920654,0.08814001083374023,-0.06798553466796875,1,-0.5202153325080872,-0.4493993818759918,-0.2271327376365662,0.6898020505905151,-0.8563091158866882,0.5135445594787598,-0.05483240634202957,0,0,0,-1,65495.95325216667,3,2,1561243396.074654,1561243107.271691,28,1.054203,0,0,24.53997,0,0,1561243350.380748,65493.604352,0,-3.929199,74.58464,2650634390,177292352,1,1,0.15,-7.822948,-29.30558,2
1561243396.379629,85,0,0,1561243395.990275,4.602342559960301,-74.06501426368399,2657.669,0,292.1484375,3,10,-9999,1561243396.357791,-24.02595901489258,-2.14413046836853,21.43218994140625,109.8841094970703,117.4277954101562,20,65496.26660716667,-0.9093780517578125,0.5439300537109375,-0.0845794677734375,65496.26154116667,0.3504871794726412,-0.6263776189155089,-0.5150026242317411,65496.23959916667,14.43092346191406,-0.0200958251953125,-513.5025634765625,65496.26154116667,-1.134939718604328,-1.51562555754619,-0.5292562529761934,0.34931480884552,-0.6318472027778625,-0.5176045894622803,-0.0568774938583374,0.08087813854217529,-0.05700069665908813,1,-0.5167808532714844,-0.457316517829895,-0.2252226322889328,0.6878036856651306,-0.8618694543838501,0.5048915147781372,-0.04759830608963966,0,0,0,-1,65495.95325216667,3,2,1561243396.074654,1561243107.271691,28,1.054203,0,0,24.53997,0,0,1561243350.380748,65493.604352,0,-3.929199,74.58464,2650634390,177292352,1,1,0.15,-7.822948,-30.00796,2
1561243396.400149,86,0,0,1561243395.990275,4.602342559960301,-74.06501426368399,2657.669,0,292.1484375,3,10,-9999,1561243396.382069,-23.69074440002441,-2.067452430725098,21.7193603515625,109.3129959106445,116.8566818237305,20,65496.28687116667,-0.875762939453125,0.462310791015625,-0.048675537109375,65496.28180516667,0.3317060348331844,-0.6437685934659443,-0.5150694695751021,65496.25971016667,14.63714599609375,-0.2382659912109375,-513.2659301757812,65496.28180516667,-1.127958536459902,-1.525340148446256,-0.5183888415336985,0.3305336833000183,-0.6492381691932678,-0.5176714658737183,-0.03012114763259888,0.01208704710006714,-0.03085726499557495,1,-0.5135703086853027,-0.4653066694736481,-0.2239235043525696,0.6852688789367676,-0.8677212595939636,0.4954813122749329,-0.03947048261761665,0,0,0,-1,65495.95325216667,3,2,1561243396.074654,1561243107.271691,28,1.054203,0,0,24.53997,0,0,1561243350.380748,65493.604352,0,-3.929199,74.58464,2650634390,177292352,1,1,0.15,-7.822948,-30.7847,2
1561243396.437024,87,0,0,1561243395.990275,4.602342559960301,-74.06501426368399,2657.669,0,292.1484375,3,10,-9999,1561243396.409068,-23.09938430786133,-2.177186012268066,22.535400390625,108.7895736694336,116.3332595825195,20,65496.30713416667,-0.8451385498046875,0.4154815673828125,-0.0042724609375,65496.30206816667,0.3361263496104979,-0.4533802724006156,-0.3814432313515043,65496.27979116667,15.09071350097656,-0.00787353515625,-512.7496337890625,65496.30206816667,-1.120184147106532,-1.532400117347293,-0.5088709478629003,0.3349539935588837,-0.4588498473167419,-0.3840452134609222,0.007874727249145508,-0.06287515163421631,0.02171266078948975,1,-0.5101709961891174,-0.4721907079219818,-0.2226168662309647,0.6835225820541382,-0.8726513385772705,0.4871915578842163,-0.03352297842502594,0,0,0,-1,65495.95325216667,3,2,1561243396.074654,1561243107.271691,28,1.054203,0,0,24.53997,0,0,1561243350.380748,65493.604352,0,-3.929199,74.58464,2650634390,177292352,1,1,0.15,-7.822948,-31.87624,2
1561243396.44052,88,0,0,1561243395.990275,4.602342559960301,-74.06501426368399,2657.669,0,292.1484375,3,10,-9999,1561243396.433662,-23.01163482666016,-2.297395706176758,22.66497802734375,108.2745208740234,115.8182067871094,20,65496.32739816667,-0.8343048095703125,0.4389801025390625,0.053497314453125,65496.32233216667,0.2734374017627957,-0.3002058991436182,-0.2311589205094608,65496.29990216667,15.184814453125,-0.223907470703125,-512.7279052734375,65496.32233216667,-1.113141700812699,-1.536502091628757,-0.5026728827398078,0.2722650468349457,-0.3056754767894745,-0.2337609082460403,0.04388886690139771,-0.05650705099105835,0.05859524011611938,1,-0.5074082612991333,-0.4769840836524963,-0.2212301343679428,0.6827007532119751,-0.8757827877998352,0.4817695021629333,-0.03004608117043972,0,0,0,-1,65495.95325216667,3,2,1561243396.074654,1561243107.271691,28,1.054203,0,0,24.53997,0,0,1561243350.380748,65493.604352,0,-3.929199,74.58464,2650634390,177292352,1,1,0.15,-7.822948,-31.87624,2
1561243396.460705,89,0,0,1561243395.990275,4.602342559960301,-74.06501426368399,2657.669,0,292.1484375,3,10,-9999,1561243396.4589,-22.78428268432617,-2.063009023666382,22.8076171875,108.0513916015625,115.5950775146484,20,65496.34766216667,-0.853790283203125,0.46856689453125,0.0317840576171875,65496.34259616667,-0.01069498862164921,-0.09649671262182211,-0.1624166075040085,65496.31998216667,15.44688415527344,0.020294189453125,-512.5294189453125,65496.34259616667,-1.109719078457428,-1.538789314454329,-0.4988188573937916,-0.01186735928058624,-0.1019662916660309,-0.1650186032056808,0.02836388349533081,-0.02582824230194092,0.07845616340637207,1,-0.505877673625946,-0.4796214401721954,-0.2207666784524918,0.6821387410163879,-0.8776986002922058,0.4783886671066284,-0.02810210734605789,0,0,0,-1,65495.95325216667,3,2,1561243396.074654,1561243107.271691,28,1.054203,0,0,24.53997,0,0,1561243350.380748,65493.604352,0,-3.929199,74.58464,2650634390,177292352,1,1,0.15,-7.822948,-32.52038,2
1561243396.480989,90,0,0,1561243395.990275,4.602342559960301,-74.06501426368399,2657.669,0,292.1484375,3,10,-9999,1561243396.4589,-22.78428268432617,-2.063009023666382,22.8076171875,108.0513916015625,115.5950775146484,20,65496.36792516667,-0.866851806640625,0.4906005859375,-0.01239013671875,65496.36282916667,-0.2200599303504465,-0.00980123175981862,-0.201993045515349,65496.34009316667,15.66229248046875,-0.210693359375,-512.2604370117188,65496.36282916667,-1.112980917516006,-1.541256486914634,-0.4954043518469336,-0.2212322950363159,-0.01527081523090601,-0.2045950442552567,0.01608085632324219,0.01130691170692444,0.03781020641326904,1,-0.5060790181159973,-0.4805119037628174,-0.2223916053771973,0.6808334589004517,-0.8793926239013672,0.4753874242305756,-0.02598467469215393,0,0,0,-1,65495.95325216667,3,2,1561243396.074654,1561243107.271691,28,1.054203,0,0,24.53997,0,0,1561243350.380748,65493.604352,0,-3.929199,74.58464,2650634390,177292352,1,1,0.15,-7.822948,-33.37738,2
1561243396.517848,91,0,0,1561243395.990275,4.602342559960301,-74.06501426368399,2657.669,0,292.1484375,3,10,-9999,1561243396.514216,-22.29860687255859,-2.46455717086792,22.961669921875,108.3543548583984,115.8980407714844,20,65496.38815816667,-0.8981170654296875,0.493255615234375,-0.0306243896484375,65496.38309316667,-0.130136165615049,-0.02853896687350713,-0.1873190279090124,65496.36017416667,15.63050842285156,-0.5475311279296875,-512.2987060546875,65496.38309316667,-1.117620488240848,-1.54371440998827,-0.4914474191569261,-0.131308525800705,-0.03400855138897896,-0.1899210214614868,0.001246333122253418,0.02075797319412231,-0.007620275020599365,1,-0.5064800977706909,-0.4811870455741882,-0.224665105342865,0.6793103814125061,-0.8813275098800659,0.4719024896621704,-0.02387387491762638,0,0,0,-1,65495.95325216667,3,2,1561243396.074654,1561243107.271691,28,1.054203,0,0,24.53997,0,0,1561243350.380748,65493.604352,0,-3.929199,74.58464,2650634390,177292352,1,1,0.15,-7.822948,-34.04469,2
1561243396.521416,92,0,0,1561243395.990275,4.602342559960301,-74.06501426368399,2657.669,0,292.1484375,3,10,-9999,1561243396.514216,-22.29860687255859,-2.46455717086792,22.961669921875,108.3543548583984,115.8980407714844,20,65496.40842216667,-0.915283203125,0.456085205078125,-0.030364990234375,65496.40335616667,0.02360439568969931,-0.0817989928817838,-0.2084104647941129,65496.38028516667,15.74528503417969,-0.6796875,-512.23876953125,65496.40335616667,-1.118899677338108,-1.545777059278693,-0.4874203336154849,0.02243202552199364,-0.08726857602596283,-0.2110124528408051,-0.02176195383071899,0.006917327642440796,-0.006628990173339844,1,-0.5060151219367981,-0.4825940728187561,-0.2259181141853333,0.6782422661781311,-0.883267343044281,0.4683482050895691,-0.0221033152192831,0,0,0,-1,65495.95325216667,3,2,1561243396.074654,1561243107.271691,28,1.054203,0,0,24.53997,0,0,1561243350.380748,65493.604352,0,-3.929199,74.58464,2650634390,177292352,1,1,0.15,-7.822948,-34.04469,2
1561243396.54226,93,0,0,1561243395.990275,4.602342559960301,-74.06501426368399,2657.669,0,292.1484375,3,10,-9999,1561243396.514216,-22.29860687255859,-2.46455717086792,22.961669921875,108.3543548583984,115.8980407714844,20,65496.42868616667,-0.9121246337890625,0.4402618408203125,-0.0292205810546875,65496.42362016667,0.1298080641687512,-0.1597851380309012,-0.2361821749575682,65496.40036616667,15.67230224609375,-0.66888427734375,-512.0951538085938,65496.42362016667,-1.117369786445809,-1.548046200013692,-0.4826640019047385,0.1286357045173645,-0.1652547270059586,-0.2387841641902924,-0.02869784832000732,-0.01644760370254517,-0.01105475425720215,1,-0.5047129392623901,-0.4849640429019928,-0.2264102846384048,0.6773574948310852,-0.8855324387550354,0.4641405045986176,-0.02014945261180401,0,0,0,-1,65495.95325216667,3,2,1561243396.074654,1561243107.271691,28,1.054203,0,0,24.53997,0,0,1561243350.380748,65493.604352,0,-3.929199,74.58464,2650634390,177292352,1,1,0.15,-7.822948,-34.70674,2
1561243396.561983,94,0,0,1561243395.990275,4.602342559960301,-74.06501426368399,2657.669,0,292.1484375,3,10,-9999,1561243396.560202,-22.46184158325195,-2.756343364715576,23.12313842773438,108.318000793457,115.861686706543,20,65496.44895016667,-0.88720703125,0.4370880126953125,-0.0270843505859375,65496.44388416667,0.1025998788919567,-0.1324326094230243,-0.1513849953205732,65496.42044616667,15.81108093261719,-0.795623779296875,-512.0462646484375,65496.44388416667,-1.114651337856174,-1.549983317264648,-0.4787528255321362,0.1014275103807449,-0.1379022002220154,-0.1539869904518127,-0.01275330781936646,-0.02359980344772339,-0.01448732614517212,1,-0.5032921433448792,-0.4872998893260956,-0.2263048738241196,0.6767731904983521,-0.887377917766571,0.4606725871562958,-0.01847167313098907,0,0,0,-1,65495.95325216667,3,2,1561243396.074654,1561243107.271691,28,1.054203,0,0,24.53997,0,0,1561243350.380748,65493.604352,0,-3.929199,74.58464,2650634390,177292352,1,1,0.15,-7.822948,-35.19201,2
1561243396.589835,95,0,0,1561243395.990275,4.602342559960301,-74.06501426368399,2657.669,0,292.1484375,3,10,-9999,1561243396.585491,-22.11603736877441,-2.89113974571228,23.10540771484375,108.2777709960938,115.8214569091797,20,65496.46921316667,-0.8842926025390625,0.4373931884765625,-0.0015411376953125,65496.46414716667,0.009284578508343248,-0.0926007742631452,-0.1295891523271467,65496.44055716667,16.10427856445312,-0.7663726806640625,-512.1526489257812,65496.46414716667,-1.113415601130489,-1.551938147223548,-0.4759835693057196,0.008112208917737007,-0.09807035326957703,-0.1321911513805389,0.003079593181610107,-0.02518373727798462,0.0003119707107543945,1,-0.5025174021720886,-0.4889742136001587,-0.2263184189796448,0.6761364340782166,-0.8886844515800476,0.4582129120826721,-0.01676095835864544,0,0,0,-1,65495.95325216667,3,2,1561243396.074654,1561243107.271691,28,1.054203,0,0,24.53997,0,0,1561243350.380748,65493.604352,0,-3.929199,74.58464,2650634390,177292352,1,1,0.15,-7.822948,-35.6596,2
1561243396.602654,96,0,0,1561243395.990275,4.602342559960301,-74.06501426368399,2657.669,0,292.1484375,3,10,-9999,1561243396.585491,-22.11603736877441,-2.89113974571228,23.10540771484375,108.2777709960938,115.8214569091797,20,65496.48947716667,-0.88616943359375,0.45635986328125,0.0068206787109375,65496.48438016667,-0.1005617617097191,-0.04426546574264305,-0.1865914522992027,65496.46063816667,16.0579833984375,-0.9275360107421875,-511.9949340820312,65496.48438016667,-1.114573108460248,-1.553851049294287,-0.4728701823450413,-0.1017341315746307,-0.04973504692316055,-0.1891934424638748,0.005295157432556152,-0.003981590270996094,0.01777064800262451,1,-0.5022368431091309,-0.4901179671287537,-0.2272669821977615,0.6751980185508728,-0.8901370763778687,0.4554433822631836,-0.01508506387472153,0,0,0,-1,65495.95325216667,3,2,1561243396.074654,1561243107.271691,28,1.054203,0,0,24.53997,0,0,1561243350.380748,65493.604352,0,-3.929199,74.58464,2650634390,177292352,1,1,0.15,-7.822948,-35.74831,2
1561243396.622903,97,0,0,1561243395.990275,4.602342559960301,-74.06501426368399,2657.669,0,292.1484375,3,10,-9999,1561243396.610834,-22.11588287353516,-3.112464666366577,23.15298461914062,108.4360122680664,115.9796981811523,20,65496.50971016667,-0.876251220703125,0.4671173095703125,-0.02655029296875,65496.50464416667,-0.1096593863095387,-0.08987396362301306,-0.285512174145215,65496.48074916667,15.9359130859375,-0.9373626708984375,-512.0169677734375,65496.50464416667,-1.117289099512522,-1.556315857126798,-0.4681329227781649,-0.1108317598700523,-0.09534354507923126,-0.2881141602993011,0.006942868232727051,0.01484358310699463,0.01545500755310059,1,-0.5019971132278442,-0.4914650022983551,-0.2291432470083237,0.6737614870071411,-0.8923189043998718,0.4512208700180054,-0.01292209979146719,0,0,0,-1,65495.95325216667,3,2,1561243396.074654,1561243107.271691,28,1.054203,0,0,24.53997,0,0,1561243350.380748,65493.604352,0,-3.929199,74.58464,2650634390,177292352,1,1,0.15,-7.822948,-31.45446,2
1561243396.643079,98,0,0,1561243395.990275,4.602342559960301,-74.06501426368399,2657.669,0,292.1484375,3,10,-9999,1561243396.635647,-22.03631782531738,-3.188496112823486,23.0750732421875,108.5464019775391,116.090087890625,20,65496.52997416667,-0.8680877685546875,0.4408111572265625,-0.0211334228515625,65496.52490816667,0.03755403347953436,-0.117766847616067,-0.2703052580047535,65496.50082916667,15.96012878417969,-1.044952392578125,-511.8683471679688,65496.52490816667,-1.11812853294168,-1.558832697660138,-0.4620619149020959,0.03638166189193726,-0.1232364326715469,-0.2729072272777557,0.02359592914581299,0.01145017147064209,-0.02051067352294922,1,-0.500971257686615,-0.4936328530311584,-0.2308177947998047,0.6723671555519104,-0.8950712084770203,0.4457947313785553,-0.01070881076157093,0,0,0,-1,65495.95325216667,3,2,1561243396.074654,1561243107.271691,28,1.054203,0,0,24.53997,0,0,1561243350.380748,65493.604352,0,-3.929199,74.58464,2650634390,177292352,1,1,0.15,-7.822948,-29.52071,2
1561243396.6754,99,0,0,1561243395.990275,4.602342559960301,-74.06501426368399,2657.669,0,292.1484375,3,10,-9999,1561243396.661581,-21.92936706542969,-3.254080772399902,23.23141479492188,108.5204086303711,116.064094543457,20,65496.55023716667,-0.898223876953125,0.39453125,0.0049285888671875,65496.54517116667,-0.02097665464211813,-0.02715598731942898,-0.08536336768474585,65496.54102116667,16.20600891113281,-1.347091674804688,-511.6715698242188,65496.54517116667,-1.117594060495969,-1.560297082858894,-0.4584330660252064,-0.02214902453124523,-0.03262557089328766,-0.08796536177396774,0.01376307010650635,-0.02518510818481445,-0.005141854286193848,1,-0.5000976920127869,-0.4951714873313904,-0.2314808815717697,0.6716577410697937,-0.8966976404190063,0.4425435066223145,-0.009414993226528168,0,0,0,-1,65495.95325216667,3,2,1561243396.074654,1561243107.271691,28,1.054203,0,0,24.53997,0,0,1561243350.380748,65493.604352,0,-3.929199,74.58464,2650634390,177292352,1,1,0.15,-7.822948,-30.14044,2
1561243396.683271,100,0,0,1561243395.990275,4.602342559960301,-74.06501426368399,2657.669,0,292.1484375,3,10,-9999,1561243396.661581,-21.92936706542969,-3.254080772399902,23.23141479492188,108.5204086303711,116.064094543457,20,65496.57050116667,-0.9164276123046875,0.38824462890625,0.027801513671875,65496.56543516667,-0.175779018273481,0.1021031993486569,0.007818242012145619,65496.56110216667,16.25434875488281,-1.387908935546875,-511.8876953125,65496.56543516667,-1.119871414137971,-1.560649798344166,-0.4578728661975425,-0.1769513785839081,0.09663361310958862,0.00521624693647027,-0.01163583993911743,-0.0567566454410553,0.02994471788406372,1,-0.5005616545677185,-0.4948610067367554,-0.232343852519989,0.671242892742157,-0.8969486951828003,0.4420410692691803,-0.009101227857172489,0,0,0,-1,65495.95325216667,3,2,1561243396.074654,1561243107.271691,28,1.054203,0,0,24.53997,0,0,1561243350.380748,65493.604352,0,-3.929199,74.58464,2650634390,177292352,1,1,0.15,-7.822948,-30.14044,2
1561243396.703784,101,0,0,1561243395.990275,4.602342559960301,-74.06501426368399,2657.669,0,292.1484375,3,10,-9999,1561243396.686711,-22.11600494384766,-3.451968669891357,23.17630004882812,108.7530212402344,116.2967071533203,20,65496.59076516667,-0.8955078125,0.4347381591796875,0.00079345703125,65496.58569916667,-0.2350476683331945,0.1461239205871217,-0.03971731923300573,65496.58118216667,15.97457885742188,-1.440826416015625,-511.8964233398438,65496.58569916667,-1.124957391611668,-1.560349345278101,-0.4576595172238387,-0.2362200319766998,0.1406543254852295,-0.04231931641697884,-0.009469151496887207,-0.03419587016105652,0.02989482879638672,1,-0.5017299056053162,-0.4935395121574402,-0.2341964393854141,0.6706995964050293,-0.8970401883125305,0.4418497085571289,-0.009371703490614891,0,0,0,-1,65495.95325216667,3,2,1561243396.074654,1561243107.271691,28,1.054203,0,0,24.53997,0,0,1561243350.380748,65493.604352,0,-3.929199,74.58464,2650634390,177292352,1,1,0.15,-7.822948,-29.72298,2
1561243396.753517,102,0,0,1561243395.990275,4.602342559960301,-74.06501426368399,2657.669,0,292.1484375,3,10,-9999,1561243396.736524,-22.06605339050293,-3.661907434463501,22.97320556640625,109.3209457397461,116.864631652832,20,65496.61102816667,-0.884735107421875,0.4730072021484375,-0.0413055419921875,65496.60593216667,-0.1556844025843971,0.07920081292230249,-0.0913339085325945,65496.60129316667,16.099365234375,-1.482757568359375,-512.264892578125,65496.60593216667,-1.129507755052696,-1.560112579654023,-0.4563650147939152,-0.1568567603826523,0.07373122870922089,-0.09393590688705444,0.01136332750320435,0.01835739612579346,-0.01499176025390625,1,-0.5025002360343933,-0.4926443099975586,-0.2362116277217865,0.6700739860534668,-0.8976090550422668,0.4406880438327789,-0.009590193629264832,0,0,0,-1,65496.60147616667,3,2,1561243396.722878,1561243107.271691,28,1.054203,0,0,24.53997,0,0,1561243350.380748,65493.604352,0,-3.929199,74.58464,2650634390,177292352,1,1,0.15,-7.822948,-30.33104,2
1561243396.75679,103,0,0,1561243395.990275,4.602342559960301,-74.06501426368399,2657.669,0,292.1484375,3,10,-9999,1561243396.736524,-22.06605339050293,-3.661907434463501,22.97320556640625,109.3209457397461,116.864631652832,20,65496.63126216667,-0.9154510498046875,0.447174072265625,-0.0484161376953125,65496.62619616667,-0.04178712803221531,-0.01345349087875329,-0.1134629129783899,65496.62137416667,15.84757995605469,-1.699966430664062,-512.3526611328125,65496.62619616667,-1.131677387018133,-1.560470464499246,-0.4542554753856525,-0.04295950010418892,-0.0189230740070343,-0.1160649061203003,0.001857161521911621,0.02713370323181152,-0.03546023368835449,1,-0.5025500655174255,-0.4927516281604767,-0.2375492304563522,0.6694844961166382,-0.8985399007797241,0.438793420791626,-0.009278529323637486,0,0,0,-1,65496.60147616667,3,2,1561243396.722878,1561243107.271691,28,1.054203,0,0,24.53997,0,0,1561243350.380748,65493.604352,0,-3.929199,74.58464,2650634390,177292352,1,1,0.15,-7.822948,-30.49903,2
1561243396.764558,104,0,0,1561243395.990275,4.602342559960301,-74.06501426368399,2657.669,0,292.1484375,3,10,-9999,1561243396.762786,-22.03635787963867,-3.589457988739014,22.8468017578125,109.3608474731445,116.9045333862305,20,65496.65152516667,-0.9130706787109375,0.4129638671875,-0.0294342041015625,65496.64645916667,-0.0151208960372519,-0.02454475787060629,-0.07769000163590055,65496.64148516667,16.06321716308594,-1.826904296875,-512.047607421875,65496.64645916667,-1.132134042203559,-1.561474310922145,-0.4517821946222677,-0.01629326492547989,-0.03001433983445168,-0.0802919939160347,-0.02338802814483643,-0.01120033860206604,-0.03209495544433594,1,-0.5021640658378601,-0.4935969412326813,-0.2382714301347733,0.6688946485519409,-0.8996313810348511,0.4365696012973785,-0.008386621251702309,0,0,0,-1,65496.60147616667,3,2,1561243396.722878,1561243107.271691,28,1.054203,0,0,24.53997,0,0,1561243350.380748,65493.604352,0,-3.929199,74.58464,2650634390,177292352,1,1,0.15,-7.822948,-30.49903,2
1561243396.784814,105,0,0,1561243395.990275,4.602342559960301,-74.06501426368399,2657.669,0,292.1484375,3,10,-9999,1561243396.762786,-22.03635787963867,-3.589457988739014,22.8468017578125,109.3608474731445,116.9045333862305,20,65496.67178916667,-0.8897247314453125,0.41156005859375,-0.0062713623046875,65496.66672316667,-0.08355801078178114,0.01075704027504806,0.001751294732836107,65496.66156516667,16.10906982421875,-1.635604858398438,-512.0128784179688,65496.66672316667,-1.133397228444046,-1.562494093577365,-0.4511331019528163,-0.08473037928342819,0.005287456326186657,-0.0008506999583914876,-0.001337647438049316,-0.02427288889884949,-0.01061010360717773,1,-0.5024353265762329,-0.4937843382358551,-0.238653227686882,0.6684163808822632,-0.8999227285385132,0.4359855651855469,-0.007471540011465549,0,0,0,-1,65496.60147616667,3,2,1561243396.722878,1561243107.271691,28,1.054203,0,0,24.53997,0,0,1561243350.380748,65493.604352,0,-3.929199,74.58464,2650634390,177292352,1,1,0.15,-7.822948,-31.35749,2
1561243396.830872,106,0,0,1561243395.990275,4.602342559960301,-74.06501426368399,2657.669,0,292.1484375,3,10,-9999,1561243396.813623,-21.92015647888184,-3.805448293685913,23.09600830078125,109.5642547607422,117.1079406738281,20,65496.69205316667,-0.87841796875,0.415283203125,-0.0086517333984375,65496.68698716667,-0.05926865005971345,0.01169686982373702,-0.02871873024708748,65496.68164616667,16.33601379394531,-1.600906372070312,-512.1109619140625,65496.68698716667,-1.135161920549955,-1.56296779866324,-0.4509033796550335,-0.0604410208761692,0.006227285601198673,-0.0313207246363163,0.01974666118621826,-0.02368471026420593,0.008266746997833252,1,-0.5028702020645142,-0.4935570359230042,-0.2392000705003738,0.6680616140365601,-0.9000262022018433,0.435778796672821,-0.007046024315059185,0,0,0,-1,65496.60147616667,3,2,1561243396.722878,1561243107.271691,28,1.054203,0,0,24.53997,0,0,1561243350.380748,65493.604352,0,-3.929199,74.58464,2650634390,177292352,1,1,0.15,-7.822948,-31.70686,2
1561243396.833469,107,0,0,1561243395.990275,4.602342559960301,-74.06501426368399,2657.669,0,292.1484375,3,10,-9999,1561243396.813623,-21.92015647888184,-3.805448293685913,23.09600830078125,109.5642547607422,117.1079406738281,20,65496.71231616667,-0.884246826171875,0.4209442138671875,-0.010040283203125,65496.70725016667,0.01044678200805383,0.008045942285347394,-0.02158305642232917,65496.70175716667,15.88288879394531,-1.879302978515625,-512.0093994140625,65496.70725016667,-1.135644261830715,-1.563089933562344,-0.4502631948793783,0.00927441194653511,0.002576358616352081,-0.02418505027890205,0.02327638864517212,-0.01312917470932007,-0.008457839488983154,1,-0.5028442144393921,-0.4936380982398987,-0.2395430356264114,0.6678983569145203,-0.9003058075904846,0.4352025091648102,-0.006938247941434383,0,0,0,-1,65496.60147616667,3,2,1561243396.722878,1561243107.271691,28,1.054203,0,0,24.53997,0,0,1561243350.380748,65493.604352,0,-3.929199,74.58464,2650634390,177292352,1,1,0.15,-7.822948,-31.70686,2
1561243396.845614,108,0,0,1561243395.990275,4.602342559960301,-74.06501426368399,2657.669,0,292.1484375,3,10,-9999,1561243396.838141,-22.0847339630127,-3.719436407089233,23.09539794921875,109.5685424804688,117.1122283935547,20,65496.73254916667,-0.9100341796875,0.4283294677734375,0.001373291015625,65496.72748316667,-0.05717647070734719,0.03439499179448237,-0.00910215197367282,65496.72183816667,15.88931274414062,-1.8822021484375,-511.8601379394531,65496.72748316667,-1.135797632299804,-1.562726339547787,-0.4499146262759542,-0.05834884196519852,0.02892540767788887,-0.01170414686203003,0.002551555633544922,-0.009183704853057861,0.007694065570831299,1,-0.5027515292167664,-0.49356609582901,-0.2398014068603516,0.6679286956787109,-0.9004549384117126,0.4348886609077454,-0.00726681761443615,0,0,0,-1,65496.60147616667,3,2,1561243396.722878,1561243107.271691,28,1.054203,0,0,24.53997,0,0,1561243350.380748,65493.604352,0,-3.929199,74.58464,2650634390,177292352,1,1,0.15,-7.822948,-31.70686,2
1561243396.865946,109,0,0,1561243395.990275,4.602342559960301,-74.06501426368399,2657.669,0,292.1484375,3,10,-9999,1561243396.864056,-22.23606872558594,-3.862019062042236,23.03814697265625,109.7695846557617,117.3132705688477,20,65496.75281316667,-0.913726806640625,0.438812255859375,-0.0061187744140625,65496.74774716667,-0.1703230001482357,0.0545079832950878,-0.02415114266149258,65496.74194916667,16.3258056640625,-1.875961303710938,-512.2107543945312,65496.74774716667,-1.138571473643474,-1.563116971877275,-0.4495428942795149,-0.1714953631162643,0.04903839901089668,-0.0267531368881464,-0.0131380558013916,-0.00149419903755188,0.004719018936157227,1,-0.5033900141716003,-0.4930926263332367,-0.2407525479793549,0.6674551367759705,-0.9006192684173584,0.4345538914203644,-0.006916311103850603,0,0,0,-1,65496.60147616667,3,2,1561243396.722878,1561243107.271691,28,1.054203,0,0,24.53997,0,0,1561243350.380748,65493.604352,0,-3.929199,74.58464,2650634390,177292352,1,1,0.15,-7.822948,-29.57052,2
1561243396.912004,110,0,0,1561243395.990275,4.602342559960301,-74.06501426368399,2657.669,0,292.1484375,3,10,-9999,1561243396.888438,-22.23998260498047,-4.056018352508545,23.07489013671875,109.9728622436523,117.5165481567383,20,65496.77307716667,-0.90655517578125,0.437896728515625,-0.027679443359375,65496.76801116667,-0.1011828108759255,-0.01247904023589329,-0.06158879600139048,65496.76202916667,16.20986938476562,-1.952072143554688,-512.0435791015625,65496.76801116667,-1.142040419883909,-1.564123230080231,-0.4486311919028166,-0.1023551821708679,-0.01794862374663353,-0.06419079005718231,-0.01026380062103271,0.008940130472183228,-0.009185075759887695,1,-0.5041395425796509,-0.4927849173545837,-0.2419585734605789,0.6666801571846008,-0.9010215997695923,0.4337325990200043,-0.006012693513184786,0,0,0,-1,65496.60147616667,3,2,1561243396.722878,1561243107.271691,28,1.054203,0,0,24.53997,0,0,1561243350.380748,65493.604352,0,-3.929199,74.58464,2650634390,177292352,1,1,0.15,-7.822948,-30.01883,2
1561243396.915644,111,0,0,1561243395.990275,4.602342559960301,-74.06501426368399,2657.669,0,292.1484375,3,10,-9999,1561243396.914761,-22.20952224731445,-3.997393369674683,23.05633544921875,109.876953125,117.4206390380859,20,65496.79334016667,-0.907379150390625,0.42193603515625,-0.03009033203125,65496.78827416667,0.07048561825501819,-0.07331735744209944,-0.03402214924187127,65496.78214016667,16.12327575683594,-2.06201171875,-511.90869140625,65496.78827416667,-1.142256747763417,-1.565297388511909,-0.4474226860944839,0.06931324303150177,-0.0787869393825531,-0.03662414476275444,-0.004423797130584717,-0.004100292921066284,-0.03027486801147461,1,-0.5040345788002014,-0.4934271275997162,-0.2421355992555618,0.6662200689315796,-0.9015515446662903,0.4326433539390564,-0.004957626108080149,0,0,0,-1,65496.60147616667,3,2,1561243396.722878,1561243107.271691,28,1.054203,0,0,24.53997,0,0,1561243350.380748,65493.604352,0,-3.929199,74.58464,2650634390,177292352,1,1,0.15,-7.822948,-30.01883,2
1561243396.92659,112,0,0,1561243395.990275,4.602342559960301,-74.06501426368399,2657.669,0,292.1484375,3,10,-9999,1561243396.914761,-22.20952224731445,-3.997393369674683,23.05633544921875,109.876953125,117.4206390380859,20,65496.81360416667,-0.901824951171875,0.4033966064453125,0.009796142578125,65496.80853816667,0.08859564629977502,-0.03796362765518855,-0.003739610802689266,65496.80222116667,16.00325012207031,-1.801986694335938,-512.06591796875,65496.80853816667,-1.140116244684177,-1.565672096036996,-0.447055748157615,0.08742327243089676,-0.04343321174383163,-0.006341605447232723,-0.001989901065826416,-0.0202183723449707,-0.004488885402679443,1,-0.503460168838501,-0.4941837191581726,-0.2414498627185822,0.6663423776626587,-0.9017118811607361,0.4323125183582306,-0.004620620049536228,0,0,0,-1,65496.60147616667,3,2,1561243396.722878,1561243107.271691,28,1.054203,0,0,24.53997,0,0,1561243350.380748,65493.604352,0,-3.929199,74.58464,2650634390,177292352,1,1,0.15,-7.822948,-30.70457,2
1561243396.94739,113,0,0,1561243395.990275,4.602342559960301,-74.06501426368399,2657.669,0,292.1484375,3,10,-9999,1561243396.938965,-22.10761642456055,-3.829766750335693,23.14407348632812,109.7908248901367,117.3345108032227,20,65496.83386816667,-0.9010009765625,0.412811279296875,0.021759033203125,65496.82877116667,-0.03518808116710797,0.040902958550309,-0.001121190818923359,65496.82230216667,15.87431335449219,-2.041152954101562,-511.8745422363281,65496.82877116667,-1.139394604656206,-1.565333492612343,-0.447006710609555,-0.03636045381426811,0.03543337434530258,-0.003723185509443283,-0.001024067401885986,-0.03009238839149475,0.02572381496429443,1,-0.5032287240028381,-0.4942649304866791,-0.2413109391927719,0.6665074229240417,-0.9017316699028015,0.4322682917118073,-0.004926059860736132,0,0,0,-1,65496.60147616667,3,2,1561243396.722878,1561243107.271691,28,1.054203,0,0,24.53997,0,0,1561243350.380748,65493.604352,0,-3.929199,74.58464,2650634390,177292352,1,1,0.15,-7.822948,-30.24166,2
1561243396.991716,114,0,0,1561243395.990275,4.602342559960301,-74.06501426368399,2657.669,0,292.1484375,3,10,-9999,1561243396.965365,-22.04435157775879,-4.185401439666748,23.0980224609375,109.9488906860352,117.4925765991211,20,65496.85410116667,-0.888702392578125,0.4363250732421875,-0.0035858154296875,65496.84903516667,-0.1287859429423788,0.07300869707175926,-0.03653564067868806,65496.84241316667,16.23133850097656,-2.026458740234375,-512.0718994140625,65496.84903516667,-1.141580704235596,-1.565266691909996,-0.4465466500467388,-0.129958301782608,0.06753911077976227,-0.03913763538002968,0.01046580076217651,-0.004500448703765869,0.006497979164123535,1,-0.503646194934845,-0.4938084781169891,-0.2422087490558624,0.6662046313285828,-0.901930034160614,0.4318533837795258,-0.004987394437193871,0,0,0,-1,65496.60147616667,3,2,1561243396.722878,1561243107.271691,28,1.054203,0,0,24.53997,0,0,1561243350.380748,65493.604352,0,-3.929199,74.58464,2650634390,177292352,1,1,0.15,-7.822948,-31.0775,2
1561243396.994176,115,0,0,1561243395.990275,4.602342559960301,-74.06501426368399,2657.669,0,292.1484375,3,10,-9999,1561243396.989635,-22.02625465393066,-4.24439811706543,23.12130737304688,110.1206436157227,117.6643295288086,20,65496.87436516667,-0.8867034912109375,0.4323577880859375,-0.0179901123046875,65496.86929916667,-0.0988727849463908,0.04765060980424277,-0.03354624235507411,65496.86249316667,15.88711547851562,-2.107833862304688,-511.8173828125,65496.86929916667,-1.144195430311058,-1.565038369147018,-0.4457362296702083,-0.1000451520085335,0.04218102619051933,-0.03614823892712593,0.01583433151245117,0.009200572967529297,-0.004768669605255127,1,-0.5040622353553772,-0.4932784140110016,-0.2434057295322418,0.6658462285995483,-0.9022784233093262,0.4311223030090332,-0.005195338279008865,0,0,0,-1,65496.60147616667,3,2,1561243396.722878,1561243107.271691,28,1.054203,0,0,24.53997,0,0,1561243350.380748,65493.604352,0,-3.929199,74.58464,2650634390,177292352,1,1,0.15,-7.822948,-31.0775,2
1561243397.007681,116,0,0,1561243395.990275,4.602342559960301,-74.06501426368399,2657.669,0,292.1484375,3,10,-9999,1561243396.989635,-22.02625465393066,-4.24439811706543,23.12130737304688,110.1206436157227,117.6643295288086,20,65496.89462816667,-0.9148406982421875,0.4280242919921875,-0.017120361328125,65496.88956216667,-0.04617894698586499,-0.01351900464156924,-0.02105894631980158,65496.88260416667,16.10137939453125,-1.90216064453125,-512.2750854492188,65496.88956216667,-1.145809240733329,-1.565433249338015,-0.4452165989531596,-0.04735131934285164,-0.0189885888248682,-0.0236609410494566,-0.0005868673324584961,0.002528399229049683,-0.009594559669494629,1,-0.5043791532516479,-0.4931344091892242,-0.2440156042575836,0.6654897928237915,-0.9025046229362488,0.4306533634662628,-0.004840248264372349,0,0,0,-1,65496.60147616667,3,2,1561243396.722878,1561243107.271691,28,1.054203,0,0,24.53997,0,0,1561243350.380748,65493.604352,0,-3.929199,74.58464,2650634390,177292352,1,1,0.15,-7.822948,-31.0775,2
1561243397.028041,117,0,0,1561243395.990275,4.602342559960301,-74.06501426368399,2657.669,0,292.1484375,3,10,-9999,1561243397.015994,-22.17553329467773,-4.221043586730957,22.85980224609375,110.1999130249023,117.7435989379883,20,65496.91490154167,-0.9025421142578125,0.4297027587890625,-0.01397705078125,65496.90983554167,-0.008966330758078778,-0.03606026642410892,-0.01540612058999938,65496.90269454167,16.32878112792969,-2.040786743164062,-512.0794067382812,65496.90983554167,-1.146478615490779,-1.566388086953905,-0.4446453102725815,-0.01013869978487492,-0.04152984917163849,-0.01800811477005482,-0.008576631546020508,-0.005073606967926025,-0.01613152027130127,1,-0.504518985748291,-0.4934276044368744,-0.2441867589950562,0.6651034951210022,-0.902754545211792,0.4301376938819885,-0.003979584202170372,0,0,0,-1,65496.60147616667,3,2,1561243396.722878,1561243107.271691,28,1.054203,0,0,24.53997,0,0,1561243350.380748,65493.604352,0,-3.929199,74.58464,2650634390,177292352,1,1,0.15,-7.822948,-31.60616,2
1561243397.063612,118,0,0,1561243395.990275,4.602342559960301,-74.06501426368399,2657.669,0,292.1484375,3,10,-9999,1561243397.04063,-22.07853507995605,-4.157276153564453,23.12979125976562,110.1997604370117,117.7434463500977,20,65496.93516554167,-0.9005279541015625,0.4297332763671875,-0.001373291015625,65496.93009954167,0.0183273419897073,-0.03877962021318883,0.000989098028855429,65496.92277454167,16.10682678222656,-2.072235107421875,-512.0015869140625,65496.93009954167,-1.146284648066815,-1.567255079209553,-0.444461888949408,0.01715497300028801,-0.04424920305609703,-0.001612896681763232,0.005283892154693604,-0.00203937292098999,-0.0008311271667480469,1,-0.5045314431190491,-0.4938111305236816,-0.2439643293619156,0.6648908853530884,-0.9028363823890686,0.4299721121788025,-0.003197180572897196,0,0,0,-1,65496.60147616667,3,2,1561243396.722878,1561243107.271691,28,1.054203,0,0,24.53997,0,0,1561243350.380748,65493.604352,0,-3.929199,74.58464,2650634390,177292352,1,1,0.15,-8.937506,-29.51762,2
1561243397.068456,119,0,0,1561243395.990275,4.602342559960301,-74.06501426368399,2657.669,0,292.1484375,3,10,-9999,1561243397.04063,-22.07853507995605,-4.157276153564453,23.12979125976562,110.1997604370117,117.7434463500977,20,65496.95542854167,-0.907196044921875,0.421905517578125,0.0042877197265625,65496.95033254167,0.02176708085365365,-0.02026266115386788,-0.002835733928716373,65496.94288654167,15.98670959472656,-2.300125122070312,-512.1008911132812,65496.95033254167,-1.145939296675674,-1.567843091531769,-0.4444456976255527,0.02059471048414707,-0.02573224529623985,-0.005437728483229876,-0.0007193088531494141,-0.00738060474395752,-0.0007058978080749512,1,-0.5045138001441956,-0.4940978288650513,-0.2437065839767456,0.6647858619689941,-0.9028451442718506,0.4299575090408325,-0.0026663220487535,0,0,0,-1,65496.60147616667,3,2,1561243396.722878,1561243107.271691,28,1.054203,0,0,24.53997,0,0,1561243350.380748,65493.604352,0,-3.929199,74.58464,2650634390,177292352,1,1,0.15,-8.937506,-29.51762,2
1561243397.088589,120,0,0,1561243396.990261,4.602342559960301,-74.06501426368399,2657.896,0,286.5234375,3,10,-9999,1561243397.073556,-22.25168991088867,-4.354733467102051,22.9775390625,110.1785888671875,117.7222747802734,20,65496.97566154167,-0.909027099609375,0.4261016845703125,-0.013641357421875,65496.97059554167,-0.01053493264013545,-0.01161644235881663,0.002171541552850611,65496.96296654167,15.97589111328125,-2.069915771484375,-511.9776916503906,65496.97059554167,-1.145735642995056,-1.56804853176231,-0.4443434920708069,-0.01170730218291283,-0.01708602532744408,-0.0004304531030356884,-0.006076335906982422,-0.005014717578887939,0.0009245872497558594,1,-0.5044631361961365,-0.494243323802948,-0.2436209917068481,0.6647475957870483,-0.9028897285461426,0.4298652112483978,-0.002480962080881,0,0,0,-1,65496.60147616667,3,2,1561243396.722878,1561243107.271691,28,1.054203,0,0,24.53997,0,0,1561243350.380748,65494.545126,0,-3.860596,74.58399,2650634390,177292352,1,1,0.15,-9.494784,-29.83612,2
