loggingTime,loggingSample,identifierForVendor,deviceID,locationTimestamp_since1970,locationLatitude,locationLongitude,locationAltitude,locationSpeed,locationCourse,locationVerticalAccuracy,locationHorizontalAccuracy,locationFloor,locationHeadingTimestamp_since1970,locationHeadingX,locationHeadingY,locationHeadingZ,locationTrueHeading,locationMagneticHeading,locationHeadingAccuracy,accelerometerTimestamp_sinceReboot,accelerometerAccelerationX,accelerometerAccelerationY,accelerometerAccelerationZ,gyroTimestamp_sinceReboot,gyroRotationX,gyroRotationY,gyroRotationZ,magnetometerTimestamp_sinceReboot,magnetometerX,magnetometerY,magnetometerZ,motionTimestamp_sinceReboot,motionYaw,motionRoll,motionPitch,motionRotationRateX,motionRotationRateY,motionRotationRateZ,motionUserAccelerationX,motionUserAccelerationY,motionUserAccelerationZ,motionAttitudeReferenceFrame,motionQuaternionX,motionQuaternionY,motionQuaternionZ,motionQuaternionW,motionGravityX,motionGravityY,motionGravityZ,motionMagneticFieldX,motionMagneticFieldY,motionMagneticFieldZ,motionMagneticFieldCalibrationAccuracy,activityTimestamp_sinceReboot,activity,activityActivityConfidence,activityActivityStartDate,pedometerStartDate,pedometerNumberofSteps,pedometerAverageActivePace,pedometerCurrentPace,pedometerCurrentCadence,pedometerDistance,pedometerFloorAscended,pedometerFloorDescended,pedometerEndDate,altimeterTimestamp_sinceReboot,altimeterReset,altimeterRelativeAltitude,altimeterPressure,IP_en0,IP_pdp_ip0,deviceOrientation,batteryState,batteryLevel,avAudioRecorderPeakPower,avAudioRecorderAveragePower,label
1561827229.391073,1,0,0,1561827228.997862,4.634775202725674,-74.15100705816796,2553.087,0,234.4921875,4,50,-9999,1561827229.372203,-2.884788513183594,-13.16695022583008,26.51251220703125,169.6926422119141,177.1858367919922,15,157166.71959575,-0.1057891845703125,-1.020111083984375,-0.0261993408203125,157166.71047075,-0.333706867760161,0.08116835633565304,0.1326688318117143,157166.69920975,-81.56977844238281,-41.54806518554688,-536.7742309570312,157166.71047075,0.6352196571557212,-1.691229740833308,1.458419665096332,-0.3361790776252747,0.07502251118421555,0.1296801716089249,0.01454102993011475,-0.02155113220214844,-0.0448601245880127,1,0.5941043496131897,-0.3921433389186859,-0.3192287981510162,0.6255849599838257,-0.1113275140523911,-0.9936923980712891,0.01347275264561176,0,0,0,-1,157166.3413765,3,2,1561827229.041432,1561827055.717469,23,1.28499,0,0,23.0045,0,0,1561827203.101918,157163.526437,0,1.783691,75.35944,0,182478453,1,1,0.19,-19.12027,-29.46558,5
1561827229.415454,2,0,0,1561827228.997862,4.634775202725674,-74.15100705816796,2553.087,0,234.4921875,4,50,-9999,1561827229.372203,-2.884788513183594,-13.16695022583008,26.51251220703125,169.6926422119141,177.1858367919922,15,157166.73985975,-0.1270751953125,-1.0181884765625,-0.01556396484375,157166.73073475,-0.06557155341160398,0.01310914414980604,0.06737904084344076,157166.71932175,-81.49636840820312,-42.07695007324219,-536.819091796875,157166.73073475,0.5959784205944739,-1.651380981432026,1.456824747470903,-0.0680437833070755,0.00696330051869154,0.0643903836607933,-0.003068417310714722,-0.02516448497772217,-0.0273430347442627,1,0.592512309551239,-0.3917990028858185,-0.3191703259944916,0.6273380517959595,-0.1133561506867409,-0.9935122728347778,0.009154591709375381,0,0,0,-1,157166.3413765,3,2,1561827229.041432,1561827055.717469,23,1.28499,0,0,23.0045,0,0,1561827203.101918,157163.526437,0,1.783691,75.35944,0,182478453,1,1,0.19,-19.67755,-30.4856,5
1561827229.431061,3,0,0,1561827228.997862,4.634775202725674,-74.15100705816796,2553.087,0,234.4921875,4,50,-9999,1561827229.417066,-2.768775939941406,-13.39006423950195,26.40240478515625,169.6303405761719,177.12353515625,15,157166.76012375,-0.1263885498046875,-1.00848388671875,-0.018707275390625,157166.75099875,0.2121303682047356,-0.02929477199087162,0.008227037239472783,157166.73943275,-81.41490173339844,-41.97540283203125,-537.1526489257812,157166.75099875,0.6102706557718711,-1.665960305786091,1.45611683252523,0.2096581310033798,-0.03544061630964279,0.005238376557826996,-0.01632237434387207,-0.02191877365112305,-0.02874112129211426,1,0.5928701162338257,-0.392353892326355,-0.3187759816646576,0.6268535852432251,-0.1139113828539848,-0.9934315085411072,0.0108731035143137,0,0,0,-1,157166.3413765,3,2,1561827229.041432,1561827055.717469,23,1.28499,0,0,23.0045,0,0,1561827203.101918,157163.526437,0,1.783691,75.35944,0,182478453,1,1,0.19,-20.23483,-31.32614,5
1561827229.45128,4,0,0,1561827228.997862,4.634775202725674,-74.15100705816796,2553.087,0,234.4921875,4,50,-9999,1561827229.439383,-2.947738647460938,-13.27632904052734,26.348876953125,169.6349029541016,177.1280975341797,15,157166.78038675,-0.1170806884765625,-1.003875732421875,-0.01837158203125,157166.77126175,0.2533012407607066,-0.01235546956131362,0.02339187543471099,157166.75954375,-81.62599182128906,-41.77793884277344,-537.0523681640625,157166.77126175,0.6542097814024598,-1.710176360351948,1.455363719255708,0.2508290112018585,-0.01850131154060364,0.02040321379899979,-0.004775434732437134,-0.009737253189086914,-0.03441882133483887,1,0.5943444967269897,-0.3933895528316498,-0.3178938627243042,0.625254213809967,-0.1140600144863129,-0.9933450222015381,0.01600144244730473,0,0,0,-1,157166.3413765,3,2,1561827229.041432,1561827055.717469,23,1.28499,0,0,23.0045,0,0,1561827203.101918,157163.526437,0,1.783691,75.35944,0,182478453,1,1,0.19,-20.23483,-31.32614,5
1561827229.471436,5,0,0,1561827228.997862,4.634775202725674,-74.15100705816796,2553.087,0,234.4921875,4,50,-9999,1561827229.465785,-2.732444763183594,-13.35015106201172,26.51995849609375,169.5757598876953,177.0689544677734,15,157166.80065075,-0.1204986572265625,-1.01300048828125,-1.52587890625e-05,157166.79152575,0.1163050384937225,0.07217512765056446,0.04330726038243254,157166.77968475,-81.57958984375,-41.6085205078125,-536.97705078125,157166.79152575,0.6851827952509481,-1.740614677409488,1.454155250819616,0.1138328090310097,0.06602928787469864,0.04031860083341599,-0.002379000186920166,-0.01067060232162476,-0.0380394458770752,1,0.5954350233078003,-0.3940698802471161,-0.3168628215789795,0.6243107318878174,-0.1147016659379005,-0.9932051301002502,0.01966787502169609,0,0,0,-1,157166.3413765,3,2,1561827229.041432,1561827055.717469,23,1.28499,0,0,23.0045,0,0,1561827203.101918,157163.526437,0,1.783691,75.35944,0,182478453,1,1,0.19,-20.79211,-32.29485,5
1561827229.499179,6,0,0,1561827228.997862,4.634775202725674,-74.15100705816796,2553.087,0,234.4921875,4,50,-9999,1561827229.465785,-2.732444763183594,-13.35015106201172,26.51995849609375,169.5757598876953,177.0689544677734,15,157166.82091475,-0.124053955078125,-1.013824462890625,0.032928466796875,157166.81178975,0.02403343094131108,0.150335443534973,0.0243737829286232,157166.79979575,-81.4317626953125,-41.37757873535156,-536.8035278320312,157166.81178975,0.6932835885316414,-1.746354216286738,1.453356822941293,0.02156119979918003,0.1441895961761475,0.02138512209057808,-0.009585320949554443,-0.02234524488449097,-0.004442811012268066,1,0.5960105061531067,-0.3937051892280579,-0.3157701194286346,0.6245453953742981,-0.1153689101338387,-0.9931119084358215,0.02046459913253784,0,0,0,-1,157166.3413765,3,2,1561827229.041432,1561827055.717469,23,1.28499,0,0,23.0045,0,0,1561827203.101918,157163.526437,0,1.783691,75.35944,0,182478453,1,1,0.19,-21.90666,-33.42998,5
1561827229.513404,7,0,0,1561827228.997862,4.634775202725674,-74.15100705816796,2553.087,0,234.4921875,4,50,-9999,1561827229.504552,-2.87042236328125,-13.23370361328125,26.70806884765625,169.3849029541016,176.8780975341797,15,157166.84117775,-0.1167449951171875,-1.010284423828125,0.04852294921875,157166.83205375,0.02501187632580619,0.1174038587594892,-0.02095614830172452,157166.81990775,-81.49728393554688,-41.35398864746094,-536.8345336914062,157166.83205375,0.6952968067134627,-1.745526966506541,1.453324527483099,0.0225396454334259,0.1112580150365829,-0.02394480817019939,-0.007400989532470703,-0.01996868848800659,0.02392160892486572,1,0.5965323448181152,-0.3928568363189697,-0.314883679151535,0.6250287294387817,-0.115417018532753,-0.9931080937385559,0.02037466503679752,0,0,0,-1,157166.3413765,3,2,1561827229.041432,1561827055.717469,23,1.28499,0,0,23.0045,0,0,1561827203.101918,157163.526437,0,1.783691,75.35944,0,182478453,1,1,0.19,-21.90666,-33.42998,5
1561827229.532155,8,0,0,1561827228.997862,4.634775202725674,-74.15100705816796,2553.087,0,234.4921875,4,50,-9999,1561827229.504552,-2.87042236328125,-13.23370361328125,26.70806884765625,169.3849029541016,176.8780975341797,15,157166.86141075,-0.1064453125,-0.9991607666015625,0.038543701171875,157166.85228675,0.0789925537250583,0.006809170275114596,-0.03931704612116681,157166.84004875,-81.79638671875,-41.49229431152344,-536.973876953125,157166.85228675,0.7047442920993238,-1.753809086332124,1.453879195230316,0.07652032375335693,0.0006633270531892776,-0.04230570420622826,0.002123385667800903,-0.01055014133453369,0.02451622486114502,1,0.5971601009368896,-0.3924469649791718,-0.3145931363105774,0.6248330473899841,-0.1147027313709259,-0.9931730031967163,0.02122961357235909,0,0,0,-1,157166.3413765,3,2,1561827229.041432,1561827055.717469,23,1.28499,0,0,23.0045,0,0,1561827203.101918,157163.526437,0,1.783691,75.35944,0,182478453,1,1,0.19,-22.46394,-34.35081,5
1561827229.552468,9,0,0,1561827228.997862,4.634775202725674,-74.15100705816796,2553.087,0,234.4921875,4,50,-9999,1561827229.541015,-3.249038696289062,-13.08028411865234,26.52398681640625,169.2356414794922,176.7288360595703,15,157166.88167475,-0.0983734130859375,-0.9931640625,0.01885986328125,157166.87254975,0.06605678136221642,-0.02564650761357207,-0.0184146936734619,157166.86015975,-81.78240966796875,-41.54257202148438,-537.00390625,157166.87254975,0.7188055175631008,-1.768253758100147,1.454275760040809,0.06358455121517181,-0.03179235011339188,-0.02140335366129875,0.01439017057418823,-0.001440286636352539,0.00563514232635498,1,0.5977004766464233,-0.3926292955875397,-0.3146529793739319,0.6241714954376221,-0.1139995604753494,-0.9932191371917725,0.02280724793672562,0,0,0,-1,157166.3413765,3,2,1561827229.041432,1561827055.717469,23,1.28499,0,0,23.0045,0,0,1561827203.101918,157163.526437,0,1.783691,75.35944,0,182478453,1,1,0.19,-23.02122,-35.01318,5
1561827229.575607,10,0,0,1561827228.997862,4.634775202725674,-74.15100705816796,2553.087,0,234.4921875,4,50,-9999,1561827229.567095,-3.027122497558594,-12.91621017456055,26.5548095703125,169.2398223876953,176.7330169677734,15,157166.90193875,-0.10394287109375,-0.9873504638671875,0.015045166015625,157166.89281375,-0.01101669848133078,0.03024898260944701,0.02492212779707052,157166.88027075,-81.585205078125,-41.29084777832031,-536.7940063476562,157166.89281375,0.7228983011041242,-1.772487154721866,1.454187570161577,-0.01348892878741026,0.02410313859581947,0.02193346619606018,0.01378136873245239,0.003203451633453369,-0.008200645446777344,1,0.5978267192840576,-0.3927551507949829,-0.314611554145813,0.6239920854568481,-0.1139858216047287,-0.9932088851928711,0.02330678887665272,0,0,0,-1,157166.3413765,3,2,1561827229.041432,1561827055.717469,23,1.28499,0,0,23.0045,0,0,1561827203.101918,157164.473137,0,1.767822,75.3596,0,182478453,1,1,0.19,-23.5785,-35.97873,5
1561827229.59347,11,0,0,1561827228.997862,4.634775202725674,-74.15100705816796,2553.087,0,234.4921875,4,50,-9999,1561827229.591283,-3.035919189453125,-13.04671859741211,26.63751220703125,169.1634674072266,176.6566619873047,15,157166.92220175,-0.10723876953125,-0.990509033203125,0.0182952880859375,157166.91307775,-0.03351694758308325,0.06998148186066619,0.04564152107788699,157166.90041275,-82.05584716796875,-41.14407348632812,-536.8307495117188,157166.91307775,0.7167432279167435,-1.765412297812942,1.453572490882276,-0.0359891764819622,0.06383563578128815,0.04265286028385162,0.007997274398803711,0.004764378070831299,-0.00702357292175293,1,0.5976498126983643,-0.3925859332084656,-0.3142059743404388,0.6244722604751587,-0.1147477701306343,-0.9931371212005615,0.02261802740395069,0,0,0,-1,157166.3413765,3,2,1561827229.041432,1561827055.717469,23,1.28499,0,0,23.0045,0,0,1561827203.101918,157164.473137,0,1.767822,75.3596,0,182478453,1,1,0.19,-24.13578,-36.82955,5
1561827229.613511,12,0,0,1561827228.997862,4.634775202725674,-74.15100705816796,2553.087,0,234.4921875,4,50,-9999,1561827229.591283,-3.035919189453125,-13.04671859741211,26.63751220703125,169.1634674072266,176.6566619873047,15,157166.94246575,-0.1154327392578125,-0.9885406494140625,0.020294189453125,157166.93334075,0.02110288847778788,0.08640386472263981,0.04580104442718274,157166.92052375,-81.85356140136719,-41.66357421875,-536.9998779296875,157166.93334075,0.7136749375916487,-1.760897741553866,1.452759716212989,0.01863065734505653,0.08025801926851273,0.04281238466501236,0.00397801399230957,0.002944707870483398,-0.003651857376098633,1,0.5976481437683105,-0.3923555612564087,-0.3135354220867157,0.6249555349349976,-0.1156418323516846,-0.9930417537689209,0.02225238084793091,0,0,0,-1,157166.3413765,3,2,1561827229.041432,1561827055.717469,23,1.28499,0,0,23.0045,0,0,1561827203.101918,157164.473137,0,1.767822,75.3596,0,182478453,1,1,0.19,-24.69306,-37.1822,5
1561827229.633567,13,0,0,1561827228.997862,4.634775202725674,-74.15100705816796,2553.087,0,234.4921875,4,50,-9999,1561827229.617651,-3.072486877441406,-13.04644775390625,26.57904052734375,169.0475006103516,176.5406951904297,15,157166.96272975,-0.114501953125,-0.983917236328125,0.026275634765625,157166.95360475,0.08290606894692974,0.06164738554537222,0.03814285839655088,157166.94063475,-81.83441162109375,-41.88888549804688,-536.8023681640625,157166.95360475,0.7212513960360788,-1.766907318035929,1.451829419928057,0.08043383806943893,0.0555015429854393,0.03515420109033585,0.002962738275527954,0.007381916046142578,-0.0003454685211181641,1,0.5980702638626099,-0.3922695517539978,-0.312643975019455,0.625052273273468,-0.1164118200540543,-0.9929317831993103,0.0231268834322691,0,0,0,-1,157166.3413765,3,2,1561827229.041432,1561827055.717469,23,1.28499,0,0,23.0045,0,0,1561827203.101918,157164.473137,0,1.767822,75.3596,0,182478453,1,1,0.19,-24.69306,-37.1822,5
1561827229.657195,14,0,0,1561827228.997862,4.634775202725674,-74.15100705816796,2553.087,0,234.4921875,4,50,-9999,1561827229.641981,-3.159706115722656,-13.06406402587891,26.774169921875,168.9741363525391,176.4673309326172,15,157166.98299275,-0.121307373046875,-0.985443115234375,0.034637451171875,157166.97386875,0.09375498827958553,0.01162869289983099,0.02890195573008493,157166.96077675,-81.76899719238281,-41.32559204101562,-536.7905883789062,157166.97386875,0.7355508617432404,-1.780529114715104,1.450838587596236,0.09128275513648987,0.005482849664986134,0.0259132944047451,-0.001223891973495483,0.008804917335510254,0.006518125534057617,1,0.598621129989624,-0.3925687670707703,-0.3119096159934998,0.6247037649154663,-0.1170469969511032,-0.9928137063980103,0.02491498738527298,0,0,0,-1,157166.3413765,3,2,1561827229.041432,1561827055.717469,23,1.28499,0,0,23.0045,0,0,1561827203.101918,157164.473137,0,1.767822,75.3596,0,182478453,1,1,0.19,-25.25034,-37.66825,5
1561827229.673927,15,0,0,1561827228.997862,4.634775202725674,-74.15100705816796,2553.087,0,234.4921875,4,50,-9999,1561827229.668364,-3.356758117675781,-13.06294250488281,26.6085205078125,168.9613647460938,176.4545593261719,15,157167.00325675,-0.1202239990234375,-0.9841766357421875,0.0343780517578125,157166.99413175,0.04499170977190766,0.008229167768344847,-0.0009118663572431311,157166.98088775,-81.67926025390625,-41.54237365722656,-536.6395263671875,157166.99413175,0.7458935502927029,-1.790790722384733,1.450404167193556,0.04251947999000549,0.002083324827253819,-0.003900526789948344,-0.004405200481414795,0.006570816040039062,0.01071715354919434,1,0.5989978313446045,-0.3928182423114777,-0.3116011321544647,0.6243398189544678,-0.117207333445549,-0.9927616119384766,0.0262091476470232,0,0,0,-1,157166.3413765,3,2,1561827229.041432,1561827055.717469,23,1.28499,0,0,23.0045,0,0,1561827203.101918,157164.473137,0,1.767822,75.3596,0,182478453,1,1,0.19,-25.80762,-38.29607,5
1561827229.694571,16,0,0,1561827228.997862,4.634775202725674,-74.15100705816796,2553.087,0,234.4921875,4,50,-9999,1561827229.692574,-3.14453125,-13.00288391113281,26.5335693359375,168.9124298095703,176.4056243896484,15,157167.02352075,-0.11334228515625,-0.9769134521484375,0.0286407470703125,157167.01439575,0.01931697265078075,0.04646417153861247,0.01114772600696268,157167.00102875,-81.70164489746094,-41.31443786621094,-536.9712524414062,157167.01439575,0.7503833348418734,-1.794820378131082,1.45029690131356,0.016844742000103,0.0403183288872242,0.008159065619111061,0.0002463757991790771,0.01183748245239258,0.005994558334350586,1,0.5992388129234314,-0.3927662670612335,-0.3113692998886108,0.62425696849823,-0.1172050163149834,-0.9927487373352051,0.02670499123632908,0,0,0,-1,157166.3413765,3,2,1561827229.041432,1561827055.717469,23,1.28499,0,0,23.0045,0,0,1561827203.101918,157164.473137,0,1.767822,75.3596,0,182478453,1,1,0.19,-26.3649,-35.95301,5
1561827229.714744,17,0,0,1561827228.997862,4.634775202725674,-74.15100705816796,2553.087,0,234.4921875,4,50,-9999,1561827229.692574,-3.14453125,-13.00288391113281,26.5335693359375,168.9124298095703,176.4056243896484,15,157167.04378375,-0.1147918701171875,-0.9764404296875,0.02197265625,157167.03465975,-0.005105546125790908,0.04171415741834714,0.02541987260480633,157167.02113975,-81.7476806640625,-41.37950134277344,-536.6898803710938,157167.03465975,0.7504216388380629,-1.793986595746583,1.449938453923239,-0.007577776908874512,0.03556831553578377,0.02243121154606342,0.005665898323059082,0.0169670581817627,-0.001692056655883789,1,0.5993322730064392,-0.3926115036010742,-0.3109829425811768,0.6244571208953857,-0.1175738722085953,-0.9927055835723877,0.02668593265116215,0,0,0,-1,157166.3413765,3,2,1561827229.041432,1561827055.717469,23,1.28499,0,0,23.0045,0,0,1561827203.101918,157164.473137,0,1.767822,75.3596,0,182478453,1,1,0.19,-26.92217,-36.12251,5
1561827229.735498,18,0,0,1561827228.997862,4.634775202725674,-74.15100705816796,2553.087,0,234.4921875,4,50,-9999,1561827229.719548,-3.178016662597656,-12.91498947143555,26.6337890625,168.8592376708984,176.3524322509766,15,157167.06404775,-0.1193695068359375,-0.9754486083984375,0.0200958251953125,157167.05492275,-0.01661306519602329,0.05076837249239853,0.02769794060126011,157167.04128175,-82.09703063964844,-41.51461791992188,-536.936279296875,157167.05492275,0.7465831222458301,-1.78945706134014,1.449539907514065,-0.01908529549837112,0.04462252929806709,0.02470928058028221,0.001104891300201416,0.01641541719436646,-0.006341218948364258,1,0.599233865737915,-0.3924769163131714,-0.310686320066452,0.6247836351394653,-0.1180787831544876,-0.9926574230194092,0.02623871155083179,0,0,0,-1,157166.3413765,3,2,1561827229.041432,1561827055.717469,23,1.28499,0,0,23.0045,0,0,1561827203.101918,157164.473137,0,1.767822,75.3596,0,182478453,1,1,0.19,-27.47945,-36.93156,5
1561827229.75511,19,0,0,1561827228.997862,4.634775202725674,-74.15100705816796,2553.087,0,234.4921875,4,50,-9999,1561827229.743236,-3.310691833496094,-13.12754440307617,26.4273681640625,168.7830505371094,176.2762451171875,15,157167.08428075,-0.1139984130859375,-0.974700927734375,0.0269012451171875,157167.07518675,0.03433027697999344,0.07095113881356405,0.03436836018358157,157167.06139275,-82.12361145019531,-41.35340881347656,-536.826171875,157167.07518675,0.7465137997998046,-1.78818697354259,1.44896404822353,0.03185804560780525,0.0648052990436554,0.03137969970703125,-0.0004082322120666504,0.0182834267616272,-0.002744197845458984,1,0.5993459224700928,-0.3922889232635498,-0.3101268112659454,0.6250722408294678,-0.1186713501811028,-0.9925876259803772,0.02621226757764816,0,0,0,-1,157166.3413765,3,2,1561827229.041432,1561827055.717469,23,1.28499,0,0,23.0045,0,0,1561827203.101918,157164.473137,0,1.767822,75.3596,0,182478453,1,1,0.19,-28.03673,-37.20242,5
1561827229.775322,20,0,0,1561827228.997862,4.634775202725674,-74.15100705816796,2553.087,0,234.4921875,4,50,-9999,1561827229.76967,-3.489982604980469,-12.95807266235352,26.163818359375,168.7023010253906,176.1954956054688,15,157167.10454475,-0.1114044189453125,-0.97918701171875,0.0281829833984375,157167.09541975,0.05460438972654867,0.03827575013494584,0.04695286159864201,157167.08153475,-82.3038330078125,-41.21800231933594,-537.003662109375,157167.09541975,0.752714289084086,-1.793274003084689,1.448018121275055,0.05213215947151184,0.03212990611791611,0.0439642034471035,0.007467269897460938,0.01636749505996704,0.0003211498260498047,1,0.5996577739715576,-0.3923287689685822,-0.3093849718570709,0.625115692615509,-0.119451530277729,-0.992472231388092,0.02702261693775654,0,0,0,-1,157166.3413765,3,2,1561827229.041432,1561827055.717469,23,1.28499,0,0,23.0045,0,0,1561827203.101918,157164.473137,0,1.767822,75.3596,0,182478453,1,1,0.19,-28.03673,-37.20242,5
1561827229.797138,21,0,0,1561827228.997862,4.634775202725674,-74.15100705816796,2553.087,0,234.4921875,4,50,-9999,1561827229.793897,-3.313934326171875,-12.96867370605469,26.6502685546875,168.7047271728516,176.1979217529297,15,157167.12480875,-0.1208953857421875,-0.9882965087890625,0.0311126708984375,157167.11568375,0.01564979982974164,-0.007762848261471972,0.04464469988187034,157167.10164575,-81.81596374511719,-41.402587890625,-536.9244384765625,157167.11568375,0.7566909881724074,-1.797141109140117,1.446963926306923,0.01317756902426481,-0.01390869170427322,0.04165603965520859,0.00745043158531189,0.008089601993560791,0.0005402565002441406,1,0.599712073802948,-0.3926894068717957,-0.3089344203472137,0.625059962272644,-0.1203654482960701,-0.9923425316810608,0.02771908417344093,0,0,0,-1,157166.3413765,3,2,1561827229.041432,1561827055.717469,23,1.28499,0,0,23.0045,0,0,1561827203.101918,157164.473137,0,1.767822,75.3596,0,182478453,1,1,0.19,-28.59401,-38.01272,5
1561827229.81625,22,0,0,1561827228.997862,4.634775202725674,-74.15100705816796,2553.087,0,234.4921875,4,50,-9999,1561827229.793897,-3.313934326171875,-12.96867370605469,26.6502685546875,168.7047271728516,176.1979217529297,15,157167.14507175,-0.1269683837890625,-0.990325927734375,0.0275115966796875,157167.13594775,-0.03645388163322263,0.02362170623678483,0.03537823086893963,157167.12178675,-81.89492797851562,-41.58203125,-536.80078125,157167.13594775,0.753057375061549,-1.793565341214479,1.446315075768352,-0.03892610967159271,0.01747586205601692,0.0323895700275898,-0.006776571273803711,5.948543548583984e-05,0.00473475456237793,1,0.5994715690612793,-0.392873078584671,-0.3087719678878784,0.6252555251121521,-0.1210920959711075,-0.9922621846199036,0.02743083611130714,0,0,0,-1,157166.3413765,3,2,1561827229.041432,1561827055.717469,23,1.28499,0,0,23.0045,0,0,1561827203.101918,157164.473137,0,1.767822,75.3596,0,182478453,1,1,0.19,-29.15129,-38.35619,5
1561827229.836114,23,0,0,1561827228.997862,4.634775202725674,-74.15100705816796,2553.087,0,234.4921875,4,50,-9999,1561827229.82032,-3.109870910644531,-13.03530120849609,26.51226806640625,168.6878967285156,176.1810913085938,15,157167.16533575,-0.118255615234375,-0.98638916015625,0.0221099853515625,157167.15621075,-0.04824289683067639,0.05372687814736756,0.04933079813597376,157167.14189775,-81.78231811523438,-41.67417907714844,-537.0570678710938,157167.15621075,0.7436623209926181,-1.783619672729727,1.445808231908946,-0.0507151260972023,0.04758103564381599,0.04634213820099831,-0.00313335657119751,0.003688991069793701,-0.003077149391174316,1,0.599098265171051,-0.3927429914474487,-0.3085536062717438,0.6258026957511902,-0.12185138463974,-0.9921991229057312,0.026331577450037,0,0,0,-1,157166.3413765,3,2,1561827229.041432,1561827055.717469,23,1.28499,0,0,23.0045,0,0,1561827203.101918,157164.473137,0,1.767822,75.3596,0,182478453,1,1,0.19,-29.70857,-38.85376,5
1561827229.856448,24,0,0,1561827228.997862,4.634775202725674,-74.15100705816796,2553.087,0,234.4921875,4,50,-9999,1561827229.844778,-3.56524658203125,-12.89668273925781,26.65167236328125,168.607177734375,176.1003723144531,15,157167.18559975,-0.12725830078125,-0.984710693359375,0.018157958984375,157167.17647475,-0.01749590309738456,0.09399653699045572,0.09241834772847476,157167.16203975,-81.98362731933594,-41.33901977539062,-536.8389282226562,157167.17647475,0.7359764381370768,-1.774551776498017,1.444650202565385,-0.01996813341975212,0.08785069733858109,0.08942969143390656,0.005578607320785522,0.01007479429244995,-0.00401914119720459,1,0.598839282989502,-0.3925816714763641,-0.3078431189060211,0.6265011429786682,-0.1232086271047592,-0.9920541048049927,0.02545771189033985,0,0,0,-1,157166.3413765,3,2,1561827229.041432,1561827055.717469,23,1.28499,0,0,23.0045,0,0,1561827203.101918,157164.473137,0,1.767822,75.3596,0,182478453,1,1,0.19,-30.26585,-39.38057,5
1561827229.876635,25,0,0,1561827228.997862,4.634775202725674,-74.15100705816796,2553.087,0,234.4921875,4,50,-9999,1561827229.87095,-3.294929504394531,-12.9742546081543,26.4505615234375,168.4813385009766,175.9745330810547,15,157167.20586275,-0.140289306640625,-1.000091552734375,0.0258941650390625,157167.19673875,0.01397653571684485,0.09216348321215419,0.09879741748754156,157167.18215075,-82.14871215820312,-41.34542846679688,-536.945556640625,157167.19673875,0.7323466800291639,-1.769178467347037,1.442748095570506,0.01150430552661419,0.08601763844490051,0.09580875933170319,-0.009114384651184082,-0.0001456141471862793,-0.003835439682006836,1,0.598705530166626,-0.3926006555557251,-0.3067133128643036,0.6271708607673645,-0.1251934617757797,-0.9918130040168762,0.02516717277467251,0,0,0,-1,157166.3413765,3,2,1561827229.041432,1561827055.717469,23,1.28499,0,0,23.0045,0,0,1561827203.101918,157164.473137,0,1.767822,75.3596,0,182478453,1,1,0.19,-30.82313,-40.09188,5
1561827229.897653,26,0,0,1561827228.997862,4.634775202725674,-74.15100705816796,2553.087,0,234.4921875,4,50,-9999,1561827229.895442,-3.3951416015625,-12.99324798583984,26.4884033203125,168.3621826171875,175.8553771972656,15,157167.22612675,-0.1558685302734375,-1.01458740234375,0.007843017578125,157167.21700175,0.006810768171768644,0.08626431508151966,0.0935890733436736,157167.20226175,-82.07148742675781,-41.33123779296875,-536.8941040039062,157167.21700175,0.7317848444329577,-1.766948027594282,1.440891585916961,0.004338537342846394,0.08011846989393234,0.09060041606426239,-0.02254164218902588,-0.01483440399169922,-0.004342317581176758,1,0.5986933708190918,-0.3926698863506317,-0.3055791556835175,0.6276925802230835,-0.1270555257797241,-0.991574227809906,0.02524678409099579,0,0,0,-1,157166.3413765,3,2,1561827229.041432,1561827055.717469,23,1.28499,0,0,23.0045,0,0,1561827203.101918,157164.473137,0,1.767822,75.3596,0,182478453,1,1,0.19,-31.38041,-40.65872,5
1561827229.917186,27,0,0,1561827228.997862,4.634775202725674,-74.15100705816796,2553.087,0,234.4921875,4,50,-9999,1561827229.895442,-3.3951416015625,-12.99324798583984,26.4884033203125,168.3621826171875,175.8553771972656,15,157167.24639075,-0.1620635986328125,-1.043319702148438,-0.0125579833984375,157167.23726575,-0.0460180920560242,0.1477670909797006,0.07452137257092427,157167.22240375,-82.0657958984375,-41.5440673828125,-536.8348388671875,157167.23726575,0.7261666167515269,-1.759384457928628,1.439338555758565,-0.04849031940102577,0.1416212469339371,0.0715327113866806,-0.02932563424110413,-0.03157734870910645,-0.02905988693237305,1,0.5985382795333862,-0.3924777805805206,-0.3045426309108734,0.6284639239311218,-0.1287554055452347,-0.9913718700408936,0.02457376010715961,0,0,0,-1,157166.3413765,3,2,1561827229.041432,1561827055.717469,23,1.28499,0,0,23.0045,0,0,1561827203.101918,157164.473137,0,1.767822,75.3596,0,182478453,1,1,0.19,-31.93769,-41.55873,5
1561827229.937913,28,0,0,1561827228.997862,4.634775202725674,-74.15100705816796,2553.087,0,234.4921875,4,50,-9999,1561827229.922137,-3.482414245605469,-13.1577262878418,26.446044921875,168.1449890136719,175.63818359375,15,157167.26665375,-0.1969451904296875,-1.022247314453125,-0.033721923828125,157167.25752975,-0.07673499206899813,0.2948132642523167,0.09315204860879159,157167.24251475,-82.38998413085938,-41.76025390625,-537.026123046875,157167.25752975,0.7127932679503668,-1.741520031265298,1.438022983224736,-0.07920721918344498,0.2886674404144287,0.09016338735818863,-0.04272851347923279,-0.05894178152084351,-0.04777514934539795,1,0.5984513759613037,-0.3912820219993591,-0.3029511868953705,0.6300594210624695,-0.1304587423801422,-0.9911985397338867,0.02249133959412575,0,0,0,-1,157166.3413765,3,2,1561827229.041432,1561827055.717469,23,1.28499,0,0,23.0045,0,0,1561827203.101918,157164.473137,0,1.767822,75.3596,0,182478453,1,1,0.19,-31.93769,-41.55873,5
1561827229.957678,29,0,0,1561827228.997862,4.634775202725674,-74.15100705816796,2553.087,0,234.4921875,4,50,-9999,1561827229.946033,-3.859809875488281,-13.04094314575195,26.23785400390625,167.7042541503906,175.1974487304688,15,157167.28691775,-0.244232177734375,-1.045639038085938,-0.0687255859375,157167.27779275,0.01431528980750293,0.3596015819873284,0.1718886725530933,157167.26265675,-82.54434204101562,-41.31903076171875,-536.9846801757812,157167.27779275,0.705449519401501,-1.727512084929055,1.435720623273621,0.01184305921196938,0.3534557521343231,0.1688999980688095,-0.08335348963737488,-0.03738343715667725,-0.05889034271240234,1,0.5988045930862427,-0.3897975087165833,-0.3002848029136658,0.6319178342819214,-0.1330161541700363,-0.99089115858078,0.02101807668805122,0,0,0,-1,157166.3413765,3,2,1561827229.041432,1561827055.717469,23,1.28499,0,0,23.0045,0,0,1561827203.101918,157164.473137,0,1.767822,75.3596,0,182478453,1,1,0.19,-32.49496,-41.83552,5
1561827229.980721,30,0,0,1561827228.997862,4.634775202725674,-74.15100705816796,2553.087,0,234.4921875,4,50,-9999,1561827229.946033,-3.859809875488281,-13.04094314575195,26.23785400390625,167.7042541503906,175.1974487304688,15,157167.30718175,-0.3808135986328125,-1.070587158203125,-0.1627197265625,157167.29805675,-0.006051500944987053,0.4861898843981738,0.3140444831159969,157167.28276775,-82.80863952636719,-41.57197570800781,-537.0692749023438,157167.29805675,0.7020841186210407,-1.716315449450386,1.430992670159797,-0.008523731492459774,0.480044037103653,0.3110558092594147,-0.106356143951416,-0.05539566278457642,-0.08893203735351562,1,0.5991352796554565,-0.3887674510478973,-0.2963792383670807,0.6340789794921875,-0.1378760188817978,-0.9902433753013611,0.02020642906427383,0,0,0,-1,157166.3413765,3,2,1561827229.041432,1561827055.717469,23,1.28499,0,0,23.0045,0,0,1561827203.101918,157164.473137,0,1.767822,75.3596,0,182478453,1,1,0.19,-33.05224,-42.35787,5
1561827229.998334,31,0,0,1561827228.997862,4.634775202725674,-74.15100705816796,2553.087,0,234.4921875,4,50,-9999,1561827229.983121,-4.324440002441406,-13.03567123413086,26.5391845703125,167.1292114257812,174.6224060058594,15,157167.32741475,-0.5860443115234375,-1.075485229492188,-0.3410186767578125,157167.31832075,-0.2152265592880617,0.4625300949578008,0.3593589680120222,157167.30287875,-82.89498901367188,-41.22032165527344,-536.640869140625,157167.31832075,0.6814942609177419,-1.685495583309467,1.42387347937567,-0.21769879758358,0.4563842415809631,0.3563703000545502,-0.3316790461540222,-0.107575535774231,-0.2816319465637207,1,0.5985917448997498,-0.3873825073242188,-0.2912739217281342,0.6377947926521301,-0.1454327553510666,-0.989226222038269,0.01675456762313843,0,0,0,-1,157166.3413765,3,2,1561827229.041432,1561827055.717469,23,1.28499,0,0,23.0045,0,0,1561827203.101918,157164.473137,0,1.767822,75.3596,0,182478453,1,1,0.19,-33.60952,-42.53594,5
1561827230.018536,32,0,0,1561827228.997862,4.634775202725674,-74.15100705816796,2553.087,0,234.4921875,4,50,-9999,1561827229.983121,-4.324440002441406,-13.03567123413086,26.5391845703125,167.1292114257812,174.6224060058594,15,157167.34767875,-0.734466552734375,-1.055435180664062,-0.29571533203125,157167.33855375,-0.3877479989161579,0.5004553730932922,-0.3253157797975393,157167.32301975,-83.45338439941406,-41.53285217285156,-537.0140991210938,157167.33855375,0.6378110198820378,-1.63320656242369,1.42344918056734,-0.3902202248573303,0.4943095445632935,-0.3283044397830963,-0.4893811941146851,-0.06950604915618896,-0.3332077264785767,1,0.5976908206939697,-0.3838542401790619,-0.2894653081893921,0.641585111618042,-0.1465288102626801,-0.9891640543937683,0.009156789630651474,0,0,0,-1,157166.3413765,3,2,1561827229.041432,1561827055.717469,23,1.28499,0,0,23.0045,0,0,1561827203.101918,157164.473137,0,1.767822,75.3596,0,182478453,1,1,0.19,-17.40893,-17.40893,5
1561827230.039558,33,0,0,1561827228.997862,4.634775202725674,-74.15100705816796,2553.087,0,234.4921875,4,50,-9999,1561827230.022954,-4.51373291015625,-13.18485641479492,26.18096923828125,165.8010711669922,173.2942657470703,15,157167.36794175,-0.864044189453125,-0.97930908203125,-0.232818603515625,157167.35881675,-0.3600002572025132,0.899393708593854,-0.8816064556732148,157167.34313075,-83.72605895996094,-41.54974365234375,-537.265380859375,157167.35881675,0.5809570935088415,-1.56419647876302,1.436666557429117,-0.3624724745750427,0.8932478427886963,-0.8845950961112976,-0.7109096646308899,-0.02099061012268066,-0.2729973793029785,1,0.5993181467056274,-0.3746684789657593,-0.2914164066314697,0.6446067094802856,-0.1337253451347351,-0.9910180568695068,-0.0008825797704048455,0,0,0,-1,157166.3413765,3,2,1561827229.041432,1561827055.717469,23,1.28499,0,0,23.0045,0,0,1561827203.101918,157164.473137,0,1.767822,75.3596,0,182478453,1,1,0.19,-9.541665,-16.00886,5
1561827230.05897,34,0,0,1561827229.99785,4.634809358981098,-74.15100856691053,2553.095,0.27,213.75,4,50,-9999,1561827230.051445,-5.38690185546875,-13.84749603271484,25.96356201171875,164.0615234375,171.5547180175781,15,157167.38820575,-0.968841552734375,-0.8173370361328125,-0.1727752685546875,157167.37908075,0.1711035726637379,1.93347838721512,-1.175943813038734,157167.36324175,-83.79869079589844,-41.98460388183594,-537.64013671875,157167.37908075,0.5640321580329196,-1.517687562345028,1.457425725128263,0.1686313301324844,1.927332520484924,-1.178932547569275,-0.7890405654907227,0.0812574028968811,-0.1667090654373169,1,0.6069738268852234,-0.3585807681083679,-0.2894487082958221,0.6474735140800476,-0.1129675209522247,-0.9935804605484009,-0.006005212664604187,0,0,0,-1,157166.3413765,3,2,1561827229.041432,1561827055.717469,23,1.28499,0,0,23.0045,0,0,1561827203.101918,157164.473137,0,1.767822,75.3596,0,182478453,1,1,0.19,-9.541665,-16.93346,5
1561827230.080236,35,0,0,1561827229.99785,4.634809358981098,-74.15100856691053,2553.095,0.27,213.75,4,50,-9999,1561827230.073597,-6.07666015625,-13.7968864440918,25.93328857421875,161.1207580566406,168.6139526367188,15,157167.40846975,-1.006881713867188,-0.7472686767578125,-0.2125701904296875,157167.39934475,0.6540811521550581,1.984486177889516,-1.553573397709245,157167.38338375,-84.65310668945312,-42.12016296386719,-537.523193359375,157167.39934475,0.6373621775490084,-1.549930932695367,1.485563276302173,0.651608943939209,1.978340268135071,-1.556562066078186,-0.8880932927131653,0.2131514549255371,-0.2232299447059631,1,0.6203553676605225,-0.3380401432514191,-0.2845185101032257,0.6480257511138916,-0.08511226624250412,-0.9963698387145996,-0.001776158693246543,0,0,0,-1,157166.3413765,3,2,1561827229.041432,1561827055.717469,23,1.28499,0,0,23.0045,0,0,1561827203.101918,157164.473137,0,1.767822,75.3596,0,182478453,1,1,0.19,-9.541665,-18.03218,5
1561827230.099635,36,0,0,1561827229.99785,4.634809358981098,-74.15100856691053,2553.095,0.27,213.75,4,50,-9999,1561827230.09818,-6.648483276367188,-13.56419372558594,25.89483642578125,158.3171997070312,165.8103942871094,15,157167.42873275,-1.047103881835938,-0.619232177734375,-0.031585693359375,157167.41960775,1.310007608629432,1.847549097798732,-1.782957853984386,157167.40349475,-85.11666870117188,-42.07496643066406,-537.5696411132812,157167.41960775,0.981743063271316,-1.855018798416978,1.517231187226808,1.307535290718079,1.841403245925903,-1.785946488380432,-0.9892560839653015,0.30902099609375,-0.1481313705444336,1,0.6376602053642273,-0.3176417350769043,-0.2802077233791351,0.6434103846549988,-0.05139335244894028,-0.9985657334327698,0.01501361839473248,0,0,0,-1,157166.3413765,3,2,1561827229.041432,1561827055.717469,23,1.28499,0,0,23.0045,0,0,1561827203.101918,157164.473137,0,1.767822,75.3596,0,182478453,1,1,0.19,-9.541665,-18.03218,5
1561827230.119841,37,0,0,1561827229.99785,4.634809358981098,-74.15100856691053,2553.095,0.27,213.75,4,50,-9999,1561827230.09818,-6.648483276367188,-13.56419372558594,25.89483642578125,158.3171997070312,165.8103942871094,15,157167.44899675,-0.94708251953125,-0.5296478271484375,0.12060546875,157167.43987175,2.047309349056158,1.817834078987846,-2.04776261907369,157167.42363675,-85.75473022460938,-41.90251159667969,-537.5336303710938,157167.43987175,2.026657259416574,-2.86195420703538,1.52105835475606,2.044837236404419,1.811688184738159,-2.050751209259033,-1.012110710144043,0.4286949634552002,0.01358473300933838,1,0.6596068143844604,-0.298013299703598,-0.2754315435886383,0.6326487064361572,-0.01372241135686636,-0.9987633228302002,0.04778615385293961,0,0,0,-1,157166.3413765,3,2,1561827229.041432,1561827055.717469,23,1.28499,0,0,23.0045,0,0,1561827203.101918,157164.473137,0,1.767822,75.3596,0,182478453,1,1,0.19,-9.541665,-19.11239,5
1561827230.140027,38,0,0,1561827229.99785,4.634809358981098,-74.15100856691053,2553.095,0.27,213.75,4,50,-9999,1561827230.124555,-7.625282287597656,-12.23231887817383,26.0206298828125,155.6862487792969,163.179443359375,15,157167.46926075,-0.766998291015625,-0.4845733642578125,0.1144561767578125,157167.46013575,2.512474908228702,1.614177889371742,-2.217514371168104,157167.44374775,-86.21894836425781,-40.9398193359375,-537.3084716796875,157167.46013575,2.623564567639677,2.860711769681667,1.471873324400414,2.510002613067627,1.608031988143921,-2.220502853393555,-0.8762233257293701,0.5019012689590454,0.03604447841644287,1,0.6853566765785217,-0.2788043022155762,-0.2705329954624176,0.6159271597862244,0.02737690508365631,-0.9951111078262329,0.09489122778177261,0,0,0,-1,157166.3413765,3,2,1561827229.041432,1561827055.717469,23,1.28499,0,0,23.0045,0,0,1561827203.101918,157164.473137,0,1.767822,75.3596,0,182478453,1,1,0.19,-9.541665,-20.15517,5
1561827230.160333,39,0,0,1561827229.99785,4.634809358981098,-74.15100856691053,2553.095,0.27,213.75,4,50,-9999,1561827230.148596,-8.005485534667969,-11.31271362304688,26.1273193359375,153.5337829589844,161.0269775390625,15,157167.48952375,-0.6529083251953125,-0.5097503662109375,0.1175689697265625,157167.48039875,2.499825958315261,1.51405714713854,-2.189989003405481,157167.46385875,-86.54833984375,-39.74626159667969,-537.0772705078125,157167.48039875,2.808583076907254,2.708461761561193,1.407959376228582,2.497353792190552,1.507911324501038,-2.192977666854858,-0.7868387699127197,0.4860541820526123,-0.03616964817047119,1,0.7111197710037231,-0.2605418562889099,-0.2662971913814545,0.5962485074996948,0.06804300844669342,-0.9867713451385498,0.1471467763185501,0,0,0,-1,157166.3413765,3,2,1561827229.041432,1561827055.717469,23,1.28499,0,0,23.0045,0,0,1561827203.101918,157164.473137,0,1.767822,75.3596,0,182478453,1,1,0.19,-9.541665,-21.23955,5
1561827230.180712,40,0,0,1561827229.99785,4.634809358981098,-74.15100856691053,2553.095,0.27,213.75,4,50,-9999,1561827230.174872,-8.495567321777344,-10.29364395141602,26.5955810546875,151.6515960693359,159.1447906494141,15,157167.50978775,-0.4830169677734375,-0.46026611328125,0.16949462890625,157167.50066275,2.415861549151134,1.500505918247781,-2.127947736334886,157167.48400075,-86.81190490722656,-38.77020263671875,-536.9277954101562,157167.50066275,2.898504922119369,2.650691315902928,1.344070178620138,2.413389444351196,1.494360089302063,-2.13093638420105,-0.669461727142334,0.4852107763290405,-0.0639042854309082,1,0.7351589202880859,-0.2422038614749908,-0.2619753181934357,0.5764091610908508,0.1059699356555939,-0.9744075536727905,0.1982426941394806,0,0,0,-1,157166.3413765,3,2,1561827229.041432,1561827055.717469,23,1.28499,0,0,23.0045,0,0,1561827203.101918,157164.473137,0,1.767822,75.3596,0,182478453,1,1,0.19,-9.541665,-22.12099,5
1561827230.201053,41,0,0,1561827229.99785,4.634809358981098,-74.15100856691053,2553.095,0.27,213.75,4,50,-9999,1561827230.174872,-8.495567321777344,-10.29364395141602,26.5955810546875,151.6515960693359,159.1447906494141,15,157167.53005175,-0.21795654296875,-0.4095916748046875,0.2653961181640625,157167.52092675,2.736793499478294,1.260702110523814,-1.89965704031944,157167.50411175,-87.31436157226562,-37.84945678710938,-537.0045166015625,157167.52092675,2.943725363879559,2.635123337251293,1.279052313469831,2.734321355819702,1.25455629825592,-1.902645707130432,-0.5044529438018799,0.5151777863502502,-0.03577125072479248,1,0.7582210898399353,-0.2255181819200516,-0.2571110725402832,0.55510014295578,0.1395237296819687,-0.9577437043190002,0.2515153288841248,0,0,0,-1,157166.3413765,3,2,1561827229.041432,1561827055.717469,23,1.28499,0,0,23.0045,0,0,1561827203.101918,157164.473137,0,1.767822,75.3596,0,182478453,1,1,0.19,-9.541665,-23.10821,5
1561827230.221143,42,0,0,1561827229.99785,4.634809358981098,-74.15100856691053,2553.095,0.27,213.75,4,50,-9999,1561827230.200179,-8.819793701171875,-9.205188751220703,26.6517333984375,150.2579345703125,157.7511291503906,15,157167.55031475,0.1300048828125,-0.34234619140625,0.3212738037109375,157167.54118975,3.190217714036896,0.7295748448399704,-1.300433810826706,157167.52425275,-87.88235473632812,-36.92257690429688,-536.6135864257812,157167.54118975,2.94433939619538,2.654973373173838,1.210405672405501,3.187745571136475,0.7234290242195129,-1.303422451019287,-0.2281257510185242,0.5705400109291077,-0.00471341609954834,1,0.7807890176773071,-0.2149907201528549,-0.2515339553356171,0.529979407787323,0.1649085879325867,-0.9357591271400452,0.3117049932479858,0,0,0,-1,157166.3413765,3,2,1561827229.041432,1561827055.717469,23,1.28499,0,0,23.0045,0,0,1561827203.101918,157164.473137,0,1.767822,75.3596,0,182478453,1,1,0.19,-9.541665,-24.116,5
1561827230.241318,43,0,0,1561827229.99785,4.634809358981098,-74.15100856691053,2553.095,0.27,213.75,4,50,-9999,1561827230.225496,-9.407066345214844,-6.504749298095703,27.001220703125,150.1017608642578,157.5949554443359,15,157167.57054775,0.3942718505859375,-0.30145263671875,0.316131591796875,157167.56142375,3.543846092015285,-0.1854825120212937,-0.7431215463568764,157167.54436375,-88.23165893554688,-35.30158996582031,-536.4228515625,157167.56142375,2.912703374774858,2.689869141118146,1.140429730306268,3.54137396812439,-0.1916283667087555,-0.746110200881958,0.1088686734437943,0.5900720357894897,-0.06471812725067139,1,0.8012331128120422,-0.2137843817472458,-0.2473596483469009,0.5011335611343384,0.1821164190769196,-0.9088128805160522,0.375356525182724,0,0,0,-1,157166.3413765,3,2,1561827229.041432,1561827055.717469,23,1.28499,0,0,23.0045,0,0,1561827203.101918,157164.473137,0,1.767822,75.3596,0,182478453,1,1,0.19,-9.541665,-25.12516,5
1561827230.263471,44,0,0,1561827229.99785,4.634809358981098,-74.15100856691053,2553.095,0.27,213.75,4,50,-9999,1561827230.250291,-9.491630554199219,-4.443355560302734,27.423828125,151.7786102294922,159.2718048095703,15,157167.59081175,0.4885711669921875,-0.3134613037109375,0.3581695556640625,157167.58168675,3.897025727349997,-0.5550352617378123,-0.2893351418900237,157167.56447475,-88.21083068847656,-33.25306701660156,-535.9757080078125,157167.58168675,2.862771157016022,2.725218480068956,1.067452682394293,3.894553422927856,-0.5611810684204102,-0.2923237979412079,0.2529864013195038,0.5586528778076172,-0.1054214239120483,1,0.8195437788963318,-0.2211800515651703,-0.245382085442543,0.4682040214538574,0.1950879395008087,-0.8759746551513672,0.4411452412605286,0,0,0,-1,157166.3413765,3,2,1561827229.041432,1561827055.717469,23,1.28499,0,0,23.0045,0,0,1561827203.101918,157164.473137,0,1.767822,75.3596,0,182478453,1,1,0.19,-9.541665,-26.16398,5
1561827230.294292,45,0,0,1561827229.99785,4.634809358981098,-74.15100856691053,2553.095,0.27,213.75,4,50,-9999,1561827230.276128,-9.420738220214844,-2.504291534423828,27.736572265625,154.0679779052734,161.5611724853516,15,157167.61107575,0.595611572265625,-0.3106231689453125,0.4198455810546875,157167.60195075,3.925766295518023,-0.4667426831700882,0.1804957428801204,157167.58461675,-88.06430053710938,-31.69970703125,-535.7808837890625,157167.60195075,2.805376052829426,2.764053466008889,0.9932641469975226,3.923309326171875,-0.4728682637214661,0.1775041073560715,0.3409318625926971,0.547147810459137,-0.1240857839584351,1,0.8364406228065491,-0.2326400578022003,-0.2409602850675583,0.4338015615940094,0.2012587040662766,-0.8378125429153442,0.5075086355209351,0,0,0,-1,157166.3413765,3,2,1561827229.041432,1561827055.717469,23,1.28499,0,0,23.0045,0,0,1561827203.101918,157164.473137,0,1.767822,75.3596,0,182478453,1,1,0.19,-9.541665,-27.0257,5
1561827230.302214,46,0,0,1561827229.99785,4.634809358981098,-74.15100856691053,2553.095,0.27,213.75,4,50,-9999,1561827230.300605,-8.9390869140625,-0.3674240112304688,27.99591064453125,156.473876953125,163.9670715332031,15,157167.63133875,0.7459869384765625,-0.3879241943359375,0.6142730712890625,157167.62221475,3.741078470766009,-0.4918171437815113,0.8048914373123923,157167.60472775,-87.788818359375,-29.48019409179688,-535.57763671875,157167.62221475,2.742639718243133,2.805046433332078,0.9237804327900839,3.738621473312378,-0.4979427456855774,0.801899790763855,0.4769454002380371,0.445637047290802,-0.08014523983001709,1,0.85027676820755,-0.2480421811342239,-0.2340163439512253,0.400924950838089,0.1990647166967392,-0.7978861927986145,0.5689910054206848,0,0,0,-1,157166.3413765,3,2,1561827229.041432,1561827055.717469,23,1.28499,0,0,23.0045,0,0,1561827203.101918,157164.473137,0,1.767822,75.3596,0,182478453,1,1,0.19,-9.541665,-27.0257,5
1561827230.322359,47,0,0,1561827229.99785,4.634809358981098,-74.15100856691053,2553.095,0.27,213.75,4,50,-9999,1561827230.300605,-8.9390869140625,-0.3674240112304688,27.99591064453125,156.473876953125,163.9670715332031,15,157167.6516156667,0.738983154296875,-0.507354736328125,0.7742156982421875,157167.64247775,2.954238471954392,-0.08213668170800585,1.646408530148317,157167.62483875,-87.642578125,-27.17536926269531,-535.2665405273438,157167.64247775,2.670423175344134,2.854851514225781,0.8649645227293784,2.951781511306763,-0.08826226741075516,1.643416881561279,0.5631207823753357,0.3223820924758911,0.1046391725540161,1,0.8598136901855469,-0.2679772675037384,-0.2229665964841843,0.3730879724025726,0.1834612786769867,-0.7610722780227661,0.6221827864646912,0,0,0,-1,157166.3413765,3,2,1561827229.041432,1561827055.717469,23,1.28499,0,0,23.0045,0,0,1561827203.101918,157164.473137,0,1.767822,75.3596,0,182478453,1,1,0.19,-9.541665,-28.0378,5
1561827230.342614,48,0,0,1561827229.99785,4.634809358981098,-74.15100856691053,2553.095,0.27,213.75,4,50,-9999,1561827230.327257,-8.937545776367188,3.66633415222168,27.71044921875,157.7843627929688,165.2775573730469,15,157167.6718796667,0.746734619140625,-0.46441650390625,0.7456207275390625,157167.6627546667,0.8073841560927064,0.2929194904011614,1.863095566978179,157167.6449936667,-87.44754028320312,-24.99400329589844,-535.6422119140625,157167.6627546667,2.602096451299347,2.909344333716989,0.8360606589182931,0.8049271702766418,0.2867938876152039,1.860103845596313,0.6066087484359741,0.217487096786499,0.1169562339782715,1,0.8623753786087036,-0.2872363030910492,-0.209512785077095,0.3604280948638916,0.1543012708425522,-0.7420079708099365,0.6523919701576233,0,0,0,-1,157166.3413765,3,2,1561827229.041432,1561827055.717469,23,1.28499,0,0,23.0045,0,0,1561827203.101918,157164.473137,0,1.767822,75.3596,0,182478453,1,1,0.19,-9.541665,-28.70172,5
1561827230.374399,49,0,0,1561827229.99785,4.634809358981098,-74.15100856691053,2553.095,0.27,213.75,4,50,-9999,1561827230.351088,-8.705810546875,4.357448577880859,27.64215087890625,157.6225433349609,165.1157379150391,15,157167.6921426667,0.59442138671875,-0.2929840087890625,0.90966796875,157167.6830186667,-0.8878768684598064,-0.2243497502343462,2.309094888417639,157167.6651046667,-87.39260864257812,-24.08161926269531,-535.876220703125,157167.6830186667,2.542314434671191,2.955175229753356,0.8485214792568977,-0.8903338313102722,-0.2304753363132477,2.306103229522705,0.5470899343490601,0.3624559044837952,0.120807409286499,1,0.8556477427482605,-0.3044448792934418,-0.2020234614610672,0.3665607571601868,0.1225267499685287,-0.7503038048744202,0.6496394872665405,0,0,0,-1,157166.3413765,3,2,1561827229.041432,1561827055.717469,23,1.28499,0,0,23.0045,0,0,1561827203.101918,157164.473137,0,1.767822,75.3596,0,182478453,1,1,0.19,-9.541665,-29.38934,5
1561827230.38322,50,0,0,1561827229.99785,4.634809358981098,-74.15100856691053,2553.095,0.27,213.75,4,50,-9999,1561827230.377554,-8.365142822265625,4.461187362670898,27.79534912109375,158.4773254394531,165.9705200195312,15,157167.7124066667,0.651092529296875,-0.1084442138671875,1.282577514648438,157167.7032816667,0.1001452433152307,-0.7876336208164608,3.143152200724144,157167.6852456667,-87.05961608886719,-24.072021484375,-535.7034912109375,157167.7032816667,2.461932221747799,3.005492329744585,0.8696822153657812,0.09768829494714737,-0.7937591671943665,3.14016056060791,0.4923105537891388,0.5739079117774963,0.4518072605133057,1,0.8435432314872742,-0.3286139667034149,-0.1982372552156448,0.3756991326808929,0.08752342313528061,-0.7641239762306213,0.6391046643257141,0,0,0,-1,157166.3413765,3,2,1561827229.041432,1561827055.717469,23,1.28499,0,0,23.0045,0,0,1561827203.101918,157164.473137,0,1.767822,75.3596,0,182478453,1,1,0.19,-9.541665,-30.31687,5
1561827230.403443,51,0,0,1561827229.99785,4.634809358981098,-74.15100856691053,2553.095,0.27,213.75,4,50,-9999,1561827230.401681,-7.86322021484375,5.055583953857422,28.043701171875,161.1830902099609,168.6762847900391,15,157167.7326706667,0.877227783203125,0.34222412109375,1.474517822265625,157167.7235456667,1.599859403770931,-1.510045361272445,3.277820800198398,157167.7053576667,-86.70689392089844,-23.89488220214844,-535.2020874023438,157167.7235456667,2.358140877641718,3.062135668441005,0.8562960594622562,1.597402453422546,-1.516170859336853,3.274829149246216,0.7452325820922852,0.8136940598487854,0.7726999521255493,1,0.8338658809661865,-0.3622901439666748,-0.1917825639247894,0.369639128446579,0.05200864747166634,-0.7554208040237427,0.6531729102134705,0,0,0,-1,157166.3413765,3,2,1561827229.041432,1561827055.717469,23,1.28499,0,0,23.0045,0,0,1561827203.101918,157164.473137,0,1.767822,75.3596,0,182478453,1,1,0.19,-9.541665,-31.34764,5
1561827230.423684,52,0,0,1561827229.99785,4.634809358981098,-74.15100856691053,2553.095,0.27,213.75,4,50,-9999,1561827230.401681,-7.86322021484375,5.055583953857422,28.043701171875,161.1830902099609,168.6762847900391,15,157167.7529336667,0.9621429443359375,1.009689331054688,1.411712646484375,157167.7438096667,0.5232464393860814,-2.271753641509203,4.500706023243088,157167.7254686667,-85.78407287597656,-22.58668518066406,-535.5054321289062,157167.7438096667,2.241652339343903,3.109642013767386,0.8355146925647211,0.5207894444465637,-2.277879238128662,4.497714519500732,0.8867133855819702,1.408008456230164,0.7967855930328369,1,0.8200976252555847,-0.4033196866512299,-0.1895846575498581,0.3589300811290741,0.02142871916294098,-0.7416418790817261,0.6704537868499756,0,0,0,-1,157166.3413765,3,2,1561827229.041432,1561827055.717469,23,1.28499,0,0,23.0045,0,0,1561827203.101918,157164.473137,0,1.767822,75.3596,0,182478453,1,1,0.19,-9.541665,-31.34764,5
1561827230.454532,53,0,0,1561827229.99785,4.634809358981098,-74.15100856691053,2553.095,0.27,213.75,4,50,-9999,1561827230.452438,-1.9227294921875,7.174758911132812,28.4619140625,170.1779479980469,177.671142578125,15,157167.7731976667,0.977630615234375,1.507492065429688,1.38812255859375,157167.7640726667,-1.179859192473369,-2.050912339694927,7.338094840260836,157167.7455796667,-83.80705261230469,-21.31092834472656,-535.331787109375,157167.7640726667,2.06587006402883,-3.087390609534032,0.8426185293843763,-1.182316064834595,-2.057038068771362,7.335103034973145,1.034070730209351,2.057866096496582,0.732485294342041,1,0.7890967726707458,-0.457813173532486,-0.1881945133209229,0.3637529015541077,-0.03605437278747559,-0.74638831615448,0.664533257484436,0,0,0,-1,157166.3413765,3,2,1561827229.041432,1561827055.717469,23,1.28499,0,0,23.0045,0,0,1561827203.101918,157164.473137,0,1.767822,75.3596,0,182478453,1,1,0.19,-9.541665,-30.70823,5
1561827230.464447,54,0,0,1561827229.99785,4.634809358981098,-74.15100856691053,2553.095,0.27,213.75,4,50,-9999,1561827230.452438,-1.9227294921875,7.174758911132812,28.4619140625,170.1779479980469,177.671142578125,15,157167.7934306667,0.4842071533203125,1.572174072265625,1.233352661132812,157167.7843366667,-2.035841777402277,-3.106881011941701,10.52981084872701,157167.7657206667,-81.46208190917969,-21.0863037109375,-535.1702270507812,157167.7843366667,1.78523207656866,-2.926863825477879,0.8514059360729364,-2.038298606872559,-3.113006591796875,10.52681922912598,0.993371844291687,2.349909543991089,0.6527919769287109,1,0.7328933477401733,-0.5336326956748962,-0.1815923601388931,0.3809560537338257,-0.1404055505990982,-0.7522075772285461,0.6437930464744568,0,0,0,-1,157166.3413765,3,2,1561827229.041432,1561827055.717469,23,1.28499,0,0,23.0045,0,0,1561827203.101918,157164.473137,0,1.767822,75.3596,0,182478453,1,1,0.19,-9.541665,-30.70823,5
1561827230.484404,55,0,0,1561827229.99785,4.634809358981098,-74.15100856691053,2553.095,0.27,213.75,4,50,-9999,1561827230.452438,-1.9227294921875,7.174758911132812,28.4619140625,170.1779479980469,177.671142578125,15,157167.8136946667,-0.5669708251953125,1.163986206054688,1.273178100585938,157167.8045696667,-2.698295109076218,-3.60641359971728,11.9192160778833,157167.7858316667,-77.94703674316406,-21.78221130371094,-534.6498413085938,157167.8045696667,1.433457692652828,-2.734844443925265,0.8256094792234474,-2.700752019882202,-3.612539291381836,11.91622447967529,0.1876951456069946,2.140341520309448,0.6246682405471802,1,0.6504305005073547,-0.6231628656387329,-0.1747029572725296,0.3976016044616699,-0.2682768404483795,-0.734961211681366,0.6227836012840271,0,0,0,-1,157166.3413765,3,2,1561827229.041432,1561827055.717469,23,1.28499,0,0,23.0045,0,0,1561827203.101918,157164.473137,0,1.767822,75.3596,0,182478453,1,1,0.19,-9.541665,-30.77385,5
1561827230.504714,56,0,0,1561827229.99785,4.634809358981098,-74.15100856691053,2553.095,0.27,213.75,4,50,-9999,1561827230.483534,1.870811462402344,6.043842315673828,28.7806396484375,177.5955657958984,185.0887603759766,15,157167.8339586667,-1.217926025390625,0.68988037109375,1.185287475585938,157167.8248336667,-3.808178944959427,-3.582373244557135,11.1407463943778,157167.8059426667,-74.66964721679688,-23.64671325683594,-534.4008178710938,157167.8248336667,1.090453875361707,-2.56060889376139,0.7705809339663497,-3.810635805130005,-3.588498830795288,11.13775444030762,-0.5548533201217651,1.618915438652039,0.6426973342895508,1,0.5524954199790955,-0.7033056616783142,-0.1702208518981934,0.4136845171451569,-0.3938008546829224,-0.6965521574020386,0.5997800827026367,0,0,0,-1,157166.3413765,3,2,1561827229.041432,1561827055.717469,23,1.28499,0,0,23.0045,0,0,1561827203.101918,157164.473137,0,1.767822,75.3596,0,182478453,1,1,0.19,-9.541665,-31.78351,5
1561827230.534823,57,0,0,1561827229.99785,4.634809358981098,-74.15100856691053,2553.095,0.27,213.75,4,50,-9999,1561827230.529922,10.01848602294922,-4.101638793945312,27.3092041015625,195.9774932861328,203.4706878662109,15,157167.8542216667,-1.535400390625,0.259613037109375,0.8624420166015625,157167.8450976667,-3.822337374578725,-4.061339570814578,9.835879485600552,157167.8260846667,-71.33499145507812,-26.93647766113281,-534.86328125,157167.8450976667,0.7954914490870552,-2.441288790434485,0.7081137002395246,-3.824794292449951,-4.067464828491211,9.832887649536133,-0.9446862936019897,1.124355316162109,0.462822437286377,1,0.4509197473526001,-0.7662116289138794,-0.1756131649017334,0.4227896630764008,-0.4895178377628326,-0.6504021286964417,0.5808177590370178,0,0,0,-1,157166.3413765,3,2,1561827229.041432,1561827055.717469,23,1.28499,0,0,23.0045,0,0,1561827203.101918,157165.419653,0,1.767822,75.3596,0,182478453,1,1,0.19,-9.541665,-23.09571,5
1561827230.546878,58,0,0,1561827229.99785,4.634809358981098,-74.15100856691053,2553.095,0.27,213.75,4,50,-9999,1561827230.529922,10.01848602294922,-4.101638793945312,27.3092041015625,195.9774932861328,203.4706878662109,15,157167.8744856667,-2.171188354492188,-0.1356964111328125,0.4322357177734375,157167.8653606667,-3.002248075873577,-3.036728555139051,9.880338296838334,157167.8461956667,-69.0572509765625,-31.38803100585938,-535.7713012695312,157167.8653606667,0.5508925268692054,-2.362999367838619,0.625316505859298,-3.00470495223999,-3.042854309082031,9.877346992492676,-1.134145021438599,0.6690331101417542,0.0470578670501709,1,0.3517680764198303,-0.8153873085975647,-0.1756259202957153,0.4249214828014374,-0.5693919658660889,-0.5853539109230042,0.5771945118904114,0,0,0,-1,157166.3413765,3,2,1561827229.041432,1561827055.717469,23,1.28499,0,0,23.0045,0,0,1561827203.101918,157165.419653,0,1.767822,75.3596,0,182478453,1,1,0.19,-9.541665,-17.31471,5
1561827230.56605,59,0,0,1561827229.99785,4.634809358981098,-74.15100856691053,2553.095,0.27,213.75,4,50,-9999,1561827230.55397,10.87174987792969,-7.979618072509766,26.62371826171875,203.01611328125,210.5093078613281,15,157167.8947496667,-3.682037353515625,-0.98126220703125,0.132354736328125,157167.8856246667,-2.446818399978324,-1.946956645492011,9.701889459572049,157167.8663066667,-67.80465698242188,-35.06694030761719,-536.5834350585938,157167.8856246667,0.3381805468500606,-2.297777976260011,0.517539974753166,-2.449275255203247,-1.953082203865051,9.698897361755371,-2.184393167495728,-0.02013355493545532,-0.3177211284637451,1,0.2517104744911194,-0.8517223596572876,-0.1635042428970337,0.4295080304145813,-0.6493317484855652,-0.4947437942028046,0.5775783061981201,0,0,0,-1,157166.3413765,3,2,1561827229.041432,1561827055.717469,23,1.28499,0,0,23.0045,0,0,1561827203.101918,157165.419653,0,1.767822,75.3596,0,182478453,1,1,0.19,-9.541665,-18.15522,5
1561827230.585992,60,0,0,1561827229.99785,4.634809358981098,-74.15100856691053,2553.095,0.27,213.75,4,50,-9999,1561827230.581068,10.127685546875,-11.35624313354492,25.57354736328125,99.04280853271484,106.536003112793,15,157167.9150126667,-5.016876220703125,-2.13348388671875,0.0966949462890625,157167.9058886667,-0.6432109275336817,-0.1672782080739481,5.864054351661826,157167.8864486667,-68.17929077148438,-38.94229125976562,-537.5355224609375,157167.9058886667,0.1902827440373485,-2.250832810547882,0.4139221814355184,-0.6456679105758667,-0.1734037846326828,5.861062526702881,-3.790478944778442,-1.159075975418091,-0.394183874130249,1,0.172024592757225,-0.8707849383354187,-0.1445504575967789,0.4373172521591187,-0.7118861079216003,-0.402203381061554,0.5757177472114563,0,0,0,-1,157166.3413765,3,2,1561827229.041432,1561827055.717469,23,1.28499,0,0,23.0045,0,0,1561827203.101918,157165.419653,0,1.767822,75.3596,0,182478453,1,1,0.19,-9.541665,-18.15522,5
1561827230.616701,61,0,0,1561827229.99785,4.634809358981098,-74.15100856691053,2553.095,0.27,213.75,4,50,-9999,1561827230.605034,9.172286987304688,-12.90532302856445,25.08477783203125,100.1507339477539,107.643928527832,15,157167.9352766667,-4.937408447265625,-2.815139770507812,-0.414886474609375,157167.9261516667,1.233633208572031,-0.9205874108648137,1.049049513418639,157167.9065596667,-69.28919982910156,-41.30757141113281,-538.2489013671875,157167.9261516667,0.150397494511202,-2.245452856556884,0.3569478221868527,1.231176257133484,-0.9267129898071289,1.046057820320129,-4.383551597595215,-2.189356565475464,-0.7867496013641357,1,0.1433285921812057,-0.8786839842796326,-0.1275206506252289,0.4371610879898071,-0.7316981554031372,-0.3494160771369934,0.5852572321891785,0,0,0,-1,157166.3413765,3,2,1561827229.041432,1561827055.717469,23,1.28499,0,0,23.0045,0,0,1561827203.101918,157165.419653,0,1.767822,75.3596,0,182478453,1,1,0.19,-9.541665,-19.34942,5
1561827230.627122,62,0,0,1561827229.99785,4.634809358981098,-74.15100856691053,2553.095,0.27,213.75,4,50,-9999,1561827230.605034,9.172286987304688,-12.90532302856445,25.08477783203125,100.1507339477539,107.643928527832,15,157167.9555406667,-4.520660400390625,-2.77545166015625,-0.4188079833984375,157167.9464156667,1.741524926377151,0.1615542759430408,-1.489593349365073,157167.9266706667,-69.65463256835938,-41.25604248046875,-538.1671142578125,157167.9464156667,0.1830171357091321,-2.269343221893134,0.3411364837834971,1.739068031311035,0.1554286926984787,-1.492585062980652,-4.215758800506592,-2.480581521987915,-1.020933151245117,1,0.1530295759439468,-0.8829525709152222,-0.1151681393384933,0.4286174476146698,-0.7216494679450989,-0.3345583081245422,0.6060465574264526,0,0,0,-1,157166.3413765,3,2,1561827229.041432,1561827055.717469,23,1.28499,0,0,23.0045,0,0,1561827203.101918,157165.419653,0,1.767822,75.3596,0,182478453,1,1,0.19,-9.541665,-19.34942,5
1561827230.647343,63,0,0,1561827229.99785,4.634809358981098,-74.15100856691053,2553.095,0.27,213.75,4,50,-9999,1561827230.630927,9.408134460449219,-11.76365661621094,25.57476806640625,96.69851684570312,104.1917114257812,15,157167.9758036667,-3.263900756835938,-1.972137451171875,-0.083160400390625,157167.9666796667,1.12124967478345,1.922162349427264,-3.486985205897113,157167.9468126667,-69.37944030761719,-40.23648071289062,-538.01171875,157167.9666796667,0.2405173372244618,-2.265179040313896,0.3620367219440235,1.118792772293091,1.91603672504425,-3.48997688293457,-3.228400707244873,-2.087989568710327,-0.8682057857513428,1,0.1826971918344498,-0.8751211166381836,-0.11177047342062,0.4339263737201691,-0.7186359763145447,-0.3541796505451202,0.5984304547309875,0,0,0,-1,157166.3413765,3,2,1561827229.041432,1561827055.717469,23,1.28499,0,0,23.0045,0,0,1561827203.101918,157165.419653,0,1.767822,75.3596,0,182478453,1,1,0.19,-9.541665,-10.41228,5
1561827230.667253,64,0,0,1561827229.99785,4.634809358981098,-74.15100856691053,2553.095,0.27,213.75,4,50,-9999,1561827230.655047,9.170448303222656,-10.29673385620117,26.3148193359375,91.3828125,98.87600708007812,15,157167.9960676667,-2.329544067382812,-1.279754638671875,0.1591339111328125,157167.9869426667,1.732767920080753,1.998989486869979,-4.495154397634709,157167.9669236667,-69.24427795410156,-39.28579711914062,-537.466796875,157167.9869426667,0.320590772798801,-2.254711036956878,0.4089014342659858,1.730311036109924,1.992863893508911,-4.498146057128906,-1.962944626808167,-1.153210163116455,-0.5201722383499146,1,0.2271627634763718,-0.8592254519462585,-0.1139871403574944,0.4439994096755981,-0.711203932762146,-0.3976015746593475,0.5797426104545593,0,0,0,-1,157166.3413765,3,2,1561827229.041432,1561827055.717469,23,1.28499,0,0,23.0045,0,0,1561827203.101918,157165.419653,0,1.767822,75.3596,0,182478453,1,1,0.19,-9.421083,-10.84472,5
1561827230.695445,65,0,0,1561827229.99785,4.634809358981098,-74.15100856691053,2553.095,0.27,213.75,4,50,-9999,1561827230.682694,8.726226806640625,-8.402107238769531,26.851806640625,84.25984191894531,91.75303649902344,15,157168.0163316667,-2.059829711914062,-0.8585662841796875,0.3007354736328125,157168.0072066667,1.903282667827474,2.049753331988524,-5.007296786855704,157168.0071756667,-69.88720703125,-35.62701416015625,-535.9301147460938,157168.0072066667,0.4201908288697607,-2.25500753820545,0.4587161483435634,1.90082573890686,2.043627738952637,-5.010288238525391,-1.472977638244629,-0.6141637563705444,-0.3323302268981934,1,0.2788326442241669,-0.840007483959198,-0.1137522011995316,0.4513315558433533,-0.6948081254959106,-0.4427973330020905,0.5667204260826111,0,0,0,-1,157166.3413765,3,2,1561827229.041432,1561827055.717469,23,1.28499,0,0,23.0045,0,0,1561827203.101918,157165.419653,0,1.767822,75.3596,0,182478453,1,1,0.19,-9.325874,-11.22451,5
1561827230.707227,66,0,0,1561827229.99785,4.634809358981098,-74.15100856691053,2553.095,0.27,213.75,4,50,-9999,1561827230.705708,8.684356689453125,-6.717731475830078,27.42437744140625,76.35615539550781,83.84934997558594,15,157168.0365646667,-1.771072387695312,-0.475189208984375,0.354248046875,157168.0274396667,1.604798502328592,1.675283854267501,-5.566475394617462,157168.0272866667,-70.6849365234375,-33.64060974121094,-535.4522094726562,157168.0274396667,0.5290645313644596,-2.268644887093151,0.5192940944941091,1.602341532707214,1.669158220291138,-5.569467067718506,-1.394615173339844,-0.3622988760471344,-0.2571249008178711,1,0.3337636590003967,-0.8170263171195984,-0.1177506744861603,0.455197274684906,-0.6652145385742188,-0.4962674081325531,0.5578603744506836,0,0,0,-1,157166.3413765,3,2,1561827229.041432,1561827055.717469,23,1.28499,0,0,23.0045,0,0,1561827203.101918,157165.419653,0,1.767822,75.3596,0,182478453,1,1,0.19,-9.325874,-11.35401,5
1561827230.729823,67,0,0,1561827229.99785,4.634809358981098,-74.15100856691053,2553.095,0.27,213.75,4,50,-9999,1561827230.705708,8.684356689453125,-6.717731475830078,27.42437744140625,76.35615539550781,83.84934997558594,15,157168.0568276667,-1.4244384765625,-0.066131591796875,0.3394622802734375,157168.0477036667,1.29670938004223,1.968020918133992,-5.646808051003048,157168.0473986667,-71.31192016601562,-31.85751342773438,-535.1870727539062,157168.0477036667,0.6422341654130206,-2.29265653833063,0.586992078828496,1.294252514839172,1.961895346641541,-5.649799823760986,-0.9743956923484802,0.2851823568344116,-0.2139160633087158,1,0.3883725106716156,-0.7900973558425903,-0.1257236152887344,0.4572817385196686,-0.62493896484375,-0.5538591146469116,0.5501740574836731,0,0,0,-1,157166.3413765,3,2,1561827229.041432,1561827055.717469,23,1.28499,0,0,23.0045,0,0,1561827203.101918,157165.419653,0,1.767822,75.3596,0,182478453,1,1,0.19,-9.325874,-12.31231,5
1561827230.747953,68,0,0,1561827229.99785,4.634809358981098,-74.15100856691053,2553.095,0.27,213.75,4,50,-9999,1561827230.733127,7.115226745605469,-3.126510620117188,28.2237548828125,68.10871887207031,75.60191345214844,15,157168.0770916667,-1.129898071289062,0.28045654296875,0.36102294921875,157168.0679666667,1.513527977029942,2.257319308400973,-5.666347131288742,157168.0675096667,-72.39048767089844,-30.47357177734375,-534.6375732421875,157168.0679666667,0.761534917104976,-2.318093041961897,0.6535830027385668,1.511071085929871,2.251193523406982,-5.669338703155518,-0.6985428333282471,0.7287014126777649,-0.1906497478485107,1,0.4418184161186218,-0.7580174207687378,-0.1322466433048248,0.4612125158309937,-0.5823562145233154,-0.6080349087715149,0.5395878553390503,0,0,0,-1,157166.3413765,3,2,1561827229.041432,1561827055.717469,23,1.28499,0,0,23.0045,0,0,1561827203.101918,157165.419653,0,1.767822,75.3596,0,182478453,1,1,0.19,-9.325874,-12.31231,5
1561827230.77401,69,0,0,1561827229.99785,4.634809358981098,-74.15100856691053,2553.095,0.27,213.75,4,50,-9999,1561827230.756306,5.788993835449219,-1.378889083862305,28.7041015625,58.58962249755859,66.08281707763672,15,157168.0973556667,-0.8792724609375,0.4825286865234375,0.4115447998046875,157168.0882306667,2.179684434199637,1.953290175196437,-5.728098380116626,157168.0876506667,-73.87110900878906,-28.48715209960938,-534.3125,157168.0882306667,0.8995820558499622,-2.362239943983934,0.7109595941183811,2.17722749710083,1.947164535522461,-5.731090068817139,-0.4654649496078491,1.054187774658203,-0.1603827476501465,1,0.4961044788360596,-0.7234605550765991,-0.135085865855217,0.4606918692588806,-0.5325514078140259,-0.6525611877441406,0.5390296578407288,0,0,0,-1,157166.3413765,3,2,1561827229.041432,1561827055.717469,23,1.28499,0,0,23.0045,0,0,1561827203.101918,157165.419653,0,1.767822,75.3596,0,182478453,1,1,0.19,-9.325874,-13.1797,5
1561827230.788895,70,0,0,1561827229.99785,4.634809358981098,-74.15100856691053,2553.095,0.27,213.75,4,50,-9999,1561827230.782743,4.554191589355469,0.4977378845214844,28.9652099609375,46.93460464477539,54.42779922485352,15,157168.1176186667,-0.7051849365234375,0.504364013671875,0.592926025390625,157168.1084946667,2.838623458499109,1.408794639788723,-5.82131434459158,157168.1077616667,-74.98092651367188,-26.47171020507812,-534.3246459960938,157168.1084946667,1.061804437816182,-2.437035088008391,0.7525060767323238,2.836166620254517,1.402669072151184,-5.824306011199951,-0.3122448325157166,1.1831955909729,-0.06718599796295166,1,0.5513046979904175,-0.6885838508605957,-0.1349256783723831,0.4513429701328278,-0.4728046357631683,-0.6834703087806702,0.5561691522598267,0,0,0,-1,157166.3413765,3,2,1561827229.041432,1561827055.717469,23,1.28499,0,0,23.0045,0,0,1561827203.101918,157165.419653,0,1.767822,75.3596,0,182478453,1,1,0.19,-9.325874,-14.18643,5
1561827230.808736,71,0,0,1561827229.99785,4.634809358981098,-74.15100856691053,2553.095,0.27,213.75,4,50,-9999,1561827230.806955,3.299209594726562,2.619195938110352,29.0205078125,33.81435012817383,41.30754470825195,15,157168.1378826667,-0.5064544677734375,0.5427398681640625,0.7306976318359375,157168.1287576667,2.977014624545077,0.6318328380924272,-5.851650945200891,157168.1278726667,-76.33340454101562,-24.13992309570312,-534.5181884765625,157168.1287576667,1.243426485057784,-2.541745913047407,0.777293234278176,2.974557638168335,0.6257072687149048,-5.854642391204834,-0.2180882394313812,1.230451107025146,0.08409714698791504,1,0.6059383153915405,-0.6534716486930847,-0.135035902261734,0.4331037402153015,-0.4023951888084412,-0.701352596282959,0.5883728861808777,0,0,0,-1,157166.3413765,3,2,1561827229.041432,1561827055.717469,23,1.28499,0,0,23.0045,0,0,1561827203.101918,157165.419653,0,1.767822,75.3596,0,182478453,1,1,0.19,-9.325874,-14.97835,5
1561827230.830542,72,0,0,1561827229.99785,4.634809358981098,-74.15100856691053,2553.095,0.27,213.75,4,50,-9999,1561827230.806955,3.299209594726562,2.619195938110352,29.0205078125,33.81435012817383,41.30754470825195,15,157168.1581466667,-0.335296630859375,0.65557861328125,0.749359130859375,157168.1490216667,2.309940175747631,0.1841868841509702,-5.370310144515533,157168.1479836667,-77.3233642578125,-22.62887573242188,-534.903076171875,157168.1490216667,1.422148501167943,-2.661983197949344,0.789458591877872,2.307483196258545,0.1780612915754318,-5.373301982879639,-0.07259777188301086,1.285197973251343,0.1289784908294678,1,0.6544230580329895,-0.6197726130485535,-0.1399352997541428,0.4099152386188507,-0.3249547183513641,-0.709972083568573,0.6247752904891968,0,0,0,-1,157166.3413765,3,2,1561827229.041432,1561827055.717469,23,1.28499,0,0,23.0045,0,0,1561827203.101918,157165.419653,0,1.767822,75.3596,0,182478453,1,1,0.19,-9.325874,-15.63247,5
1561827230.856434,73,0,0,1561827229.99785,4.634809358981098,-74.15100856691053,2553.095,0.27,213.75,4,50,-9999,1561827230.833628,1.055976867675781,6.214385986328125,28.4417724609375,21.88126373291016,29.37445831298828,15,157168.1784106667,-0.0270843505859375,0.9435272216796875,0.811767578125,157168.1692856667,1.431389963741391,0.8053412452205067,-4.547649031145697,157168.1681256667,-78.216064453125,-21.64398193359375,-534.974365234375,157168.1692856667,1.574823279700096,-2.761124396114683,0.7972433681134011,1.428933024406433,0.7992156744003296,-4.55064058303833,0.03364413976669312,1.482797384262085,0.1191642284393311,1,0.6929916143417358,-0.5866192579269409,-0.1454970687627792,0.3930278718471527,-0.2594589293003082,-0.7154328227043152,0.6487190723419189,0,0,0,-1,157166.3413765,3,2,1561827229.041432,1561827055.717469,23,1.28499,0,0,23.0045,0,0,1561827203.101918,157165.419653,0,1.767822,75.3596,0,182478453,1,1,0.19,-9.325874,-16.56521,5
1561827230.869608,74,0,0,1561827229.99785,4.634809358981098,-74.15100856691053,2553.095,0.27,213.75,4,50,-9999,1561827230.860559,-0.04657745361328125,7.134510040283203,28.39971923828125,12.40422534942627,19.89742088317871,15,157168.1986736667,0.560333251953125,1.49554443359375,0.9723663330078125,157168.1895486667,1.018576292645407,0.8115618568947137,-3.881196164146675,157168.1882366667,-79.70195007324219,-21.09927368164062,-534.9840087890625,157168.1895486667,1.701809729179691,-2.834558495745969,0.803151148782111,1.016119360923767,0.8054362535476685,-3.884187698364258,0.4530016779899597,1.901615858078003,0.2360130548477173,1,0.7233299016952515,-0.554776668548584,-0.1488438248634338,0.3832260966300964,-0.2098834216594696,-0.7195479273796082,0.6619666218757629,0,0,0,-1,157166.3413765,3,2,1561827229.041432,1561827055.717469,23,1.28499,0,0,23.0045,0,0,1561827203.101918,157165.419653,0,1.767822,75.3596,0,182478453,1,1,0.19,-9.325874,-17.60024,5
1561827230.889847,75,0,0,1561827229.99785,4.634809358981098,-74.15100856691053,2553.095,0.27,213.75,4,50,-9999,1561827230.884581,-1.179885864257812,7.419023513793945,28.08978271484375,5.142988204956055,12.6361837387085,15,157168.2189376667,1.249542236328125,2.337203979492188,1.077957153320312,157168.2098126667,0.7147002912035508,-0.006492520421504175,-2.774104120034195,157168.2083476667,-80.68006896972656,-20.61058044433594,-535.4071655273438,157168.2098126667,1.804492210909663,-2.899374403313424,0.805046965489756,0.7122433185577393,-0.01261810399591923,-2.777095794677734,0.726572573184967,2.216407775878906,0.29952073097229,1,0.7460500597953796,-0.5289915800094604,-0.1538143754005432,0.3740567862987518,-0.1662393361330032,-0.7208632230758667,0.6728455424308777,0,0,0,-1,157166.3413765,3,2,1561827229.041432,1561827055.717469,23,1.28499,0,0,23.0045,0,0,1561827203.101918,157165.419653,0,1.767822,75.3596,0,182478453,1,1,0.19,-9.325874,-17.60024,5
1561827230.91006,76,0,0,1561827229.99785,4.634809358981098,-74.15100856691053,2553.095,0.27,213.75,4,50,-9999,1561827230.884581,-1.179885864257812,7.419023513793945,28.08978271484375,5.142988204956055,12.6361837387085,15,157168.2392016667,1.835205078125,3.089508056640625,1.08782958984375,157168.2300766667,0.6494597687154436,-1.083907628926686,0.3638810155429767,157168.2284586667,-80.19989013671875,-20.30290222167969,-535.52392578125,157168.2300766667,1.848658282308626,-2.942641980100323,0.7991136826466265,0.6470028162002563,-1.090033173561096,0.3608893752098083,1.717245221138,3.471880435943604,0.421805739402771,1,0.7549802660942078,-0.5213426351547241,-0.1601416766643524,0.3640896081924438,-0.1378232538700104,-0.7167382836341858,0.6835867166519165,0,0,0,-1,157166.3413765,3,2,1561827229.041432,1561827055.717469,23,1.28499,0,0,23.0045,0,0,1561827203.101918,157165.419653,0,1.767822,75.3596,0,182478453,1,1,0.19,-9.325874,-18.51415,5
1561827230.938965,77,0,0,1561827229.99785,4.634809358981098,-74.15100856691053,2553.095,0.27,213.75,4,50,-9999,1561827230.935215,0.332427978515625,8.898120880126953,27.68017578125,330.7773742675781,338.2705688476562,15,157168.2594346667,1.926040649414062,3.293350219726562,1.062515258789062,157168.2503396667,1.062828176266491,-1.145039692801128,5.385452345841506,157168.2486006667,-79.0255126953125,-19.54652404785156,-535.59619140625,157168.2503396667,1.77580013799916,-2.915963770637321,0.7703406333806287,1.060371279716492,-1.151165246963501,5.382460594177246,2.162907361984253,3.969298362731934,0.3607587814331055,1,0.7410335540771484,-0.5482798218727112,-0.154654398560524,0.355444073677063,-0.160557433962822,-0.6963797211647034,0.6994829773902893,0,0,0,-1,157166.3413765,3,2,1561827229.041432,1561827055.717469,23,1.28499,0,0,23.0045,0,0,1561827203.101918,157165.419653,0,1.767822,75.3596,0,182478453,1,1,0.19,-9.325874,-15.43351,5
1561827230.950908,78,0,0,1561827229.99785,4.634809358981098,-74.15100856691053,2553.095,0.27,213.75,4,50,-9999,1561827230.935215,0.332427978515625,8.898120880126953,27.68017578125,330.7773742675781,338.2705688476562,15,157168.2796976667,1.074111938476562,3.079391479492188,1.29595947265625,157168.2705736667,0.556137810429105,-0.7455189239701657,10.06766824370782,157168.2687116667,-76.73994445800781,-19.08146667480469,-536.075927734375,157168.2705736667,1.576443340259976,-2.799242590930223,0.7072884089749465,0.5536808371543884,-0.751644492149353,10.06467628479004,1.848330736160278,3.870188236236572,0.4418522119522095,1,0.6970928907394409,-0.6099746823310852,-0.1273095160722733,0.3546613752841949,-0.2551757991313934,-0.6497750282287598,0.7160152196884155,0,0,0,-1,157166.3413765,3,2,1561827229.041432,1561827055.717469,23,1.28499,0,0,23.0045,0,0,1561827203.101918,157165.419653,0,1.767822,75.3596,0,182478453,1,1,0.19,-9.325874,-15.43351,5
1561827230.97096,79,0,0,1561827229.99785,4.634809358981098,-74.15100856691053,2553.095,0.27,213.75,4,50,-9999,1561827230.935215,0.332427978515625,8.898120880126953,27.68017578125,330.7773742675781,338.2705688476562,15,157168.2999616667,-0.16094970703125,2.597549438476562,1.494644165039062,157168.2908366667,-1.7789758955225,-1.636249103221883,12.42978027784232,157168.2888226667,-73.65045166015625,-20.27861022949219,-536.108154296875,157168.2908366667,1.30222589716806,-2.653869131494774,0.6225433243033874,-1.781432747840881,-1.642374634742737,12.42678833007812,0.8349721431732178,3.449558258056641,0.7263262271881104,1,0.618696928024292,-0.6899645924568176,-0.09709696471691132,0.362953394651413,-0.380702793598175,-0.5831032395362854,0.7176740765571594,0,0,0,-1,157166.3413765,3,2,1561827229.041432,1561827055.717469,23,1.28499,0,0,23.0045,0,0,1561827203.101918,157165.419653,0,1.767822,75.3596,0,182478453,1,1,0.19,-9.325874,-15.76651,5
1561827230.99098,80,0,0,1561827229.99785,4.634809358981098,-74.15100856691053,2553.095,0.27,213.75,4,50,-9999,1561827230.973188,2.920356750488281,9.047235488891602,27.22161865234375,312.049072265625,319.5422668457031,15,157168.3202256667,-1.242034912109375,2.014236450195312,1.254562377929688,157168.3111006667,-3.710006837695837,-2.452294658127854,13.54338321818782,157168.3089336667,-70.23893737792969,-23.87509155273438,-536.1339111328125,157168.3111006667,0.9959266880375583,-2.528970531462092,0.534199585429025,-3.712463617324829,-2.458420276641846,13.54039096832275,-0.2262898087501526,2.810147285461426,0.6937165260314941,1,0.5091784596443176,-0.7699451446533203,-0.08216740190982819,0.3757263422012329,-0.4949015974998474,-0.5091522932052612,0.7041564583778381,0,0,0,-1,157166.3413765,3,2,1561827229.041432,1561827055.717469,23,1.28499,0,0,23.0045,0,0,1561827203.101918,157165.419653,0,1.767822,75.3596,0,182478453,1,1,0.19,-9.325874,-14.46948,5
1561827231.015363,81,0,0,1561827229.99785,4.634809358981098,-74.15100856691053,2553.095,0.27,213.75,4,50,-9999,1561827231.00973,10.77063751220703,-2.039802551269531,26.769287109375,269.204345703125,276.6975402832031,15,157168.3404886667,-2.209426879882812,1.437179565429688,0.9091339111328125,157168.3313646667,-3.576467951155993,-1.924247604560796,13.88102091171694,157168.3290756667,-67.86605834960938,-28.82099914550781,-536.3663940429688,157168.3313646667,0.6951245279920886,-2.436886048143667,0.4217434376222151,-3.578924894332886,-1.930373191833496,13.87802886962891,-1.110521554946899,2.126850605010986,0.3653289079666138,1,0.3805157542228699,-0.8382915854454041,-0.06976396590471268,0.3841978311538696,-0.5910470485687256,-0.4093517363071442,0.695050060749054,0,0,0,-1,157166.3413765,3,2,1561827229.041432,1561827055.717469,23,1.28499,0,0,23.0045,0,0,1561827203.101918,157165.419653,0,1.767822,75.3596,0,182478453,1,1,0.19,-5.828572,-12.82374,5
1561827231.032045,82,0,0,1561827229.99785,4.634809358981098,-74.15100856691053,2553.095,0.27,213.75,4,50,-9999,1561827231.00973,10.77063751220703,-2.039802551269531,26.769287109375,269.204345703125,276.6975402832031,15,157168.3607526667,-3.534896850585938,1.10296630859375,0.70941162109375,157168.3516276667,-4.048992623368752,-0.8752955628380541,12.72554242639103,157168.3491866667,-67.72479248046875,-34.21684265136719,-536.806396484375,157168.3516276667,0.4254959851960378,-2.368999768236367,0.2946657529587107,-4.051449775695801,-0.8814211487770081,12.72255039215088,-2.169156551361084,1.507796764373779,0.1290161609649658,1,0.2475301474332809,-0.8839389681816101,-0.05422714725136757,0.3929885923862457,-0.6679101586341858,-0.2904200255870819,0.6852385401725769,0,0,0,-1,157166.3413765,3,2,1561827229.041432,1561827055.717469,23,1.28499,0,0,23.0045,0,0,1561827203.101918,157165.419653,0,1.767822,75.3596,0,182478453,1,1,0.19,-5.828572,-13.49736,5
1561827231.052175,83,0,0,1561827230.997838,4.63482289575472,-74.15100387304476,2553.099,0.23,155.7421875,4,50,-9999,1561827231.036039,10.698486328125,-7.410739898681641,26.0968017578125,93.70175170898438,101.1949462890625,15,157168.3810166667,-5.179000854492188,0.3922119140625,0.3437957763671875,157168.3718916667,-2.978689486554627,-1.680114029536578,10.98452110377601,157168.3692976667,-68.84236145019531,-38.59260559082031,-537.8363037109375,157168.3718916667,0.1962514345164018,-2.338891476338333,0.1766396451953112,-2.981146335601807,-1.68623960018158,10.98152923583984,-3.595834732055664,1.060900092124939,-0.1351124048233032,1,0.1241242811083794,-0.9091595411300659,-0.04268184304237366,0.395222008228302,-0.7080439925193787,-0.1757225096225739,0.6839557886123657,0,0,0,-1,157166.3413765,3,2,1561827229.041432,1561827055.717469,23,1.28499,0,0,23.0045,0,0,1561827203.101918,157165.419653,0,1.767822,75.3596,0,182478453,1,1,0.19,-5.828572,-13.49736,5
1561827231.072271,84,0,0,1561827230.997838,4.63482289575472,-74.15100387304476,2553.099,0.23,155.7421875,4,50,-9999,1561827231.060885,9.373344421386719,-11.32129287719727,25.1767578125,106.0216445922852,113.5148391723633,15,157168.4012796667,-6.384597778320312,-1.030487060546875,0.0917816162109375,157168.3921556667,-0.4633439569869291,-0.03604082534815134,6.319536390794732,157168.3894086667,-70.02265930175781,-41.35566711425781,-538.689453125,157168.3921556667,0.04502101271652305,-2.340795331195802,0.06862851784540906,-0.4658009111881256,-0.04216640815138817,6.316544532775879,-5.395411968231201,-0.2597029209136963,-0.3180462121963501,1,0.03408528864383698,-0.9198293685913086,-0.02281762845814228,0.3901684582233429,-0.7162213325500488,-0.06857465952634811,0.6944957375526428,0,0,0,-1,157166.3413765,3,2,1561827229.041432,1561827055.717469,23,1.28499,0,0,23.0045,0,0,1561827203.101918,157165.419653,0,1.767822,75.3596,0,182478453,1,1,0.19,-5.828572,-8.721571,5
1561827231.099831,85,0,0,1561827230.997838,4.63482289575472,-74.15100387304476,2553.099,0.23,155.7421875,4,50,-9999,1561827231.086772,8.240081787109375,-12.99596405029297,24.7864990234375,109.6548919677734,117.1480865478516,15,157168.4215436667,-5.270645141601562,-1.698394775390625,-0.5323638916015625,157168.4124186667,0.1378172548310555,0.1088223547789268,1.280837472577576,157168.4095196667,-71.29530334472656,-41.84701538085938,-538.7268676757812,157168.4124186667,-0.006524710855017176,-2.335141913832479,0.01913725549895225,0.1353603005409241,0.1026967689394951,1.277845740318298,-5.134894847869873,-1.534468054771423,-1.046430230140686,1,0.0007539559155702591,-0.9197654128074646,-0.01008109003305435,0.3923382759094238,-0.7217031717300415,-0.0191360879689455,0.6919379830360413,0,0,0,-1,157166.3413765,3,2,1561827229.041432,1561827055.717469,23,1.28499,0,0,23.0045,0,0,1561827203.101918,157165.419653,0,1.767822,75.3596,0,182478453,1,1,0.19,-5.828572,-9.681179,5
1561827231.113831,86,0,0,1561827230.997838,4.63482289575472,-74.15100387304476,2553.099,0.23,155.7421875,4,50,-9999,1561827231.111697,7.203994750976562,-13.2128791809082,25.114990234375,108.8869171142578,116.3801116943359,15,157168.4418076667,-4.2496337890625,-1.642227172851562,-0.570648193359375,157168.4326826667,0.4266232266124805,0.6451542361811126,-0.8259288120273642,157168.4296306667,-71.41252136230469,-41.54545593261719,-538.4560546875,157168.4326826667,-0.003067084078763643,-2.332073046537642,0.01115462389503427,0.4241662621498108,0.6390286684036255,-0.8289204239845276,-4.54673433303833,-1.687240362167358,-1.222167372703552,1,0.0007867156527936459,-0.9191850423812866,-0.005730511620640755,0.3937835991382599,-0.7239109873771667,-0.01115439273416996,0.6898035407066345,0,0,0,-1,157166.3413765,3,2,1561827229.041432,1561827055.717469,23,1.28499,0,0,23.0045,0,0,1561827203.101918,157165.419653,0,1.767822,75.3596,0,182478453,1,1,0.19,-5.828572,-10.35784,5
1561827231.13305,87,0,0,1561827230.997838,4.63482289575472,-74.15100387304476,2553.099,0.23,155.7421875,4,50,-9999,1561827231.111697,7.203994750976562,-13.2128791809082,25.114990234375,108.8869171142578,116.3801116943359,15,157168.4620706667,-3.0701904296875,-1.1800537109375,-0.3690185546875,157168.4529466667,-0.3990744230322648,2.658928528158775,-2.453696546125672,157168.4497726667,-71.67202758789062,-41.5789794921875,-538.317138671875,157168.4529466667,0.01957783474844716,-2.299069031730037,0.0370269529350475,-0.4015313684940338,2.652802705764771,-2.456688165664673,-2.929143905639648,-1.42008900642395,-1.194681406021118,1,0.01650102809071541,-0.9122994542121887,-0.01289108023047447,0.4089879095554352,-0.7458134889602661,-0.03701849281787872,0.6651251316070557,0,0,0,-1,157166.3413765,3,2,1561827229.041432,1561827055.717469,23,1.28499,0,0,23.0045,0,0,1561827203.101918,157165.419653,0,1.767822,75.3596,0,182478453,1,1,0.19,-5.828572,-11.10707,5
1561827231.153301,88,0,0,1561827230.997838,4.63482289575472,-74.15100387304476,2553.099,0.23,155.7421875,4,50,-9999,1561827231.13734,6.924507141113281,-13.08725357055664,25.1065673828125,106.8175048828125,114.3106994628906,15,157168.4823346667,-2.130126953125,-0.83355712890625,-0.1326141357421875,157168.4732096667,0.4887688895978066,2.962907327618709,-3.274280926477465,157168.4698836667,-72.37652587890625,-41.351806640625,-537.873046875,157168.4732096667,0.05695139151314203,-2.241195683490701,0.08370554812826307,0.4863119125366211,2.956781625747681,-3.277272462844849,-1.700233817100525,-0.8741710782051086,-0.8506450653076172,1,0.04381178319454193,-0.8986892104148865,-0.02527781389653683,0.4356594681739807,-0.7808299660682678,-0.08360783010721207,0.6191235184669495,0,0,0,-1,157166.3413765,3,2,1561827229.041432,1561827055.717469,23,1.28499,0,0,23.0045,0,0,1561827203.101918,157165.419653,0,1.767822,75.3596,0,182478453,1,1,0.19,-5.828572,-11.71716,5
1561827231.178195,89,0,0,1561827230.997838,4.63482289575472,-74.15100387304476,2553.099,0.23,155.7421875,4,50,-9999,1561827231.162005,6.168571472167969,-12.59318923950195,25.73553466796875,103.0003967285156,110.4935913085938,15,157168.5025676667,-1.985382080078125,-0.714141845703125,0.098968505859375,157168.4934426667,1.071741510118877,2.898948051931039,-3.695822575413966,157168.4899946667,-73.18673706054688,-40.46501159667969,-536.9342041015625,157168.4934426667,0.1140377569322519,-2.188908708526927,0.1288210217444899,1.069284558296204,2.892822265625,-3.698814153671265,-1.212515711784363,-0.6334825754165649,-0.5843702554702759,1,0.08000482618808746,-0.8837122321128845,-0.03103108704090118,0.4600967466831207,-0.8082209825515747,-0.1284650266170502,0.5746961832046509,0,0,0,-1,157166.3413765,3,2,1561827229.041432,1561827055.717469,23,1.28499,0,0,23.0045,0,0,1561827203.101918,157165.419653,0,1.767822,75.3596,0,182478453,1,1,0.19,-5.828572,-12.37557,5
1561827231.194088,90,0,0,1561827230.997838,4.63482289575472,-74.15100387304476,2553.099,0.23,155.7421875,4,50,-9999,1561827231.187921,5.196746826171875,-11.71494674682617,26.29058837890625,98.77730560302734,106.2705001831055,15,157168.5228316667,-1.896148681640625,-0.6538543701171875,0.2741546630859375,157168.5137066667,0.5901242733123693,3.241971988764842,-4.139467928765906,157168.5101056667,-73.81132507324219,-39.47750854492188,-536.8916015625,157168.5137066667,0.1734796580879591,-2.13635060433146,0.1854813191764005,0.5876672863960266,3.235846281051636,-4.142459392547607,-1.133263826370239,-0.5038433074951172,-0.3283278942108154,1,0.1200342625379562,-0.8654119372367859,-0.03929627686738968,0.4848810732364655,-0.8298099637031555,-0.1844196170568466,0.5266920924186707,0,0,0,-1,157166.3413765,3,2,1561827229.041432,1561827055.717469,23,1.28499,0,0,23.0045,0,0,1561827203.101918,157165.419653,0,1.767822,75.3596,0,182478453,1,1,0.19,-2.872869,-12.5155,5
1561827231.213908,91,0,0,1561827230.997838,4.63482289575472,-74.15100387304476,2553.099,0.23,155.7421875,4,50,-9999,1561827231.212308,3.208259582519531,-10.25136947631836,27.27484130859375,95.01298522949219,102.5061798095703,15,157168.5430956667,-1.769363403320312,-0.54046630859375,0.4061279296875,157168.5339706667,0.4872141361534183,3.463755783288897,-4.205993692796085,157168.5302476667,-75.18646240234375,-38.92646789550781,-536.15576171875,157168.5339706667,0.2268144008499461,-2.079812443506294,0.2537284851322449,0.4847571551799774,3.457630157470703,-4.208985328674316,-0.9877108335494995,-0.3498152792453766,-0.1349849700927734,1,0.1604515612125397,-0.8426821827888489,-0.05157338827848434,0.5113532543182373,-0.8452665209770203,-0.2510147988796234,0.4717159271240234,0,0,0,-1,157166.3413765,3,2,1561827229.041432,1561827055.717469,23,1.28499,0,0,23.0045,0,0,1561827203.101918,157165.419653,0,1.767822,75.3596,0,182478453,1,1,0.19,-2.872869,-12.5155,5
1561827231.234244,92,0,0,1561827230.997838,4.63482289575472,-74.15100387304476,2553.099,0.23,155.7421875,4,50,-9999,1561827231.212308,3.208259582519531,-10.25136947631836,27.27484130859375,95.01298522949219,102.5061798095703,15,157168.5633586667,-1.6287841796875,-0.41876220703125,0.529296875,157168.5542336667,0.9486374213621822,3.291809320140149,-4.406723867322518,157168.5503586667,-76.08544921875,-38.23190307617188,-535.8941650390625,157168.5542336667,0.2815067016225309,-2.026188856471337,0.3242420721131755,0.9461804628372192,3.285683631896973,-4.40971565246582,-0.8358577489852905,-0.1670205295085907,0.05302774906158447,1,0.202051118016243,-0.8170825839042664,-0.0623265728354454,0.5363457798957825,-0.851291298866272,-0.3185904324054718,0.4168972074985504,0,0,0,-1,157166.3413765,3,2,1561827229.041432,1561827055.717469,23,1.28499,0,0,23.0045,0,0,1561827203.101918,157165.419653,0,1.767822,75.3596,0,182478453,1,1,0.19,-2.872869,-13.28496,5
1561827231.254887,93,0,0,1561827230.997838,4.63482289575472,-74.15100387304476,2553.099,0.23,155.7421875,4,50,-9999,1561827231.238557,2.191398620605469,-9.594219207763672,27.508056640625,90.72932434082031,98.22251892089844,15,157168.5836226667,-1.593521118164062,-0.327911376953125,0.6394805908203125,157168.5744976667,1.340273901785965,2.912627112554122,-4.805072312641627,157168.5704696667,-77.32272338867188,-37.21560668945312,-535.4734497070312,157168.5744976667,0.3468289657478697,-1.98783541225576,0.398100048618953,1.337816953659058,2.906501293182373,-4.808063983917236,-0.7497354745864868,0.04352092742919922,0.2021820545196533,1,0.2479985356330872,-0.7906873226165771,-0.07100170105695724,0.5552197694778442,-0.8427938222885132,-0.3876676559448242,0.3733794391155243,0,0,0,-1,157166.3413765,3,2,1561827229.041432,1561827055.717469,23,1.28499,0,0,23.0045,0,0,1561827203.101918,157165.419653,0,1.767822,75.3596,0,182478453,1,1,0.19,-2.872869,-14.1344,5
1561827231.274732,94,0,0,1561827230.997838,4.63482289575472,-74.15100387304476,2553.099,0.23,155.7421875,4,50,-9999,1561827231.262982,1.119606018066406,-8.655296325683594,27.95135498046875,85.82444763183594,93.31764221191406,15,157168.6038866667,-1.570556640625,-0.3368988037109375,0.7136077880859375,157168.5947616667,0.9097020062252238,3.230116927172354,-5.485103040142309,157168.5905806667,-78.57296752929688,-36.37361145019531,-535.17138671875,157168.5947616667,0.4154786529153833,-1.955201314016835,0.4848615331003185,0.9072450399398804,3.22399115562439,-5.488094806671143,-0.8022180795669556,0.1384033560752869,0.3529694080352783,1,0.2973248958587646,-0.7599275708198547,-0.08284657448530197,0.5720527768135071,-0.8201726675033569,-0.4660858511924744,0.3317840099334717,0,0,0,-1,157166.3413765,3,2,1561827229.041432,1561827055.717469,23,1.28499,0,0,23.0045,0,0,1561827203.101918,157165.419653,0,1.767822,75.3596,0,182478453,1,1,0.19,-2.872869,-15.16646,5
1561827231.297142,95,0,0,1561827230.997838,4.63482289575472,-74.15100387304476,2553.099,0.23,155.7421875,4,50,-9999,1561827231.289288,-0.0402984619140625,-7.790660858154297,28.1336669921875,81.05616760253906,88.54936218261719,15,157168.6241496667,-1.333602905273438,-0.31854248046875,0.777587890625,157168.6150246667,0.792847291282509,3.033260320451441,-6.042225687542525,157168.6107226667,-79.60868835449219,-35.79489135742188,-534.9656982421875,157168.6150246667,0.4820905435856562,-1.924083060382358,0.5888066995292475,0.7903957366943359,3.027141809463501,-6.045218467712402,-0.649336040019989,0.2178599238395691,0.4667342901229858,1,0.348543792963028,-0.72275710105896,-0.1005244702100754,0.588246762752533,-0.7802447080612183,-0.5553690791130066,0.2877212166786194,0,0,0,-1,157166.3413765,3,2,1561827229.041432,1561827055.717469,23,1.28499,0,0,23.0045,0,0,1561827203.101918,157165.419653,0,1.767822,75.3596,0,182478453,1,1,0.19,-2.872869,-15.98881,5
1561827231.31524,96,0,0,1561827230.997838,4.63482289575472,-74.15100387304476,2553.099,0.23,155.7421875,4,50,-9999,1561827231.313497,-1.633468627929688,-7.099742889404297,28.41534423828125,75.44120025634766,82.93439483642578,15,157168.644452125,-1.15283203125,-0.3230743408203125,0.83544921875,157168.6352886667,1.094899560009879,2.045452060511937,-6.150606223896608,157168.6308336667,-80.37815856933594,-35.2486572265625,-535.047119140625,157168.6352886667,0.5573916670407563,-1.917591243107845,0.6986873223283514,1.092447996139526,2.039333581924438,-6.153598785400391,-0.5592544078826904,0.3250521421432495,0.5437703132629395,1,0.4006254076957703,-0.6852898597717285,-0.1208460181951523,0.59604811668396,-0.7201035022735596,-0.643213152885437,0.2602458298206329,0,0,0,-1,157166.3413765,3,2,1561827229.041432,1561827055.717469,23,1.28499,0,0,23.0045,0,0,1561827203.101918,157165.419653,0,1.767822,75.3596,0,182478453,1,1,0.19,-2.872869,-17.08304,5
1561827231.335602,97,0,0,1561827230.997838,4.63482289575472,-74.15100387304476,2553.099,0.23,155.7421875,4,50,-9999,1561827231.313497,-1.633468627929688,-7.099742889404297,28.41534423828125,75.44120025634766,82.93439483642578,15,157168.664716125,-0.9606170654296875,-0.3260345458984375,0.780426025390625,157168.655591125,0.953536039871274,0.8168282579503454,-6.049357632941757,157168.650983125,-80.63699340820312,-35.00889587402344,-535.1395874023438,157168.655591125,0.6452079454438003,-1.948568099400709,0.8078096673957482,0.9510844945907593,0.8107097744941711,-6.052350044250488,-0.3842569589614868,0.4085509777069092,0.5604318380355835,1,0.4505690038204193,-0.6514911651611328,-0.1445977985858917,0.5929911136627197,-0.6423543691635132,-0.7227752208709717,0.2549063265323639,0,0,0,-1,157166.3413765,3,2,1561827229.041432,1561827055.717469,23,1.28499,0,0,23.0045,0,0,1561827203.101918,157165.419653,0,1.767822,75.3596,0,182478453,1,1,0.19,-2.872869,-18.15376,5
1561827231.355675,98,0,0,1561827230.997838,4.63482289575472,-74.15100387304476,2553.099,0.23,155.7421875,4,50,-9999,1561827231.339911,-1.673316955566406,-6.564151763916016,28.37286376953125,68.92544555664062,76.41864013671875,15,157168.684979125,-0.80706787109375,-0.403533935546875,0.8165130615234375,157168.675855125,0.4725009700790575,0.5642996002218709,-5.973682312670501,157168.671124125,-80.16860961914062,-35.05845642089844,-534.7938842773438,157168.675855125,0.739865669109826,-2.008792142979527,0.9133312043689419,0.4700494110584259,0.55818110704422,-5.976675033569336,-0.3382371664047241,0.4226778745651245,0.5393500328063965,1,0.4944388866424561,-0.6205838322639465,-0.1727972477674484,0.5835640430450439,-0.5534254908561707,-0.7915438413619995,0.2591882050037384,0,0,0,-1,157166.3413765,3,2,1561827229.041432,1561827055.717469,23,1.28499,0,0,23.0045,0,0,1561827203.101918,157165.419653,0,1.767822,75.3596,0,182478453,1,1,0.19,-2.872869,-19.19832,5
1561827231.376039,99,0,0,1561827230.997838,4.63482289575472,-74.15100387304476,2553.099,0.23,155.7421875,4,50,-9999,1561827231.365579,-1.384315490722656,-6.580905914306641,28.703857421875,61.84986114501953,69.34305572509766,15,157168.705243125,-0.644683837890625,-0.42047119140625,0.8205108642578125,157168.696118125,-0.1503050834985461,0.772551606931124,-5.82747796461846,157168.691235125,-79.68077087402344,-35.03807067871094,-534.7433471679688,157168.696118125,0.8410216514540818,-2.077970279011553,1.019053892102991,-0.1527566313743591,0.7664331197738647,-5.830470561981201,-0.2784286141395569,0.4316753745079041,0.5613383054733276,1,0.5329480171203613,-0.5858872532844543,-0.2030597627162933,0.5757336616516113,-0.4581894278526306,-0.8516125082969666,0.2545949220657349,0,0,0,-1,157166.3413765,3,2,1561827229.041432,1561827055.717469,23,1.28499,0,0,23.0045,0,0,1561827203.101918,157165.419653,0,1.767822,75.3596,0,182478453,1,1,0.19,-2.872869,-19.19832,5
1561827231.397209,100,0,0,1561827230.997838,4.63482289575472,-74.15100387304476,2553.099,0.23,155.7421875,4,50,-9999,1561827231.39052,-1.001922607421875,-6.707859039306641,28.44207763671875,175.7650604248047,183.2582550048828,15,157168.725476125,-0.423675537109375,-0.4503936767578125,0.794158935546875,157168.716382125,-0.5552680220170851,0.4604680093257525,-5.401705085342042,157168.711346125,-79.694580078125,-35.35050964355469,-535.0071411132812,157168.716382125,0.951289007393354,-2.161591838126237,1.120578307973765,-0.5577195286750793,0.454349547624588,-5.404697895050049,-0.1671177744865417,0.4705121517181396,0.5769259929656982,1,0.5645978450775146,-0.5499332547187805,-0.2342955023050308,0.5691294074058533,-0.3614009022712708,-0.9003522396087646,0.2423946261405945,0,0,0,-1,157166.3413765,3,2,1561827229.041432,1561827055.717469,23,1.28499,0,0,23.0045,0,0,1561827203.101918,157165.419653,0,1.767822,75.3596,0,182478453,1,1,0.19,-2.872869,-20.17671,5
1561827231.416606,101,0,0,1561827230.997838,4.63482289575472,-74.15100387304476,2553.099,0.23,155.7421875,4,50,-9999,1561827231.414781,-0.417694091796875,-7.710601806640625,28.081787109375,175.913818359375,183.4070129394531,15,157168.745740125,-0.203216552734375,-0.465728759765625,0.6962432861328125,157168.736615125,-0.7828987867144089,0.0330820533770733,-4.970380047825026,157168.731488125,-79.44342041015625,-35.86164855957031,-535.221923828125,157168.736615125,1.08452991328105,-2.279561218538109,1.212558783626781,-0.7853503227233887,0.02696359530091286,-4.973372459411621,-0.04766079783439636,0.4716114401817322,0.5217189788818359,1,0.5892239809036255,-0.5166479349136353,-0.2662457823753357,0.5612514019012451,-0.2661819458007812,-0.9365162253379822,0.2282199710607529,0,0,0,-1,157166.3413765,3,2,1561827229.041432,1561827055.717469,23,1.28499,0,0,23.0045,0,0,1561827203.101918,157165.419653,0,1.767822,75.3596,0,182478453,1,1,0.19,-2.872869,-21.23476,5
1561827231.436704,102,0,0,1561827230.997838,4.63482289575472,-74.15100387304476,2553.099,0.23,155.7421875,4,50,-9999,1561827231.414781,-0.417694091796875,-7.710601806640625,28.081787109375,175.913818359375,183.4070129394531,15,157168.766003125,-0.0103607177734375,-0.4720001220703125,0.6129608154296875,157168.756879125,-0.748046796476869,-0.1929343030674445,-4.576103842128757,157168.751599125,-78.59931945800781,-36.44821166992188,-535.4332275390625,157168.756879125,1.269528855314921,-2.457697532310835,1.291861540536226,-0.750498354434967,-0.1990527659654617,-4.57909631729126,0.06449255347251892,0.4991605281829834,0.4383038282394409,1,0.6086366176605225,-0.486074686050415,-0.2978452444076538,0.5518885850906372,-0.1739590913057327,-0.9613492488861084,0.213414266705513,0,0,0,-1,157166.3413765,3,2,1561827229.041432,1561827055.717469,23,1.28499,0,0,23.0045,0,0,1561827203.101918,157165.419653,0,1.767822,75.3596,0,182478453,1,1,0.19,-2.872869,-22.14831,5
1561827231.456909,103,0,0,1561827230.997838,4.63482289575472,-74.15100387304476,2553.099,0.23,155.7421875,4,50,-9999,1561827231.441219,0.4618682861328125,-8.074630737304688,27.93328857421875,176.3851165771484,183.8783111572266,15,157168.786267125,0.1513214111328125,-0.4372406005859375,0.5045013427734375,157168.777142125,-0.5796822849942775,-0.3083711510458011,-4.387745915078504,157168.771710125,-77.46551513671875,-36.79104614257812,-535.61328125,157168.777142125,1.557207386469899,-2.7414386678336,1.350638864261308,-0.5821338295936584,-0.3144896030426025,-4.390738487243652,0.1504116654396057,0.5069910287857056,0.3609565496444702,1,0.625653862953186,-0.4572996497154236,-0.3272208571434021,0.5407040119171143,-0.08507352322340012,-0.9758630990982056,0.2011314481496811,0,0,0,-1,157166.3413765,3,2,1561827229.041432,1561827055.717469,23,1.28499,0,0,23.0045,0,0,1561827203.101918,157165.419653,0,1.767822,75.3596,0,182478453,1,1,0.19,-2.872869,-22.89779,5
1561827231.47754,104,0,0,1561827230.997838,4.63482289575472,-74.15100387304476,2553.099,0.23,155.7421875,4,50,-9999,1561827231.471111,1.38189697265625,-8.335643768310547,27.4345703125,177.1153411865234,184.6085357666016,15,157168.806531125,0.289886474609375,-0.3662872314453125,0.40643310546875,157168.797406125,-0.6297635619254356,-0.8565439792866971,-4.200903060372398,157168.791821125,-76.65809631347656,-36.74653625488281,-535.8258056640625,157168.797406125,1.968132981621139,3.127869077693455,1.379843981668221,-0.6322150826454163,-0.8626624345779419,-4.203895568847656,0.2369278967380524,0.5731935501098633,0.268979549407959,1,0.6398677229881287,-0.4306474626064301,-0.3567785918712616,0.5270873308181763,0.002604567212983966,-0.9818239212036133,0.1897758841514587,0,0,0,-1,157166.3413765,3,2,1561827229.041432,1561827055.717469,23,1.28499,0,0,23.0045,0,0,1561827203.101918,157166.366134,0,2.116455,75.35629,0,182478453,1,1,0.19,-2.872869,-23.76414,5
1561827231.499231,105,0,0,1561827230.997838,4.63482289575472,-74.15100387304476,2553.099,0.23,155.7421875,4,50,-9999,1561827231.491854,2.407119750976562,-8.348400115966797,27.32818603515625,178.8011322021484,186.2943267822266,15,157168.826794125,0.376678466796875,-0.28546142578125,0.304931640625,157168.817670125,-0.6054033611183718,-1.408298492877641,-3.792183999452412,157168.811963125,-75.64974975585938,-36.85258483886719,-536.229248046875,157168.817670125,2.397376716611981,2.682716430545163,1.373454069593212,-0.6078549027442932,-1.414416909217834,-3.79517650604248,0.2346427142620087,0.6605990529060364,0.1764984130859375,1,0.6490969061851501,-0.408122330904007,-0.3883135318756104,0.5111966133117676,0.08684471994638443,-0.9805911183357239,0.1757812649011612,0,0,0,-1,157166.3413765,3,2,1561827229.041432,1561827055.717469,23,1.28499,0,0,23.0045,0,0,1561827203.101918,157166.366134,0,2.116455,75.35629,0,182478453,1,1,0.19,-2.872869,-24.59973,5
1561827231.517793,106,0,0,1561827230.997838,4.63482289575472,-74.15100387304476,2553.099,0.23,155.7421875,4,50,-9999,1561827231.516217,4.97796630859375,-8.6630859375,26.616455078125,180.9680328369141,188.4612274169922,15,157168.847058125,0.4317169189453125,-0.2128143310546875,0.175445556640625,157168.837933125,-0.4334861927416147,-1.593550907780752,-3.04774312309151,157168.832074125,-74.027587890625,-37.09371948242188,-536.7013549804688,157168.837933125,2.696105388218257,2.359425631361356,1.340913582781546,-0.435937762260437,-1.599669337272644,-3.050735712051392,0.2617151439189911,0.7303459644317627,0.07309770584106445,1,0.6541606783866882,-0.3910186588764191,-0.4181936085224152,0.494259387254715,0.1606023460626602,-0.9736931324005127,0.1616435647010803,0,0,0,-1,157166.3413765,3,2,1561827229.041432,1561827055.717469,23,1.28499,0,0,23.0045,0,0,1561827203.101918,157166.366134,0,2.116455,75.35629,0,182478453,1,1,0.19,-2.872869,-24.59973,5
1561827231.53801,107,0,0,1561827230.997838,4.63482289575472,-74.15100387304476,2553.099,0.23,155.7421875,4,50,-9999,1561827231.516217,4.97796630859375,-8.6630859375,26.616455078125,180.9680328369141,188.4612274169922,15,157168.867322125,0.4310760498046875,-0.1994781494140625,0.1177825927734375,157168.858197125,-0.3442172993182677,-1.152657665099299,-2.067062547493494,157168.852185125,-72.73367309570312,-36.71807861328125,-536.8146362304688,157168.858197125,2.856808964263987,2.174535348174582,1.305874562024482,-0.3466688692569733,-1.158776044845581,-2.070055246353149,0.2118672728538513,0.7734473347663879,-0.00428617000579834,1,0.656045138835907,-0.3793805241584778,-0.4418696761131287,0.4800275564193726,0.2155466973781586,-0.9651129841804504,0.1486496180295944,0,0,0,-1,157166.3413765,3,2,1561827229.041432,1561827055.717469,23,1.28499,0,0,23.0045,0,0,1561827203.101918,157166.366134,0,2.116455,75.35629,0,182478453,1,1,0.19,-2.872869,-25.21792,5
1561827231.559535,108,0,0,1561827230.997838,4.63482289575472,-74.15100387304476,2553.099,0.23,155.7421875,4,50,-9999,1561827231.542984,6.214004516601562,-8.174629211425781,26.5367431640625,182.4664154052734,189.9596099853516,15,157168.887585125,0.431182861328125,-0.19964599609375,0.061737060546875,157168.878461125,-0.5168977296634415,-0.4462725617673031,-1.212307679827112,157168.872296125,-71.85914611816406,-36.80070495605469,-537.230224609375,157168.878461125,2.945889320707272,2.072626461659436,1.28214824606133,-0.5193492770195007,-0.4523909986019135,-1.215300440788269,0.196256697177887,0.7506980895996094,-0.05146408081054688,1,0.6566147804260254,-0.3705688714981079,-0.4565833508968353,0.4723000824451447,0.2495593428611755,-0.9586296081542969,0.1369285136461258,0,0,0,-1,157166.3413765,3,2,1561827229.041432,1561827055.717469,23,1.28499,0,0,23.0045,0,0,1561827203.101918,157166.366134,0,2.116455,75.35629,0,182478453,1,1,0.19,-2.872869,-26.15811,5
1561827231.580537,109,0,0,1561827230.997838,4.63482289575472,-74.15100387304476,2553.099,0.23,155.7421875,4,50,-9999,1561827231.566795,6.767478942871094,-8.357227325439453,26.01629638671875,182.6044311523438,190.0976257324219,15,157168.907849125,0.333221435546875,-0.170745849609375,0.0656585693359375,157168.898724125,-0.8567604942833206,0.2637440280271253,-0.4959250697629585,157168.892438125,-71.87759399414062,-36.943603515625,-537.1823120117188,157168.898724125,3.015771835866927,2.003642667104579,1.273102603190595,-0.8592120409011841,0.2576255798339844,-0.4989177584648132,0.1154334843158722,0.7688664793968201,-0.06352400779724121,1,0.6559851169586182,-0.3622156381607056,-0.4638773798942566,0.4725474715232849,0.2662651538848877,-0.9560155272483826,0.1230332851409912,0,0,0,-1,157166.3413765,3,2,1561827229.041432,1561827055.717469,23,1.28499,0,0,23.0045,0,0,1561827203.101918,157166.366134,0,2.116455,75.35629,0,182478453,1,1,0.19,-2.872869,-25.27451,5
1561827231.599288,110,0,0,1561827230.997838,4.63482289575472,-74.15100387304476,2553.099,0.23,155.7421875,4,50,-9999,1561827231.593112,6.67205810546875,-9.441337585449219,26.00439453125,181.5298309326172,189.0230255126953,15,157168.928113125,0.24688720703125,-0.156768798828125,0.0841064453125,157168.918988125,-1.103053892951593,0.6338499163020532,0.07597732273887059,157168.912549125,-72.03446960449219,-37.38458251953125,-537.2705688476562,157168.918988125,3.085310593887265,1.947035439547927,1.277388180797009,-1.105505466461182,0.6277314424514771,0.07298463582992554,0.02154064178466797,0.7926977276802063,-0.04045426845550537,1,0.6541761159896851,-0.35381680727005,-0.465223491191864,0.4800358414649963,0.268986701965332,-0.9572637677192688,0.1062654480338097,0,0,0,-1,157166.3413765,3,2,1561827229.041432,1561827055.717469,23,1.28499,0,0,23.0045,0,0,1561827203.101918,157166.366134,0,2.116455,75.35629,0,182478453,1,1,0.19,-2.872869,-25.53473,5
1561827231.619134,111,0,0,1561827230.997838,4.63482289575472,-74.15100387304476,2553.099,0.23,155.7421875,4,50,-9999,1561827231.617392,6.304367065429688,-9.806251525878906,25.8175048828125,180.4814605712891,187.9746551513672,15,157168.948376125,0.1549072265625,-0.106109619140625,0.1287078857421875,157168.939252125,-0.8103823428479177,0.4536836064487756,0.6592205204266931,157168.932660125,-72.38484191894531,-38.00430297851562,-537.53173828125,157168.939252125,-3.138275106821884,1.901810301183403,1.291215551597092,-0.8128339052200317,0.4475651681423187,0.6562278270721436,-0.01408550143241882,0.8044024109840393,-0.005578994750976562,1,0.6507020592689514,-0.3484674096107483,-0.4632092118263245,0.4905045032501221,0.2609727084636688,-0.9611712098121643,0.08968541026115417,0,0,0,-1,157168.933606125,3,1,1561827231.633662,1561827055.717469,23,1.28499,0,0,23.0045,0,0,1561827203.101918,157166.366134,0,2.116455,75.35629,0,182478453,1,1,0.19,-2.872869,-26.30293,5
1561827231.640383,112,0,0,1561827230.997838,4.63482289575472,-74.15100387304476,2553.099,0.23,155.7421875,4,50,-9999,1561827231.617392,6.304367065429688,-9.806251525878906,25.8175048828125,180.4814605712891,187.9746551513672,15,157168.968610125,-0.0282135009765625,-0.0582122802734375,0.19342041015625,157168.959485125,0.05356096321145562,-0.1111864428785902,1.376326178726804,157168.952771125,-72.66815185546875,-38.55361938476562,-537.7259521484375,157168.959485125,-3.133635873247561,1.900491557816593,1.312951315320077,0.05110940709710121,-0.1173048987984657,1.37333345413208,-0.1476964950561523,0.8866958022117615,0.06423306465148926,1,0.6458656191825867,-0.3523292243480682,-0.4586416780948639,0.4983668327331543,0.2412633895874023,-0.9669417142868042,0.08255656063556671,0,0,0,-1,157168.933606125,3,1,1561827231.633662,1561827055.717469,23,1.28499,0,0,23.0045,0,0,1561827203.101918,157166.366134,0,2.116455,75.35629,0,182478453,1,1,0.19,-2.872869,-26.32563,5
1561827231.659691,113,0,0,1561827230.997838,4.63482289575472,-74.15100387304476,2553.099,0.23,155.7421875,4,50,-9999,1561827231.643816,5.976470947265625,-10.01642608642578,25.64398193359375,180.6024017333984,188.0955963134766,15,157168.988873125,-0.3046722412109375,-0.0731658935546875,0.2858428955078125,157168.979749125,0.8349185786030356,-0.09924855697620098,2.371693821420497,157168.972913125,-72.64788818359375,-38.69218444824219,-537.6231689453125,157168.979749125,3.053977925890736,1.990089614847352,1.344506329979063,0.8324670195579529,-0.105367012321949,2.368701219558716,-0.3751864433288574,0.9128294587135315,0.1555452346801758,1,0.6408028602600098,-0.367481529712677,-0.4484678506851196,0.5031954646110535,0.2049288898706436,-0.9745054841041565,0.09134195744991302,0,0,0,-1,157168.933606125,3,1,1561827231.633662,1561827055.717469,23,1.28499,0,0,23.0045,0,0,1561827203.101918,157166.366134,0,2.116455,75.35629,0,182478453,1,1,0.19,-2.872869,-26.03118,5
1561827231.680182,114,0,0,1561827230.997838,4.63482289575472,-74.15100387304476,2553.099,0.23,155.7421875,4,50,-9999,1561827231.668031,5.8680419921875,-10.0927848815918,25.81134033203125,180.8347320556641,188.3279266357422,15,157169.009137125,-0.6880035400390625,-0.1733856201171875,0.4065093994140625,157169.000012125,0.8854198360380993,0.3212264959437226,3.333596714488473,157168.993024125,-72.85299682617188,-38.11775207519531,-537.4737548828125,157169.000012125,2.832900129581317,2.208219935823281,1.385427354007861,0.8829683065414429,0.315108060836792,3.330604076385498,-0.6530451774597168,0.8823739290237427,0.228966236114502,1,0.6348837614059448,-0.389571875333786,-0.4297919571399689,0.5103285312652588,0.1481165885925293,-0.9828683137893677,0.1096872761845589,0,0,0,-1,157168.933606125,3,1,1561827231.633662,1561827055.717469,23,1.28499,0,0,23.0045,0,0,1561827203.101918,157166.366134,0,2.116455,75.35629,0,182478453,1,1,0.19,-2.872869,-26.10516,5
1561827231.700173,115,0,0,1561827230.997838,4.63482289575472,-74.15100387304476,2553.099,0.23,155.7421875,4,50,-9999,1561827231.695463,4.321662902832031,-10.1891975402832,26.05902099609375,180.389404296875,187.8825988769531,15,157169.029401125,-0.851348876953125,-0.3998565673828125,0.4489288330078125,157169.020276125,0.6646610922176159,0.3307997611142304,4.118337077096672,157169.013135125,-74.26068115234375,-38.22541809082031,-537.1162109375,157169.020276125,2.423473610013841,2.620789707990796,1.425099541588395,0.6622095704078674,0.3246813118457794,4.115344524383545,-0.8643840551376343,0.7148230671882629,0.3223388195037842,1,0.6254091858863831,-0.4145241677761078,-0.4043855369091034,0.5229774713516235,0.07223925739526749,-0.9894049763679504,0.1259338706731796,0,0,0,-1,157168.933606125,3,1,1561827231.633662,1561827055.717469,23,1.28499,0,0,23.0045,0,0,1561827203.101918,157166.366134,0,2.116455,75.35629,0,182478453,1,1,0.19,-2.872869,-26.10516,5
1561827231.734334,116,0,0,1561827230.997838,4.63482289575472,-74.15100387304476,2553.099,0.23,155.7421875,4,50,-9999,1561827231.71872,3.728630065917969,-10.12896347045898,26.28515625,180.8870544433594,188.3802490234375,15,157169.049664125,-0.921783447265625,-0.85601806640625,0.440093994140625,157169.040540125,0.6995767320052089,-0.5474628294942809,4.585158057202809,157169.033276125,-75.13258361816406,-38.49613952636719,-537.041259765625,157169.040540125,1.783420968581116,-3.030425883576784,1.430369238549923,0.6971251964569092,-0.5535812973976135,4.582165241241455,-0.873754620552063,0.3939801454544067,0.305706262588501,1,0.609453558921814,-0.4451041519641876,-0.3785956501960754,0.5358302593231201,-0.01552761346101761,-0.9901562929153442,0.1391026973724365,0,0,0,-1,157168.933606125,3,1,1561827231.633662,1561827055.717469,23,1.28499,0,0,23.0045,0,0,1561827203.101918,157166.366134,0,2.116455,75.35629,0,182478453,1,1,0.19,-2.872869,-23.90675,5
1561827231.741223,117,0,0,1561827230.997838,4.63482289575472,-74.15100387304476,2553.099,0.23,155.7421875,4,50,-9999,1561827231.71872,3.728630065917969,-10.12896347045898,26.28515625,180.8870544433594,188.3802490234375,15,157169.069928125,-0.9494476318359375,-1.418167114257812,0.3297271728515625,157169.060803125,0.6527274673729709,-1.212263471353017,4.213777047397951,157169.053387125,-75.29832458496094,-38.44610595703125,-536.8068237304688,157169.060803125,1.284432475290221,-2.556258154975064,1.383888608359919,0.6502759456634521,-1.218381881713867,4.210784435272217,-0.8227525949478149,-0.1571259498596191,0.2527663707733154,1,0.5890045166015625,-0.4801222681999207,-0.3561313450336456,0.5438076853752136,-0.1026624143123627,-0.9825835227966309,0.1548874229192734,0,0,0,-1,157168.933606125,3,1,1561827231.633662,1561827055.717469,23,1.28499,0,0,23.0045,0,0,1561827203.101918,157166.366134,0,2.116455,75.35629,0,182478453,1,1,0.19,-2.872869,-23.90675,5
1561827231.760938,118,0,0,1561827230.997838,4.63482289575472,-74.15100387304476,2553.099,0.23,155.7421875,4,50,-9999,1561827231.745151,3.256141662597656,-10.18054962158203,26.6400146484375,182.53515625,190.0283508300781,15,157169.090192125,-1.204116821289062,-1.702163696289062,0.1519927978515625,157169.081067125,-0.5449749044039289,-1.141883846909384,2.552813010311805,157169.073499125,-75.23567199707031,-38.80032348632812,-536.8641357421875,157169.081067125,1.035370557215182,-2.338626065807772,1.336058822913723,-0.5474264621734619,-1.14800226688385,2.549820423126221,-0.9045256376266479,-0.6639449596405029,0.08611583709716797,1,0.5679510831832886,-0.5081400871276855,-0.3436533808708191,0.5487508773803711,-0.1673280149698257,-0.9725754261016846,0.1615495681762695,0,0,0,-1,157168.933606125,3,1,1561827231.633662,1561827055.717469,23,1.28499,0,0,23.0045,0,0,1561827203.101918,157166.366134,0,2.116455,75.35629,0,182478453,1,1,0.19,-2.872869,-23.60527,5
1561827231.781576,119,0,0,1561827230.997838,4.63482289575472,-74.15100387304476,2553.099,0.23,155.7421875,4,50,-9999,1561827231.769364,3.2877197265625,-10.40646743774414,26.349609375,184.1866455078125,191.6798400878906,15,157169.110455125,-1.05517578125,-1.402267456054688,-0.1599884033203125,157169.101331125,-2.851826345919286,-0.2468209708802168,0.3597459253184107,157169.093610125,-75.08287048339844,-39.50234985351562,-537.2459106445312,157169.101331125,0.8453708615763332,-2.169187221788577,1.335128798303769,-2.854278087615967,-0.2529394328594208,0.3567532300949097,-1.016948580741882,-0.6207504272460938,-0.1331770420074463,1,0.5486361980438232,-0.5145511031150818,-0.3486299216747284,0.5591892004013062,-0.1929208487272263,-0.9723587036132812,0.1315290331840515,0,0,0,-1,157168.933606125,3,1,1561827231.633662,1561827055.717469,23,1.28499,0,0,23.0045,0,0,1561827203.101918,157166.366134,0,2.116455,75.35629,0,182478453,1,1,0.19,-2.872869,-24.23584,5
1561827231.815687,120,0,0,1561827230.997838,4.63482289575472,-74.15100387304476,2553.099,0.23,155.7421875,4,50,-9999,1561827231.795931,3.348663330078125,-13.3305778503418,25.25567626953125,184.5535888671875,192.0467834472656,15,157169.130719125,-0.5442657470703125,-0.8942718505859375,-0.286102294921875,157169.121594125,-3.714114763677284,1.046489949294964,-0.7456520820246697,157169.113751125,-75.28269958496094,-41.12831115722656,-537.7245483398438,157169.121594125,0.5597631231882171,-1.882103334172184,1.372413504773936,-3.716566324234009,1.040371537208557,-0.7486447691917419,-0.6281243562698364,-0.1746731996536255,-0.297977089881897,1,0.5313558578491211,-0.4978399276733398,-0.3662765324115753,0.579359769821167,-0.1876104921102524,-0.9803865551948547,0.06036728248000145,0,0,0,-1,157168.933606125,3,1,1561827231.633662,1561827055.717469,23,1.28499,0,0,23.0045,0,0,1561827203.101918,157166.366134,0,2.116455,75.35629,0,182478453,1,1,0.19,-2.872869,-23.33206,5
1561827231.821712,121,0,0,1561827230.997838,4.63482289575472,-74.15100387304476,2553.099,0.23,155.7421875,4,50,-9999,1561827231.819997,2.699424743652344,-14.60136795043945,24.63201904296875,183.1627349853516,190.6559295654297,15,157169.150983125,-0.0619964599609375,-0.5819244384765625,-0.29248046875,157169.141858125,-1.974466566920311,1.503078265544689,-0.6693453262589564,157169.133862125,-75.96031188964844,-42.71138000488281,-538.7330322265625,157169.141858125,0.246655031460847,-1.546846201829657,1.397098709854646,-1.97691810131073,1.496959805488586,-0.6723380088806152,-0.1038356721401215,0.2848639488220215,-0.3111078143119812,1,0.5224720239639282,-0.4742927253246307,-0.3784516751766205,0.5990356206893921,-0.1727756559848785,-0.984952449798584,-0.004138789605349302,0,0,0,-1,157168.933606125,3,1,1561827231.633662,1561827055.717469,23,1.28499,0,0,23.0045,0,0,1561827203.101918,157166.366134,0,2.116455,75.35629,0,182478453,1,1,0.19,-2.872869,-23.8393,5
1561827231.841939,122,0,0,1561827230.997838,4.63482289575472,-74.15100387304476,2553.099,0.23,155.7421875,4,50,-9999,1561827231.819997,2.699424743652344,-14.60136795043945,24.63201904296875,183.1627349853516,190.6559295654297,15,157169.171246125,0.0810394287109375,-0.545379638671875,-0.15911865234375,157169.162122125,0.5299927590594701,1.018652991684802,-0.209522867181439,157169.153973125,-76.52674865722656,-43.59147644042969,-538.7998046875,157169.162122125,0.1588485467012332,-1.433759841500525,1.404925789308739,0.5275412201881409,1.012534618377686,-0.2125155478715897,0.235859215259552,0.4525682926177979,-0.2157410383224487,1,0.5253208875656128,-0.4612593948841095,-0.3775206804275513,0.6072527170181274,-0.1635630428791046,-0.9862750172615051,-0.02255547232925892,0,0,0,-1,157168.933606125,3,1,1561827231.633662,1561827055.717469,23,1.28499,0,0,23.0045,0,0,1561827203.101918,157166.366134,0,2.116455,75.35629,0,182478453,1,1,0.19,-2.872869,-23.8393,5
1561827231.863466,123,0,0,1561827230.997838,4.63482289575472,-74.15100387304476,2553.099,0.23,155.7421875,4,50,-9999,1561827231.846534,1.948928833007812,-14.96724700927734,24.65740966796875,181.5895385742188,189.0827331542969,15,157169.191480125,-0.0839996337890625,-0.688232421875,0.0334320068359375,157169.182385125,1.999085626985331,0.663988377726262,-0.07160787433837758,157169.174115125,-76.77120971679688,-42.89064025878906,-538.4669189453125,157169.182385125,0.329961766150502,-1.586885816725258,1.408957195884892,1.996634125709534,0.6578698754310608,-0.07460056245326996,0.1675826013088226,0.377130389213562,-0.06129300594329834,1,0.5372759699821472,-0.4611190259456635,-0.367578387260437,0.6029841899871826,-0.1611128896474838,-0.986932635307312,0.002592447912320495,0,0,0,-1,157168.933606125,3,1,1561827231.633662,1561827055.717469,23,1.28499,0,0,23.0045,0,0,1561827203.101918,157166.366134,0,2.116455,75.35629,0,182478453,1,1,0.19,-2.872869,-24.21604,5
