loggingTime,loggingSample,identifierForVendor,deviceID,locationTimestamp_since1970,locationLatitude,locationLongitude,locationAltitude,locationSpeed,locationCourse,locationVerticalAccuracy,locationHorizontalAccuracy,locationFloor,locationHeadingTimestamp_since1970,locationHeadingX,locationHeadingY,locationHeadingZ,locationTrueHeading,locationMagneticHeading,locationHeadingAccuracy,accelerometerTimestamp_sinceReboot,accelerometerAccelerationX,accelerometerAccelerationY,accelerometerAccelerationZ,gyroTimestamp_sinceReboot,gyroRotationX,gyroRotationY,gyroRotationZ,magnetometerTimestamp_sinceReboot,magnetometerX,magnetometerY,magnetometerZ,motionTimestamp_sinceReboot,motionYaw,motionRoll,motionPitch,motionRotationRateX,motionRotationRateY,motionRotationRateZ,motionUserAccelerationX,motionUserAccelerationY,motionUserAccelerationZ,motionAttitudeReferenceFrame,motionQuaternionX,motionQuaternionY,motionQuaternionZ,motionQuaternionW,motionGravityX,motionGravityY,motionGravityZ,motionMagneticFieldX,motionMagneticFieldY,motionMagneticFieldZ,motionMagneticFieldCalibrationAccuracy,activityTimestamp_sinceReboot,activity,activityActivityConfidence,activityActivityStartDate,pedometerStartDate,pedometerNumberofSteps,pedometerAverageActivePace,pedometerCurrentPace,pedometerCurrentCadence,pedometerDistance,pedometerFloorAscended,pedometerFloorDescended,pedometerEndDate,altimeterTimestamp_sinceReboot,altimeterReset,altimeterRelativeAltitude,altimeterPressure,IP_en0,IP_pdp_ip0,deviceOrientation,batteryState,batteryLevel,avAudioRecorderPeakPower,avAudioRecorderAveragePower,label
1561241706.711471,1,0,0,1561241700.47461,4.603090011226137,-74.06476591219382,2651.049,-1,-1,10,65,-9999,1561241706.667842,4.734672546386719,-8.945560455322266,-26.57818603515625,256.3670654296875,263.9107666015625,15,64167.04656725001,-0.285797119140625,0.594696044921875,-1.162139892578125,64167.03945625,2.107533541314992,-0.8544784315452316,0.4835142064509712,64167.01986425,42.87007141113281,-8.646377563476562,-559.7390747070312,64167.03945625,0.9156092112479439,-0.8181785859792158,0.3614791489432121,2.104403972625732,-0.8619807958602905,0.4806160628795624,0.3310472965240479,1.013295650482178,-0.6347928643226624,1,-0.3208854794502258,0.2781078517436981,-0.334764152765274,-0.8412023782730103,-0.6827318668365479,-0.3536581695079803,-0.6393770575523376,0,0,0,-1,64165.132419375,3,2,1561241704.795334,1561241546.732582,16,16.27515,0,0,14.2948,0,0,1561241691.513234,64164.542911,0,-1.604004,74.44489,2650659446,177292352,1,1,0.2,-7.943364,-18.44787,0
1561241706.713839,2,0,0,1561241700.47461,4.603090011226137,-74.06476591219382,2651.049,-1,-1,10,65,-9999,1561241706.667842,4.734672546386719,-8.945560455322266,-26.57818603515625,256.3670654296875,263.9107666015625,15,64167.06683025001,-0.218048095703125,0.4513092041015625,-0.982147216796875,64167.05972025001,2.559124702095293,-1.218688081166724,0.4892914018036801,64167.04000525,42.66000366210938,-9.763916015625,-559.364990234375,64167.05972025001,0.9608733386208491,-0.8563792436589042,0.3865042971083412,2.555995225906372,-1.226190567016602,0.4863932728767395,0.455437183380127,0.9011533260345459,-0.4629473686218262,1,-0.3432647883892059,0.2806174159049988,-0.341898113489151,-0.8285703063011169,-0.6997456550598145,-0.3769528865814209,-0.6068462729454041,0,0,0,-1,64165.132419375,3,2,1561241704.795334,1561241546.732582,16,16.27515,0,0,14.2948,0,0,1561241691.513234,64164.542911,0,-1.604004,74.44489,2650659446,177292352,1,1,0.2,-7.943364,-18.44787,0
1561241706.720897,3,0,0,1561241700.47461,4.603090011226137,-74.06476591219382,2651.049,-1,-1,10,65,-9999,1561241706.715943,3.723880767822266,-10.81066703796387,-26.00048828125,250.8244476318359,258.3681335449219,15,64167.08709425,-0.1903228759765625,0.3217620849609375,-0.8440704345703125,64167.07998325001,2.606696482331269,-1.248482728494204,0.7418586753679608,64167.06014725001,42.04022216796875,-11.03436279296875,-559.1143798828125,64167.07998325001,1.013127519196399,-0.9022261148574758,0.4109761069189168,2.603566884994507,-1.255985140800476,0.7389605641365051,0.5197210311889648,0.7817065119743347,-0.3374056220054626,1,-0.3676422834396362,0.2841029763221741,-0.3496679067611694,-0.8135458827018738,-0.7193670272827148,-0.3995043337345123,-0.5682492852210999,0,0,0,-1,64165.132419375,3,2,1561241704.795334,1561241546.732582,16,16.27515,0,0,14.2948,0,0,1561241691.513234,64164.542911,0,-1.604004,74.44489,2650659446,177292352,1,1,0.2,-7.943364,-19.27565,0
1561241706.741522,4,0,0,1561241700.47461,4.603090011226137,-74.06476591219382,2651.049,-1,-1,10,65,-9999,1561241706.715943,3.723880767822266,-10.81066703796387,-26.00048828125,250.8244476318359,258.3681335449219,15,64167.10732725001,-0.1972808837890625,0.2414703369140625,-0.7601165771484375,64167.10024725,2.517095759036098,-1.142924610263387,1.324223296212166,64167.08025825,41.22096252441406,-12.18984985351562,-558.2188720703125,64167.10024725,1.071977825870891,-0.9506374951771269,0.4258025789801363,2.51396632194519,-1.150426983833313,1.321325182914734,0.5530871152877808,0.6896631717681885,-0.2645981907844543,1,-0.3899540901184082,0.2886180877685547,-0.3606936037540436,-0.7965773940086365,-0.7411211729049683,-0.4130518436431885,-0.5292708277702332,0,0,0,-1,64165.132419375,3,2,1561241704.795334,1561241546.732582,16,16.27515,0,0,14.2948,0,0,1561241691.513234,64164.542911,0,-1.604004,74.44489,2650659446,177292352,1,1,0.2,-7.943364,-20.21858,0
1561241706.76303,5,0,0,1561241700.47461,4.603090011226137,-74.06476591219382,2651.049,-1,-1,10,65,-9999,1561241706.749486,1.304847717285156,-14.3621244430542,-24.1810302734375,242.3645935058594,249.9082794189453,15,64167.12759125001,-0.2447357177734375,0.19989013671875,-0.7253570556640625,64167.12051125,2.343484820206051,-0.9643705781340434,2.119393662913551,64167.10040025,40.20393371582031,-13.25672912597656,-557.6638793945312,64167.12051125,1.138172139792996,-0.9998601877668347,0.4248798623221308,2.340355396270752,-0.9718729257583618,2.116495370864868,0.5462332963943481,0.6257275342941284,-0.2446445226669312,1,-0.4083821773529053,0.2950235307216644,-0.3771405816078186,-0.7771421670913696,-0.7665854096412659,-0.4122113287448883,-0.492370218038559,0,0,0,-1,64165.132419375,3,2,1561241704.795334,1561241546.732582,16,16.27515,0,0,14.2948,0,0,1561241691.513234,64164.542911,0,-1.604004,74.44489,2650659446,177292352,1,1,0.2,-7.943364,-20.21858,0
1561241706.782196,6,0,0,1561241700.47461,4.603090011226137,-74.06476591219382,2651.049,-1,-1,10,65,-9999,1561241706.774173,0.1500358581542969,-15.58975124359131,-23.5115966796875,237.2904815673828,244.8341674804688,15,64167.14785425,-0.3177337646484375,0.20660400390625,-0.7163543701171875,64167.14077425,2.145339776149757,-0.6643479044734226,2.953912234720857,64167.12054125001,39.12521362304688,-14.55186462402344,-556.9104614257812,64167.14077425,1.209595878354214,-1.045499992966267,0.4043609679812001,2.142210245132446,-0.6718502640724182,2.951014041900635,0.5116041898727417,0.5918719172477722,-0.2569897174835205,1,-0.4212231636047363,0.3034091293811798,-0.4001529216766357,-0.7552427053451538,-0.7954024076461792,-0.3934313356876373,-0.4610278904438019,0,0,0,-1,64165.132419375,3,2,1561241704.795334,1561241546.732582,16,16.27515,0,0,14.2948,0,0,1561241691.513234,64164.542911,0,-1.604004,74.44489,2650659446,177292352,1,1,0.2,-7.943364,-21.14349,0
1561241706.801927,7,0,0,1561241700.47461,4.603090011226137,-74.06476591219382,2651.049,-1,-1,10,65,-9999,1561241706.774173,0.1500358581542969,-15.58975124359131,-23.5115966796875,237.2904815673828,244.8341674804688,15,64167.16811825,-0.4063873291015625,0.229400634765625,-0.7105255126953125,64167.16103825,2.253201795039601,-0.4904085978809684,3.633816728385868,64167.14068325001,37.85934448242188,-15.42303466796875,-556.2845458984375,64167.16103825,1.286108185816973,-1.085540899848156,0.3669411751850764,2.250072240829468,-0.4979110062122345,3.630918502807617,0.4637011885643005,0.5713168382644653,-0.2767748832702637,1,-0.4295430481433868,0.3127316534519196,-0.4294323921203613,-0.730259895324707,-0.8256701827049255,-0.3587619066238403,-0.4353833794593811,0,0,0,-1,64165.132419375,3,2,1561241704.795334,1561241546.732582,16,16.27515,0,0,14.2948,0,0,1561241691.513234,64164.542911,0,-1.604004,74.44489,2650659446,177292352,1,1,0.2,-7.943364,-22.22591,0
1561241706.823233,8,0,0,1561241700.47461,4.603090011226137,-74.06476591219382,2651.049,-1,-1,10,65,-9999,1561241706.800205,-0.8484115600585938,-16.38395309448242,-22.7047119140625,231.7476806640625,239.2913665771484,15,64167.18838225,-0.510040283203125,0.29736328125,-0.6908721923828125,64167.18130225001,2.641282689092019,-0.5880704434797002,4.069314939331038,64167.16082425,36.45536804199219,-16.4207763671875,-555.6469116210938,64167.18130225001,1.370103788499566,-1.12438653331319,0.3190442543882333,2.638153076171875,-0.595572829246521,4.06641674041748,0.4067769050598145,0.5709834098815918,-0.2887417078018188,1,-0.4370573163032532,0.3225049078464508,-0.4629653096199036,-0.7004531621932983,-0.8564839363098145,-0.3136591911315918,-0.4099429845809937,0,0,0,-1,64165.132419375,3,2,1561241704.795334,1561241546.732582,16,16.27515,0,0,14.2948,0,0,1561241691.513234,64164.542911,0,-1.604004,74.44489,2650659446,177292352,1,1,0.2,-7.943364,-22.45133,0
1561241706.842591,9,0,0,1561241700.47461,4.603090011226137,-74.06476591219382,2651.049,-1,-1,10,65,-9999,1561241706.825425,-4.039871215820312,-17.90404891967773,-21.14129638671875,225.4946136474609,233.0382995605469,15,64167.20864525,-0.6568145751953125,0.3730010986328125,-0.6627960205078125,64167.20156525,3.314918367867093,-0.8715415709654784,4.378017387616445,64167.18093625001,35.17930603027344,-16.96501159667969,-554.8143310546875,64167.20156525,1.463806634637946,-1.166297614378106,0.2657656374367038,3.31178879737854,-0.8790439367294312,4.375119209289551,0.3133857846260071,0.5956711769104004,-0.3032273054122925,1,-0.4470236897468567,0.3321135640144348,-0.4986496865749359,-0.6642430424690247,-0.8870247006416321,-0.2626481056213379,-0.3797408044338226,0,0,0,-1,64165.132419375,3,2,1561241704.795334,1561241546.732582,16,16.27515,0,0,14.2948,0,0,1561241691.513234,64164.542911,0,-1.604004,74.44489,2650659446,177292352,1,1,0.2,-7.943364,-23.43298,0
1561241706.862827,10,0,0,1561241700.47461,4.603090011226137,-74.06476591219382,2651.049,-1,-1,10,65,-9999,1561241706.850788,-5.820705413818359,-18.57316970825195,-20.02545166015625,218.1557922363281,225.6994781494141,15,64167.22890925001,-0.8830718994140625,0.4929962158203125,-0.6520538330078125,64167.22179925,4.322390610347415,-1.253287870049034,4.830197639629871,64167.20107725001,33.21382141113281,-17.40205383300781,-553.5970458984375,64167.22179925,1.572455953748932,-1.212762857948293,0.2080877951862829,4.319261074066162,-1.260790348052979,4.82729959487915,0.1578080654144287,0.6405950784683228,-0.3096381425857544,1,-0.4614264667034149,0.3400718867778778,-0.5365608334541321,-0.619305431842804,-0.9163834452629089,-0.2065893262624741,-0.3428734540939331,0,0,0,-1,64165.132419375,3,2,1561241704.795334,1561241546.732582,16,16.27515,0,0,14.2948,0,0,1561241691.513234,64164.542911,0,-1.604004,74.44489,2650659446,177292352,1,1,0.2,-7.943364,-24.01493,0
1561241706.882981,11,0,0,1561241700.47461,4.603090011226137,-74.06476591219382,2651.049,-1,-1,10,65,-9999,1561241706.875231,-8.12738037109375,-19.36946105957031,-18.43328857421875,209.0499725341797,216.5936584472656,15,64167.24917325001,-1.064208984375,0.6335296630859375,-0.615447998046875,64167.24206225001,5.653908038469199,-1.740019974045148,5.08970990468486,64167.22121925,31.1533203125,-18.55795288085938,-552.5177001953125,64167.24206225001,1.702574803860989,-1.2663631355544,0.1448536846937399,5.650778293609619,-1.747522354125977,5.086811542510986,-0.04842132329940796,0.7042841911315918,-0.3465905785560608,1,-0.4823218882083893,0.3450492918491364,-0.5765208005905151,-0.56207674741745,-0.9440255761146545,-0.1443476527929306,-0.2966131567955017,0,0,0,-1,64165.132419375,3,2,1561241704.795334,1561241546.732582,16,16.27515,0,0,14.2948,0,0,1561241691.513234,64164.542911,0,-1.604004,74.44489,2650659446,177292352,1,1,0.2,-7.943364,-25.02625,0
1561241706.919734,12,0,0,1561241700.47461,4.603090011226137,-74.06476591219382,2651.049,-1,-1,10,65,-9999,1561241706.901633,-10.30644035339355,-20.05659294128418,-15.78338623046875,197.6961059570312,205.2397918701172,15,64167.26943625,-1.170913696289062,0.7381134033203125,-0.439849853515625,64167.26232625001,7.435886648120763,-2.284055847848715,4.510371700103421,64167.24136025,28.85218811035156,-19.32356262207031,-549.9930419921875,64167.26232625001,1.857296600600984,-1.324085217038689,0.08557500613874874,7.432756900787354,-2.291558265686035,4.507473468780518,-0.158278226852417,0.7648376822471619,-0.3095951080322266,1,-0.5120375752449036,0.3408171832561493,-0.6153039336204529,-0.4930135309696198,-0.966172456741333,-0.08547060191631317,-0.243322342634201,0,0,0,-1,64165.132419375,3,2,1561241704.795334,1561241546.732582,16,16.27515,0,0,14.2948,0,0,1561241691.513234,64164.542911,0,-1.604004,74.44489,2650659446,177292352,1,1,0.2,-7.943364,-25.85667,0
1561241706.924154,13,0,0,1561241700.47461,4.603090011226137,-74.06476591219382,2651.049,-1,-1,10,65,-9999,1561241706.901633,-10.30644035339355,-20.05659294128418,-15.78338623046875,197.6961059570312,205.2397918701172,15,64167.28970025,-1.170608520507812,0.8636016845703125,-0.0943145751953125,64167.28259025,9.566911933411344,-3.208957047047238,3.336880924744759,64167.26147125001,26.46522521972656,-20.03616333007812,-547.1961059570312,64167.28259025,2.042693392070283,-1.391050651302697,0.04393563605987016,9.563782691955566,-3.216459274291992,3.333982706069946,-0.2152871489524841,0.8671026825904846,-0.09188574552536011,1,-0.555147111415863,0.3201691210269928,-0.6472100019454956,-0.4128228425979614,-0.9829397797584534,-0.04392150044441223,-0.1786068379878998,0,0,0,-1,64165.132419375,3,2,1561241704.795334,1561241546.732582,16,16.27515,0,0,14.2948,0,0,1561241691.513234,64164.542911,0,-1.604004,74.44489,2650659446,177292352,1,1,0.2,-7.943364,-25.85667,0
1561241706.943992,14,0,0,1561241700.47461,4.603090011226137,-74.06476591219382,2651.049,-1,-1,10,65,-9999,1561241706.925756,-14.66835975646973,-21.77419662475586,-7.97161865234375,183.4627990722656,191.0064849853516,15,64167.30996425,-1.190216064453125,0.976043701171875,0.349334716796875,64167.30285325,11.80443170437201,-4.517318822123002,2.12170262357865,64167.28161325,24.16746520996094,-20.79591369628906,-542.9610595703125,64167.30285325,2.265549692476979,-1.475546761521067,0.01920304877519066,11.80130290985107,-4.524821281433105,2.118804454803467,-0.1676039695739746,0.8931795358657837,0.2191725373268127,1,-0.6121249794960022,0.2788529694080353,-0.6673394441604614,-0.319690465927124,-0.9952835440635681,-0.01920186914503574,-0.09508806467056274,0,0,0,-1,64165.132419375,3,2,1561241704.795334,1561241546.732582,16,16.27515,0,0,14.2948,0,0,1561241691.513234,64164.542911,0,-1.604004,74.44489,2650659446,177292352,1,1,0.2,-7.943364,-26.70594,0
1561241706.964041,15,0,0,1561241700.47461,4.603090011226137,-74.06476591219382,2651.049,-1,-1,10,65,-9999,1561241706.952257,-15.74628448486328,-21.82581520080566,-1.7386474609375,165.8506469726562,173.3943328857422,15,64167.33022725,-0.9517059326171875,0.9810638427734375,0.75341796875,64167.32311725,13.40869757448259,-5.904574347647381,0.4148973283328616,64167.30175525,22.91236877441406,-21.404541015625,-537.20703125,64167.32311725,2.523779274369001,-1.584419145813008,0.002581526177066075,13.40556812286377,-5.912076950073242,0.4119991958141327,-0.1196030378341675,1.039034843444824,0.5445593595504761,1,-0.6784847378730774,0.2155681699514389,-0.6687529683113098,-0.214378610253334,-0.9999037981033325,-0.002581523265689611,0.01362235099077225,0,0,0,-1,64165.132419375,3,2,1561241704.795334,1561241546.732582,16,16.27515,0,0,14.2948,0,0,1561241691.513234,64164.542911,0,-1.604004,74.44489,2650659446,177292352,1,1,0.2,-7.943364,-27.6893,0
1561241706.998756,16,0,0,1561241700.47461,4.603090011226137,-74.06476591219382,2651.049,-1,-1,10,65,-9999,1561241706.98114,-15.3712272644043,-20.79977226257324,5.3582763671875,146.1298675537109,153.6735534667969,15,64167.35049125001,-0.79486083984375,0.9128570556640625,1.165634155273438,64167.34338125,13.72261076375685,-6.590613166567281,-1.197497042056855,64167.32189625,23.01376342773438,-20.66937255859375,-530.209228515625,64167.34338125,2.80077779113411,-1.712300033266193,-0.009290328894310047,13.71948146820068,-6.59811544418335,-1.200395107269287,0.1280389428138733,0.931490421295166,0.8165242671966553,1,-0.7438604831695557,0.1310896724462509,-0.6464459896087646,-0.1076778471469879,-0.9899621605873108,0.009290195070207119,0.1410258412361145,0,0,0,-1,64165.132419375,3,2,1561241704.795334,1561241546.732582,16,16.27515,0,0,14.2948,0,0,1561241691.513234,64164.542911,0,-1.604004,74.44489,2650659446,177292352,1,1,0.2,-7.943364,-29.23138,0
1561241707.004549,17,0,0,1561241706.976833,4.60309307605445,-74.06476465886884,2651.201,-1,-1,10,65,-9999,1561241707.003848,-13.73979568481445,-18.36890602111816,12.3681640625,127.9847869873047,135.5284729003906,15,64167.37075525001,-0.8316192626953125,0.4708404541015625,1.443634033203125,64167.36364425001,11.74096644506655,-4.640982707340831,-0.3066914953462881,64167.34200725,24.31234741210938,-18.75126647949219,-522.8758544921875,64167.36364425001,3.062503126845916,-1.825869952121788,-0.04079530367316986,11.73783779144287,-4.64848518371582,-0.3095896244049072,0.189328134059906,0.7286709547042847,1.114516258239746,1,-0.790025532245636,0.04373821616172791,-0.611458957195282,-0.008040410466492176,-0.9668397307395935,0.04078399017453194,0.2521067559719086,0,0,0,-1,64165.132419375,3,2,1561241704.795334,1561241546.732582,16,16.27515,0,0,14.2948,0,0,1561241691.513234,64164.542911,0,-1.604004,74.44489,2650659446,177292352,1,1,0.2,-7.943364,-29.23138,0
1561241707.024997,18,0,0,1561241706.976833,4.60309307605445,-74.06476465886884,2651.201,-1,-1,10,65,-9999,1561241707.003848,-13.73979568481445,-18.36890602111816,12.3681640625,127.9847869873047,135.5284729003906,15,64167.39098825,-0.805267333984375,0.190093994140625,1.140609741210938,64167.38390825001,6.794620893447275,-1.778844601680759,2.666074854627894,64167.36214925,26.35946655273438,-15.031494140625,-516.991943359375,64167.38390825001,-3.043916479091775,-1.875968942587739,-0.117672434462916,6.791491508483887,-1.786347031593323,2.663176536560059,0.1062721610069275,0.05950934439897537,1.045354723930359,1,-0.8057103753089905,-0.004562636837363243,-0.5873724222183228,0.07618183642625809,-0.947199285030365,0.1174010559916496,0.298380047082901,0,0,0,-1,64165.132419375,3,2,1561241704.795334,1561241546.732582,16,16.27515,0,0,14.2948,0,0,1561241691.513234,64164.542911,0,-1.604004,74.44489,2650659446,177292352,1,1,0.2,-7.943364,-30.07902,0
1561241707.045184,19,0,0,1561241706.976833,4.60309307605445,-74.06476465886884,2651.201,-1,-1,10,65,-9999,1561241707.027073,-11.73649406433105,-11.50614452362061,19.28546142578125,118.4738235473633,126.0175094604492,15,64167.41125225001,-0.830596923828125,0.774169921875,1.146041870117188,64167.40417225,2.651552370887583,-0.3800871497244359,2.599701689728176,64167.38229025,27.08390808105469,-11.69027709960938,-514.1578369140625,64167.40417225,-2.97589619246485,-1.885904867479084,-0.2008473122280238,2.648422956466675,-0.3875895440578461,2.596803426742554,0.1670629382133484,0.3496336340904236,0.7483276128768921,1,-0.8073299527168274,-0.007946746423840523,-0.5757228136062622,0.1292222142219543,-0.9316503405570984,0.1994996815919876,0.3036895990371704,0,0,0,-1,64165.132419375,3,2,1561241704.795334,1561241546.732582,16,16.27515,0,0,14.2948,0,0,1561241691.513234,64164.542911,0,-1.604004,74.44489,2650659446,177292352,1,1,0.2,-7.943364,-25.63925,0
1561241707.081735,20,0,0,1561241706.976833,4.60309307605445,-74.06476465886884,2651.201,-1,-1,10,65,-9999,1561241707.079509,-12.06315040588379,-8.542217254638672,20.5677490234375,113.9809417724609,121.5246276855469,15,64167.43151525001,-0.9966583251953125,0.8306884765625,1.151824951171875,64167.42443525,1.864854584878176,0.2474050021072711,1.460010689660363,64167.40243225,26.93142700195312,-9.331939697265625,-512.9305419921875,64167.42443525,-2.946780295705289,-1.879777592814259,-0.2532703854418053,1.861725211143494,0.2399026155471802,1.457112550735474,-0.005969882011413574,0.5106896162033081,0.8988347053527832,1,-0.8044747114181519,-0.003754952223971486,-0.5724624395370483,0.1584080159664154,-0.9222527146339417,0.2505713403224945,0.2943873107433319,0,0,0,-1,64167.41103825,3,1,1561241707.073953,1561241546.732582,16,16.27515,0,0,14.2948,0,0,1561241691.513234,64164.542911,0,-1.604004,74.44489,2650659446,177292352,1,1,0.2,-7.943364,-26.4616,0
1561241707.085639,21,0,0,1561241706.976833,4.60309307605445,-74.06476465886884,2651.201,-1,-1,10,65,-9999,1561241707.079509,-12.06315040588379,-8.542217254638672,20.5677490234375,113.9809417724609,121.5246276855469,15,64167.45177925,-1.118057250976562,0.8639678955078125,1.012649536132812,64167.44469925,1.235510470824428,0.6081115296308734,0.7784915214264368,64167.42257425001,26.84983825683594,-7.988418579101562,-512.792724609375,64167.44469925,-2.921441390735502,-1.864542112036632,-0.2832695851578757,1.232381105422974,0.6006091237068176,0.7755934000015259,-0.1519943475723267,0.6096789836883545,0.8045952320098877,1,-0.7993663549423218,-0.003701514098793268,-0.5740209817886353,0.1774817705154419,-0.9190199971199036,0.279496431350708,0.27800053358078,0,0,0,-1,64167.41103825,3,1,1561241707.073953,1561241546.732582,16,16.27515,0,0,14.2948,0,0,1561241691.513234,64164.542911,0,-1.604004,74.44489,2650659446,177292352,1,1,0.2,-7.943364,-26.4616,0
1561241707.106237,22,0,0,1561241706.976833,4.60309307605445,-74.06476465886884,2651.201,-1,-1,10,65,-9999,1561241707.104136,-12.67495536804199,-7.868914127349854,20.52886962890625,113.2715835571289,120.8152694702148,15,64167.47204325,-1.191253662109375,0.8032684326171875,0.91644287109375,64167.46496325,0.3782663464871487,0.814660178506912,0.7232144172085341,64167.46282625,25.66578674316406,-6.73541259765625,-512.802978515625,64167.46496325,-2.909497251891101,-1.845827401376025,-0.3017426318494851,0.3751369416713715,0.8071578145027161,0.7203162908554077,-0.224406361579895,0.5288347005844116,0.7086801528930664,1,-0.7935062050819397,-0.001180225284770131,-0.5787545442581177,0.1881211996078491,-0.91893470287323,0.297184556722641,0.2593069672584534,0,0,0,-1,64167.41103825,3,1,1561241707.073953,1561241546.732582,16,16.27515,0,0,14.2948,0,0,1561241691.513234,64164.542911,0,-1.604004,74.44489,2650659446,177292352,1,1,0.2,-7.943364,-27.49101,0
1561241707.125943,23,0,0,1561241706.976833,4.60309307605445,-74.06476465886884,2651.201,-1,-1,10,65,-9999,1561241707.104136,-12.67495536804199,-7.868914127349854,20.52886962890625,113.2715835571289,120.8152694702148,15,64167.49230625,-1.154266357421875,0.6998748779296875,0.78741455078125,64167.48522625001,-0.1833791473923492,0.4103196207351244,0.5490860261786842,64167.48296825001,24.90139770507812,-6.363998413085938,-513.1185302734375,64167.48522625001,-2.912005411596418,-1.833746732043464,-0.3152131715183651,-0.1865085512399673,0.4028172194957733,0.5461879372596741,-0.2716463208198547,0.4518979489803314,0.6015851497650146,1,-0.7896431684494019,0.005062698386609554,-0.5825421214103699,0.1925684213638306,-0.91805100440979,0.3100191354751587,0.2471239268779755,0,0,0,-1,64167.41103825,3,1,1561241707.073953,1561241546.732582,16,16.27515,0,0,14.2948,0,0,1561241691.513234,64164.542911,0,-1.604004,74.44489,2650659446,177292352,1,1,0.2,-7.943364,-28.25474,0
1561241707.157957,24,0,0,1561241706.976833,4.60309307605445,-74.06476465886884,2651.201,-1,-1,10,65,-9999,1561241707.154741,-13.88530349731445,-7.445614337921143,20.1859130859375,114.4136734008789,121.9573593139648,15,64167.51257025,-1.064697265625,0.621185302734375,0.7123565673828125,64167.50545925,-0.4496505152939597,0.1224465542835542,0.08169512959927071,64167.50311025001,24.84904479980469,-6.7801513671875,-513.078125,64167.50545925,-2.920516113269054,-1.832225111960072,-0.3195450248082409,-0.4527799189090729,0.114944152534008,0.07879701256752014,-0.1968476176261902,0.3394298255443573,0.4967337846755981,1,-0.7890442609786987,0.009891731664538383,-0.5835627317428589,0.191744476556778,-0.9171202778816223,0.3141346573829651,0.245377391576767,0,0,0,-1,64167.41103825,3,1,1561241707.073953,1561241546.732582,16,16.27515,0,0,14.2948,0,0,1561241691.513234,64164.542911,0,-1.604004,74.44489,2650659446,177292352,1,1,0.2,-7.943364,-28.82003,0
1561241707.16664,25,0,0,1561241706.976833,4.60309307605445,-74.06476465886884,2651.201,-1,-1,10,65,-9999,1561241707.154741,-13.88530349731445,-7.445614337921143,20.1859130859375,114.4136734008789,121.9573593139648,15,64167.53283425001,-0.9962310791015625,0.5559539794921875,0.64788818359375,64167.52572325,-0.6978587267859987,0.4075904132500112,-0.08486855235420913,64167.52325125,24.83746337890625,-6.983123779296875,-513.0419921875,64167.52572325,-2.932347831307127,-1.831378838965044,-0.3157892207528988,-0.7009881734848022,0.4000880122184753,-0.08776666969060898,-0.1089896559715271,0.2745925486087799,0.4253846406936646,1,-0.7888407111167908,0.01349097397178411,-0.5853540301322937,0.18683922290802,-0.9184609055519104,0.3105667531490326,0.2449033409357071,0,0,0,-1,64167.41103825,3,1,1561241707.073953,1561241546.732582,16,16.27515,0,0,14.2948,0,0,1561241691.513234,64164.542911,0,-1.604004,74.44489,2650659446,177292352,1,1,0.2,-7.943364,-29.72617,0
1561241707.186904,26,0,0,1561241706.976833,4.60309307605445,-74.06476465886884,2651.201,-1,-1,10,65,-9999,1561241707.179146,-13.88754272460938,-7.688661098480225,19.94207763671875,115.5462417602539,123.0899276733398,15,64167.55309725001,-0.928741455078125,0.50958251953125,0.6305999755859375,64167.54598725001,-0.9020062696232218,0.9489546038480107,0.1106519464478113,64167.54336225001,24.56767272949219,-7.139541625976562,-513.5279541015625,64167.54598725001,-2.948763531958059,-1.822553754339695,-0.3114759216632599,-0.9051356911659241,0.9414522051811218,0.1077538281679153,-0.03703278303146362,0.2311948239803314,0.4089370965957642,1,-0.7862454652786255,0.019443329423666,-0.5907098650932312,0.1802828460931778,-0.9218752980232239,0.3064638674259186,0.2371199429035187,0,0,0,-1,64167.41103825,3,1,1561241707.073953,1561241546.732582,16,16.27515,0,0,14.2948,0,0,1561241691.513234,64164.542911,0,-1.604004,74.44489,2650659446,177292352,1,1,0.2,-7.943364,-30.55359,0
1561241707.207293,27,0,0,1561241706.976833,4.60309307605445,-74.06476465886884,2651.201,-1,-1,10,65,-9999,1561241707.206125,-14.34185409545898,-7.987847328186035,19.663818359375,117.1849136352539,124.7285995483398,15,64167.57336125,-0.886749267578125,0.4182891845703125,0.6059722900390625,64167.56625025001,-1.139319755411856,1.054532163154785,0.2935578501144533,64167.56350425001,23.90309143066406,-7.72314453125,-514.0768432617188,64167.56625025001,-2.970872047833529,-1.808410268659675,-0.3107058231150523,-1.142449140548706,1.047029733657837,0.2906597256660461,0.0217098593711853,0.1577549874782562,0.3915631771087646,1,-0.7817983627319336,0.02912291884422302,-0.5982723236083984,0.1732440739870071,-0.9253659248352051,0.3057307302951813,0.2241136431694031,0,0,0,-1,64167.41103825,3,1,1561241707.073953,1561241546.732582,16,16.27515,0,0,14.2948,0,0,1561241691.513234,64164.542911,0,-1.604004,74.44489,2650659446,177292352,1,1,0.2,-7.943364,-30.95947,0
1561241707.239227,28,0,0,1561241706.976833,4.60309307605445,-74.06476465886884,2651.201,-1,-1,10,65,-9999,1561241707.232468,-15.19730186462402,-8.81480884552002,18.80657958984375,119.4161987304688,126.9598846435547,15,64167.59362525,-0.8904876708984375,0.3236846923828125,0.5617828369140625,64167.58651425,-1.487397306730193,0.7111215353307023,0.2172162069384599,64167.58364525,23.51814270019531,-8.18994140625,-514.4076538085938,64167.58651425,-2.999408048132203,-1.798679485752372,-0.310089100058688,-1.490526676177979,0.7036191821098328,0.2143180817365646,0.04153209924697876,0.06912410259246826,0.3682023286819458,1,-0.7783952355384827,0.0408833771944046,-0.6045238971710205,0.1642568707466125,-0.9276862740516663,0.3051434755325317,0.2151411920785904,0,0,0,-1,64167.41103825,3,1,1561241707.073953,1561241546.732582,16,16.27515,0,0,14.2948,0,0,1561241691.513234,64164.542911,0,-1.604004,74.44489,2650659446,177292352,1,1,0.2,-8.500643,-31.45354,0
1561241707.24764,29,0,0,1561241706.976833,4.60309307605445,-74.06476465886884,2651.201,-1,-1,10,65,-9999,1561241707.232468,-15.19730186462402,-8.81480884552002,18.80657958984375,119.4161987304688,126.9598846435547,15,64167.61388825,-0.932220458984375,0.3233642578125,0.5821685791015625,64167.60677825,-1.835395495848046,0.186195173928999,-0.1283166939583069,64167.60375725001,23.28208923339844,-8.561065673828125,-514.724365234375,64167.60677825,-3.034150749772769,-1.800475488319962,-0.3034341532531041,-1.83852481842041,0.1786927878856659,-0.1312148123979568,0.02590447664260864,0.005338966846466064,0.3428094387054443,1,-0.7784006595611572,0.05219829827547073,-0.6070412397384644,0.1512243002653122,-0.9292553067207336,0.2987992167472839,0.2172645032405853,0,0,0,-1,64167.41103825,3,1,1561241707.073953,1561241546.732582,16,16.27515,0,0,14.2948,0,0,1561241691.513234,64164.542911,0,-1.604004,74.44489,2650659446,177292352,1,1,0.2,-8.500643,-31.45354,0
1561241707.267955,30,0,0,1561241706.976833,4.60309307605445,-74.06476465886884,2651.201,-1,-1,10,65,-9999,1561241707.255936,-15.32411956787109,-9.401328086853027,18.42645263671875,122.1396331787109,129.6833190917969,15,64167.63415225,-1.050216674804688,0.4261627197265625,0.7435455322265625,64167.62704125,-2.169499707242847,0.1941311276613261,-0.4220599000846297,64167.62389825001,23.26092529296875,-9.29510498046875,-515.0272216796875,64167.62704125,-3.073940716011584,-1.809859961496893,-0.2882074014913378,-2.172629117965698,0.1866287291049957,-0.4249580204486847,-0.06098949909210205,0.1037359535694122,0.4254698753356934,1,-0.7807860374450684,0.06234079599380493,-0.6071687936782837,0.1335393041372299,-0.9314879179000854,0.2842340171337128,0.2270264178514481,0,0,0,-1,64167.41103825,3,1,1561241707.073953,1561241546.732582,16,16.27515,0,0,14.2948,0,0,1561241691.513234,64164.542911,0,-1.604004,74.44489,2650659446,177292352,1,1,0.2,-9.057921,-32.16691,0
1561241707.288828,31,0,0,1561241706.976833,4.60309307605445,-74.06476465886884,2651.201,-1,-1,10,65,-9999,1561241707.280376,-15.29973030090332,-10.22015571594238,18.0020751953125,125.5502624511719,133.0939483642578,15,64167.65441625001,-1.154541015625,0.371673583984375,0.84283447265625,64167.64730525,-2.904315919424203,1.02760866979852,-0.3879179085937049,64167.64404025,22.97772216796875,-10.43644714355469,-515.9560546875,64167.64730525,-3.122947620667385,-1.811861808989646,-0.2678018260130981,-2.907445430755615,1.020106196403503,-0.3908160328865051,-0.1639940142631531,0.1341456770896912,0.5694701671600342,1,-0.7806890606880188,0.07508934289216995,-0.6104246973991394,0.1107607930898666,-0.9364698529243469,0.2646122574806213,0.2302276343107224,0,0,0,-1,64167.41103825,3,1,1561241707.073953,1561241546.732582,16,16.27515,0,0,14.2948,0,0,1561241691.513234,64164.542911,0,-1.604004,74.44489,2650659446,177292352,1,1,0.2,-9.6152,-23.92222,0
1561241707.318697,32,0,0,1561241706.976833,4.60309307605445,-74.06476465886884,2651.201,-1,-1,10,65,-9999,1561241707.306636,-15.85368919372559,-11.71263027191162,17.16265869140625,130.5146636962891,138.058349609375,15,64167.67465975,-1.1805419921875,0.3167572021484375,0.86700439453125,64167.66756925001,-3.883502461650683,1.849105715455883,-0.5787445859744607,64167.66416175001,22.68528747558594,-11.58087158203125,-516.9126586914062,64167.66756925001,3.093272204299965,-1.798871731269166,-0.2427763922979107,-3.886631965637207,1.84160327911377,-0.5816426873207092,-0.2302443385124207,0.1060980558395386,0.6570686101913452,1,-0.7751680612564087,0.09407830238342285,-0.6195845007896423,0.07986629754304886,-0.9455368518829346,0.2403985261917114,0.2194724977016449,0,0,0,-1,64167.41103825,3,1,1561241707.073953,1561241546.732582,16,16.27515,0,0,14.2948,0,0,1561241691.513234,64164.542911,0,-1.604004,74.44489,2650659446,177292352,1,1,0.2,-10.17248,-24.66421,0
1561241707.328702,33,0,0,1561241706.976833,4.60309307605445,-74.06476465886884,2651.201,-1,-1,10,65,-9999,1561241707.306636,-15.85368919372559,-11.71263027191162,17.16265869140625,130.5146636962891,138.058349609375,15,64167.69492375,-1.193893432617188,0.29931640625,0.807403564453125,64167.68784275001,-4.633777791327731,1.832032189707385,-1.096287333253919,64167.68430275001,22.23031616210938,-13.15605163574219,-518.68798828125,64167.68784275001,3.010008399222744,-1.77905333146397,-0.2077164134766071,-4.636890411376953,1.824552178382874,-1.099188208580017,-0.2322288751602173,0.09850732982158661,0.6404170989990234,1,-0.7666241526603699,0.1159425675868988,-0.6303253769874573,0.03917359933257103,-0.9573615193367004,0.2062259465456009,0.2023105472326279,0,0,0,-1,64167.41103825,3,1,1561241707.073953,1561241546.732582,16,16.27515,0,0,14.2948,0,0,1561241691.513234,64164.542911,0,-1.604004,74.44489,2650659446,177292352,1,1,0.2,-10.72976,-24.89009,0
1561241707.349092,34,0,0,1561241706.976833,4.60309307605445,-74.06476465886884,2651.201,-1,-1,10,65,-9999,1561241707.331506,-16.3519401550293,-14.63641357421875,14.1527099609375,136.8152160644531,144.3589019775391,15,64167.71518675001,-1.197021484375,0.3028564453125,0.6820526123046875,64167.70810675,-5.236384034353192,1.324930365481582,-1.474480442811091,64167.70444475,21.96170043945312,-15.25416564941406,-520.556396484375,64167.70810675,2.91506692480421,-1.76448133733087,-0.1617824481019652,-5.23949670791626,1.317450284957886,-1.477381229400635,-0.2175323367118835,0.1278933137655258,0.5445952415466309,1,-0.7589053511619568,0.1380004286766052,-0.636338472366333,-0.009587710723280907,-0.968487560749054,0.1610776335000992,0.1899628937244415,0,0,0,-1,64167.41103825,3,1,1561241707.073953,1561241546.732582,16,16.27515,0,0,14.2948,0,0,1561241691.513234,64164.542911,0,-1.604004,74.44489,2650659446,177292352,1,1,0.2,-11.28704,-25.77589,0
1561241707.36927,35,0,0,1561241706.976833,4.60309307605445,-74.06476465886884,2651.201,-1,-1,10,65,-9999,1561241707.357432,-16.44822883605957,-16.41003227233887,12.32958984375,143.978271484375,151.5219573974609,15,64167.73545075001,-1.227447509765625,0.27349853515625,0.5631256103515625,64167.72837075,-5.47708426210008,0.7064066749368261,-1.68060485012548,64167.72458675,22.43913269042969,-17.18148803710938,-522.3099365234375,64167.72837075,2.81317244850075,-1.757534552174253,-0.1094977322256425,-5.480196952819824,0.698926568031311,-1.683505654335022,-0.2431643009185791,0.1950422376394272,0.4533507823944092,1,-0.7527490258216858,0.1601261049509048,-0.6354612112045288,-0.06258978694677353,-0.9767301082611084,0.1092790514230728,0.1845429241657257,0,0,0,-1,64167.41103825,3,1,1561241707.073953,1561241546.732582,16,16.27515,0,0,14.2948,0,0,1561241691.513234,64164.542911,0,-1.604004,74.44489,2650659446,177292352,1,1,0.2,-11.84432,-26.63095,0
1561241707.396757,36,0,0,1561241706.976833,4.60309307605445,-74.06476465886884,2651.201,-1,-1,10,65,-9999,1561241707.381863,-16.24882888793945,-18.25411224365234,10.24676513671875,151.4250793457031,158.9687652587891,15,64167.75571475,-1.219070434570312,0.214202880859375,0.4192352294921875,64167.74863375,-5.58529648667327,0.1897017581363063,-1.777691452928754,64167.74472775,22.74127197265625,-18.86152648925781,-524.6123046875,64167.74863375,2.709066745820471,-1.757826685413195,-0.05398136895460616,-5.588409423828125,0.1822216808795929,-1.780592322349548,-0.2462721467018127,0.1926116198301315,0.3026255369186401,1,-0.7481402158737183,0.181993767619133,-0.6273595094680786,-0.1165529415011406,-0.9811295866966248,0.05395515635609627,0.1856710314750671,0,0,0,-1,64167.41103825,3,1,1561241707.073953,1561241546.732582,16,16.27515,0,0,14.2948,0,0,1561241691.513234,64164.542911,0,-1.604004,74.44489,2650659446,177292352,1,1,0.2,-12.4016,-27.32889,0
1561241707.409793,37,0,0,1561241706.976833,4.60309307605445,-74.06476465886884,2651.201,-1,-1,10,65,-9999,1561241707.408021,-15.6317138671875,-20.02852249145508,8.25775146484375,158.9837799072266,166.5274658203125,15,64167.77597775,-1.1964111328125,0.1932525634765625,0.2635345458984375,64167.76889775001,-5.654113634505354,-0.05570880263060453,-1.771103058708007,64167.76486975,23.49665832519531,-20.31031799316406,-526.6383056640625,64167.76889775001,2.60352780994085,-1.759491560464092,0.002638938594211103,-5.6572265625,-0.06318887323141098,-1.774003863334656,-0.2273330092430115,0.1855918169021606,0.1489710807800293,1,-0.7430809736251831,0.2040075212717056,-0.6141499876976013,-0.1703861206769943,-0.982246458530426,-0.002638935577124357,0.1875768005847931,0,0,0,-1,64167.41103825,3,1,1561241707.073953,1561241546.732582,16,16.27515,0,0,14.2948,0,0,1561241691.513234,64164.542911,0,-1.604004,74.44489,2650659446,177292352,1,1,0.2,-12.4016,-27.32889,0
1561241707.430247,38,0,0,1561241706.976833,4.60309307605445,-74.06476465886884,2651.201,-1,-1,10,65,-9999,1561241707.408021,-15.6317138671875,-20.02852249145508,8.25775146484375,158.9837799072266,166.5274658203125,15,64167.79624175,-1.187332153320312,0.125244140625,0.1781158447265625,64167.78913075,-5.30101788874498,-0.4356630606166454,-2.03609610928638,64167.78498075,24.39424133300781,-21.73088073730469,-528.6922607421875,64167.78913075,2.501446271996235,-1.76099748174233,0.06113815416305658,-5.304130554199219,-0.4431431293487549,-2.038996934890747,-0.2099775671958923,0.2487068772315979,0.03232038021087646,1,-0.737678050994873,0.2240149676799774,-0.5967295169830322,-0.2226260900497437,-0.9801316857337952,-0.061100073158741,0.1887032240629196,0,0,0,-1,64167.41103825,3,1,1561241707.073953,1561241546.732582,16,16.27515,0,0,14.2948,0,0,1561241691.513234,64164.542911,0,-1.604004,74.44489,2650659446,177292352,1,1,0.2,-12.95887,-28.25077,0
1561241707.450393,39,0,0,1561241706.976833,4.60309307605445,-74.06476465886884,2651.201,-1,-1,10,65,-9999,1561241707.408021,-15.6317138671875,-20.02852249145508,8.25775146484375,158.9837799072266,166.5274658203125,15,64167.81650575,-1.177947998046875,0.0057220458984375,0.097198486328125,64167.80939475,-5.396012844828106,-0.6044139967734073,-2.233360445970184,64167.80512275,25.37541198730469,-22.54774475097656,-530.7598876953125,64167.80939475,2.404023966323728,-1.763755170097372,0.1243165354586749,-5.399125576019287,-0.6118940711021423,-2.236261367797852,-0.20791095495224,0.1803625226020813,-0.06970882415771484,1,-0.7328782677650452,0.2408969104290009,-0.5745315551757812,-0.2734439969062805,-0.9738669991493225,-0.1239965707063675,0.1902837604284286,0,0,0,-1,64167.41103825,3,1,1561241707.073953,1561241546.732582,16,16.27515,0,0,14.2948,0,0,1561241691.513234,64164.542911,0,-1.604004,74.44489,2650659446,177292352,1,1,0.2,-13.51615,-29.00015,0
1561241707.485415,40,0,0,1561241706.976833,4.60309307605445,-74.06476465886884,2651.201,-1,-1,10,65,-9999,1561241707.408021,-15.6317138671875,-20.02852249145508,8.25775146484375,158.9837799072266,166.5274658203125,15,64167.83676875001,-1.162185668945312,0.0159912109375,0.027008056640625,64167.82965875,-5.902828911868943,-0.1620299165137289,-2.23963245665343,64167.82526375,26.19290161132812,-23.70733642578125,-533.142333984375,64167.82965875,2.298970415569139,-1.755611591355316,0.1912023631326338,-5.905941486358643,-0.1695099920034409,-2.242533206939697,-0.1990513801574707,0.1808231770992279,-0.09861373901367188,1,-0.7237957715988159,0.257541686296463,-0.5502814054489136,-0.3270814120769501,-0.9650568962097168,-0.1900394856929779,0.180416077375412,0,0,0,-1,64167.41103825,3,1,1561241707.073953,1561241546.732582,16,16.27515,0,0,14.2948,0,0,1561241691.513234,64164.542911,0,-1.604004,74.44489,2650659446,177292352,1,1,0.2,-14.63071,-30.61825,0
1561241707.490878,41,0,0,1561241706.976833,4.60309307605445,-74.06476465886884,2651.201,-1,-1,10,65,-9999,1561241707.408021,-15.6317138671875,-20.02852249145508,8.25775146484375,158.9837799072266,166.5274658203125,15,64167.85703275001,-1.126937866210938,0.13702392578125,-0.10394287109375,64167.84992175001,-5.981711210724873,0.2850378651550718,-1.849568839169448,64167.84540575001,27.31294250488281,-24.07362365722656,-535.6721801757812,64167.84992175001,2.18342161650666,-1.728769864265246,0.2535551823253719,-5.984824180603027,0.2775577902793884,-1.852469682693481,-0.1900537610054016,0.3207933306694031,-0.1948899030685425,1,-0.7074695229530334,0.2750100791454315,-0.5270701050758362,-0.3821692764759064,-0.9559728503227234,-0.2508470416069031,0.1522873342037201,0,0,0,-1,64167.41103825,3,1,1561241707.073953,1561241546.732582,16,16.27515,0,0,14.2948,0,0,1561241691.513234,64164.542911,0,-1.604004,74.44489,2650659446,177292352,1,1,0.2,-14.63071,-30.61825,0
1561241707.511961,42,0,0,1561241706.976833,4.60309307605445,-74.06476465886884,2651.201,-1,-1,10,65,-9999,1561241707.490536,-13.85960578918457,-22.71513175964355,3.9429931640625,166.1125183105469,173.6562042236328,15,64167.87729675,-0.9785003662109375,0.2601776123046875,-0.2682037353515625,64167.87018575001,-5.273452573566005,0.5153222035625507,-1.27495747920679,64167.86554675001,27.821533203125,-24.17051696777344,-538.430419921875,64167.87018575001,2.069470072851711,-1.689229774460293,0.3006397874920729,-5.276565551757812,0.5078421235084534,-1.277858257293701,-0.1270439624786377,0.5141947269439697,-0.2796661853790283,1,-0.686371386051178,0.2921008169651031,-0.5072467923164368,-0.4315927028656006,-0.9484565258026123,-0.2961313724517822,0.1128571331501007,0,0,0,-1,64167.41103825,3,1,1561241707.073953,1561241546.732582,16,16.27515,0,0,14.2948,0,0,1561241691.513234,64164.542911,0,-1.604004,74.44489,2650659446,177292352,1,1,0.2,-15.18799,-31.46466,0
1561241707.53136,43,0,0,1561241706.976833,4.60309307605445,-74.06476465886884,2651.201,-1,-1,10,65,-9999,1561241707.513713,-10.3824291229248,-24.74582099914551,-6.13226318359375,189.6043548583984,197.1480407714844,15,64167.89755975,-0.83544921875,0.299407958984375,-0.446075439453125,64167.89044975,-3.941907182252775,0.4196518698269801,-1.042086146116409,64167.88568875,28.67506408691406,-23.92442321777344,-540.8736572265625,64167.89044975,1.973095379455307,-1.649010041138026,0.3327107206537219,-3.945019960403442,0.4121717810630798,-1.044986963272095,0.04931139945983887,0.610877513885498,-0.4472470283508301,1,-0.6659799218177795,0.305606484413147,-0.4914289116859436,-0.4707154035568237,-0.9422709345817566,-0.3266063034534454,0.073849156498909,0,0,0,-1,64167.41103825,3,1,1561241707.073953,1561241546.732582,16,16.27515,0,0,14.2948,0,0,1561241691.513234,64164.542911,0,-1.604004,74.44489,2650659446,177292352,1,1,0.2,-15.74527,-31.80423,0
1561241707.561075,44,0,0,1561241706.976833,4.60309307605445,-74.06476465886884,2651.201,-1,-1,10,65,-9999,1561241707.533999,-9.739860534667969,-24.62095832824707,-8.03546142578125,195.7365264892578,203.2802124023438,15,64167.91782375,-0.7587890625,0.2124786376953125,-0.52484130859375,64167.91071275,-2.179455668661999,-0.02857891428985832,-1.08058586809903,64167.90583075,29.1973876953125,-23.47476196289062,-542.429443359375,64167.91071275,1.908294781161137,-1.623045612280771,0.3579364991186351,-2.182568550109863,-0.03605898842215538,-1.083486676216125,0.1340893507003784,0.6234135627746582,-0.5434682369232178,1,-0.6531609892845154,0.3127914667129517,-0.4779659509658813,-0.4970823526382446,-0.9353436827659607,-0.3503422737121582,0.0489155575633049,0,0,0,-1,64167.41103825,3,1,1561241707.073953,1561241546.732582,16,16.27515,0,0,14.2948,0,0,1561241691.513234,64165.491682,0,-1.604004,74.44489,2650659446,177292352,1,1,0.2,-16.30255,-32.15776,0
1561241707.57268,45,0,0,1561241706.976833,4.60309307605445,-74.06476465886884,2651.201,-1,-1,10,65,-9999,1561241707.563211,-9.144168853759766,-24.35179328918457,-9.37567138671875,198.7484588623047,206.2921447753906,15,64167.93808775,-0.7198944091796875,0.1390228271484375,-0.518768310546875,64167.93097675,-0.8101711541734744,-0.4409465059032537,-1.228355622239821,64167.92597175,29.616943359375,-23.74678039550781,-542.9682006835938,64167.93097675,1.878715737901409,-1.617572675035205,0.3828689574435046,-0.8132839798927307,-0.4484265744686127,-1.231256484985352,0.1957777738571167,0.5389732122421265,-0.5633933544158936,1,-0.6508265733718872,0.3132278025150299,-0.4658231437206268,-0.5111966729164124,-0.9265821576118469,-0.3735832273960114,0.04337377101182938,0,0,0,-1,64167.41103825,3,1,1561241707.073953,1561241546.732582,16,16.27515,0,0,14.2948,0,0,1561241691.513234,64165.491682,0,-1.604004,74.44489,2650659446,177292352,1,1,0.2,-16.30255,-32.15776,0
1561241707.592312,46,0,0,1561241706.976833,4.60309307605445,-74.06476465886884,2651.201,-1,-1,10,65,-9999,1561241707.584899,-8.667095184326172,-24.39603996276855,-9.65960693359375,199.5720520019531,207.1157379150391,15,64167.95832075,-0.656494140625,0.06744384765625,-0.4777984619140625,64167.95124075,-0.265549917562308,-0.6110705679180605,-1.204441234599236,64167.94611375,30.24856567382812,-23.73495483398438,-543.1076049804688,64167.95124075,1.869145647188296,-1.625292640796104,0.4083597013372979,-0.2686628103256226,-0.6185506582260132,-1.207342028617859,0.2198166847229004,0.5043889284133911,-0.5568264722824097,1,-0.6547465920448303,0.3103258907794952,-0.4540852010250092,-0.5184702277183533,-0.9164109230041504,-0.3971044421195984,0.04999051615595818,0,0,0,-1,64167.41103825,3,1,1561241707.073953,1561241546.732582,16,16.27515,0,0,14.2948,0,0,1561241691.513234,64165.491682,0,-1.604004,74.44489,2650659446,177292352,1,1,0.2,-16.85983,-26.64804,0
1561241707.612423,47,0,0,1561241706.976833,4.60309307605445,-74.06476465886884,2651.201,-1,-1,10,65,-9999,1561241707.611083,-7.866289138793945,-24.72823905944824,-9.89898681640625,199.7297515869141,207.2734375,15,64167.97858375,-0.5877685546875,0.0547943115234375,-0.42340087890625,64167.97150375001,-0.1218433482966513,-0.4789434230720682,-0.983347198797512,64167.96625475,30.69473266601562,-24.16966247558594,-543.2772827148438,64167.97150375001,1.866710130805845,-1.635715849215656,0.4310701732580295,-0.1249562129378319,-0.4864234924316406,-0.9862479567527771,0.2889143228530884,0.4677242934703827,-0.5090277194976807,1,-0.6598550081253052,0.3066936135292053,-0.4439142346382141,-0.5229441523551941,-0.9066053032875061,-0.4178433120250702,0.05893920734524727,0,0,0,-1,64167.41103825,3,1,1561241707.073953,1561241546.732582,16,16.27515,0,0,14.2948,0,0,1561241691.513234,64165.491682,0,-1.604004,74.44489,2650659446,177292352,1,1,0.2,-17.4171,-23.61002,0
1561241707.641339,48,0,0,1561241706.976833,4.60309307605445,-74.06476465886884,2651.201,-1,-1,10,65,-9999,1561241707.634955,-7.507118225097656,-24.77532196044922,-9.78594970703125,199.6063995361328,207.1500854492188,15,64167.99884775,-0.5227508544921875,0.0752410888671875,-0.3471527099609375,64167.99176775001,0.05405018590370318,-0.1927747797181487,-0.5628817332575127,64167.98639675001,30.97611999511719,-24.16592407226562,-543.0039672851562,64167.99176775001,1.866633385926819,-1.642789422864608,0.447033174104051,0.05093731731176376,-0.2002548426389694,-0.5657824873924255,0.3435046076774597,0.4986373782157898,-0.4441502094268799,1,-0.6635448336601257,0.3035449087619781,-0.4372118711471558,-0.5257512331008911,-0.8993975520133972,-0.4322921633720398,0.06486251950263977,0,0,0,-1,64167.41103825,3,1,1561241707.073953,1561241546.732582,16,16.27515,0,0,14.2948,0,0,1561241691.513234,64165.491682,0,-1.604004,74.44489,2650659446,177292352,1,1,0.2,-17.97438,-21.42972,0
1561241707.653092,49,0,0,1561241706.976833,4.60309307605445,-74.06476465886884,2651.201,-1,-1,10,65,-9999,1561241707.634955,-7.507118225097656,-24.77532196044922,-9.78594970703125,199.6063995361328,207.1500854492188,15,64168.01911175001,-0.448150634765625,0.0862884521484375,-0.32452392578125,64168.01203175,0.4859549935900288,-0.1837578488993584,-0.135345308707244,64168.00653875001,31.22346496582031,-24.28314208984375,-542.69287109375,64168.01203175,1.872793431544705,-1.648819784882407,0.4535576143852227,0.4828421175479889,-0.1912379115819931,-0.138246089220047,0.4067336320877075,0.5113168358802795,-0.4152175188064575,1,-0.6666457653045654,0.3010236918926239,-0.435041755437851,-0.5250779390335083,-0.896159291267395,-0.4381662309169769,0.07006368041038513,0,0,0,-1,64167.41103825,3,1,1561241707.073953,1561241546.732582,16,16.27515,0,0,14.2948,0,0,1561241691.513234,64165.491682,0,-1.604004,74.44489,2650659446,177292352,1,1,0.2,-18.53166,-22.37549,0
1561241707.673306,50,0,0,1561241706.976833,4.60309307605445,-74.06476465886884,2651.201,-1,-1,10,65,-9999,1561241707.661284,-7.270559310913086,-24.83082580566406,-9.48944091796875,198.6866455078125,206.2303314208984,15,64168.03937475001,-0.3542938232421875,0.09222412109375,-0.2937164306640625,64168.03229475,1.100715903830612,-0.5971486270035622,0.1344416981493801,64168.02664975001,31.26434326171875,-24.239013671875,-542.4815673828125,64168.03229475,1.890292946747671,-1.663936797455293,0.4521067842289019,1.097602963447571,-0.6046286821365356,0.1315409243106842,0.4983518123626709,0.5298792123794556,-0.3949102163314819,1,-0.6723766326904297,0.2995669841766357,-0.4349431395530701,-0.5186459422111511,-0.8956295847892761,-0.4368616044521332,0.08366142958402634,0,0,0,-1,64167.41103825,3,1,1561241707.073953,1561241546.732582,16,16.27515,0,0,14.2948,0,0,1561241691.513234,64165.491682,0,-1.604004,74.44489,2650659446,177292352,1,1,0.2,-19.08894,-22.63654,0
1561241707.693611,51,0,0,1561241706.976833,4.60309307605445,-74.06476465886884,2651.201,-1,-1,10,65,-9999,1561241707.685703,-7.317750930786133,-25.0484561920166,-9.017578125,196.6080780029297,204.1517639160156,15,64168.05963875,-0.2926177978515625,0.0937347412109375,-0.245208740234375,64168.05255875,1.69040554925308,-1.095580530300612,0.3767219793710118,64168.04679075001,31.18556213378906,-24.47105407714844,-541.929931640625,64168.05255875,1.920941830458172,-1.694718599372053,0.444036198412099,1.687292575836182,-1.103060603141785,0.3738211989402771,0.5783817768096924,0.523887038230896,-0.3824622631072998,1,-0.6826813817024231,0.2995922267436981,-0.4345463514328003,-0.5053317546844482,-0.8961003422737122,-0.4295877516269684,0.1116187423467636,0,0,0,-1,64167.41103825,3,1,1561241707.073953,1561241546.732582,16,16.27515,0,0,14.2948,0,0,1561241691.513234,64165.491682,0,-1.604004,74.44489,2650659446,177292352,1,1,0.2,-19.08894,-22.63654,0
1561241707.721155,52,0,0,1561241706.976833,4.60309307605445,-74.06476465886884,2651.201,-1,-1,10,65,-9999,1561241707.712077,-8.097885131835938,-25.25640678405762,-7.0523681640625,193.6153869628906,201.1590728759766,15,64168.07990275,-0.2658538818359375,0.109832763671875,-0.1928253173828125,64168.07279175,2.145775469304094,-1.412278054494546,0.6856374805436251,64168.06693275001,30.57798767089844,-24.60882568359375,-540.6961669921875,64168.07279175,1.961912029430589,-1.738005577549009,0.4279435063829151,2.142662763595581,-1.419758081436157,0.6827366948127747,0.6205205917358398,0.5144879221916199,-0.3676854372024536,1,-0.6964234113693237,0.3011739253997803,-0.4340685307979584,-0.4856678247451782,-0.8971319198608398,-0.4150006473064423,0.1514226049184799,0,0,0,-1,64167.41103825,3,1,1561241707.073953,1561241546.732582,16,16.27515,0,0,14.2948,0,0,1561241691.513234,64165.491682,0,-1.604004,74.44489,2650659446,177292352,1,1,0.2,-20.2035,-21.96227,0
1561241707.733993,53,0,0,1561241706.976833,4.60309307605445,-74.06476465886884,2651.201,-1,-1,10,65,-9999,1561241707.712077,-8.097885131835938,-25.25640678405762,-7.0523681640625,193.6153869628906,201.1590728759766,15,64168.10016575,-0.2526092529296875,0.1511383056640625,-0.1529998779296875,64168.09305575,2.351586955190399,-1.408828994566784,1.128793611203317,64168.08707375,30.03935241699219,-24.74693298339844,-539.3477172851562,64168.09305575,2.007285553649704,-1.785482290707872,0.4015858144938804,2.348474025726318,-1.416308999061584,1.125892758369446,0.6418503522872925,0.5166719555854797,-0.3670662641525269,1,-0.7108765244483948,0.3044673204421997,-0.4349917769432068,-0.4612334370613098,-0.899311900138855,-0.3908784985542297,0.1960915625095367,0,0,0,-1,64167.41103825,3,1,1561241707.073953,1561241546.732582,16,16.27515,0,0,14.2948,0,0,1561241691.513234,64165.491682,0,-1.604004,74.44489,2650659446,177292352,1,1,0.2,-20.2035,-21.96227,0
1561241707.754379,54,0,0,1561241706.976833,4.60309307605445,-74.06476465886884,2651.201,-1,-1,10,65,-9999,1561241707.736174,-8.893167495727539,-25.74413108825684,-5.78887939453125,190.3871307373047,197.9308166503906,15,64168.12042975,-0.2160186767578125,0.2029876708984375,-0.12060546875,64168.11331975,2.460352052005889,-1.166653375575993,1.715433937177645,64168.10721575,29.22990417480469,-24.72341918945312,-537.9622802734375,64168.11331975,2.051040879066,-1.828563160468651,0.3623442196772358,2.457239151000977,-1.17413341999054,1.712533116340637,0.6741642951965332,0.5278834104537964,-0.382015585899353,1,-0.7232089042663574,0.3100863397121429,-0.4392810463905334,-0.4334137141704559,-0.9041752815246582,-0.3544672131538391,0.2383693158626556,0,0,0,-1,64167.41103825,3,1,1561241707.073953,1561241546.732582,16,16.27515,0,0,14.2948,0,0,1561241691.513234,64165.491682,0,-1.604004,74.44489,2650659446,177292352,1,1,0.2,-20.76078,-22.73686,0
1561241707.774651,55,0,0,1561241706.976833,4.60309307605445,-74.06476465886884,2651.201,-1,-1,10,65,-9999,1561241707.762679,-9.759868621826172,-25.40244483947754,-4.46783447265625,187.3556060791016,194.8992919921875,15,64168.14069375001,-0.2347869873046875,0.322418212890625,-0.0454254150390625,64168.13358275,2.941857702362722,-0.9136259077753465,2.485724520343292,64168.12735775,27.97410583496094,-24.57147216796875,-536.8474731445312,64168.13358275,2.093447013477404,-1.863415737420162,0.3074724678901998,2.938744783401489,-0.9211059808731079,2.482823610305786,0.6858412027359009,0.5528032183647156,-0.36505126953125,1,-0.7324263453483582,0.3178334534168243,-0.4488158524036407,-0.4013700485229492,-0.9125867486000061,-0.3026506006717682,0.2749329209327698,0,0,0,-1,64167.41103825,3,1,1561241707.073953,1561241546.732582,16,16.27515,0,0,14.2948,0,0,1561241691.513234,64165.491682,0,-1.604004,74.44489,2650659446,177292352,1,1,0.2,-21.31806,-23.49001,0
1561241707.801711,56,0,0,1561241706.976833,4.60309307605445,-74.06476465886884,2651.201,-1,-1,10,65,-9999,1561241707.786954,-10.93377304077148,-24.94899749755859,-3.15032958984375,183.8095245361328,191.3532104492188,15,64168.16095675001,-0.3114166259765625,0.4948272705078125,0.0750579833984375,64168.15384675001,4.26129716230878,-1.101748944017454,3.757588205311737,64168.14749875,26.74458312988281,-24.24125671386719,-535.1045532226562,64168.15384675001,2.144444899381194,-1.896218618960424,0.2259233362691788,4.258184432983398,-1.1092289686203,3.754687309265137,0.668920636177063,0.6366955637931824,-0.2900542020797729,1,-0.7403163909912109,0.328213095664978,-0.4651731848716736,-0.3575215935707092,-0.9234371781349182,-0.224006325006485,0.3115843832492828,0,0,0,-1,64167.41103825,3,1,1561241707.073953,1561241546.732582,16,16.27515,0,0,14.2948,0,0,1561241691.513234,64165.491682,0,-1.604004,74.44489,2650659446,177292352,1,1,0.2,-21.87534,-24.37265,0
1561241707.815033,57,0,0,1561241706.976833,4.60309307605445,-74.06476465886884,2651.201,-1,-1,10,65,-9999,1561241707.813282,-14.87600708007812,-23.04942893981934,1.647216796875,178.8346710205078,186.3783569335938,15,64168.18122075,-0.4940185546875,0.6077728271484375,0.19512939453125,64168.17411075001,5.796502205347529,-1.633781950788034,4.782840243861646,64168.16764075001,24.28520202636719,-23.0169677734375,-532.7344970703125,64168.17411075001,2.21211047572604,-1.935664872076508,0.1087316555712832,5.793389320373535,-1.64126193523407,4.779939651489258,0.5358623266220093,0.6661194562911987,-0.2223951816558838,1,-0.7490224242210388,0.3410646021366119,-0.4861311316490173,-0.2937974631786346,-0.9286540746688843,-0.1085175350308418,0.3547193109989166,0,0,0,-1,64167.41103825,3,1,1561241707.073953,1561241546.732582,16,16.27515,0,0,14.2948,0,0,1561241691.513234,64165.491682,0,-1.604004,74.44489,2650659446,177292352,1,1,0.2,-22.43262,-25.43345,0
1561241707.83535,58,0,0,1561241706.976833,4.60309307605445,-74.06476465886884,2651.201,-1,-1,10,65,-9999,1561241707.813282,-14.87600708007812,-23.04942893981934,1.647216796875,178.8346710205078,186.3783569335938,15,64168.20148475,-0.7835845947265625,0.6461334228515625,0.3361663818359375,64168.19437375,6.59664256327522,-1.662436765168959,5.043840683333771,64168.18778175001,22.21736145019531,-21.39503479003906,-529.8800048828125,64168.19437375,2.292159588407148,-1.973673586108593,-0.03208931399450012,6.59352970123291,-1.669916749000549,5.040939807891846,0.2778769731521606,0.6150872111320496,-0.1306498050689697,1,-0.7564217448234558,0.3517935276031494,-0.5077998638153076,-0.2149578630924225,-0.9194632768630981,0.03208380565047264,0.391865074634552,0,0,0,-1,64167.41103825,3,1,1561241707.073953,1561241546.732582,16,16.27515,0,0,14.2948,0,0,1561241691.513234,64165.491682,0,-1.604004,74.44489,2650659446,177292352,1,1,0.2,-22.98989,-26.42789,0
1561241707.856024,59,0,0,1561241706.976833,4.60309307605445,-74.06476465886884,2651.201,-1,-1,10,65,-9999,1561241707.813282,-14.87600708007812,-23.04942893981934,1.647216796875,178.8346710205078,186.3783569335938,15,64168.22174875,-1.03070068359375,0.5739898681640625,0.5130615234375,64168.21463775,6.616557681906833,-1.287661023922577,4.593071906698087,64168.20792375001,20.17646789550781,-19.00918579101562,-526.692626953125,64168.21463775,2.376595841230337,-1.994598671035503,-0.1775154783954483,6.613444805145264,-1.295140981674194,4.590171337127686,-0.02222573757171631,0.4137626588344574,0.008318781852722168,1,-0.7582871913909912,0.3569091558456421,-0.529173731803894,-0.1326339542865753,-0.8972078561782837,0.1765846461057663,0.4047672152519226,0,0,0,-1,64167.41103825,3,1,1561241707.073953,1561241546.732582,16,16.27515,0,0,14.2948,0,0,1561241691.513234,64165.491682,0,-1.604004,74.44489,2650659446,177292352,1,1,0.2,-22.98989,-26.42789,0
1561241707.880784,60,0,0,1561241706.976833,4.60309307605445,-74.06476465886884,2651.201,-1,-1,10,65,-9999,1561241707.868544,-16.81425285339355,-21.37886619567871,4.46807861328125,172.9535522460938,180.4972381591797,15,64168.24198175,-0.8681640625,0.4405059814453125,0.5241851806640625,64168.23490175,5.117120223888392,-0.5055358855048364,3.804148783281811,64168.22806575,18.86372375488281,-16.35765075683594,-524.2914428710938,64168.23490175,2.454774875188127,-1.995816335293042,-0.3044940918491992,5.114007472991943,-0.5130159854888916,3.801247835159302,-0.130634069442749,0.2267702221870422,0.1556404829025269,1,-0.7544410824775696,0.3570771217346191,-0.5474182963371277,-0.06039604917168617,-0.869121789932251,0.2998105883598328,0.3933708369731903,0,0,0,-1,64167.41103825,3,1,1561241707.073953,1561241546.732582,16,16.27515,0,0,14.2948,0,0,1561241691.513234,64165.491682,0,-1.604004,74.44489,2650659446,177292352,1,1,0.2,-24.10445,-27.25031,0
1561241707.896179,61,0,0,1561241706.976833,4.60309307605445,-74.06476465886884,2651.201,-1,-1,10,65,-9999,1561241707.891602,-20.01521110534668,-16.23274230957031,9.2696533203125,163.3548278808594,170.8985137939453,15,64168.26224475,-0.8196868896484375,0.6437225341796875,0.543182373046875,64168.25516475,3.198215719422622,0.5316021073062049,3.788709639494294,64168.24820675,17.63418579101562,-13.83628845214844,-523.100341796875,64168.25516475,2.501732578605944,-1.978598998089439,-0.406596777563939,3.19510293006897,0.5241219997406006,3.785808801651001,0.03432971239089966,0.05914977192878723,0.1285686492919922,1,-0.7420250177383423,0.3626689314842224,-0.5637273788452148,-0.009034030139446259,-0.8431523442268372,0.3954858481884003,0.3642597496509552,0,0,0,-1,64167.41103825,3,1,1561241707.073953,1561241546.732582,16,16.27515,0,0,14.2948,0,0,1561241691.513234,64165.491682,0,-1.604004,74.44489,2650659446,177292352,1,1,0.2,-24.10445,-27.25031,0
1561241707.916333,62,0,0,1561241706.976833,4.60309307605445,-74.06476465886884,2651.201,-1,-1,10,65,-9999,1561241707.914637,-22.87599563598633,-11.45917987823486,10.4403076171875,161.2432861328125,168.7869720458984,15,64168.28250875,-0.8404083251953125,1.019195556640625,0.7125244140625,64168.27542875001,3.124444293014664,0.9688819730206376,4.307773051756188,64168.26831775,16.20307922363281,-11.80471801757812,-522.917236328125,64168.27542875001,2.53103032749409,-1.949624614261185,-0.5060738008799336,3.121331453323364,0.9614018797874451,4.304872512817383,-0.02183246612548828,0.3880405426025391,0.3542591333389282,1,-0.7219592928886414,0.3748498558998108,-0.5805929899215698,0.03426545485854149,-0.8126401901245117,0.4847469329833984,0.3234752714633942,0,0,0,-1,64167.41103825,3,1,1561241707.073953,1561241546.732582,16,16.27515,0,0,14.2948,0,0,1561241691.513234,64165.491682,0,-1.604004,74.44489,2650659446,177292352,1,1,0.2,-24.66173,-28.27404,0
1561241707.937086,63,0,0,1561241706.976833,4.60309307605445,-74.06476465886884,2651.201,-1,-1,10,65,-9999,1561241707.914637,-22.87599563598633,-11.45917987823486,10.4403076171875,161.2432861328125,168.7869720458984,15,64168.30277275,-0.846405029296875,1.161056518554688,0.6643524169921875,64168.29569275001,3.016412098131164,0.8309043958919593,4.468073777774128,64168.28845975,14.87815856933594,-9.081390380859375,-522.8572387695312,64168.29569275001,2.563388245276558,-1.913865498838908,-0.6123507973682485,3.013299226760864,0.8234242796897888,4.465173244476318,-0.06416356563568115,0.5405790209770203,0.4065955877304077,1,-0.6975685954093933,0.3886224329471588,-0.5966896414756775,0.07957550138235092,-0.7706142663955688,0.5747926831245422,0.2752586901187897,0,0,0,-1,64167.41103825,3,1,1561241707.073953,1561241546.732582,16,16.27515,0,0,14.2948,0,0,1561241691.513234,64165.491682,0,-1.604004,74.44489,2650659446,177292352,1,1,0.2,-25.21901,-29.0826,0
1561241707.959496,64,0,0,1561241706.976833,4.60309307605445,-74.06476465886884,2651.201,-1,-1,10,65,-9999,1561241707.939543,-23.98835754394531,-8.77241325378418,10.54486083984375,158.9352111816406,166.4788970947266,15,64168.32303575001,-0.9036865234375,1.13275146484375,0.6109619140625,64168.31595575,2.190822839142784,0.6424532582035541,4.324181053548275,64168.30860175,14.07310485839844,-6.068878173828125,-522.8750610351562,64168.31595575,2.591783139417942,-1.881671856183973,-0.7141714759668447,2.187710046768188,0.6349731683731079,4.321280479431152,-0.1513271331787109,0.4948039650917053,0.4201017618179321,1,-0.6727525591850281,0.403702437877655,-0.6078987121582031,0.122014544904232,-0.7194156646728516,0.6549915671348572,0.2311433255672455,0,0,0,-1,64167.41103825,3,1,1561241707.073953,1561241546.732582,16,16.27515,0,0,14.2948,0,0,1561241691.513234,64165.491682,0,-1.604004,74.44489,2650659446,177292352,1,1,0.2,-25.77629,-29.76597,0
1561241707.977097,65,0,0,1561241706.976833,4.60309307605445,-74.06476465886884,2651.201,-1,-1,10,65,-9999,1561241707.965832,-24.77751922607422,-5.93584680557251,10.4490966796875,157.7803802490234,165.3240661621094,15,64168.34329975001,-1.017425537109375,1.20867919921875,0.5182952880859375,64168.33621975,0.8476034811911921,0.306987905175614,3.943410270372016,64168.32874275,13.19915771484375,-3.558578491210938,-522.8043212890625,64168.33621975,2.598005584860462,-1.867791448362134,-0.8038722159388617,0.844490647315979,0.2995078265666962,3.94050931930542,-0.2838436365127563,0.4258865714073181,0.356494665145874,1,-0.6502557992935181,0.4227353632450104,-0.6116517782211304,0.1560269296169281,-0.6635440587997437,0.7200484871864319,0.2030755877494812,0,0,0,-1,64167.41103825,3,1,1561241707.073953,1561241546.732582,16,16.27515,0,0,14.2948,0,0,1561241691.513234,64165.491682,0,-1.604004,74.44489,2650659446,177292352,1,1,0.2,-26.33357,-30.54944,0
1561241708.025965,66,0,0,1561241706.976833,4.60309307605445,-74.06476465886884,2651.201,-1,-1,10,65,-9999,1561241707.965832,-24.77751922607422,-5.93584680557251,10.4490966796875,157.7803802490234,165.3240661621094,15,64168.36356375,-1.26531982421875,1.458038330078125,0.5007476806640625,64168.35645275001,-0.209555091430629,-0.1055562540180537,3.588059626116672,64168.34885375,13.10969543457031,-1.461715698242188,-522.9759521484375,64168.35645275001,2.570830726255972,-1.886209180657995,-0.8773657217308006,-0.2126679569482803,-0.1130363196134567,3.585158824920654,-0.5249513387680054,0.5579380989074707,0.2968380451202393,1,-0.6328853368759155,0.4456408023834229,-0.6069493293762207,0.1802024692296982,-0.6076475381851196,0.7690577507019043,0.1982791423797607,0,0,0,-1,64167.41103825,3,1,1561241707.073953,1561241546.732582,16,16.27515,0,0,14.2948,0,0,1561241691.513234,64165.491682,0,-1.604004,74.44489,2650659446,177292352,1,1,0.2,-27.44813,-32.42305,0
1561241708.326038,67,0,0,1561241706.976833,4.60309307605445,-74.06476465886884,2651.201,-1,-1,10,65,-9999,1561241708.061511,-25.96578979492188,0.2661868929862976,10.24884033203125,162.3601531982422,169.9038391113281,15,64168.38382675,-1.499298095703125,1.67816162109375,0.61968994140625,64168.37671675,0.2240669225265798,-0.3187468266527498,3.596476813057977,64168.36899575,12.63914489746094,0.380035400390625,-522.9564208984375,64168.37671675,2.527650601933674,-1.925261362140776,-0.9449909720479622,0.2209540605545044,-0.3262269198894501,3.593575954437256,-0.8451194167137146,0.7786349058151245,0.3433846235275269,1,-0.6180416941642761,0.4686983227729797,-0.5978425741195679,0.2023132294416428,-0.5493355393409729,0.8104916214942932,0.2033073008060455,0,0,0,-1,64167.41103825,3,1,1561241707.073953,1561241546.732582,16,16.27515,0,0,14.2948,0,0,1561241691.513234,64165.491682,0,-1.604004,74.44489,2650659446,177292352,1,1,0.2,-34.69275,-41.49625,0
1561241708.330346,68,0,0,1561241706.976833,4.60309307605445,-74.06476465886884,2651.201,-1,-1,10,65,-9999,1561241708.321161,-27.49875831604004,-0.3837866187095642,6.94696044921875,243.8237762451172,251.3674621582031,15,64168.40409075,-1.612091064453125,1.424072265625,0.6440887451171875,64168.39697975,1.90942045519178,-0.5518258863081578,3.294149173473892,64168.38913675,12.6533203125,2.3985595703125,-523.039306640625,64168.39697975,2.517516845466152,-1.941754362416687,-1.018911914234007,1.906307578086853,-0.5593059659004211,3.291248321533203,-1.089418172836304,0.7633758783340454,0.4664487838745117,1,-0.6012393236160278,0.483261376619339,-0.5926584005355835,0.2317880839109421,-0.488630622625351,0.8515380620956421,0.1900605708360672,0,0,0,-1,64167.41103825,3,1,1561241707.073953,1561241546.732582,16,16.27515,0,0,14.2948,0,0,1561241691.513234,64165.491682,0,-1.604004,74.44489,2650659446,177292352,1,1,0.2,-34.69275,-41.49625,0
1561241708.33186,69,0,0,1561241706.976833,4.60309307605445,-74.06476465886884,2651.201,-1,-1,10,65,-9999,1561241708.321161,-27.49875831604004,-0.3837866187095642,6.94696044921875,243.8237762451172,251.3674621582031,15,64168.42435475,-1.496109008789062,1.011734008789062,0.6155242919921875,64168.41724375,3.025318774080825,-0.7150600842668206,1.699880277463255,64168.40927875,12.87702941894531,4.531845092773438,-522.8853759765625,64168.41724375,2.578763526879377,-1.901912390684997,-1.086425719947026,3.02220606803894,-0.7225401401519775,1.696979403495789,-1.138713836669922,0.3157612085342407,0.4594420194625854,1,-0.5860047936439514,0.4819644093513489,-0.5945674180984497,0.2660793364048004,-0.4403571784496307,0.8849682211875916,0.1513826251029968,0,0,0,-1,64167.41103825,3,1,1561241707.073953,1561241546.732582,16,16.27515,0,0,14.2948,0,0,1561241691.513234,64165.491682,0,-1.604004,74.44489,2650659446,177292352,1,1,0.2,-34.69275,-41.49625,0
1561241708.333112,70,0,0,1561241706.976833,4.60309307605445,-74.06476465886884,2651.201,-1,-1,10,65,-9999,1561241708.321161,-27.49875831604004,-0.3837866187095642,6.94696044921875,243.8237762451172,251.3674621582031,15,64168.44257375001,-1.283447265625,0.7418670654296875,0.6673126220703125,64168.41724375,3.025318774080825,-0.7150600842668206,1.699880277463255,64168.42942075001,13.26396179199219,6.1619873046875,-522.7537841796875,64168.41724375,2.578763526879377,-1.901912390684997,-1.086425719947026,3.02220606803894,-0.7225401401519775,1.696979403495789,-1.138713836669922,0.3157612085342407,0.4594420194625854,1,-0.5860047936439514,0.4819644093513489,-0.5945674180984497,0.2660793364048004,-0.4403571784496307,0.8849682211875916,0.1513826251029968,0,0,0,-1,64167.41103825,3,1,1561241707.073953,1561241546.732582,16,16.27515,0,0,14.2948,0,0,1561241691.513234,64165.491682,0,-1.604004,74.44489,2650659446,177292352,1,1,0.2,-34.69275,-41.49625,0
1561241708.334425,71,0,0,1561241706.976833,4.60309307605445,-74.06476465886884,2651.201,-1,-1,10,65,-9999,1561241708.321161,-27.49875831604004,-0.3837866187095642,6.94696044921875,243.8237762451172,251.3674621582031,15,64168.46283675,-1.067550659179688,0.666900634765625,0.7498626708984375,64168.45371275,2.26978396756698,0.4994092834171092,-1.727425086301836,64168.44956175001,13.31800842285156,6.469375610351562,-523.0161743164062,64168.41724375,2.578763526879377,-1.901912390684997,-1.086425719947026,3.02220606803894,-0.7225401401519775,1.696979403495789,-1.138713836669922,0.3157612085342407,0.4594420194625854,1,-0.5860047936439514,0.4819644093513489,-0.5945674180984497,0.2660793364048004,-0.4403571784496307,0.8849682211875916,0.1513826251029968,0,0,0,-1,64167.41103825,3,1,1561241707.073953,1561241546.732582,16,16.27515,0,0,14.2948,0,0,1561241691.513234,64165.491682,0,-1.604004,74.44489,2650659446,177292352,1,1,0.2,-34.69275,-41.49625,0
1561241708.335784,72,0,0,1561241706.976833,4.60309307605445,-74.06476465886884,2651.201,-1,-1,10,65,-9999,1561241708.321161,-27.49875831604004,-0.3837866187095642,6.94696044921875,243.8237762451172,251.3674621582031,15,64168.48310075,-0.8274688720703125,0.65264892578125,0.672027587890625,64168.47397575001,0.3054715012509228,2.218256594163909,-1.904190006810864,64168.46970375,12.71331787109375,5.818252563476562,-523.833251953125,64168.41724375,2.578763526879377,-1.901912390684997,-1.086425719947026,3.02220606803894,-0.7225401401519775,1.696979403495789,-1.138713836669922,0.3157612085342407,0.4594420194625854,1,-0.5860047936439514,0.4819644093513489,-0.5945674180984497,0.2660793364048004,-0.4403571784496307,0.8849682211875916,0.1513826251029968,0,0,0,-1,64167.41103825,3,1,1561241707.073953,1561241546.732582,16,16.27515,0,0,14.2948,0,0,1561241691.513234,64165.491682,0,-1.604004,74.44489,2650659446,177292352,1,1,0.2,-34.69275,-41.49625,0
1561241708.337226,73,0,0,1561241706.976833,4.60309307605445,-74.06476465886884,2651.201,-1,-1,10,65,-9999,1561241708.321161,-27.49875831604004,-0.3837866187095642,6.94696044921875,243.8237762451172,251.3674621582031,15,64168.50336475,-0.6339874267578125,0.6388092041015625,0.5193939208984375,64168.49423975001,-1.670840369988704,3.420134802530053,-1.57517376467866,64168.48984475,12.00189208984375,4.531982421875,-525.1270141601562,64168.41724375,2.578763526879377,-1.901912390684997,-1.086425719947026,3.02220606803894,-0.7225401401519775,1.696979403495789,-1.138713836669922,0.3157612085342407,0.4594420194625854,1,-0.5860047936439514,0.4819644093513489,-0.5945674180984497,0.2660793364048004,-0.4403571784496307,0.8849682211875916,0.1513826251029968,0,0,0,-1,64167.41103825,3,1,1561241707.073953,1561241546.732582,16,16.27515,0,0,14.2948,0,0,1561241691.513234,64165.491682,0,-1.604004,74.44489,2650659446,177292352,1,1,0.2,-34.69275,-41.49625,0
1561241708.338514,74,0,0,1561241706.976833,4.60309307605445,-74.06476465886884,2651.201,-1,-1,10,65,-9999,1561241708.321161,-27.49875831604004,-0.3837866187095642,6.94696044921875,243.8237762451172,251.3674621582031,15,64168.52362775,-0.5299835205078125,0.7132110595703125,0.40380859375,64168.51450375,-2.612000167642162,3.438688513212417,-1.321102071414593,64168.50998675,11.15504455566406,3.596603393554688,-526.6146240234375,64168.41724375,2.578763526879377,-1.901912390684997,-1.086425719947026,3.02220606803894,-0.7225401401519775,1.696979403495789,-1.138713836669922,0.3157612085342407,0.4594420194625854,1,-0.5860047936439514,0.4819644093513489,-0.5945674180984497,0.2660793364048004,-0.4403571784496307,0.8849682211875916,0.1513826251029968,0,0,0,-1,64167.41103825,3,1,1561241707.073953,1561241546.732582,16,16.27515,0,0,14.2948,0,0,1561241691.513234,64165.491682,0,-1.604004,74.44489,2650659446,177292352,1,1,0.2,-34.69275,-41.49625,0
1561241708.34054,75,0,0,1561241706.976833,4.60309307605445,-74.06476465886884,2651.201,-1,-1,10,65,-9999,1561241708.321161,-27.49875831604004,-0.3837866187095642,6.94696044921875,243.8237762451172,251.3674621582031,15,64168.54389175001,-0.4671783447265625,0.787017822265625,0.3111419677734375,64168.53476675,-2.736163395564381,2.696497741656523,-1.134343905231152,64168.53009775,10.63417053222656,2.339019775390625,-528.4644775390625,64168.41724375,2.578763526879377,-1.901912390684997,-1.086425719947026,3.02220606803894,-0.7225401401519775,1.696979403495789,-1.138713836669922,0.3157612085342407,0.4594420194625854,1,-0.5860047936439514,0.4819644093513489,-0.5945674180984497,0.2660793364048004,-0.4403571784496307,0.8849682211875916,0.1513826251029968,0,0,0,-1,64167.41103825,3,1,1561241707.073953,1561241546.732582,16,16.27515,0,0,14.2948,0,0,1561241691.513234,64165.491682,0,-1.604004,74.44489,2650659446,177292352,1,1,0.2,-34.69275,-41.49625,0
1561241708.342311,76,0,0,1561241706.976833,4.60309307605445,-74.06476465886884,2651.201,-1,-1,10,65,-9999,1561241708.321161,-27.49875831604004,-0.3837866187095642,6.94696044921875,243.8237762451172,251.3674621582031,15,64168.56415575001,-0.4373321533203125,0.791046142578125,0.2039794921875,64168.55503075,-2.438501614210116,1.604146294177632,-0.7986252855835448,64168.55023975,10.16963195800781,1.737869262695312,-529.589111328125,64168.41724375,2.578763526879377,-1.901912390684997,-1.086425719947026,3.02220606803894,-0.7225401401519775,1.696979403495789,-1.138713836669922,0.3157612085342407,0.4594420194625854,1,-0.5860047936439514,0.4819644093513489,-0.5945674180984497,0.2660793364048004,-0.4403571784496307,0.8849682211875916,0.1513826251029968,0,0,0,-1,64167.41103825,3,1,1561241707.073953,1561241546.732582,16,16.27515,0,0,14.2948,0,0,1561241691.513234,64165.491682,0,-1.604004,74.44489,2650659446,177292352,1,1,0.2,-34.69275,-41.49625,0
1561241708.345667,77,0,0,1561241706.976833,4.60309307605445,-74.06476465886884,2651.201,-1,-1,10,65,-9999,1561241708.321161,-27.49875831604004,-0.3837866187095642,6.94696044921875,243.8237762451172,251.3674621582031,15,64168.58441875,-0.450164794921875,0.8082275390625,0.10546875,64168.57529475,-2.019464668278835,0.4152102497609459,-0.3892897028712047,64168.57038075,10.03831481933594,0.90460205078125,-530.2281494140625,64168.41724375,2.578763526879377,-1.901912390684997,-1.086425719947026,3.02220606803894,-0.7225401401519775,1.696979403495789,-1.138713836669922,0.3157612085342407,0.4594420194625854,1,-0.5860047936439514,0.4819644093513489,-0.5945674180984497,0.2660793364048004,-0.4403571784496307,0.8849682211875916,0.1513826251029968,0,0,0,-1,64167.41103825,3,1,1561241707.073953,1561241546.732582,16,16.27515,0,0,14.2948,0,0,1561241691.513234,64165.491682,0,-1.604004,74.44489,2650659446,177292352,1,1,0.2,-35.25003,-42.2574,0
1561241708.34713,78,0,0,1561241706.976833,4.60309307605445,-74.06476465886884,2651.201,-1,-1,10,65,-9999,1561241708.321161,-27.49875831604004,-0.3837866187095642,6.94696044921875,243.8237762451172,251.3674621582031,15,64168.60468275,-0.5320587158203125,0.827880859375,0.0529632568359375,64168.59555775001,-1.449278683099562,-0.7578757251120244,-0.09303673373359116,64168.59052275,10.25828552246094,0.8036041259765625,-529.9593505859375,64168.58542575,-2.360170109061522,-2.1405382608826,-0.6866289758895529,-1.761686086654663,-0.2033859193325043,-0.2297269999980927,0.2010583281517029,0.1742938756942749,-0.3117077350616455,1,0.8253937363624573,0.1652677059173584,0.3053583800792694,-0.4451605379581451,-0.6512231230735779,0.6339336633682251,0.4171764552593231,0,0,0,-1,64167.41103825,3,1,1561241707.073953,1561241546.732582,16,16.27515,0,0,14.2948,0,0,1561241691.513234,64165.491682,0,-1.604004,74.44489,2650659446,177292352,1,1,0.2,-35.25003,-42.2574,0
1561241708.348576,79,0,0,1561241706.976833,4.60309307605445,-74.06476465886884,2651.201,-1,-1,10,65,-9999,1561241708.321161,-27.49875831604004,-0.3837866187095642,6.94696044921875,243.8237762451172,251.3674621582031,15,64168.62494675,-0.6050262451171875,0.8459930419921875,0.0452880859375,64168.61582175001,-0.7616422338417235,-1.549735782578441,0.01577550103319338,64168.61066475001,10.17298889160156,0.70172119140625,-529.2301635742188,64168.60568975,-2.390013871553477,-2.174372613739308,-0.6687012393686561,-1.106930375099182,-1.224017858505249,-0.005888314917683601,0.1139336228370667,0.2079133987426758,-0.3923838138580322,1,0.8339377641677856,0.1649888306856155,0.3019549548625946,-0.4314505755901337,-0.6459923386573792,0.6199674606323242,0.445347011089325,0,0,0,-1,64167.41103825,3,1,1561241707.073953,1561241546.732582,16,16.27515,0,0,14.2948,0,0,1561241691.513234,64165.491682,0,-1.604004,74.44489,2650659446,177292352,1,1,0.2,-35.25003,-42.2574,0
1561241708.350001,80,0,0,1561241706.976833,4.60309307605445,-74.06476465886884,2651.201,-1,-1,10,65,-9999,1561241708.321161,-27.49875831604004,-0.3837866187095642,6.94696044921875,243.8237762451172,251.3674621582031,15,64168.64520975,-0.6682281494140625,0.8238983154296875,0.062530517578125,64168.63608575,-0.1480989208515245,-1.895096909584898,-0.09173258374777936,64168.63077575,10.69308471679688,0.5910797119140625,-528.46044921875,64168.62595375,-2.406111455920406,-2.215457707775229,-0.6596813053784671,-0.4404723644256592,-1.786593079566956,-0.02518797665834427,0.02657341957092285,0.2331279516220093,-0.4295576810836792,1,0.8418790102005005,0.1693004220724106,0.2901809811592102,-0.4223413169384003,-0.6315996646881104,0.6128650307655334,0.4748457968235016,0,0,0,-1,64167.41103825,3,1,1561241707.073953,1561241546.732582,16,16.27515,0,0,14.2948,0,0,1561241691.513234,64165.491682,0,-1.604004,74.44489,2650659446,177292352,1,1,0.2,-35.25003,-42.2574,0
1561241708.351556,81,0,0,1561241706.976833,4.60309307605445,-74.06476465886884,2651.201,-1,-1,10,65,-9999,1561241708.321161,-27.49875831604004,-0.3837866187095642,6.94696044921875,243.8237762451172,251.3674621582031,15,64168.66547375001,-0.70599365234375,0.800018310546875,0.096771240234375,64168.65634875,0.2259428531984316,-1.792482383306945,-0.2256768034055327,64168.65091675,10.66600036621094,0.514129638671875,-527.6482543945312,64168.64621775001,-2.407908105795806,-2.254684022553057,-0.6561843344003779,0.07810822129249573,-1.904314041137695,-0.1620675325393677,-0.05407857894897461,0.2138002514839172,-0.4380699396133423,1,0.8477888703346252,0.1776351779699326,0.2747528553009033,-0.4173855185508728,-0.6141495108604431,0.6100980639457703,0.5006004571914673,0,0,0,-1,64167.41103825,3,1,1561241707.073953,1561241546.732582,16,16.27515,0,0,14.2948,0,0,1561241691.513234,64165.491682,0,-1.604004,74.44489,2650659446,177292352,1,1,0.2,-35.25003,-42.2574,0
1561241708.352856,82,0,0,1561241706.976833,4.60309307605445,-74.06476465886884,2651.201,-1,-1,10,65,-9999,1561241708.321161,-27.49875831604004,-0.3837866187095642,6.94696044921875,243.8237762451172,251.3674621582031,15,64168.68573129167,-0.726104736328125,0.77728271484375,0.131805419921875,64168.67660629167,0.1829857984993445,-1.245363367909394,-0.2594081354563673,64168.67108329167,10.99099731445312,0.1916351318359375,-526.3580932617188,64168.66648075001,-2.400270932762287,-2.286073693979701,-0.6553860994968784,0.2567929923534393,-1.584480404853821,-0.2678637206554413,-0.1074905395507812,0.1905528903007507,-0.4231764078140259,1,0.8513392210006714,0.1876043081283569,0.2600029408931732,-0.4152403175830841,-0.5985031723976135,0.6094654202461243,0.5199477076530457,0,0,0,-1,64167.41103825,3,1,1561241707.073953,1561241546.732582,16,16.27515,0,0,14.2948,0,0,1561241691.513234,64165.491682,0,-1.604004,74.44489,2650659446,177292352,1,1,0.2,-35.25003,-42.2574,0
1561241708.354337,83,0,0,1561241706.976833,4.60309307605445,-74.06476465886884,2651.201,-1,-1,10,65,-9999,1561241708.321161,-27.49875831604004,-0.3837866187095642,6.94696044921875,243.8237762451172,251.3674621582031,15,64168.70599529167,-0.7290496826171875,0.74566650390625,0.1383056640625,64168.69687029167,-0.1644765626071847,-0.446739147590285,-0.1640951979390854,64168.69122429167,11.0830078125,0.286712646484375,-525.9454345703125,64168.70700229167,-2.39293649541889,-2.315965731671217,-0.6488724529687466,-0.3503476977348328,-0.05015652999281883,-0.13750059902668,-0.1424567699432373,0.1528221964836121,-0.4039769172668457,1,0.8548504114151001,0.1984253972768784,0.2471591383218765,-0.4108167290687561,-0.5856011509895325,0.6042883992195129,0.540283739566803,0,0,0,-1,64167.41103825,3,1,1561241707.073953,1561241546.732582,16,16.27515,0,0,14.2948,0,0,1561241691.513234,64165.491682,0,-1.604004,74.44489,2650659446,177292352,1,1,0.2,-35.25003,-42.2574,0
1561241708.360595,84,0,0,1561241706.976833,4.60309307605445,-74.06476465886884,2651.201,-1,-1,10,65,-9999,1561241708.357,-27.46603012084961,-0.5689038038253784,7.30999755859375,243.5309906005859,251.0746765136719,15,64168.72625929167,-0.696746826171875,0.7431488037109375,0.149505615234375,64168.71713429167,-0.5121133607651142,0.3439682937563452,-0.1418631291591039,64168.71136629167,11.18927001953125,0.236419677734375,-526.0516357421875,64168.70700229167,-2.39293649541889,-2.315965731671217,-0.6488724529687466,-0.3503476977348328,-0.05015652999281883,-0.13750059902668,-0.1424567699432373,0.1528221964836121,-0.4039769172668457,1,0.8548504114151001,0.1984253972768784,0.2471591383218765,-0.4108167290687561,-0.5856011509895325,0.6042883992195129,0.540283739566803,0,0,0,-1,64167.41103825,3,1,1561241707.073953,1561241546.732582,16,16.27515,0,0,14.2948,0,0,1561241691.513234,64165.491682,0,-1.604004,74.44489,2650659446,177292352,1,1,0.2,-35.25003,-42.2574,0
1561241708.380871,85,0,0,1561241706.976833,4.60309307605445,-74.06476465886884,2651.201,-1,-1,10,65,-9999,1561241708.357,-27.46603012084961,-0.5689038038253784,7.30999755859375,243.5309906005859,251.0746765136719,15,64168.74652229167,-0.6634521484375,0.744720458984375,0.12518310546875,64168.73739829167,-0.7150145442121801,0.7527379547370435,-0.2131085472731217,64168.73150829167,11.00180053710938,-0.1329345703125,-526.3650512695312,64168.72726629167,-2.399852733105788,-2.313809322055517,-0.6396883334483949,-0.6416221261024475,0.6002632975578308,-0.1721009314060211,-0.1059197187423706,0.146203339099884,-0.3932458162307739,1,0.8558686375617981,0.1971410363912582,0.2514909207820892,-0.4066650867462158,-0.5908271074295044,0.5969454050064087,0.5427514314651489,0,0,0,-1,64167.41103825,3,1,1561241707.073953,1561241546.732582,16,16.27515,0,0,14.2948,0,0,1561241691.513234,64165.491682,0,-1.604004,74.44489,2650659446,177292352,1,1,0.2,-35.80731,-42.28429,0
1561241708.404033,86,0,0,1561241706.976833,4.60309307605445,-74.06476465886884,2651.201,-1,-1,10,65,-9999,1561241708.395585,-27.67768859863281,-0.8766659498214722,6.91705322265625,246.3395843505859,253.8832702636719,15,64168.76678629167,-0.6320953369140625,0.76165771484375,0.1228179931640625,64168.75766129167,-0.7664625554147669,0.9347354541558596,-0.2521116067017682,64168.75164929167,10.720703125,-0.5878753662109375,-526.65673828125,64168.74752929167,-2.409496848677628,-2.304509735996662,-0.6267891046769716,-0.7619749307632446,0.8572916388511658,-0.241841658949852,-0.06193399429321289,0.1581732034683228,-0.4171620607376099,1,0.8564432263374329,0.1941071301698685,0.260196715593338,-0.4014039039611816,-0.6015181541442871,0.5865472555160522,0.5423451662063599,0,0,0,-1,64167.41103825,3,1,1561241707.073953,1561241546.732582,16,16.27515,0,0,14.2948,0,0,1561241691.513234,64165.491682,0,-1.604004,74.44489,2650659446,177292352,1,1,0.2,-36.36459,-41.03686,0
1561241708.421072,87,0,0,1561241706.976833,4.60309307605445,-74.06476465886884,2651.201,-1,-1,10,65,-9999,1561241708.395585,-27.67768859863281,-0.8766659498214722,6.91705322265625,246.3395843505859,253.8832702636719,15,64168.78705029167,-0.6027679443359375,0.7747955322265625,0.1058349609375,64168.77792529167,-0.6946064744627939,0.8841412523987523,-0.2999491704145345,64168.77176029167,10.74571228027344,-0.599853515625,-527.34033203125,64168.76779329167,-2.419453636757562,-2.291770378135777,-0.6126010232370105,-0.7475541830062866,0.9313977956771851,-0.2742877304553986,-0.01752734184265137,0.1866602897644043,-0.4172599315643311,1,0.8565711975097656,0.1905904561281204,0.2706565856933594,-0.3958611786365509,-0.6145679950714111,0.5749974250793457,0.5400778651237488,0,0,0,-1,64167.41103825,3,1,1561241707.073953,1561241546.732582,16,16.27515,0,0,14.2948,0,0,1561241691.513234,64165.491682,0,-1.604004,74.44489,2650659446,177292352,1,1,0.2,-36.92187,-41.91246,0
1561241708.441264,88,0,0,1561241706.976833,4.60309307605445,-74.06476465886884,2651.201,-1,-1,10,65,-9999,1561241708.427685,-27.93609237670898,-1.5595703125,6.0010986328125,248.0484466552734,255.5921325683594,15,64168.80731329167,-0.590484619140625,0.7860107421875,0.10418701171875,64168.79818929167,-0.5311688109968491,0.7222144002192094,-0.3440862717926357,64168.79190229167,10.32185363769531,-1.102325439453125,-527.675048828125,64168.78805729167,-2.427492039471668,-2.278598061152614,-0.5987527808093737,-0.6274506449699402,0.8116123080253601,-0.3292923867702484,0.02485060691833496,0.2111828923225403,-0.4312267303466797,1,0.8563099503517151,0.1877874284982681,0.280793309211731,-0.3906713724136353,-0.6276185512542725,0.5636126399040222,0.5370616912841797,0,0,0,-1,64167.41103825,3,1,1561241707.073953,1561241546.732582,16,16.27515,0,0,14.2948,0,0,1561241691.513234,64165.491682,0,-1.604004,74.44489,2650659446,177292352,1,1,0.2,-37.47915,-40.5798,0
1561241708.461524,89,0,0,1561241706.976833,4.60309307605445,-74.06476465886884,2651.201,-1,-1,10,65,-9999,1561241708.427685,-27.93609237670898,-1.5595703125,6.0010986328125,248.0484466552734,255.5921325683594,15,64168.82757729167,-0.57623291015625,0.78045654296875,0.122802734375,64168.81845229167,-0.3035196704880038,0.4953567511863355,-0.3407293572385909,64168.81204429167,10.50218200683594,-1.4093017578125,-527.9840698242188,64168.80832029167,-2.4318688488265,-2.266627012000683,-0.5864857924354074,-0.4086599946022034,0.5964903831481934,-0.3590180575847626,0.04877686500549316,0.2325732707977295,-0.4297153949737549,1,0.8556753993034363,0.1864691823720932,0.2893282771110535,-0.3864427506923676,-0.6392614841461182,0.5534374713897705,0.5339022874832153,0,0,0,-1,64167.41103825,3,1,1561241707.073953,1561241546.732582,16,16.27515,0,0,14.2948,0,0,1561241691.513234,64165.491682,0,-1.604004,74.44489,2650659446,177292352,1,1,0.2,-38.00708,-40.78912,0
1561241708.481696,90,0,0,1561241706.976833,4.60309307605445,-74.06476465886884,2651.201,-1,-1,10,65,-9999,1561241708.471763,-27.97371673583984,-2.149609088897705,5.170166015625,250.0817718505859,257.6254577636719,15,64168.84784129167,-0.5657196044921875,0.772003173828125,0.1269073486328125,64168.83871629167,-0.2143461182316815,0.2950090065924375,-0.2742046584728475,64168.83218529167,10.71417236328125,-1.470932006835938,-528.3771362304688,64168.82858429167,-2.432489001991788,-2.257072000568885,-0.5770977180306327,-0.2501496970653534,0.3823173940181732,-0.3095727562904358,0.07209181785583496,0.2348625659942627,-0.4082361459732056,1,0.8548135161399841,0.1865832209587097,0.2954843640327454,-0.3836268484592438,-0.648324728012085,0.5455939769744873,0.5310388803482056,0,0,0,-1,64167.41103825,3,1,1561241707.073953,1561241546.732582,16,16.27515,0,0,14.2948,0,0,1561241691.513234,64165.491682,0,-1.604004,74.44489,2650659446,177292352,1,1,0.2,-38.00708,-40.78912,0
1561241708.501962,91,0,0,1561241706.976833,4.60309307605445,-74.06476465886884,2651.201,-1,-1,10,65,-9999,1561241708.496815,-28.03893280029297,-2.488308668136597,5.026611328125,250.4903106689453,258.0339965820312,15,64168.86810429167,-0.565948486328125,0.7660064697265625,0.1486663818359375,64168.85898029167,-0.1001479064763207,0.1726679134880505,-0.2397516097666014,64168.85232729167,10.65628051757812,-1.857223510742188,-528.3090209960938,64168.84884829167,-2.206601840966901,-1.896196046293288,-0.8034535013705744,-0.168880969285965,0.2272092998027802,-0.2537989616394043,0.09207463264465332,0.05224525928497314,-0.09502780437469482,1,0.7701858878135681,0.1333464086055756,0.3360626399517059,-0.5254467725753784,-0.6577942967414856,0.7197579145431519,0.2219351381063461,0,0,0,-1,64167.41103825,3,1,1561241707.073953,1561241546.732582,16,16.27515,0,0,14.2948,0,0,1561241691.513234,64166.440468,0,-1.638184,74.44522,2650659446,177292352,1,1,0.2,-38.00708,-41.36906,0
1561241708.522698,92,0,0,1561241706.976833,4.60309307605445,-74.06476465886884,2651.201,-1,-1,10,65,-9999,1561241708.496815,-28.03893280029297,-2.488308668136597,5.026611328125,250.4903106689453,258.0339965820312,15,64168.88836829167,-0.5721588134765625,0.761688232421875,0.1627044677734375,64168.87924329167,-0.001848500112623999,0.07080919232746281,-0.1917228310875674,64168.87246829167,10.6986083984375,-2.011764526367188,-528.476318359375,64168.86911129167,-2.207302558468377,-1.893340773999689,-0.7981174280263894,-0.0515974722802639,0.1059608981013298,-0.2273665815591812,0.09611016511917114,0.04996323585510254,-0.07260394096374512,1,0.7698585987091064,0.1339885294437408,0.3387865424156189,-0.5240119695663452,-0.6620586514472961,0.71604323387146,0.2212703824043274,0,0,0,-1,64167.41103825,3,1,1561241707.073953,1561241546.732582,16,16.27515,0,0,14.2948,0,0,1561241691.513234,64166.440468,0,-1.638184,74.44522,2650659446,177292352,1,1,0.2,-38.00708,-41.50999,0
1561241708.545912,93,0,0,1561241706.976833,4.60309307605445,-74.06476465886884,2651.201,-1,-1,10,65,-9999,1561241708.524275,-27.95552825927734,-2.6446373462677,4.86376953125,250.6083831787109,258.1520690917969,15,64168.90863229167,-0.5687103271484375,0.761383056640625,0.197021484375,64168.89950729167,0.10166750619432,0.0748987424973885,-0.08633089410877164,64168.89261029167,10.44088745117188,-1.810440063476562,-528.2654418945312,64168.88937529167,-2.205647311416053,-1.890791681859417,-0.7944150809054433,0.05016058310866356,0.0452251173555851,-0.1461875736713409,0.09297364950180054,0.04823434352874756,-0.05770993232727051,1,0.7693842649459839,0.1351113170385361,0.340332567691803,-0.5234181880950928,-0.665132462978363,0.7134538888931274,0.2204144299030304,0,0,0,-1,64167.41103825,3,1,1561241707.073953,1561241546.732582,16,16.27515,0,0,14.2948,0,0,1561241691.513234,64166.440468,0,-1.638184,74.44522,2650659446,177292352,1,1,0.2,-120,-120,0
1561241708.56487,94,0,0,1561241706.976833,4.60309307605445,-74.06476465886884,2651.201,-1,-1,10,65,-9999,1561241708.524275,-27.95552825927734,-2.6446373462677,4.86376953125,250.6083831787109,258.1520690917969,15,64168.92889529167,-0.5758819580078125,0.7466583251953125,0.196380615234375,64168.91977129167,0.09985442612419401,0.1201245441291141,0.02472159176698755,64168.91272129167,10.49565124511719,-1.9693603515625,-528.5953979492188,64168.90963929167,-2.193589820640658,-1.874595935190423,-0.7744764950765959,0.1103016808629036,0.1124776601791382,-0.03743685036897659,0.1133442521095276,0.06204110383987427,-0.01680552959442139,1,0.7660436630249023,0.1417414844036102,0.3487793505191803,-0.5209983587265015,-0.6820545792579651,0.6993419528007507,0.2138270884752274,0,0,0,-1,64167.41103825,3,1,1561241707.073953,1561241546.732582,16,16.27515,0,0,14.2948,0,0,1561241691.513234,64166.440468,0,-1.638184,74.44522,2650659446,177292352,1,1,0.2,-120,-120,0
1561241708.583069,95,0,0,1561241706.976833,4.60309307605445,-74.06476465886884,2651.201,-1,-1,10,65,-9999,1561241708.573225,-28.31192398071289,-2.620998382568359,4.87225341796875,250.6243743896484,258.1680603027344,15,64168.94915929167,-0.581024169921875,0.744293212890625,0.2158050537109375,64168.94003429167,0.1033389060944537,0.04244918987920901,0.0959787277898017,64168.93286329167,10.69590759277344,-2.0279541015625,-528.3529052734375,64168.92990229167,-2.191073571352011,-1.870703835881702,-0.7754819000858746,0.09625883400440216,0.07401947677135468,0.07355464249849319,0.1063278913497925,0.04659807682037354,-0.01458251476287842,1,0.7651762962341309,0.1413746327161789,0.3493418097496033,-0.5219950079917908,-0.682209849357605,0.700060248374939,0.210963100194931,0,0,0,-1,64167.41103825,3,1,1561241707.073953,1561241546.732582,16,16.27515,0,0,14.2948,0,0,1561241691.513234,64166.440468,0,-1.638184,74.44522,2650659446,177292352,1,1,0.2,-120,-120,0
1561241708.603377,96,0,0,1561241706.976833,4.60309307605445,-74.06476465886884,2651.201,-1,-1,10,65,-9999,1561241708.597452,-28.01864242553711,-2.525717258453369,4.677001953125,250.5038299560547,258.0475158691406,15,64168.96939229167,-0.59130859375,0.743896484375,0.2162322998046875,64168.96026729167,0.09028302516644923,-0.08934372824997829,0.1006176880926107,64168.95300429167,10.41055297851562,-1.910140991210938,-528.5595703125,64168.95016629167,-2.186303064009995,-1.864801267343485,-0.8354923948030729,0.09623087197542191,-0.02749622240662575,0.09587353467941284,0.06100428104400635,0.002666294574737549,0.02141189575195312,1,0.7629808187484741,0.1227062866091728,0.3339378833770752,-0.5397117733955383,-0.6420284509658813,0.7416269183158875,0.194393128156662,0,0,0,-1,64167.41103825,3,1,1561241707.073953,1561241546.732582,16,16.27515,0,0,14.2948,0,0,1561241691.513234,64166.440468,0,-1.638184,74.44522,2650659446,177292352,1,1,0.2,-120,-120,0
1561241708.629257,97,0,0,1561241706.976833,4.60309307605445,-74.06476465886884,2651.201,-1,-1,10,65,-9999,1561241708.597452,-28.01864242553711,-2.525717258453369,4.677001953125,250.5038299560547,258.0475158691406,15,64168.98965629167,-0.607818603515625,0.7494659423828125,0.2218475341796875,64168.98053129167,0.08057979773474552,-0.1703389791147762,0.09315284755711861,64168.97314629167,10.69029235839844,-1.792816162109375,-528.703857421875,64168.97039929167,-2.181427567290116,-1.861170053175064,-0.8702232112068614,0.08432174474000931,-0.1421418488025665,0.09419494122266769,0.02635985612869263,-0.0205763578414917,0.03166067600250244,1,0.7613270878791809,0.1125471219420433,0.3243438303470612,-0.5500137805938721,-0.6176684498786926,0.7644728422164917,0.1845715790987015,0,0,0,-1,64167.41103825,3,1,1561241707.073953,1561241546.732582,16,16.27515,0,0,14.2948,0,0,1561241691.513234,64166.440468,0,-1.638184,74.44522,2650659446,177292352,1,1,0.2,-120,-120,0
1561241708.64524,98,0,0,1561241706.976833,4.60309307605445,-74.06476465886884,2651.201,-1,-1,10,65,-9999,1561241708.628175,-27.98296546936035,-2.392824411392212,4.59228515625,250.2483673095703,257.7920532226562,15,64169.00991929167,-0.6214447021484375,0.7535247802734375,0.2198944091796875,64169.00079529167,0.06379469233230312,-0.2266821467170376,0.06921129567341527,64168.99328729167,10.46835327148438,-1.835113525390625,-528.5532836914062,64168.99066329167,-2.187060381328329,-1.872864291136376,-0.882226018951172,0.06946051120758057,-0.2078798413276672,0.08408877998590469,-0.00115501880645752,-0.0226893424987793,0.03280901908874512,1,0.7631915807723999,0.1098083332180977,0.3180817365646362,-0.5516382455825806,-0.6066635847091675,0.7721552848815918,0.1890385150909424,0,0,0,-1,64167.41103825,3,1,1561241707.073953,1561241546.732582,16,16.27515,0,0,14.2948,0,0,1561241691.513234,64166.440468,0,-1.638184,74.44522,2650659446,177292352,1,1,0.2,-120,-120,0
1561241708.665663,99,0,0,1561241706.976833,4.60309307605445,-74.06476465886884,2651.201,-1,-1,10,65,-9999,1561241708.628175,-27.98296546936035,-2.392824411392212,4.59228515625,250.2483673095703,257.7920532226562,15,64169.03018329167,-0.6320953369140625,0.754058837890625,0.2140960693359375,64169.02105829167,0.03431669485843404,-0.220613867857183,0.04163612679840781,64169.01342929167,10.47532653808594,-1.848922729492188,-528.4896850585938,64169.01092729167,-2.19266041953638,-1.8853846627582,-0.8865911422090249,0.05110254138708115,-0.2420633882284164,0.0477994829416275,-0.02040624618530273,-0.02139687538146973,0.02432000637054443,1,0.7653393149375916,0.1097402572631836,0.31362184882164,-0.55122971534729,-0.6010384559631348,0.7749216556549072,0.1955743879079819,0,0,0,-1,64167.41103825,3,1,1561241707.073953,1561241546.732582,16,16.27515,0,0,14.2948,0,0,1561241691.513234,64166.440468,0,-1.638184,74.44522,2650659446,177292352,1,1,0.2,-120,-120,0
1561241708.684435,100,0,0,1561241706.976833,4.60309307605445,-74.06476465886884,2651.201,-1,-1,10,65,-9999,1561241708.677595,-28.14046669006348,-2.381833553314209,5.20867919921875,249.6899261474609,257.2336120605469,15,64169.05044729167,-0.627593994140625,0.7636566162109375,0.213104248046875,64169.04132229167,0.006420082439854019,-0.134807350167048,0.02841486356670944,64169.03354029167,10.69169616699219,-1.495712280273438,-528.0084838867188,64169.03119029167,-2.197815940149507,-1.896909899741552,-0.8861245082442372,0.01234742254018784,-0.1984485238790512,0.03512923046946526,-0.0330083966255188,-0.02056777477264404,0.01149189472198486,1,0.7674389481544495,0.1110834553837776,0.3107543289661407,-0.549663245677948,-0.5990869402885437,0.774626612663269,0.2026041448116302,0,0,0,-1,64167.41103825,3,1,1561241707.073953,1561241546.732582,16,16.27515,0,0,14.2948,0,0,1561241691.513234,64166.440468,0,-1.638184,74.44522,2650659446,177292352,1,1,0.2,-120,-120,0
1561241708.704652,101,0,0,1561241706.976833,4.60309307605445,-74.06476465886884,2651.201,-1,-1,10,65,-9999,1561241708.69888,-27.90123748779297,-1.941798567771912,5.25714111328125,249.5880889892578,257.1317749023438,15,64169.07071029167,-0.6326141357421875,0.7696990966796875,0.1946258544921875,64169.06158629167,0.01240553698980711,-0.06353316991325733,0.0577176250408513,64169.05368229167,10.43678283691406,-1.377243041992188,-527.9832763671875,64169.05145429167,-2.201312783955789,-1.904294020416387,-0.883667244684061,-0.001045881072059274,-0.0989118218421936,0.03521152213215828,-0.02822279930114746,-0.009413719177246094,0.00545954704284668,1,0.7688679695129395,0.1125362440943718,0.3095602989196777,-0.5480419397354126,-0.5993711352348328,0.7730702757835388,0.2076447159051895,0,0,0,-1,64167.41103825,3,1,1561241707.073953,1561241546.732582,16,16.27515,0,0,14.2948,0,0,1561241691.513234,64166.440468,0,-1.638184,74.44522,2650659446,177292352,1,1,0.2,-120,-120,0
1561241708.725332,102,0,0,1561241706.976833,4.60309307605445,-74.06476465886884,2651.201,-1,-1,10,65,-9999,1561241708.69888,-27.90123748779297,-1.941798567771912,5.25714111328125,249.5880889892578,257.1317749023438,15,64169.09097429167,-0.62969970703125,0.7615966796875,0.205413818359375,64169.08184929167,0.05590294707407131,-0.01977636793881941,0.09484422116542794,64169.07382329167,10.47325134277344,-1.530471801757812,-527.9426879882812,64169.07171829167,-2.204029831970904,-1.909143009827988,-0.8807247878801121,0.03106625005602837,-0.04472634568810463,0.07510300725698471,-0.03211349248886108,-0.001501381397247314,-0.01667690277099609,1,0.7698801159858704,0.1137365996837616,0.309253603219986,-0.5465444326400757,-0.6005005836486816,0.7712004780769348,0.2113028168678284,0,0,0,-1,64167.41103825,3,1,1561241707.073953,1561241546.732582,16,16.27515,0,0,14.2948,0,0,1561241691.513234,64166.440468,0,-1.638184,74.44522,2650659446,177292352,1,1,0.2,-120,-120,0
1561241708.745664,103,0,0,1561241706.976833,4.60309307605445,-74.06476465886884,2651.201,-1,-1,10,65,-9999,1561241708.725042,-27.95695495605469,-2.12711501121521,5.232421875,249.5153961181641,257.05908203125,15,64169.11123829167,-0.63067626953125,0.7500457763671875,0.2188720703125,64169.10211329167,0.04253307945354651,0.002213885814182871,0.1072015549395046,64169.09393429167,10.6444091796875,-1.50909423828125,-528.115478515625,64169.09198129167,-2.203760845958264,-1.909620360295902,-0.8782185691707246,0.05023275315761566,-0.0168403834104538,0.104370079934597,-0.02747917175292969,-0.008005976676940918,-0.006817340850830078,1,0.7700309157371521,0.1147517263889313,0.309689462184906,-0.5458725094795227,-0.6022205352783203,0.7696025967597961,0.2122311443090439,0,0,0,-1,64167.41103825,3,1,1561241707.073953,1561241546.732582,16,16.27515,0,0,14.2948,0,0,1561241691.513234,64166.440468,0,-1.638184,74.44522,2650659446,177292352,1,1,0.2,-120,-120,0
1561241708.766151,104,0,0,1561241706.976833,4.60309307605445,-74.06476465886884,2651.201,-1,-1,10,65,-9999,1561241708.749494,-27.86493301391602,-2.364335060119629,5.100341796875,249.4901885986328,257.0338745117188,15,64169.13150229167,-0.6279144287109375,0.7404632568359375,0.2188873291015625,64169.12237729167,-0.01574380941622143,0.04515576049505654,0.09737821894263833,64169.11407629167,10.66879272460938,-1.608840942382812,-528.1436157226562,64169.11224529167,-2.202774593395228,-1.908409773615063,-0.8759448537376359,0.01598450168967247,0.01365360990166664,0.1012472584843636,-0.02654993534088135,-0.01810300350189209,0.006791114807128906,1,0.769868791103363,0.1155098229646683,0.3105149865150452,-0.5454720854759216,-0.6041263341903687,0.7681487798690796,0.2120809555053711,0,0,0,-1,64167.41103825,3,1,1561241707.073953,1561241546.732582,16,16.27515,0,0,14.2948,0,0,1561241691.513234,64166.440468,0,-1.638184,74.44522,2650659446,177292352,1,1,0.2,-120,-120,0
1561241708.787811,105,0,0,1561241706.976833,4.60309307605445,-74.06476465886884,2651.201,-1,-1,10,65,-9999,1561241708.775642,-27.85937881469727,-2.201149463653564,5.23876953125,249.6004486083984,257.1441345214844,15,64169.15176529167,-0.6324920654296875,0.7364654541015625,0.2077484130859375,64169.14264029167,-0.09643652518118632,0.08379423317047116,0.09286149773386394,64169.13421829167,10.72563171386719,-1.422378540039062,-527.8840942382812,64169.13250929167,-2.20320727713352,-1.907374200841986,-0.8746622265313176,-0.06208180263638496,0.05944453179836273,0.0871061384677887,-0.02263915538787842,-0.026863694190979,0.007106781005859375,1,0.7697785496711731,0.1154609322547913,0.3113861382007599,-0.5451131463050842,-0.6052752733230591,0.7673269510269165,0.2117804884910583,0,0,0,-1,64167.41103825,3,1,1561241707.073953,1561241546.732582,16,16.27515,0,0,14.2948,0,0,1561241691.513234,64166.440468,0,-1.638184,74.44522,2650659446,177292352,1,1,0.2,-120,-120,0
1561241708.806996,106,0,0,1561241706.976833,4.60309307605445,-74.06476465886884,2651.201,-1,-1,10,65,-9999,1561241708.80023,-27.71732711791992,-2.088767051696777,5.33795166015625,249.8044891357422,257.3481750488281,15,64169.17202929167,-0.62335205078125,0.747100830078125,0.1961212158203125,64169.16290429167,-0.1113219977780752,0.07666122250680293,0.09395845378686758,64169.15435929167,10.67146301269531,-1.483963012695312,-528.003662109375,64169.15277229167,-2.203947437589694,-1.904831415633103,-0.8739787091775867,-0.1150872334837914,0.07832475006580353,0.09096186608076096,-0.02618503570556641,-0.03042298555374146,-0.00266420841217041,1,0.7694485187530518,0.1146963983774185,0.3127551078796387,-0.5449566841125488,-0.6063070297241211,0.766888439655304,0.2104125767946243,0,0,0,-1,64167.41103825,3,1,1561241707.073953,1561241546.732582,16,16.27515,0,0,14.2948,0,0,1561241691.513234,64166.440468,0,-1.638184,74.44522,2650659446,177292352,1,1,0.2,-120,-120,0
1561241708.826582,107,0,0,1561241706.976833,4.60309307605445,-74.06476465886884,2651.201,-1,-1,10,65,-9999,1561241708.80023,-27.71732711791992,-2.088767051696777,5.33795166015625,249.8044891357422,257.3481750488281,15,64169.19229329167,-0.615966796875,0.7530364990234375,0.1916656494140625,64169.18316829167,-0.05235295334099568,0.02393489398097814,0.06688742130621213,64169.17447029167,10.60400390625,-1.367507934570312,-528.1445922851562,64169.17303629167,-2.206366890287838,-1.904354146405794,-0.8731190303670717,-0.09440938383340836,0.04561500251293182,0.08507494628429413,-0.01632159948348999,-0.01923561096191406,-0.01421785354614258,1,0.7695423364639282,0.1139040216803551,0.3138350546360016,-0.5443693995475769,-0.60703045129776,0.7663364410400391,0.2103390693664551,0,0,0,-1,64167.41103825,3,1,1561241707.073953,1561241546.732582,16,16.27515,0,0,14.2948,0,0,1561241691.513234,64166.440468,0,-1.638184,74.44522,2650659446,177292352,1,1,0.2,-120,-120,0
1561241708.846405,108,0,0,1561241706.976833,4.60309307605445,-74.06476465886884,2651.201,-1,-1,10,65,-9999,1561241708.82639,-28.14342498779297,-2.059173583984375,5.2021484375,249.9089508056641,257.45263671875,15,64169.21255629167,-0.619781494140625,0.7530517578125,0.188201904296875,64169.20343129167,-0.01126570404325319,-0.007018494736794824,0.03261307070911035,64169.19461229167,10.51911926269531,-1.307403564453125,-528.0011596679688,64169.19330029167,-2.208194231086988,-1.90506308510479,-0.8714746169786903,-0.02568171918392181,-0.000197757501155138,0.03832901641726494,-0.007896304130554199,-0.01224243640899658,-0.0195167064666748,1,0.7698158621788025,0.1139067634940147,0.3145124018192291,-0.5435904860496521,-0.6080705523490906,0.7652789950370789,0.2111824303865433,0,0,0,-1,64167.41103825,3,1,1561241707.073953,1561241546.732582,16,16.27515,0,0,14.2948,0,0,1561241691.513234,64166.440468,0,-1.638184,74.44522,2650659446,177292352,1,1,0.2,-120,-120,0
1561241708.866992,109,0,0,1561241706.976833,4.60309307605445,-74.06476465886884,2651.201,-1,-1,10,65,-9999,1561241708.850943,-28.05236625671387,-2.001354932785034,5.0733642578125,249.9195709228516,257.4632568359375,15,64169.23278929167,-0.6226043701171875,0.7508697509765625,0.1933441162109375,64169.22369529167,0.00440353686244602,0.01091523204379877,0.04027178937196022,64169.21475329167,10.49314880371094,-1.540130615234375,-528.0477294921875,64169.21356329167,-2.209070846457014,-1.905988689188912,-0.8692517527599929,-0.009004738181829453,-0.0118996873497963,0.03694310784339905,-0.01030153036117554,-0.01079446077346802,-0.02410244941711426,1,0.7700900435447693,0.11451406031847,0.3150061368942261,-0.5427881479263306,-0.6094799041748047,0.763846218585968,0.2123042941093445,0,0,0,-1,64167.41103825,3,1,1561241707.073953,1561241546.732582,16,16.27515,0,0,14.2948,0,0,1561241691.513234,64166.440468,0,-1.638184,74.44522,2650659446,177292352,1,1,0.2,-120,-120,0
1561241708.887056,110,0,0,1561241706.976833,4.60309307605445,-74.06476465886884,2651.201,-1,-1,10,65,-9999,1561241708.877686,-28.2572021484375,-2.038762092590332,5.27825927734375,249.9321746826172,257.4758605957031,15,64169.25305329167,-0.624114990234375,0.7431182861328125,0.2007293701171875,64169.24392829167,0.0219537684460682,0.04176156168575055,0.03025590682828122,64169.23489529167,10.70297241210938,-1.34674072265625,-528.2505493164062,64169.23379629167,-2.208545585569873,-1.905092775545438,-0.8674222250904435,0.01949002034962177,0.02028168551623821,0.03060398437082767,-0.0116155743598938,-0.01179444789886475,-0.01887214183807373,1,0.7699825167655945,0.1150437071919441,0.3157117962837219,-0.5424184799194336,-0.6109887957572937,0.7626641988754272,0.2122162580490112,0,0,0,-1,64167.41103825,3,1,1561241707.073953,1561241546.732582,16,16.27515,0,0,14.2948,0,0,1561241691.513234,64166.440468,0,-1.638184,74.44522,2650659446,177292352,1,1,0.2,-120,-120,0
1561241708.90718,111,0,0,1561241706.976833,4.60309307605445,-74.06476465886884,2651.201,-1,-1,10,65,-9999,1561241708.901456,-28.11471366882324,-2.001931190490723,5.0313720703125,250.0504913330078,257.5941772460938,15,64169.27331729167,-0.6231842041015625,0.7436370849609375,0.20123291015625,64169.26419229167,-0.05540360436968145,0.1130991251734851,0.07877151135458173,64169.25503729167,10.52336120605469,-1.380935668945312,-528.2049560546875,64169.25406029167,-2.207136308164395,-1.90253969431163,-0.8666227363851352,-0.0130628626793623,0.06316816061735153,0.04316958039999008,-0.01201003789901733,-0.01902854442596436,-0.0101248025894165,1,0.7695252895355225,0.1151430979371071,0.316532164812088,-0.5425681471824646,-0.6121049523353577,0.7621468305587769,0.2108542025089264,0,0,0,-1,64167.41103825,3,1,1561241707.073953,1561241546.732582,16,16.27515,0,0,14.2948,0,0,1561241691.513234,64166.440468,0,-1.638184,74.44522,2650659446,177292352,1,1,0.2,-120,-120,0
1561241709.025326,112,0,0,1561241706.976833,4.60309307605445,-74.06476465886884,2651.201,-1,-1,10,65,-9999,1561241708.901456,-28.11471366882324,-2.001931190490723,5.0313720703125,250.0504913330078,257.5941772460938,15,64169.29358029167,-0.6219329833984375,0.7478485107421875,0.1965484619140625,64169.28445629167,-0.08319875035072945,0.1508907126222545,0.1127656974050072,64169.27517829167,10.17962646484375,-1.356475830078125,-528.2998046875,64169.27432429167,-2.20795141882811,-1.900201780773252,-0.8672021752733903,-0.08197162300348282,0.1354737877845764,0.1056433394551277,-0.01100581884384155,-0.01888477802276611,-0.008046865463256836,1,0.7691817879676819,0.1140142232179642,0.3174932301044464,-0.5427321195602417,-0.6121783852577209,0.7625218629837036,0.2092797309160233,0,0,0,-1,64167.41103825,3,1,1561241707.073953,1561241546.732582,16,16.27515,0,0,14.2948,0,0,1561241691.513234,64166.440468,0,-1.638184,74.44522,2650659446,177292352,1,1,0.2,-120,-120,0
1561241709.149745,113,0,0,1561241706.976833,4.60309307605445,-74.06476465886884,2651.201,-1,-1,10,65,-9999,1561241709.111923,-28.10189056396484,-1.659285664558411,4.91259765625,250.5273590087891,258.071044921875,15,64169.31384429167,-0.627777099609375,0.752593994140625,0.19683837890625,64169.30471929167,-0.0409330522706269,0.1071048821919347,0.09884082701330986,64169.29532029167,10.42927551269531,-1.27581787109375,-528.1632080078125,64169.29458729167,-2.209929228820337,-1.898083154664479,-0.8683950940935089,-0.06627894937992096,0.121681272983551,0.09787383675575256,-0.01017439365386963,-0.01544457674026489,-0.01114130020141602,1,0.7689163088798523,0.1123056709766388,0.3185164332389832,-0.542864978313446,-0.6117585897445679,0.7632930874824524,0.2076897025108337,0,0,0,-1,64167.41103825,3,1,1561241707.073953,1561241546.732582,16,16.27515,0,0,14.2948,0,0,1561241691.513234,64166.440468,0,-1.638184,74.44522,2650659446,177292352,1,1,0.2,-120,-120,0
1561241709.151602,114,0,0,1561241706.976833,4.60309307605445,-74.06476465886884,2651.201,-1,-1,10,65,-9999,1561241709.111923,-28.10189056396484,-1.659285664558411,4.91259765625,250.5273590087891,258.071044921875,15,64169.33410829167,-0.62213134765625,0.7524566650390625,0.189849853515625,64169.32498329167,-0.01744263987558298,0.1026139936457341,0.08628056036416915,64169.31543129167,10.62503051757812,-1.465560913085938,-528.3847045898438,64169.31485129167,-2.210936067089962,-1.896002360979832,-0.8692552181073081,-0.0255229938775301,0.1047931089997292,0.09365858137607574,-0.01621019840240479,-0.01125448942184448,-0.009368062019348145,1,0.7686113715171814,0.1110844910144806,0.319352924823761,-0.5430564880371094,-0.6115669012069702,0.7638484835624695,0.2062064111232758,0,0,0,-1,64167.41103825,3,1,1561241707.073953,1561241546.732582,16,16.27515,0,0,14.2948,0,0,1561241691.513234,64166.440468,0,-1.638184,74.44522,2650659446,177292352,1,1,0.2,-120,-120,0
1561241709.153788,115,0,0,1561241706.976833,4.60309307605445,-74.06476465886884,2651.201,-1,-1,10,65,-9999,1561241709.111923,-28.10189056396484,-1.659285664558411,4.91259765625,250.5273590087891,258.071044921875,15,64169.35437129167,-0.6283111572265625,0.75360107421875,0.19342041015625,64169.34524729167,0.003765443465263035,0.05121791408440391,0.08444910448252164,64169.33557329167,10.50146484375,-1.350418090820312,-528.415771484375,64169.33511529167,-2.21165938041953,-1.894360271200269,-0.8696074771482022,-0.007845730520784855,0.06452717632055283,0.08036008477210999,-0.01048171520233154,-0.01161909103393555,-0.01526641845703125,1,0.768376886844635,0.1102503389120102,0.3200834691524506,-0.5431282520294189,-0.6116496324539185,0.764075756072998,0.2051163613796234,0,0,0,-1,64167.41103825,3,1,1561241707.073953,1561241546.732582,16,16.27515,0,0,14.2948,0,0,1561241691.513234,64166.440468,0,-1.638184,74.44522,2650659446,177292352,1,1,0.2,-120,-120,0
1561241709.158881,116,0,0,1561241706.976833,4.60309307605445,-74.06476465886884,2651.201,-1,-1,10,65,-9999,1561241709.154546,-28.17228698730469,-1.60871696472168,4.97796630859375,250.6751861572266,258.2188720703125,15,64169.37463529167,-0.6298675537109375,0.748809814453125,0.1983489990234375,64169.36551029167,0.04653767478469865,0.01576191891163397,0.07837123824274281,64169.35571429167,10.38676452636719,-1.157135009765625,-528.4833984375,64169.35537829167,-2.211987141850402,-1.893490678165255,-0.8700336047251775,0.01839572750031948,0.02577578835189342,0.08411860466003418,-0.01679199934005737,-0.01074951887130737,-0.01106071472167969,1,0.7682411670684814,0.1097547560930252,0.320389449596405,-0.5432403087615967,-0.6115191578865051,0.7643505930900574,0.2044811993837357,0,0,0,-1,64167.41103825,3,1,1561241707.073953,1561241546.732582,16,16.27515,0,0,14.2948,0,0,1561241691.513234,64166.440468,0,-1.638184,74.44522,2650659446,177292352,1,1,0.2,-120,-120,0
1561241709.16123,117,0,0,1561241706.976833,4.60309307605445,-74.06476465886884,2651.201,-1,-1,10,65,-9999,1561241709.154546,-28.17228698730469,-1.60871696472168,4.97796630859375,250.6751861572266,258.2188720703125,15,64169.39489929167,-0.6331939697265625,0.74615478515625,0.1952667236328125,64169.38577429167,0.05476204886308136,-0.02043203819919692,0.05244350081805838,64169.37585629167,10.0970458984375,-1.041946411132812,-528.4568481445312,64169.37564229167,-2.210939707163062,-1.892219104059199,-0.870787067352201,0.05703499913215637,-0.008106280118227005,0.0612548403441906,-0.01863563060760498,-0.01602637767791748,-0.005172371864318848,1,0.767954409122467,0.1095751598477364,0.3203858137130737,-0.5436838865280151,-0.6112319231033325,0.7648362517356873,0.2035213857889175,0,0,0,-1,64167.41103825,3,1,1561241707.073953,1561241546.732582,16,16.27515,0,0,14.2948,0,0,1561241691.513234,64166.440468,0,-1.638184,74.44522,2650659446,177292352,1,1,0.2,-120,-120,0
1561241709.163134,118,0,0,1561241706.976833,4.60309307605445,-74.06476465886884,2651.201,-1,-1,10,65,-9999,1561241709.154546,-28.17228698730469,-1.60871696472168,4.97796630859375,250.6751861572266,258.2188720703125,15,64169.41516229167,-0.6339263916015625,0.75054931640625,0.2032623291015625,64169.40603829167,0.04128512216673538,-0.01155998334370695,0.036096751731043,64169.39596729167,10.48086547851562,-0.9849395751953125,-528.3985595703125,64169.39590629167,-2.209243057113681,-1.891080252273184,-0.8711149440697559,0.0427015982568264,-0.0323740690946579,0.03854526579380035,-0.0219687819480896,-0.01889264583587646,-0.007479429244995117,1,0.7676678895950317,0.1098138988018036,0.3202713131904602,-0.5441076159477234,-0.6112251877784729,0.7650474309921265,0.2027461677789688,0,0,0,-1,64167.41103825,3,1,1561241707.073953,1561241546.732582,16,16.27515,0,0,14.2948,0,0,1561241691.513234,64166.440468,0,-1.638184,74.44522,2650659446,177292352,1,1,0.2,-120,-120,0
1561241709.164635,119,0,0,1561241706.976833,4.60309307605445,-74.06476465886884,2651.201,-1,-1,10,65,-9999,1561241709.154546,-28.17228698730469,-1.60871696472168,4.97796630859375,250.6751861572266,258.2188720703125,15,64169.43542629167,-0.62823486328125,0.748199462890625,0.19903564453125,64169.42630129167,0.0349742293315746,0.006683202755553848,0.03350016966821574,64169.41610829167,10.39315795898438,-0.9821319580078125,-528.2540283203125,64169.41616929167,-2.207777361907122,-1.890012974353321,-0.8714326852488419,0.03635608777403831,-0.008621069602668285,0.02874163724482059,-0.02271580696105957,-0.01470267772674561,0.001244902610778809,1,0.7674058675765991,0.1099862158298492,0.3201945126056671,-0.5444875955581665,-0.6112105846405029,0.7652519941329956,0.2020174711942673,0,0,0,-1,64167.41103825,3,1,1561241707.073953,1561241546.732582,16,16.27515,0,0,14.2948,0,0,1561241691.513234,64166.440468,0,-1.638184,74.44522,2650659446,177292352,1,1,0.2,-120,-120,0
1561241709.166074,120,0,0,1561241706.976833,4.60309307605445,-74.06476465886884,2651.201,-1,-1,10,65,-9999,1561241709.154546,-28.17228698730469,-1.60871696472168,4.97796630859375,250.6751861572266,258.2188720703125,15,64169.45569029167,-0.618896484375,0.74993896484375,0.2030181884765625,64169.44656529167,0.02170955657410793,0.04915210002682945,0.0205319067400749,64169.43625029167,10.33523559570312,-1.148208618164062,-528.3427734375,64169.45669729167,-2.205676045969448,-1.887091441573477,-0.8714128436907916,0.01011542696505785,0.04744725674390793,0.01321460958570242,-0.0102577805519104,-0.01850461959838867,5.125999450683594e-05,1,0.7668228149414062,0.1100026816129684,0.3207482099533081,-0.5449795722961426,-0.6118125319480896,0.7652392387390137,0.2002356350421906,0,0,0,-1,64167.41103825,3,1,1561241707.073953,1561241546.732582,16,16.27515,0,0,14.2948,0,0,1561241691.513234,64166.440468,0,-1.638184,74.44522,2650659446,177292352,1,1,0.2,-120,-120,0
1561241709.167451,121,0,0,1561241706.976833,4.60309307605445,-74.06476465886884,2651.201,-1,-1,10,65,-9999,1561241709.154546,-28.17228698730469,-1.60871696472168,4.97796630859375,250.6751861572266,258.2188720703125,15,64169.47595329167,-0.6134033203125,0.746856689453125,0.2026214599609375,64169.46682929167,-0.0001030643341860665,0.05874400732496784,0.01328065172400715,64169.45639229167,10.48251342773438,-1.04296875,-528.5164794921875,64169.45669729167,-2.205676045969448,-1.887091441573477,-0.8714128436907916,0.01011542696505785,0.04744725674390793,0.01321460958570242,-0.0102577805519104,-0.01850461959838867,5.125999450683594e-05,1,0.7668228149414062,0.1100026816129684,0.3207482099533081,-0.5449795722961426,-0.6118125319480896,0.7652392387390137,0.2002356350421906,0,0,0,-1,64167.41103825,3,1,1561241707.073953,1561241546.732582,16,16.27515,0,0,14.2948,0,0,1561241691.513234,64166.440468,0,-1.638184,74.44522,2650659446,177292352,1,1,0.2,-120,-120,0
1561241709.168856,122,0,0,1561241706.976833,4.60309307605445,-74.06476465886884,2651.201,-1,-1,10,65,-9999,1561241709.154546,-28.17228698730469,-1.60871696472168,4.97796630859375,250.6751861572266,258.2188720703125,15,64169.49621729167,-0.6165313720703125,0.7490692138671875,0.197540283203125,64169.48709229167,-0.02922712769918361,0.0553514064123159,0.02796052828474192,64169.47650329167,10.31747436523438,-1.094253540039062,-528.30029296875,64169.47696029167,-2.205291264486226,-1.885410262748935,-0.8700976084192771,-0.01478166691958904,0.05799257755279541,0.0138745391741395,-0.0002982616424560547,-0.01753520965576172,0.003103256225585938,1,0.7665740251541138,0.1101060137152672,0.3216510415077209,-0.5447766780853271,-0.6131050586700439,0.7643918991088867,0.1995181441307068,0,0,0,-1,64167.41103825,3,1,1561241707.073953,1561241546.732582,16,16.27515,0,0,14.2948,0,0,1561241691.513234,64166.440468,0,-1.638184,74.44522,2650659446,177292352,1,1,0.2,-120,-120,0
1561241709.170193,123,0,0,1561241706.976833,4.60309307605445,-74.06476465886884,2651.201,-1,-1,10,65,-9999,1561241709.154546,-28.17228698730469,-1.60871696472168,4.97796630859375,250.6751861572266,258.2188720703125,15,64169.51645029167,-0.6222076416015625,0.7574310302734375,0.195831298828125,64169.50732529167,-0.01576644628548711,0.04636510194606152,0.04178553013556126,64169.49664429167,10.24948120117188,-1.090118408203125,-528.6240234375,64169.49722429167,-2.206219247613163,-1.885057140528531,-0.8694258887544963,-0.03007273934781551,0.04087910428643227,0.0346946008503437,-0.002867996692657471,-0.01488935947418213,-0.001919865608215332,1,0.7665896415710449,0.1098654866218567,0.322224348783493,-0.5444642305374146,-0.613663375377655,0.7639586329460144,0.1994602084159851,0,0,0,-1,64167.41103825,3,1,1561241707.073953,1561241546.732582,16,16.27515,0,0,14.2948,0,0,1561241691.513234,64166.440468,0,-1.638184,74.44522,2650659446,177292352,1,1,0.2,-120,-120,0
