loggingTime,loggingSample,identifierForVendor,deviceID,locationTimestamp_since1970,locationLatitude,locationLongitude,locationAltitude,locationSpeed,locationCourse,locationVerticalAccuracy,locationHorizontalAccuracy,locationFloor,locationHeadingTimestamp_since1970,locationHeadingX,locationHeadingY,locationHeadingZ,locationTrueHeading,locationMagneticHeading,locationHeadingAccuracy,accelerometerTimestamp_sinceReboot,accelerometerAccelerationX,accelerometerAccelerationY,accelerometerAccelerationZ,gyroTimestamp_sinceReboot,gyroRotationX,gyroRotationY,gyroRotationZ,magnetometerTimestamp_sinceReboot,magnetometerX,magnetometerY,magnetometerZ,motionTimestamp_sinceReboot,motionYaw,motionRoll,motionPitch,motionRotationRateX,motionRotationRateY,motionRotationRateZ,motionUserAccelerationX,motionUserAccelerationY,motionUserAccelerationZ,motionAttitudeReferenceFrame,motionQuaternionX,motionQuaternionY,motionQuaternionZ,motionQuaternionW,motionGravityX,motionGravityY,motionGravityZ,motionMagneticFieldX,motionMagneticFieldY,motionMagneticFieldZ,motionMagneticFieldCalibrationAccuracy,activityTimestamp_sinceReboot,activity,activityActivityConfidence,activityActivityStartDate,pedometerStartDate,pedometerNumberofSteps,pedometerAverageActivePace,pedometerCurrentPace,pedometerCurrentCadence,pedometerDistance,pedometerFloorAscended,pedometerFloorDescended,pedometerEndDate,altimeterTimestamp_sinceReboot,altimeterReset,altimeterRelativeAltitude,altimeterPressure,IP_en0,IP_pdp_ip0,deviceOrientation,batteryState,batteryLevel,avAudioRecorderPeakPower,avAudioRecorderAveragePower,label
1561243448.130271,1,0,0,1561243447.98954,4.602364813913221,-74.06498475938483,2653.551,0.29,304.8046875,4,10,-9999,1561243448.112319,-1.269699096679688,-4.835762500762939,32.17196655273438,101.293830871582,108.837516784668,20,65548.00675450001,-0.839935302734375,0.562774658203125,0.4452056884765625,65548.00168850001,-6.304813371024338,13.33825696364999,1.099954772391067,65547.9902745,26.37342834472656,-8.5052490234375,-506.5546569824219,65548.00168850001,-1.089756752694406,-1.701931534793891,-0.0004357388616405888,-6.30595064163208,13.33284091949463,1.09734582901001,0.1118057370185852,0.5683203935623169,0.3010334968566895,1,-0.3898522555828094,-0.6429580450057983,-0.3415622115135193,0.5638752579689026,-0.9914138913154602,0.000435738853411749,0.1307596564292908,0,0,0,-1,65543.610563625,1,2,1561243443.731966,1561243107.271691,28,1.054203,0,0,24.53997,0,0,1561243350.380748,65545.339381,0,-2.801025,74.57407,2650634390,177292352,1,1,0.15,-18.63111,-22.32603,0
1561243448.139506,2,0,0,1561243447.98954,4.602364813913221,-74.06498475938483,2653.551,0.29,304.8046875,4,10,-9999,1561243448.112319,-1.269699096679688,-4.835762500762939,32.17196655273438,101.293830871582,108.837516784668,20,65548.0270175,-0.7308197021484375,0.6252593994140625,0.4433441162109375,65548.02195150001,-5.863493489936255,14.20329642681405,2.12666329374114,65548.01035550001,18.45579528808594,-11.92770385742188,-512.4241943359375,65548.02195150001,-1.214027082105742,-1.417132043224329,-0.03469870747162652,-5.864630699157715,14.19788074493408,2.124054193496704,0.2107207775115967,0.5845556855201721,0.611433744430542,1,-0.3819599449634552,-0.526898980140686,-0.4237774610519409,0.6299974322319031,-0.9876220226287842,0.03469174355268478,-0.1529681235551834,0,0,0,-1,65543.610563625,1,2,1561243443.731966,1561243107.271691,28,1.054203,0,0,24.53997,0,0,1561243350.380748,65545.339381,0,-2.801025,74.57407,2650634390,177292352,1,1,0.15,-18.63111,-22.32603,0
1561243448.159459,3,0,0,1561243447.98954,4.602364813913221,-74.06498475938483,2653.551,0.29,304.8046875,4,10,-9999,1561243448.142688,-21.96112823486328,-14.41648864746094,20.1014404296875,118.2366638183594,125.7803497314453,20,65548.04728150001,-0.5206756591796875,0.5450592041015625,0.4785003662109375,65548.04218450001,-3.462953639168565,9.445130903084202,1.182201975284312,65548.0304355,12.18161010742188,-13.27587890625,-520.3154296875,65548.04218450001,-1.298730061575627,-1.171516177241995,-0.09946260627012604,-3.464090824127197,9.439715385437012,1.179593086242676,0.2253965735435486,0.4863488972187042,0.8431937694549561,1,-0.3668657541275024,-0.4147198796272278,-0.4813651740550995,0.679488480091095,-0.9167875647544861,0.09929869323968887,-0.3868338763713837,0,0,0,-1,65543.610563625,1,2,1561243443.731966,1561243107.271691,28,1.054203,0,0,24.53997,0,0,1561243350.380748,65545.339381,0,-2.801025,74.57407,2650634390,177292352,1,1,0.15,-18.05168,-21.55696,0
1561243448.181182,4,0,0,1561243447.98954,4.602364813913221,-74.06498475938483,2653.551,0.29,304.8046875,4,10,-9999,1561243448.171728,-27.10755157470703,-15.43615531921387,12.5555419921875,121.9272155761719,129.4709014892578,20,65548.0675145,-0.3746490478515625,0.377410888671875,0.459747314453125,65548.0624485,2.307190994554342,-2.525951568608939,-1.551657253304933,65548.0505465,9.270217895507812,-13.62698364257812,-525.9986572265625,65548.0624485,-1.314863619772266,-1.099325634694074,-0.1005540075361403,2.306053638458252,-2.531367301940918,-1.554266095161438,0.4886959791183472,0.3627654016017914,0.9183944463729858,1,-0.3527488112449646,-0.3868034482002258,-0.4996335804462433,0.6901577115058899,-0.8864010572433472,0.1003846377134323,-0.4519027471542358,0,0,0,-1,65543.610563625,1,2,1561243443.731966,1561243107.271691,28,1.054203,0,0,24.53997,0,0,1561243350.380748,65545.339381,0,-2.801025,74.57407,2650634390,177292352,1,1,0.15,-17.24384,-22.23005,0
1561243448.199974,5,0,0,1561243447.98954,4.602364813913221,-74.06498475938483,2653.551,0.29,304.8046875,4,10,-9999,1561243448.192093,-28.77159881591797,-15.68916988372803,9.61474609375,118.285270690918,125.8289566040039,20,65548.0877785,-0.435760498046875,0.5041961669921875,0.377197265625,65548.08271250001,6.460107620509039,-10.64036292663394,-2.421807588916954,65548.0706275,10.4114990234375,-14.04751586914062,-523.4412841796875,65548.08271250001,-1.24487573883285,-1.240674564027919,-0.02205710224461845,6.458970546722412,-10.64577865600586,-2.424416542053223,0.6740137338638306,0.3721707761287689,0.8194864988327026,1,-0.3461837470531464,-0.4670301079750061,-0.4691537320613861,0.6647815704345703,-0.9457728266716003,0.02205531299114227,-0.3240793943405151,0,0,0,-1,65543.610563625,1,2,1561243443.731966,1561243107.271691,28,1.054203,0,0,24.53997,0,0,1561243350.380748,65545.339381,0,-2.801025,74.57407,2650634390,177292352,1,1,0.15,-17.24384,-22.50185,0
1561243448.220396,6,0,0,1561243447.98954,4.602364813913221,-74.06498475938483,2653.551,0.29,304.8046875,4,10,-9999,1561243448.218614,-21.18522071838379,-14.19936466217041,21.22003173828125,108.6822052001953,116.2258911132812,20,65548.1080415,-0.5431365966796875,0.713836669921875,0.3526458740234375,65548.1029765,7.741407684167961,-12.00726018352132,-1.308309843434507,65548.0907075,14.9022216796875,-13.10476684570312,-515.9313354492188,65548.1029765,-1.111160321474769,-1.479139837731249,0.0478106932413653,7.740270137786865,-12.01267623901367,-1.310918688774109,0.4965565800666809,0.6805592179298401,0.4522634744644165,1,-0.3403721749782562,-0.5817516446113586,-0.4032236337661743,0.6189688444137573,-0.9946644902229309,-0.04779247939586639,-0.09142361581325531,0,0,0,-1,65543.610563625,1,2,1561243443.731966,1561243107.271691,28,1.054203,0,0,24.53997,0,0,1561243350.380748,65545.339381,0,-2.801025,74.57407,2650634390,177292352,1,1,0.15,-17.24384,-17.24384,0
1561243448.240682,7,0,0,1561243447.98954,4.602364813913221,-74.06498475938483,2653.551,0.29,304.8046875,4,10,-9999,1561243448.218614,-21.18522071838379,-14.19936466217041,21.22003173828125,108.6822052001953,116.2258911132812,20,65548.12830550001,-0.4986114501953125,0.6607208251953125,0.3693695068359375,65548.1232395,7.879124005193703,-11.26472506523648,0.4463932029646837,65548.11078850001,21.61322021484375,-9.79449462890625,-509.1187133789062,65548.1232395,-0.9516899490192541,-1.726287163976494,0.05031756038285268,7.877986907958984,-11.27014064788818,0.4437842667102814,0.4587920904159546,0.7501559257507324,0.19907546043396,1,-0.3334514796733856,-0.6827478408813477,-0.3146800696849823,0.5688952803611755,-0.9866850972175598,-0.05029632896184921,0.154669001698494,0,0,0,-1,65543.610563625,1,2,1561243443.731966,1561243107.271691,28,1.054203,0,0,24.53997,0,0,1561243350.380748,65545.339381,0,-2.801025,74.57407,2650634390,177292352,1,1,0.15,-17.24384,-17.92479,0
1561243448.266411,8,0,0,1561243447.98954,4.602364813913221,-74.06498475938483,2653.551,0.29,304.8046875,4,10,-9999,1561243448.242892,-14.59204483032227,-10.29938983917236,27.32122802734375,97.43443298339844,104.9781188964844,20,65548.1485695,-0.49505615234375,0.5909576416015625,0.4662017822265625,65548.1435035,6.683241637705764,-8.58703643141086,1.221539794061981,65548.1308995,28.356689453125,-4.965972900390625,-504.7427062988281,65548.1435035,-0.812209785359906,-1.933847100919087,-0.006022411218075439,6.682104110717773,-8.592452049255371,1.218930840492249,0.437669575214386,0.6265612244606018,0.07435250282287598,1,-0.3267386853694916,-0.7555147409439087,-0.2220359146595001,0.5226274132728577,-0.9348008632659912,0.006022374611347914,0.355121374130249,0,0,0,-1,65543.610563625,1,2,1561243443.731966,1561243107.271691,28,1.054203,0,0,24.53997,0,0,1561243350.380748,65545.339381,0,-2.801025,74.57407,2650634390,177292352,1,1,0.15,-17.24384,-18.71342,0
1561243448.281032,9,0,0,1561243447.98954,4.602364813913221,-74.06498475938483,2653.551,0.29,304.8046875,4,10,-9999,1561243448.269067,-8.015384674072266,-5.363097190856934,30.9503173828125,89.25318145751953,96.79686737060547,20,65548.1688325,-0.5217437744140625,0.4687347412109375,0.3754425048828125,65548.16373650001,3.264481292614301,-4.147315731866151,1.704530689358752,65548.15098050001,33.82528686523438,-0.194671630859375,-503.1348876953125,65548.16373650001,-0.7281237494316743,-2.063639267089429,-0.0757087972816775,3.263344049453735,-4.152731418609619,1.701921820640564,0.3893471360206604,0.4464277029037476,-0.009252667427062988,1,-0.3235263228416443,-0.7944930791854858,-0.1522749215364456,0.4908398687839508,-0.8784676194190979,0.07563649117946625,0.471777081489563,0,0,0,-1,65548.1389565,1,2,1561243448.260359,1561243107.271691,28,1.054203,0,0,24.53997,0,0,1561243350.380748,65545.339381,0,-2.801025,74.57407,2650634390,177292352,1,1,0.15,-17.24384,-19.30987,0
1561243448.301307,10,0,0,1561243447.98954,4.602364813913221,-74.06498475938483,2653.551,0.29,304.8046875,4,10,-9999,1561243448.293287,-1.879314422607422,-0.2786256074905396,32.46035766601562,88.42638397216797,95.97006988525391,20,65548.18906650001,-0.6415557861328125,0.5598602294921875,0.3562469482421875,65548.1840005,-1.976245025896266,2.962729162141782,3.023804500685006,65548.1710605,36.55679321289062,1.868423461914062,-502.6393737792969,65548.1840005,-0.7402442477158822,-2.080081519222877,-0.1228603481749055,-1.977379322052002,2.957318305969238,3.021194934844971,0.2664905786514282,0.3899607062339783,-0.1633214950561523,1,-0.3403470516204834,-0.7912666797637939,-0.1333963125944138,0.4901696741580963,-0.8665119409561157,0.1225514933466911,0.4838781356811523,0,0,0,-1,65548.1389565,1,2,1561243448.260359,1561243107.271691,28,1.054203,0,0,24.53997,0,0,1561243350.380748,65545.339381,0,-2.801025,74.57407,2650634390,177292352,1,1,0.15,-17.24384,-19.30987,0
1561243448.321667,11,0,0,1561243447.98954,4.602364813913221,-74.06498475938483,2653.551,0.29,304.8046875,4,10,-9999,1561243448.293287,-1.879314422607422,-0.2786256074905396,32.46035766601562,88.42638397216797,95.97006988525391,20,65548.20932950001,-0.64324951171875,0.6686248779296875,0.4380645751953125,65548.20426350001,-5.996175371237311,9.447712038812705,4.313968363400039,65548.1911715,34.5765380859375,0.8959808349609375,-503.0623779296875,65548.20426350001,-0.8494252265564243,-1.965418698232382,-0.1535238195459719,-5.997309684753418,9.442300796508789,4.311358451843262,0.2499459981918335,0.4558126926422119,0.02850937843322754,1,-0.3805886507034302,-0.7383232116699219,-0.1697899550199509,0.5302853584289551,-0.912284255027771,0.1529214531183243,0.3799377679824829,0,0,0,-1,65548.1389565,1,2,1561243448.260359,1561243107.271691,28,1.054203,0,0,24.53997,0,0,1561243350.380748,65545.339381,0,-2.801025,74.57407,2650634390,177292352,1,1,0.15,-17.24384,-20.19011,0
1561243448.348167,12,0,0,1561243447.98954,4.602364813913221,-74.06498475938483,2653.551,0.29,304.8046875,4,10,-9999,1561243448.293287,-1.879314422607422,-0.2786256074905396,32.46035766601562,88.42638397216797,95.97006988525391,20,65548.2295935,-0.62884521484375,0.6707305908203125,0.5070037841796875,65548.2245275,-8.20697191855569,12.05529295694199,4.93475920298078,65548.2112525,27.96820068359375,-2.63873291015625,-504.4270935058594,65548.2245275,-1.020238000173245,-1.770248692342904,-0.2022635478096471,-8.20810604095459,12.04988193511963,4.932149410247803,0.3294869065284729,0.4885048568248749,0.2678816318511963,1,-0.4317836165428162,-0.6407883167266846,-0.2394031137228012,0.5879110097885132,-0.9601936936378479,0.2008872479200363,0.1940935105085373,0,0,0,-1,65548.1389565,1,2,1561243448.260359,1561243107.271691,28,1.054203,0,0,24.53997,0,0,1561243350.380748,65545.339381,0,-2.801025,74.57407,2650634390,177292352,1,1,0.15,-17.24384,-21.13617,0
1561243448.362034,13,0,0,1561243447.98954,4.602364813913221,-74.06498475938483,2653.551,0.29,304.8046875,4,10,-9999,1561243448.35667,-12.80615997314453,-5.624623775482178,29.19778442382812,109.1280212402344,116.6717071533203,20,65548.24985750001,-0.665008544921875,0.669403076171875,0.5596466064453125,65548.24479150001,-8.717967550611297,9.690629614483193,3.955326052037357,65548.2313635,19.51371765136719,-6.021514892578125,-509.27099609375,65548.24479150001,-1.208697022715513,-1.58636257463372,-0.2763489589839782,-8.719100952148438,9.685218811035156,3.952716588973999,0.3202331066131592,0.392911285161972,0.5395598411560059,1,-0.4805686473846436,-0.5258719325065613,-0.3140938282012939,0.6275807023048401,-0.9619414210319519,0.2728449702262878,0.01497502811253071,0,0,0,-1,65548.1389565,1,2,1561243448.260359,1561243107.271691,28,1.054203,0,0,24.53997,0,0,1561243350.380748,65545.339381,0,-2.801025,74.57407,2650634390,177292352,1,1,0.15,-17.24384,-22.06319,0
1561243448.38239,14,0,0,1561243447.98954,4.602364813913221,-74.06498475938483,2653.551,0.29,304.8046875,4,10,-9999,1561243448.35667,-12.80615997314453,-5.624623775482178,29.19778442382812,109.1280212402344,116.6717071533203,20,65548.2701205,-0.69677734375,0.77911376953125,0.5674285888671875,65548.2650245,-6.974409833374088,2.558603521469964,1.953148761342554,65548.2514445,13.74272155761719,-8.740203857421875,-514.8912963867188,65548.2650245,-1.377311155855496,-1.505996935100205,-0.3420683633663122,-6.975543975830078,2.553192615509033,1.950539112091064,0.2556222677230835,0.342465877532959,0.639752984046936,1,-0.5241170525550842,-0.441361665725708,-0.3670576214790344,0.6291024684906006,-0.940085768699646,0.3354363441467285,-0.06100239232182503,0,0,0,-1,65548.1389565,1,2,1561243448.260359,1561243107.271691,28,1.054203,0,0,24.53997,0,0,1561243350.380748,65545.339381,0,-2.801025,74.57407,2650634390,177292352,1,1,0.15,-17.24384,-22.81337,0
1561243448.402936,15,0,0,1561243447.98954,4.602364813913221,-74.06498475938483,2653.551,0.29,304.8046875,4,10,-9999,1561243448.394764,-25.16531372070312,-12.74417018890381,18.09503173828125,131.1185455322266,138.6622314453125,20,65548.29035350001,-0.7352142333984375,1.097305297851562,0.420989990234375,65548.2852885,-2.875145783372346,-7.207962669387421,0.9818371864594371,65548.2715245,12.37248229980469,-10.59495544433594,-517.685302734375,65548.2852885,-1.485920017526007,-1.593540294766293,-0.3728986829377369,-2.876279830932617,-7.213373184204102,0.979227602481842,0.2278178334236145,0.583467960357666,0.4667512178421021,1,-0.5707919597625732,-0.4298675060272217,-0.3670454621315002,0.5955569744110107,-0.9310343861579895,0.3643164336681366,0.02117906883358955,0,0,0,-1,65548.1389565,1,2,1561243448.260359,1561243107.271691,28,1.054203,0,0,24.53997,0,0,1561243350.380748,65545.339381,0,-2.801025,74.57407,2650634390,177292352,1,1,0.15,-16.42288,-16.42288,0
1561243448.42835,16,0,0,1561243447.98954,4.602364813913221,-74.06498475938483,2653.551,0.29,304.8046875,4,10,-9999,1561243448.424277,-21.58552551269531,-12.97430801391602,21.79754638671875,132.0856781005859,139.6293640136719,20,65548.3106175,-0.8705902099609375,1.219223022460938,0.256591796875,65548.3055515,1.651270130718257,-12.16994417239877,1.437981287439337,65548.29160550001,14.84609985351562,-11.24639892578125,-515.198974609375,65548.3055515,-1.50089265230874,-1.804896709801039,-0.3961346463841178,1.65013587474823,-12.17535495758057,1.43537163734436,0.08256047964096069,0.8241820335388184,0.1479799747467041,1,-0.6139580607414246,-0.4796432256698608,-0.3013911247253418,0.5496919751167297,-0.8973950743675232,0.3858552277088165,0.214004248380661,0,0,0,-1,65548.1389565,1,2,1561243448.260359,1561243107.271691,28,1.054203,0,0,24.53997,0,0,1561243350.380748,65545.339381,0,-2.801025,74.57407,2650634390,177292352,1,1,0.15,-16.42288,-16.42288,0
1561243448.443175,17,0,0,1561243447.98954,4.602364813913221,-74.06498475938483,2653.551,0.29,304.8046875,4,10,-9999,1561243448.424277,-21.58552551269531,-12.97430801391602,21.79754638671875,132.0856781005859,139.6293640136719,20,65548.33088150001,-1.04681396484375,1.052291870117188,0.1030426025390625,65548.32581550001,4.419025807345921,-11.9999215768215,2.042420850559209,65548.3117165,20.5799560546875,-9.742599487304688,-509.8336181640625,65548.32581550001,-1.447968110800114,-2.035753912272844,-0.4528861273547484,4.417891502380371,-12.00533294677734,2.039811372756958,-0.14106285572052,0.7165817618370056,-0.2543938159942627,1,-0.6376211047172546,-0.5431671142578125,-0.1958449482917786,0.509954571723938,-0.803730845451355,0.4375625252723694,0.4031823873519897,0,0,0,-1,65548.1389565,1,2,1561243448.260359,1561243107.271691,28,1.054203,0,0,24.53997,0,0,1561243350.380748,65545.339381,0,-2.801025,74.57407,2650634390,177292352,1,1,0.15,-12.90464,-17.32477,0
1561243448.463407,18,0,0,1561243447.98954,4.602364813913221,-74.06498475938483,2653.551,0.29,304.8046875,4,10,-9999,1561243448.445439,-15.28921699523926,-10.83373165130615,26.87008666992188,127.7479553222656,135.2916412353516,20,65548.3511445,-1.191665649414062,0.87310791015625,0.19677734375,65548.3460795,4.486892206668847,-7.511149178423056,2.308091409318898,65548.3317965,27.845458984375,-6.479080200195312,-505.3773193359375,65548.3460795,-1.382005882607264,-2.207385021808265,-0.5406533787490798,4.485757827758789,-7.516559600830078,2.305481910705566,-0.4420626759529114,0.4531381726264954,-0.3323630094528198,1,-0.641040563583374,-0.586431622505188,-0.09281715005636215,0.4863640069961548,-0.6894375681877136,0.5146963000297546,0.509670078754425,0,0,0,-1,65548.1389565,1,2,1561243448.260359,1561243107.271691,28,1.054203,0,0,24.53997,0,0,1561243350.380748,65545.339381,0,-2.801025,74.57407,2650634390,177292352,1,1,0.15,-12.90464,-17.32477,0
1561243448.485021,19,0,0,1561243447.98954,4.602364813913221,-74.06498475938483,2653.551,0.29,304.8046875,4,10,-9999,1561243448.474018,-8.899688720703125,-7.359467029571533,30.29177856445312,124.5274047851562,132.0710906982422,20,65548.37140850001,-1.202651977539062,0.78173828125,0.181304931640625,65548.3663425,0.4778912081253779,0.3914196991110501,3.174717583860417,65548.3518775,32.6859130859375,-3.076095581054688,-503.5755004882812,65548.3663425,-1.371613894414432,-2.279320562302127,-0.6177893862470143,0.4767569601535797,0.3860088288784027,3.172108173370361,-0.5906546711921692,0.2108654975891113,-0.3820908069610596,1,-0.6464357972145081,-0.5893548130989075,-0.03838777914643288,0.4830198287963867,-0.6189705729484558,0.5792346000671387,0.5304366946220398,0,0,0,-1,65548.1389565,1,2,1561243448.260359,1561243107.271691,28,1.054203,0,0,24.53997,0,0,1561243350.380748,65545.339381,0,-2.801025,74.57407,2650634390,177292352,1,1,0.15,-12.90464,-17.96953,0
1561243448.514763,20,0,0,1561243447.98954,4.602364813913221,-74.06498475938483,2653.551,0.29,304.8046875,4,10,-9999,1561243448.496605,-6.979476928710938,-4.712899208068848,31.09747314453125,129.8334197998047,137.3771057128906,20,65548.3916725,-1.199050903320312,0.809600830078125,0.273406982421875,65548.3865755,-4.173836022633378,7.753023860210669,4.159216866145497,65548.3719885,32.67173767089844,-2.238479614257812,-503.7059936523438,65548.3865755,-1.470715268301341,-2.250018211930409,-0.6483470376669915,-4.174970149993896,7.747612953186035,4.156607151031494,-0.5862561464309692,0.1994445323944092,-0.2940529584884644,1,-0.6756126880645752,-0.5421314239501953,-0.06105393916368484,0.4958966970443726,-0.6201800107955933,0.6038696765899658,0.5007179975509644,0,0,0,-1,65548.1389565,1,2,1561243448.260359,1561243107.271691,28,1.054203,0,0,24.53997,0,0,1561243350.380748,65545.339381,0,-2.801025,74.57407,2650634390,177292352,1,1,0.15,-12.90464,-19.57833,0
1561243448.524134,21,0,0,1561243447.98954,4.602364813913221,-74.06498475938483,2653.551,0.29,304.8046875,4,10,-9999,1561243448.523294,-12.78068351745605,-6.655662536621094,28.92422485351562,142.8613433837891,150.405029296875,20,65548.4119055,-1.169509887695312,0.8003692626953125,0.34375,65548.40683950001,-6.476655438258355,10.67427775048388,4.883137021042902,65548.3920695,27.45399475097656,-3.915695190429688,-505.1764221191406,65548.40683950001,-1.651993478805222,-2.166942675544747,-0.6565362734800527,-6.477789878845215,10.66886615753174,4.880527019500732,-0.5349687337875366,0.181752622127533,-0.1305583715438843,1,-0.7172775268554688,-0.4559401273727417,-0.1328013837337494,0.5098973512649536,-0.6554762125015259,0.6103768348693848,0.4447368979454041,0,0,0,-1,65548.1389565,1,2,1561243448.260359,1561243107.271691,28,1.054203,0,0,24.53997,0,0,1561243350.380748,65545.339381,0,-2.801025,74.57407,2650634390,177292352,1,1,0.15,-12.90464,-19.57833,0
1561243448.54454,22,0,0,1561243447.98954,4.602364813913221,-74.06498475938483,2653.551,0.29,304.8046875,4,10,-9999,1561243448.523294,-12.78068351745605,-6.655662536621094,28.92422485351562,142.8613433837891,150.405029296875,20,65548.43216950001,-1.11175537109375,0.7715911865234375,0.421661376953125,65548.4271035,-7.426013777327621,10.05557962288773,4.870793269390385,65548.4121495,20.51002502441406,-6.270660400390625,-509.236083984375,65548.4271035,-1.872937189699964,-2.087817442300476,-0.6672896916006635,-7.427148342132568,10.05016803741455,4.868183612823486,-0.4755682945251465,0.1794347763061523,0.007285714149475098,1,-0.7554290294647217,-0.3513700664043427,-0.2149321138858795,0.5095784664154053,-0.6828331351280212,0.6188592910766602,0.3882678747177124,0,0,0,-1,65548.1389565,1,2,1561243448.260359,1561243107.271691,28,1.054203,0,0,24.53997,0,0,1561243350.380748,65545.339381,0,-2.801025,74.57407,2650634390,177292352,1,1,0.15,-12.90464,-20.47154,0
1561243448.564914,23,0,0,1561243447.98954,4.602364813913221,-74.06498475938483,2653.551,0.29,304.8046875,4,10,-9999,1561243448.546716,-19.60726356506348,-8.807178497314453,24.21841430664062,158.9269866943359,166.4706726074219,20,65548.45243250001,-0.9375762939453125,0.7239990234375,0.369964599609375,65548.4473665,-6.802631682006234,5.382225127232548,3.269778320022468,65548.43226050001,14.63188171386719,-8.118408203125,-514.879150390625,65548.4473665,-2.091143467358098,-2.057931242853582,-0.6715518518981538,-6.803766250610352,5.376814365386963,3.267168760299683,-0.3472386598587036,0.1173155903816223,0.04228484630584717,1,-0.7850887179374695,-0.2585765719413757,-0.2797260880470276,0.4883924722671509,-0.6917933225631714,0.6222016215324402,0.3664522767066956,0,0,0,-1,65548.1389565,1,2,1561243448.260359,1561243107.271691,28,1.054203,0,0,24.53997,0,0,1561243350.380748,65545.339381,0,-2.801025,74.57407,2650634390,177292352,1,1,0.15,-12.90464,-21.40112,0
1561243448.592287,24,0,0,1561243447.98954,4.602364813913221,-74.06498475938483,2653.551,0.29,304.8046875,4,10,-9999,1561243448.577335,-24.51479911804199,-10.45924758911133,18.844482421875,172.219970703125,179.7636566162109,20,65548.4726965,-0.8592529296875,0.7296600341796875,0.312530517578125,65548.4676305,-2.685399816761945,-3.920727062103375,0.9891507594450126,65548.4523415,11.80784606933594,-9.407440185546875,-518.9591064453125,65548.4676305,-2.229474253561841,-2.128182236619039,-0.6592566258176422,-2.68653392791748,-3.926137924194336,0.986541211605072,-0.1945960521697998,0.1032145619392395,-0.08113241195678711,1,-0.8119072914123535,-0.2233113050460815,-0.2875968515872955,0.4563185274600983,-0.6708061099052429,0.6125293970108032,0.4181227684020996,0,0,0,-1,65548.1389565,1,2,1561243448.260359,1561243107.271691,28,1.054203,0,0,24.53997,0,0,1561243350.380748,65545.339381,0,-2.801025,74.57407,2650634390,177292352,1,1,0.15,-12.90464,-22.27019,0
1561243448.605263,25,0,0,1561243447.98954,4.602364813913221,-74.06498475938483,2653.551,0.29,304.8046875,4,10,-9999,1561243448.577335,-24.51479911804199,-10.45924758911133,18.844482421875,172.219970703125,179.7636566162109,20,65548.49296050001,-0.9462127685546875,0.741363525390625,0.13916015625,65548.48789450001,1.76239665247232,-9.376019742267772,-0.2461780837930717,65548.4724215,12.85902404785156,-9.531646728515625,-518.2684936523438,65548.48789450001,-2.240503744162749,-2.279447658281401,-0.6609096934385937,1.7612624168396,-9.381430625915527,-0.2487876266241074,-0.3021649122238159,0.16010582447052,-0.2734154462814331,1,-0.8326458930969238,-0.2521641254425049,-0.227429136633873,0.4374814033508301,-0.5993701219558716,0.6138352751731873,0.5137718319892883,0,0,0,-1,65548.1389565,1,2,1561243448.260359,1561243107.271691,28,1.054203,0,0,24.53997,0,0,1561243350.380748,65545.339381,0,-2.801025,74.57407,2650634390,177292352,1,1,0.15,-12.90464,-22.92181,0
1561243448.625572,26,0,0,1561243447.98954,4.602364813913221,-74.06498475938483,2653.551,0.29,304.8046875,4,10,-9999,1561243448.623747,-19.70872497558594,-10.91951179504395,22.85260009765625,170.6938934326172,178.2375793457031,20,65548.51322350001,-1.028717041015625,0.6083221435546875,-0.0248565673828125,65548.5081275,3.681836452317196,-9.453188563278346,-0.4229866801439773,65548.4925025,16.96661376953125,-9.103805541992188,-513.6487426757812,65548.5081275,-2.179926160314014,-2.439002744477939,-0.6977013957774938,3.680702209472656,-9.458600044250488,-0.4255962371826172,-0.4963375329971313,0.03982359170913696,-0.5440472364425659,1,-0.8367236852645874,-0.3038264513015747,-0.1382761299610138,0.4341228902339935,-0.4951938688755035,0.642457902431488,0.584834098815918,0,0,0,-1,65548.1389565,1,2,1561243448.260359,1561243107.271691,28,1.054203,0,0,24.53997,0,0,1561243350.380748,65545.339381,0,-2.801025,74.57407,2650634390,177292352,1,1,0.15,-12.90464,-22.92181,0
1561243448.668365,27,0,0,1561243447.98954,4.602364813913221,-74.06498475938483,2653.551,0.29,304.8046875,4,10,-9999,1561243448.648001,-14.98431777954102,-8.962084770202637,26.36587524414062,166.6323089599609,174.1759948730469,20,65548.53345650001,-1.021026611328125,0.490325927734375,0.0782470703125,65548.5283915,3.246314006606107,-5.696968157502472,-0.09879795011975957,65548.5126135,21.82075500488281,-7.529586791992188,-509.5305480957031,65548.5283915,-2.11498184387249,-2.554393563679037,-0.7528797363251588,3.245179891586304,-5.702378749847412,-0.1014074981212616,-0.6192397475242615,-0.1585354804992676,-0.6231160163879395,1,-0.8277046680450439,-0.3444567918777466,-0.06165647134184837,0.4386945068836212,-0.4042893052101135,0.6837430000305176,0.6074910163879395,0,0,0,-1,65548.1389565,1,2,1561243448.260359,1561243107.271691,28,1.054203,0,0,24.53997,0,0,1561243350.380748,65545.339381,0,-2.801025,74.57407,2650634390,177292352,1,1,0.15,-12.90464,-23.66975,0
1561243448.671974,28,0,0,1561243447.98954,4.602364813913221,-74.06498475938483,2653.551,0.29,304.8046875,4,10,-9999,1561243448.648001,-14.98431777954102,-8.962084770202637,26.36587524414062,166.6323089599609,174.1759948730469,20,65548.5537205,-1.0487060546875,0.4270477294921875,0.11187744140625,65548.5486545,0.5905599664667062,0.3386707337159596,1.074910671816071,65548.5326945,25.73353576660156,-5.597274780273438,-507.1516418457031,65548.5486545,-2.094223596075445,-2.598104073516174,-0.7923815725655443,0.5894256830215454,0.3332598507404327,1.072301030158997,-0.6676158905029297,-0.2650975584983826,-0.5034593343734741,1,-0.8213838934898376,-0.3547078371047974,-0.02853430807590485,0.4457539319992065,-0.3631000816822052,0.7120274901390076,0.6009783148765564,0,0,0,-1,65548.1389565,1,2,1561243448.260359,1561243107.271691,28,1.054203,0,0,24.53997,0,0,1561243350.380748,65545.339381,0,-2.801025,74.57407,2650634390,177292352,1,1,0.15,-12.90464,-23.66975,0
1561243448.686594,29,0,0,1561243447.98954,4.602364813913221,-74.06498475938483,2653.551,0.29,304.8046875,4,10,-9999,1561243448.675368,-12.08637809753418,-7.35621166229248,28.14208984375,168.0479736328125,175.5916595458984,20,65548.57398450001,-1.059066772460938,0.38623046875,0.1953582763671875,65548.56891850001,-2.361251034154078,6.680401110087085,2.368170192982213,65548.5527745,26.21881103515625,-4.951507568359375,-506.7471923828125,65548.56891850001,-2.151754182244818,-2.565907927648477,-0.7947259817097223,-2.362385272979736,6.674990177154541,2.36556077003479,-0.6757047772407532,-0.3065366744995117,-0.4314333200454712,1,-0.8302362561225891,-0.3232583999633789,-0.05411293730139732,0.450869619846344,-0.3813478350639343,0.7136716842651367,0.5875764489173889,0,0,0,-1,65548.1389565,1,2,1561243448.260359,1561243107.271691,28,1.054203,0,0,24.53997,0,0,1561243350.380748,65545.339381,0,-2.801025,74.57407,2650634390,177292352,1,1,0.15,-12.90464,-23.74038,0
1561243448.706641,30,0,0,1561243447.98954,4.602364813913221,-74.06498475938483,2653.551,0.29,304.8046875,4,10,-9999,1561243448.698594,-17.66495704650879,-7.916177272796631,24.85678100585938,175.9621276855469,183.5058135986328,20,65548.5942475,-1.06732177734375,0.4084625244140625,0.26434326171875,65548.5891825,-4.376098846367152,10.46774960794824,3.275616235448031,65548.57285550001,22.56031799316406,-5.435165405273438,-509.0020751953125,65548.5891825,-2.276000947801622,-2.473701853564717,-0.7715972452211459,-4.377233028411865,10.4623384475708,3.273006677627563,-0.6258583068847656,-0.3029938936233521,-0.3230332136154175,1,-0.8463386297225952,-0.2551480829715729,-0.1265756040811539,0.450098842382431,-0.443935364484787,0.6972810029983521,0.5627792477607727,0,0,0,-1,65548.1389565,1,2,1561243448.260359,1561243107.271691,28,1.054203,0,0,24.53997,0,0,1561243350.380748,65545.339381,0,-2.801025,74.57407,2650634390,177292352,1,1,0.15,-12.90464,-24.2858,0
1561243448.748002,31,0,0,1561243447.98954,4.602364813913221,-74.06498475938483,2653.551,0.29,304.8046875,4,10,-9999,1561243448.725114,-23.34551620483398,-8.663237571716309,19.9666748046875,187.1438751220703,194.6875610351562,20,65548.61451150001,-0.9907989501953125,0.3991241455078125,0.3068389892578125,65548.6094455,-4.800507654533232,9.372196508206855,3.172240577730534,65548.5929665,16.34013366699219,-6.439224243164062,-513.1624755859375,65548.6094455,-2.433907719654333,-2.371169152721378,-0.7443710875136461,-4.801641941070557,9.366785049438477,3.169631004333496,-0.5481533408164978,-0.2671700119972229,-0.2248533964157104,1,-0.8571376204490662,-0.1709485948085785,-0.2115710228681564,0.4374122023582458,-0.5122409462928772,0.6775093674659729,0.5278166532516479,0,0,0,-1,65548.1389565,1,2,1561243448.260359,1561243107.271691,28,1.054203,0,0,24.53997,0,0,1561243350.380748,65545.339381,0,-2.801025,74.57407,2650634390,177292352,1,1,0.15,-12.90464,-18.83732,0
1561243448.750712,32,0,0,1561243447.98954,4.602364813913221,-74.06498475938483,2653.551,0.29,304.8046875,4,10,-9999,1561243448.749377,-26.98217582702637,-9.166347503662109,15.47967529296875,192.4930725097656,200.0367584228516,20,65548.6347445,-0.8620452880859375,0.3244476318359375,0.2750244140625,65548.6296785,-1.742795254217119,0.4444315185057314,0.711314081877515,65548.6130465,11.75761413574219,-7.071624755859375,-518.8399047851562,65548.6296785,-2.544880629799283,-2.334703357564071,-0.723011519052455,-1.743929505348206,0.4390206336975098,0.7087045311927795,-0.3381669521331787,-0.297571063041687,-0.2462079524993896,1,-0.8630783557891846,-0.1201576814055443,-0.2553728222846985,0.4188587069511414,-0.5414717197418213,0.661645770072937,0.5186842083930969,0,0,0,-1,65548.1389565,1,2,1561243448.260359,1561243107.271691,28,1.054203,0,0,24.53997,0,0,1561243350.380748,65545.339381,0,-2.801025,74.57407,2650634390,177292352,1,1,0.15,-12.90464,-18.83732,0
1561243448.767318,33,0,0,1561243447.98954,4.602364813913221,-74.06498475938483,2653.551,0.29,304.8046875,4,10,-9999,1561243448.749377,-26.98217582702637,-9.166347503662109,15.47967529296875,192.4930725097656,200.0367584228516,20,65548.65500850001,-1.094070434570312,0.30767822265625,0.4337310791015625,65548.64994250001,4.190988910582361,-10.09126385096592,-2.267968756967982,65548.6331275,10.84738159179688,-7.427902221679688,-520.4764404296875,65548.64994250001,-2.504790607043904,-2.414000986645183,-0.7302271242609487,4.189854621887207,-10.09667491912842,-2.270578145980835,-0.4871103763580322,-0.3406229019165039,-0.1980599164962769,1,-0.8688457012176514,-0.152612492442131,-0.2112033516168594,0.420962780714035,-0.4954946041107178,0.6670388579368591,0.5563668608665466,0,0,0,-1,65548.1389565,1,2,1561243448.260359,1561243107.271691,28,1.054203,0,0,24.53997,0,0,1561243350.380748,65545.339381,0,-2.801025,74.57407,2650634390,177292352,1,1,0.15,-12.90464,-18.83732,0
1561243448.787661,34,0,0,1561243447.98954,4.602364813913221,-74.06498475938483,2653.551,0.29,304.8046875,4,10,-9999,1561243448.775632,-21.79302406311035,-8.535065650939941,21.75885009765625,184.0596160888672,191.6033020019531,20,65548.6752725,-1.156494140625,0.21844482421875,0.360565185546875,65548.6702065,6.775355586121642,-14.19723081111528,-3.897032385252722,65548.6532385,14.24589538574219,-6.958984375,-515.7073974609375,65548.6702065,-2.334716687749458,-2.554017091005864,-0.7850716602111727,6.774220943450928,-14.20264148712158,-3.899641752243042,-0.7613486051559448,-0.4443178772926331,-0.1590054035186768,1,-0.8568436503410339,-0.2453018873929977,-0.1023335605859756,0.4417848587036133,-0.3921090364456177,0.7068758606910706,0.5887081027030945,0,0,0,-1,65548.1389565,1,2,1561243448.260359,1561243107.271691,28,1.054203,0,0,24.53997,0,0,1561243350.380748,65545.339381,0,-2.801025,74.57407,2650634390,177292352,1,1,0.15,-12.90464,-19.8133,0
1561243448.827288,35,0,0,1561243447.98954,4.602364813913221,-74.06498475938483,2653.551,0.29,304.8046875,4,10,-9999,1561243448.799881,-13.74748992919922,-6.379938125610352,27.5291748046875,169.6798553466797,177.2235412597656,20,65548.69553550001,-1.234664916992188,0.21368408203125,0.304718017578125,65548.6904695,5.377151272723729,-11.77756999635304,-4.51808687778138,65548.6733195,21.85516357421875,-5.084335327148438,-509.164306640625,65548.6904695,-2.131163998405325,-2.678509202242886,-0.8528711582714883,5.376016616821289,-11.78298091888428,-4.520696640014648,-0.8933545351028442,-0.5550368428230286,-0.2696933746337891,1,-0.8213837146759033,-0.3458313345909119,0.01202509179711342,0.4534147083759308,-0.293855607509613,0.7531722187995911,0.5885410308837891,0,0,0,-1,65548.1389565,1,2,1561243448.260359,1561243107.271691,28,1.054203,0,0,24.53997,0,0,1561243350.380748,65546.27998399999,0,-2.528809,74.5715,2650634390,177292352,1,1,0.15,-12.90464,-21.29119,0
1561243448.83004,36,0,0,1561243447.98954,4.602364813913221,-74.06498475938483,2653.551,0.29,304.8046875,4,10,-9999,1561243448.826406,-6.510122299194336,-4.070155620574951,30.3623046875,157.0216522216797,164.5653381347656,20,65548.7157995,-1.273834228515625,0.2543792724609375,0.2049407958984375,65548.7107335,2.10402029920496,-5.032238888360951,-4.277514215450708,65548.6933995,30.02920532226562,-2.722305297851562,-505.1221923828125,65548.7107335,-1.952198149791853,-2.715523498198742,-0.8841755039229664,2.102886199951172,-5.037649631500244,-4.280123710632324,-1.000025272369385,-0.5277260541915894,-0.3139467239379883,1,-0.7824367880821228,-0.4200224280357361,0.07598331570625305,0.453431636095047,-0.2619986236095428,0.7733925580978394,0.5772523283958435,0,0,0,-1,65548.1389565,1,2,1561243448.260359,1561243107.271691,28,1.054203,0,0,24.53997,0,0,1561243350.380748,65546.27998399999,0,-2.528809,74.5715,2650634390,177292352,1,1,0.15,-12.90464,-21.29119,0
1561243448.848236,37,0,0,1561243447.98954,4.602364813913221,-74.06498475938483,2653.551,0.29,304.8046875,4,10,-9999,1561243448.826406,-6.510122299194336,-4.070155620574951,30.3623046875,157.0216522216797,164.5653381347656,20,65548.73606350001,-1.242019653320312,0.41424560546875,0.27325439453125,65548.73096650001,-1.075146627888652,3.305098227663535,-3.003396697251728,65548.71351050001,34.877685546875,-1.19622802734375,-504.052490234375,65548.73096650001,-1.842252628668516,-2.648806764890156,-0.8597485746187509,-1.076280951499939,3.299687385559082,-3.006006240844727,-0.9598995447158813,-0.4494357109069824,-0.3747363090515137,1,-0.7634657025337219,-0.4523370265960693,0.06794289499521255,0.4559552073478699,-0.3087466955184937,0.7576785087585449,0.5749773383140564,0,0,0,-1,65548.1389565,1,2,1561243448.260359,1561243107.271691,28,1.054203,0,0,24.53997,0,0,1561243350.380748,65546.27998399999,0,-2.528809,74.5715,2650634390,177292352,1,1,0.15,-12.90464,-22.01278,0
1561243448.868559,38,0,0,1561243447.98954,4.602364813913221,-74.06498475938483,2653.551,0.29,304.8046875,4,10,-9999,1561243448.851024,-3.43450927734375,-3.204588413238525,31.16421508789062,150.8227233886719,158.3664093017578,20,65548.75629650001,-1.2177734375,0.620758056640625,0.4034271240234375,65548.7512305,-2.651470079209899,9.933041189546566,-1.652882941074409,65548.7335915,33.64268493652344,-1.58502197265625,-504.201416015625,65548.7512305,-1.815026104135373,-2.490331605362236,-0.800686179020128,-2.652604103088379,9.927630424499512,-1.655492544174194,-0.7848101854324341,-0.1986841559410095,-0.2200644016265869,1,-0.764298677444458,-0.4389807283878326,-0.004793538246303797,0.4723562598228455,-0.4220379889011383,0.7178339958190918,0.5537130832672119,0,0,0,-1,65548.1389565,1,2,1561243448.260359,1561243107.271691,28,1.054203,0,0,24.53997,0,0,1561243350.380748,65546.27998399999,0,-2.528809,74.5715,2650634390,177292352,1,1,0.15,-12.90464,-22.89865,0
1561243448.901179,39,0,0,1561243447.98954,4.602364813913221,-74.06498475938483,2653.551,0.29,304.8046875,4,10,-9999,1561243448.876845,-12.56985282897949,-5.913891792297363,28.31118774414062,151.3904571533203,158.9341430664062,20,65548.77655950001,-1.293304443359375,0.7317657470703125,0.4113616943359375,65548.7714945,-3.03777863955687,13.10902377492477,-0.562221002991064,65548.7536715,28.01998901367188,-3.268447875976562,-505.5689697265625,65548.7714945,-1.849002917309782,-2.273461643534266,-0.7434889161414506,-3.038912773132324,13.10361289978027,-0.5648305416107178,-0.6777127981185913,0.02217543125152588,-0.07338666915893555,1,-0.7668153047561646,-0.3871070146560669,-0.1143418923020363,0.4990676045417786,-0.5617433786392212,0.6768602728843689,0.4757151007652283,0,0,0,-1,65548.1389565,1,2,1561243448.260359,1561243107.271691,28,1.054203,0,0,24.53997,0,0,1561243350.380748,65546.27998399999,0,-2.528809,74.5715,2650634390,177292352,1,1,0.15,-12.90464,-22.49372,0
1561243448.909077,40,0,0,1561243447.98954,4.602364813913221,-74.06498475938483,2653.551,0.29,304.8046875,4,10,-9999,1561243448.901122,-20.00390243530273,-7.540299415588379,23.68545532226562,155.5182800292969,163.0619659423828,20,65548.7968235,-1.329025268554688,0.72027587890625,0.5022430419921875,65548.7917575,-2.8962121865432,11.50862374945255,-0.4856311532014752,65548.77378250001,20.14126586914062,-5.063949584960938,-509.7277526855469,65548.7917575,-1.910467059165155,-2.055948189216783,-0.7026764855308306,-2.897346258163452,11.50321292877197,-0.4882406890392303,-0.6610808372497559,0.08586949110031128,0.1021497249603271,1,-0.7590327262878418,-0.3190704584121704,-0.2258216738700867,0.5206419229507446,-0.6750549674034119,0.6462624669075012,0.3558732867240906,0,0,0,-1,65548.1389565,1,2,1561243448.260359,1561243107.271691,28,1.054203,0,0,24.53997,0,0,1561243350.380748,65546.27998399999,0,-2.528809,74.5715,2650634390,177292352,1,1,0.15,-12.90464,-22.8687,0
1561243448.9293,41,0,0,1561243447.98954,4.602364813913221,-74.06498475938483,2653.551,0.29,304.8046875,4,10,-9999,1561243448.927576,-25.29807281494141,-9.17857551574707,18.4508056640625,157.4440002441406,164.9876861572266,20,65548.81708750001,-1.273696899414062,0.59942626953125,0.6019287109375,65548.81202150001,-0.2095087524276616,2.907627027607498,-2.425271828862929,65548.7938635,13.76445007324219,-6.79144287109375,-515.4050903320312,65548.81202150001,-1.941966951939889,-1.920634211082738,-0.662536267449912,-0.210643008351326,2.902216196060181,-2.427881240844727,-0.549605131149292,0.04650259017944336,0.2973181009292603,1,-0.7448201775550842,-0.2834769189357758,-0.2970322668552399,0.5259807109832764,-0.7406780123710632,0.6151185035705566,0.2702325284481049,0,0,0,-1,65548.1389565,1,2,1561243448.260359,1561243107.271691,28,1.054203,0,0,24.53997,0,0,1561243350.380748,65546.27998399999,0,-2.528809,74.5715,2650634390,177292352,1,1,0.15,-12.90464,-22.8687,0
1561243448.949591,42,0,0,1561243447.98954,4.602364813913221,-74.06498475938483,2653.551,0.29,304.8046875,4,10,-9999,1561243448.927576,-25.29807281494141,-9.17857551574707,18.4508056640625,157.4440002441406,164.9876861572266,20,65548.8373515,-1.228759765625,0.737640380859375,0.50994873046875,65548.8322855,4.578361670100926,-5.857807108376718,-5.435441477398947,65548.8139445,11.82075500488281,-8.394256591796875,-518.3658447265625,65548.8322855,-1.856188055007764,-1.907015825469204,-0.6016390414901596,4.577227115631104,-5.863217830657959,-5.438051223754883,-0.459391176700592,0.0812833309173584,0.3341659307479858,1,-0.7262340784072876,-0.3295130133628845,-0.297713577747345,0.5247588157653809,-0.778249204158783,0.5659945011138916,0.2719895243644714,0,0,0,-1,65548.1389565,1,2,1561243448.260359,1561243107.271691,28,1.054203,0,0,24.53997,0,0,1561243350.380748,65546.27998399999,0,-2.528809,74.5715,2650634390,177292352,1,1,0.15,-12.90464,-23.23993,0
1561243448.982917,43,0,0,1561243447.98954,4.602364813913221,-74.06498475938483,2653.551,0.29,304.8046875,4,10,-9999,1561243448.978274,-16.37807273864746,-10.92689609527588,25.72280883789062,134.635986328125,142.1796722412109,20,65548.8576145,-1.236785888671875,0.8042449951171875,0.2589111328125,65548.8525185,6.48509126732729,-8.883095256105006,-7.052794121106173,65548.8340245,14.26155090332031,-9.292724609375,-515.509765625,65548.8525185,-1.672268538354771,-1.969176122768831,-0.5226728132486634,6.483956813812256,-8.888505935668945,-7.055403709411621,-0.4195666313171387,0.2679988145828247,0.01121819019317627,1,-0.692990243434906,-0.4333946704864502,-0.2522921860218048,0.5179597139358521,-0.7986339926719666,0.4991978704929352,0.336132824420929,0,0,0,-1,65548.1389565,1,2,1561243448.260359,1561243107.271691,28,1.054203,0,0,24.53997,0,0,1561243350.380748,65546.27998399999,0,-2.528809,74.5715,2650634390,177292352,1,1,0.15,-12.90464,-24.53683,0
1561243448.990158,44,0,0,1561243447.98954,4.602364813913221,-74.06498475938483,2653.551,0.29,304.8046875,4,10,-9999,1561243448.978274,-16.37807273864746,-10.92689609527588,25.72280883789062,134.635986328125,142.1796722412109,20,65548.8778475,-1.33502197265625,0.771575927734375,0.201446533203125,65548.8727815,5.361546746632518,-6.478105263155794,-7.016988452882275,65548.85413550001,19.72372436523438,-9.287796020507812,-510.5897521972656,65548.8727815,-1.474280978715362,-2.040313851009984,-0.4444883407811692,5.360412120819092,-6.483515739440918,-7.019598007202148,-0.5036290884017944,0.3663754463195801,-0.1530286073684692,1,-0.6441211700439453,-0.5379159450531006,-0.2039779722690582,0.5041303038597107,-0.8051325082778931,0.429995983839035,0.4084912836551666,0,0,0,-1,65548.1389565,1,2,1561243448.260359,1561243107.271691,28,1.054203,0,0,24.53997,0,0,1561243350.380748,65546.27998399999,0,-2.528809,74.5715,2650634390,177292352,1,1,0.15,-12.90464,-24.53683,0
1561243449.010399,45,0,0,1561243447.98954,4.602364813913221,-74.06498475938483,2653.551,0.29,304.8046875,4,10,-9999,1561243449.003229,-11.73830795288086,-9.94404125213623,28.27896118164062,123.6932678222656,131.2369537353516,20,65548.89811150001,-1.327606201171875,0.8065643310546875,0.2778472900390625,65548.89304550001,1.460155299307555,0.127042371376704,-5.525782293161051,65548.8742165,25.54437255859375,-8.303329467773438,-507.1417846679688,65548.89304550001,-1.340493544395916,-2.055390298350265,-0.3635385017897607,1.459020972251892,0.1216314807534218,-5.52839183807373,-0.5094533562660217,0.4441447257995605,-0.2369933128356934,1,-0.596247673034668,-0.601822555065155,-0.1944530159235001,0.4944556951522827,-0.827033519744873,0.3555836975574493,0.4354033470153809,0,0,0,-1,65548.1389565,1,2,1561243448.260359,1561243107.271691,28,1.054203,0,0,24.53997,0,0,1561243350.380748,65546.27998399999,0,-2.528809,74.5715,2650634390,177292352,1,1,0.15,-12.90464,-24.91691,0
1561243449.03047,46,0,0,1561243447.98954,4.602364813913221,-74.06498475938483,2653.551,0.29,304.8046875,4,10,-9999,1561243449.029452,-10.900146484375,-10.54560565948486,28.5523681640625,121.6332397460938,129.1769256591797,20,65548.9183755,-1.2830810546875,0.872314453125,0.4067230224609375,65548.9133095,-2.476671370533677,6.867342768069634,-3.450641845449129,65548.8942965,27.899658203125,-8.072677612304688,-505.9942016601562,65548.9133095,-1.309546819669444,-1.971501356862224,-0.2766354718776854,-2.477805614471436,6.861932277679443,-3.453251361846924,-0.4319559335708618,0.5589717030525208,-0.01920390129089355,1,-0.5632432699203491,-0.6085849404335022,-0.2419155985116959,0.5038435459136963,-0.8857778310775757,0.2731205821037292,0.3752372264862061,0,0,0,-1,65548.1389565,1,2,1561243448.260359,1561243107.271691,28,1.054203,0,0,24.53997,0,0,1561243350.380748,65546.27998399999,0,-2.528809,74.5715,2650634390,177292352,1,1,0.15,-12.90464,-25.4235,0
1561243449.063703,47,0,0,1561243448.989525,4.602364688184673,-74.06499138108833,2653.258,0.81,292.8515625,4,10,-9999,1561243449.029452,-10.900146484375,-10.54560565948486,28.5523681640625,121.6332397460938,129.1769256591797,20,65548.93863850001,-1.155960083007812,0.864288330078125,0.4229278564453125,65548.9335725,-4.416496070626455,11.70283210878549,-1.59595654119342,65548.91440750001,25.76101684570312,-10.06788635253906,-507.6348876953125,65548.9335725,-1.365004291027877,-1.793050950445475,-0.2066778607007718,-4.417630195617676,11.69742107391357,-1.598566174507141,-0.2638612985610962,0.672155499458313,0.2242032289505005,1,-0.540055513381958,-0.5623247623443604,-0.3291552364826202,0.5327173471450806,-0.954644501209259,0.2052095979452133,0.2157381922006607,0,0,0,-1,65548.1389565,1,2,1561243448.260359,1561243107.271691,28,1.054203,0,0,24.53997,0,0,1561243350.380748,65546.27998399999,0,-2.528809,74.5715,2650634390,177292352,1,1,0.15,-12.90464,-25.77785,0
1561243449.07358,48,0,0,1561243448.989525,4.602364688184673,-74.06499138108833,2653.258,0.81,292.8515625,4,10,-9999,1561243449.066157,-14.41133880615234,-12.98672580718994,26.3714599609375,126.5544738769531,134.0981597900391,20,65548.95891341667,-1.0133056640625,0.8028106689453125,0.278106689453125,65548.95384741668,-3.855848196891301,12.99925147058501,-0.5677723622833342,65548.93449941667,20.09608459472656,-12.901123046875,-511.8729858398438,65548.95384741668,-1.451061638536768,-1.551882140115872,-0.1767392423468016,-3.856982231140137,12.99384021759033,-0.5703818798065186,-0.09133058786392212,0.666769802570343,0.3718746304512024,1,-0.5100448727607727,-0.4801510274410248,-0.4255116879940033,0.5729302763938904,-0.9842462539672852,0.1758205443620682,-0.01861843653023243,0,0,0,-1,65548.1389565,1,2,1561243448.260359,1561243107.271691,28,1.054203,0,0,24.53997,0,0,1561243350.380748,65546.27998399999,0,-2.528809,74.5715,2650634390,177292352,1,1,0.15,-12.90464,-26.53566,0
1561243449.091965,49,0,0,1561243448.989525,4.602364688184673,-74.06499138108833,2653.258,0.81,292.8515625,4,10,-9999,1561243449.066157,-14.41133880615234,-12.98672580718994,26.3714599609375,126.5544738769531,134.0981597900391,20,65548.97914641668,-0.8695068359375,0.8038482666015625,0.198333740234375,65548.97408041666,-1.143672425897481,10.59473765083871,-0.132927424753561,65548.95458041667,14.68547058105469,-14.89979553222656,-518.6087646484375,65548.97408041666,-1.505243855131035,-1.316569506951353,-0.1767408675820278,-1.144806742668152,10.58932685852051,-0.1355369687080383,-0.002038002014160156,0.6234027147293091,0.4786889553070068,1,-0.4674974381923676,-0.3970597982406616,-0.4992029666900635,0.6120343804359436,-0.9527807235717773,0.1758221536874771,-0.2475793212652206,0,0,0,-1,65548.1389565,1,2,1561243448.260359,1561243107.271691,28,1.054203,0,0,24.53997,0,0,1561243350.380748,65546.27998399999,0,-2.528809,74.5715,2650634390,177292352,1,1,0.15,-12.90464,-26.53566,0
1561243449.111607,50,0,0,1561243448.989525,4.602364688184673,-74.06499138108833,2653.258,0.81,292.8515625,4,10,-9999,1561243449.105036,-27.44646263122559,-18.11707305908203,8.55377197265625,132.2267608642578,139.7704467773438,20,65548.99941041667,-0.6352081298828125,0.8005828857421875,0.2169036865234375,65548.99434441667,2.455610560001112,4.109492452800409,-0.2376431851315857,65548.97466041667,11.15963745117188,-15.86990356445312,-525.1461181640625,65548.99434441667,-1.494281545394921,-1.16034841302333,-0.1696299134724246,2.454476356506348,4.104081630706787,-0.2402527332305908,0.146777868270874,0.6303005218505859,0.5776650309562683,1,-0.4231453835964203,-0.3525640964508057,-0.5322372317314148,0.6429386734962463,-0.9037816524505615,0.1688175797462463,-0.3932930827140808,0,0,0,-1,65548.1389565,1,2,1561243448.260359,1561243107.271691,28,1.054203,0,0,24.53997,0,0,1561243350.380748,65546.27998399999,0,-2.528809,74.5715,2650634390,177292352,1,1,0.15,-12.90464,-25.51782,0
1561243449.14235,51,0,0,1561243448.989525,4.602364688184673,-74.06499138108833,2653.258,0.81,292.8515625,4,10,-9999,1561243449.130289,-28.27002716064453,-17.85070610046387,7.39459228515625,126.6911163330078,134.2348022460938,20,65549.01967441668,-0.386810302734375,0.6549224853515625,0.3746337890625,65549.01460841668,6.168681098214975,-4.690247991713989,-1.055569464399371,65548.99474141667,10.06900024414062,-15.77041625976562,-528.1300659179688,65549.01460841668,-1.418369863620024,-1.155400854251717,-0.1209178310925146,6.16754674911499,-4.695658683776855,-1.058179020881653,0.4166226387023926,0.6165287494659424,0.6933755874633789,1,-0.3933910727500916,-0.3807109892368317,-0.5194991230964661,0.6560665369033813,-0.9082761406898499,0.1206233873963356,-0.4006052017211914,0,0,0,-1,65548.1389565,1,2,1561243448.260359,1561243107.271691,28,1.054203,0,0,24.53997,0,0,1561243350.380748,65546.27998399999,0,-2.528809,74.5715,2650634390,177292352,1,1,0.15,-12.90464,-22.24108,0
1561243449.152109,52,0,0,1561243448.989525,4.602364688184673,-74.06499138108833,2653.258,0.81,292.8515625,4,10,-9999,1561243449.130289,-28.27002716064453,-17.85070610046387,7.39459228515625,126.6911163330078,134.2348022460938,20,65549.03993741667,-0.2479400634765625,0.611968994140625,0.474395751953125,65549.03487141668,8.25649393165793,-10.26580210248753,-1.624507758607942,65549.01485241667,10.59542846679688,-15.55448913574219,-525.5631713867188,65549.03487141668,-1.287242881052614,-1.304655501631705,-0.04402601900773755,8.255359649658203,-10.27121353149414,-1.627117395401001,0.6605286598205566,0.5788977146148682,0.6932514309883118,1,-0.3781850337982178,-0.4749720692634583,-0.4660763442516327,0.6435451507568359,-0.9638581275939941,0.04401179775595665,-0.2627552151679993,0,0,0,-1,65548.1389565,1,2,1561243448.260359,1561243107.271691,28,1.054203,0,0,24.53997,0,0,1561243350.380748,65546.27998399999,0,-2.528809,74.5715,2650634390,177292352,1,1,0.15,-12.90464,-22.24108,0
1561243449.172709,53,0,0,1561243448.989525,4.602364688184673,-74.06499138108833,2653.258,0.81,292.8515625,4,10,-9999,1561243449.156756,-26.76825332641602,-17.27831268310547,11.8572998046875,116.4839859008789,124.0276718139648,20,65549.06020141667,-0.2566986083984375,0.545379638671875,0.530609130859375,65549.05513541667,8.604956309753785,-11.51169810261494,-1.557173458870814,65549.03493241667,13.73507690429688,-13.9903564453125,-518.3145141601562,65549.05513541667,-1.121201866098855,-1.528786311754251,0.01580385769888188,8.603822708129883,-11.51710891723633,-1.559783101081848,0.761688232421875,0.5886029005050659,0.5578768253326416,1,-0.3631437718868256,-0.5891777276992798,-0.3883987367153168,0.6083934307098389,-0.9989928603172302,-0.01580319926142693,-0.04199241101741791,0,0,0,-1,65548.1389565,1,2,1561243448.260359,1561243107.271691,28,1.054203,0,0,24.53997,0,0,1561243350.380748,65546.27998399999,0,-2.528809,74.5715,2650634390,177292352,1,1,0.15,-12.90464,-22.52135,0
1561243449.192799,54,0,0,1561243448.989525,4.602364688184673,-74.06499138108833,2653.258,0.81,292.8515625,4,10,-9999,1561243449.18072,-16.31517028808594,-11.56599998474121,25.69287109375,104.3389205932617,111.8826065063477,20,65549.08046541667,-0.309814453125,0.540985107421875,0.4514923095703125,65549.07536841667,7.26086263601632,-10.33999563992827,-0.9480573848767629,65549.05501341667,19.45692443847656,-10.77433776855469,-511.0172119140625,65549.07536841667,-0.9574962487015595,-1.757458548555713,0.03005677916778361,7.259727954864502,-10.3454065322876,-0.9506669044494629,0.7004776000976562,0.5690537691116333,0.315190315246582,1,-0.3461301624774933,-0.6877078413963318,-0.304202675819397,0.5609925389289856,-0.9821853637695312,-0.03005225397646427,0.1854963302612305,0,0,0,-1,65548.1389565,1,2,1561243448.260359,1561243107.271691,28,1.054203,0,0,24.53997,0,0,1561243350.380748,65546.27998399999,0,-2.528809,74.5715,2650634390,177292352,1,1,0.15,-12.90464,-22.75986,0
1561243449.225521,55,0,0,1561243448.989525,4.602364688184673,-74.06499138108833,2653.258,0.81,292.8515625,4,10,-9999,1561243449.205333,-9.745136260986328,-7.385149955749512,29.759765625,95.02257537841797,102.5662612915039,20,65549.10069841667,-0.467041015625,0.516082763671875,0.3661651611328125,65549.09563241668,4.005465652196389,-5.894755805340477,0.09055227075265625,65549.07509341667,26.60789489746094,-6.751861572265625,-506.0325317382812,65549.09563241668,-0.8411748644743618,-1.932005703314799,0.007397068669036568,4.004331111907959,-5.900166511535645,0.08794271945953369,0.5590100884437561,0.5269740223884583,0.05878961086273193,1,-0.333950936794281,-0.7517811059951782,-0.234930083155632,0.5177931189537048,-0.9354444146156311,-0.007397001143544912,0.3533961176872253,0,0,0,-1,65548.1389565,1,2,1561243448.260359,1561243107.271691,28,1.054203,0,0,24.53997,0,0,1561243350.380748,65546.27998399999,0,-2.528809,74.5715,2650634390,177292352,1,1,0.15,-12.90464,-19.23307,0
1561243449.233729,56,0,0,1561243448.989525,4.602364688184673,-74.06499138108833,2653.258,0.81,292.8515625,4,10,-9999,1561243449.231413,-5.906070709228516,-4.566780567169189,31.53451538085938,93.98875427246094,101.5324401855469,20,65549.12096141667,-0.5363922119140625,0.5950469970703125,0.31982421875,65549.11589541667,-1.755166170112755,2.395186630660522,1.419693093917654,65549.09517441667,31.90998840332031,-2.961685180664062,-503.7361450195312,65549.11589541667,-0.8231494972642879,-1.970894349187696,-0.01606087082049584,-1.756300449371338,2.38977575302124,1.417083501815796,0.3873955011367798,0.5256573557853699,-0.04720377922058105,1,-0.3375073969364166,-0.7621141076087952,-0.2148838639259338,0.509014368057251,-0.9209038615226746,0.01606018096208572,0.3894582986831665,0,0,0,-1,65549.11153141667,1,2,1561243449.232934,1561243107.271691,28,1.054203,0,0,24.53997,0,0,1561243350.380748,65546.27998399999,0,-2.528809,74.5715,2650634390,177292352,1,1,0.15,-12.90464,-19.6821,0
1561243449.256411,57,0,0,1561243448.989525,4.602364688184673,-74.06499138108833,2653.258,0.81,292.8515625,4,10,-9999,1561243449.231413,-5.906070709228516,-4.566780567169189,31.53451538085938,93.98875427246094,101.5324401855469,20,65549.14122541666,-0.559295654296875,0.655242919921875,0.386474609375,65549.13615941667,-6.648953438670993,8.857717461445423,2.766398796052269,65549.11528541667,32.212158203125,-2.54541015625,-503.6316528320312,65549.13615941667,-0.9227235653670884,-1.851671668107228,-0.02600096229341773,-6.650087833404541,8.852306365966797,2.763789176940918,0.4155969619750977,0.6176177263259888,0.04233968257904053,1,-0.3627122342586517,-0.7120332717895508,-0.2582950592041016,0.5428923368453979,-0.9604883790016174,0.02599803358316422,0.2771030962467194,0,0,0,-1,65549.11153141667,1,2,1561243449.232934,1561243107.271691,28,1.054203,0,0,24.53997,0,0,1561243350.380748,65546.27998399999,0,-2.528809,74.5715,2650634390,177292352,1,1,0.15,-12.90464,-20.41855,0
1561243449.273792,58,0,0,1561243448.989525,4.602364688184673,-74.06499138108833,2653.258,0.81,292.8515625,4,10,-9999,1561243449.255839,-7.116447448730469,-5.41615104675293,31.02926635742188,102.8006057739258,110.3442916870117,20,65549.16148941667,-0.5800933837890625,0.7027740478515625,0.5229644775390625,65549.15642341667,-8.272872904994136,9.729691796088039,3.680112321827479,65549.13536641667,27.65351867675781,-5.4818115234375,-505.5154418945312,65549.15642341667,-1.088131100722829,-1.660955277715386,-0.0632556017229033,-8.274006843566895,9.72428035736084,3.677502870559692,0.4231458902359009,0.6207159757614136,0.3699363470077515,1,-0.4001931250095367,-0.6203014254570007,-0.3289966583251953,0.5889251828193665,-0.9939466714859009,0.06321342289447784,0.08985678851604462,0,0,0,-1,65549.11153141667,1,2,1561243449.232934,1561243107.271691,28,1.054203,0,0,24.53997,0,0,1561243350.380748,65546.27998399999,0,-2.528809,74.5715,2650634390,177292352,1,1,0.15,-12.90464,-20.41855,0
1561243449.307341,59,0,0,1561243448.989525,4.602364688184673,-74.06499138108833,2653.258,0.81,292.8515625,4,10,-9999,1561243449.282036,-19.04332542419434,-12.16390705108643,23.62155151367188,114.9166488647461,122.460334777832,20,65549.18175241667,-0.522125244140625,0.79986572265625,0.5834808349609375,65549.17668641667,-6.576683768801731,4.314651197903536,3.01502246067436,65549.15544641667,20.76210021972656,-9.320358276367188,-509.7960205078125,65549.17668641667,-1.246791419409845,-1.521897569301125,-0.1316251181241634,-6.577817916870117,4.309240341186523,3.012413024902344,0.4257575273513794,0.6146194934844971,0.6240026950836182,1,-0.4403864741325378,-0.5308780670166016,-0.3850375115871429,0.6131674647331238,-0.9901649355888367,0.1312453746795654,-0.04845646396279335,0,0,0,-1,65549.11153141667,1,2,1561243449.232934,1561243107.271691,28,1.054203,0,0,24.53997,0,0,1561243350.380748,65546.27998399999,0,-2.528809,74.5715,2650634390,177292352,1,1,0.15,-12.90464,-22.42935,0
1561243449.314285,60,0,0,1561243448.989525,4.602364688184673,-74.06499138108833,2653.258,0.81,292.8515625,4,10,-9999,1561243449.30879,-22.12210655212402,-14.10423374176025,20.27490234375,122.0458526611328,129.5895385742188,20,65549.20201641668,-0.557464599609375,0.8222198486328125,0.5912628173828125,65549.19692041667,-0.6714649361705504,-6.113086012562917,1.384549221224641,65549.17552741666,16.02607727050781,-11.73443603515625,-514.595703125,65549.19692041667,-1.322797128763648,-1.552217940443386,-0.1799441984790534,-0.672606885433197,-6.118508815765381,1.381941318511963,0.4561570882797241,0.6227984428405762,0.5954563617706299,1,-0.4791268706321716,-0.5111739039421082,-0.386893630027771,0.5995432138442993,-0.9836839437484741,0.1789746731519699,-0.01827736385166645,0,0,0,-1,65549.11153141667,1,2,1561243449.232934,1561243107.271691,28,1.054203,0,0,24.53997,0,0,1561243350.380748,65546.27998399999,0,-2.528809,74.5715,2650634390,177292352,1,1,0.15,-12.90464,-22.42935,0
1561243449.334464,61,0,0,1561243448.989525,4.602364688184673,-74.06499138108833,2653.258,0.81,292.8515625,4,10,-9999,1561243449.332737,-20.48155975341797,-13.8984489440918,22.06024169921875,118.8466033935547,126.3902893066406,20,65549.22224941666,-0.7188873291015625,0.838531494140625,0.48565673828125,65549.21718341667,4.534328432005338,-11.77107720961543,0.9824915251392695,65549.19560741667,16.35765075683594,-12.48507690429688,-514.4982299804688,65549.21718341667,-1.278930352517702,-1.735970254788181,-0.2054667131471893,4.533186435699463,-11.77649974822998,0.9798834919929504,0.3335772156715393,0.641129732131958,0.4031672477722168,1,-0.506138026714325,-0.5694795846939087,-0.320905864238739,0.5626160502433777,-0.9656420350074768,0.204024076461792,0.1609653979539871,0,0,0,-1,65549.11153141667,1,2,1561243449.232934,1561243107.271691,28,1.054203,0,0,24.53997,0,0,1561243350.380748,65546.27998399999,0,-2.528809,74.5715,2650634390,177292352,1,1,0.15,-12.90464,-22.66259,0
1561243449.356303,62,0,0,1561243448.989525,4.602364688184673,-74.06499138108833,2653.258,0.81,292.8515625,4,10,-9999,1561243449.332737,-20.48155975341797,-13.8984489440918,22.06024169921875,118.8466033935547,126.3902893066406,20,65549.24251341667,-0.8051300048828125,0.806732177734375,0.28753662109375,65549.23744741667,6.137025700233858,-11.70321240818915,1.581006087465933,65549.21571841667,20.96543884277344,-10.83113098144531,-509.8513793945312,65549.23744741667,-1.175014071722326,-1.95749810751889,-0.2616665687707141,6.135883808135986,-11.7086353302002,1.578398108482361,0.1253293752670288,0.5679847002029419,-0.001810312271118164,1,-0.5166143178939819,-0.644405722618103,-0.2165785878896713,0.5205234289169312,-0.8946317434310913,0.258690744638443,0.3642981648445129,0,0,0,-1,65549.11153141667,1,2,1561243449.232934,1561243107.271691,28,1.054203,0,0,24.53997,0,0,1561243350.380748,65546.27998399999,0,-2.528809,74.5715,2650634390,177292352,1,1,0.15,-12.90464,-23.20692,0
1561243449.385188,63,0,0,1561243448.989525,4.602364688184673,-74.06499138108833,2653.258,0.81,292.8515625,4,10,-9999,1561243449.357663,-14.91049575805664,-11.56521415710449,26.9288330078125,111.3401184082031,118.8838043212891,20,65549.26277741668,-0.890960693359375,0.7786407470703125,0.329315185546875,65549.25771141666,5.309179412221637,-7.849209249301061,1.955309650251044,65549.23579941667,28.35635375976562,-6.986831665039062,-505.3333129882812,65549.25771141666,-1.081897960972533,-2.132313718821631,-0.3481485566250074,5.308037281036377,-7.854632377624512,1.952701687812805,-0.04841941595077515,0.458097368478775,-0.2079236507415771,1,-0.5157312750816345,-0.6959053874015808,-0.1152504310011864,0.4862656593322754,-0.7956662774085999,0.3411580324172974,0.5005261301994324,0,0,0,-1,65549.11153141667,1,2,1561243449.232934,1561243107.271691,28,1.054203,0,0,24.53997,0,0,1561243350.380748,65546.27998399999,0,-2.528809,74.5715,2650634390,177292352,1,1,0.15,-13.46192,-16.90364,0
1561243449.395317,64,0,0,1561243448.989525,4.602364688184673,-74.06499138108833,2653.258,0.81,292.8515625,4,10,-9999,1561243449.357663,-14.91049575805664,-11.56521415710449,26.9288330078125,111.3401184082031,118.8838043212891,20,65549.28304041667,-0.978851318359375,0.81390380859375,0.370635986328125,65549.27797441668,2.570358980837683,-1.658221513795582,2.462588308373229,65549.25588041668,34.39569091796875,-2.508270263671875,-503.0971069335938,65549.27797441668,-1.036019596403582,-2.215863154955628,-0.4312421534875783,2.569216966629028,-1.663644433021545,2.459980249404907,-0.2059203386306763,0.3605191111564636,-0.2110462188720703,1,-0.5157912373542786,-0.7120829820632935,-0.04964686930179596,0.4737429618835449,-0.7259034514427185,0.4179995656013489,0.5462055206298828,0,0,0,-1,65549.11153141667,1,2,1561243449.232934,1561243107.271691,28,1.054203,0,0,24.53997,0,0,1561243350.380748,65546.27998399999,0,-2.528809,74.5715,2650634390,177292352,1,1,0.15,-14.0192,-17.75217,0
1561243449.415435,65,0,0,1561243448.989525,4.602364688184673,-74.06499138108833,2653.258,0.81,292.8515625,4,10,-9999,1561243449.406867,-2.485687255859375,-3.588486909866333,32.115478515625,106.2367935180664,113.7804794311523,20,65549.30330441667,-0.982208251953125,0.8287200927734375,0.344146728515625,65549.29823841667,-1.275901569813223,4.802155085983554,3.119415445928267,65549.27599141667,37.67156982421875,0.2851715087890625,-502.5746154785156,65549.29823841667,-1.062412989734303,-2.192201431243425,-0.4844670519814233,-1.277043581008911,4.796731948852539,3.116807460784912,-0.2704628705978394,0.3784251809120178,-0.1363987922668457,1,-0.5319377779960632,-0.6889366507530212,-0.04082964360713959,0.4906540811061859,-0.7194968461990356,0.4657368063926697,0.5151830315589905,0,0,0,-1,65549.11153141667,1,2,1561243449.232934,1561243107.271691,28,1.054203,0,0,24.53997,0,0,1561243350.380748,65546.27998399999,0,-2.528809,74.5715,2650634390,177292352,1,1,0.15,-14.0192,-17.75217,0
1561243449.435771,66,0,0,1561243448.989525,4.602364688184673,-74.06499138108833,2653.258,0.81,292.8515625,4,10,-9999,1561243449.434456,-3.478252410888672,-1.6463862657547,32.10382080078125,113.8270263671875,121.3707122802734,20,65549.32353741667,-0.973846435546875,0.8393096923828125,0.4322052001953125,65549.31847141667,-3.851004439500665,8.340477249265797,3.820210840448297,65549.29607141667,36.31401062011719,0.760223388671875,-502.6788024902344,65549.31847141667,-1.158331543397006,-2.09938018338514,-0.513875041226999,-3.85214638710022,8.335054397583008,3.817602634429932,-0.22943514585495,0.331091582775116,-0.05183291435241699,1,-0.564975917339325,-0.632764458656311,-0.07908698171377182,0.5235996246337891,-0.7519949674606323,0.4915554821491241,0.4391773045063019,0,0,0,-1,65549.11153141667,1,2,1561243449.232934,1561243107.271691,28,1.054203,0,0,24.53997,0,0,1561243350.380748,65546.27998399999,0,-2.528809,74.5715,2650634390,177292352,1,1,0.15,-14.57648,-18.81394,0
1561243449.462644,67,0,0,1561243448.989525,4.602364688184673,-74.06499138108833,2653.258,0.81,292.8515625,4,10,-9999,1561243449.45827,-14.21219825744629,-5.369994163513184,28.34991455078125,124.6470184326172,132.1907043457031,20,65549.34380141667,-0.9257659912109375,0.8357086181640625,0.485137939453125,65549.33873541668,-5.294927771964186,8.101197551644358,4.570226245602952,65549.31615241666,31.31623840332031,-0.716552734375,-503.7710876464844,65549.33873541668,-1.300173411564424,-2.000385610315927,-0.546457080495098,-5.296069622039795,8.09577465057373,4.567618370056152,-0.1597680449485779,0.3184865117073059,0.09209370613098145,1,-0.6064961552619934,-0.5568519234657288,-0.134023055434227,0.55146723985672,-0.7767401337623596,0.5196635127067566,0.3558433055877686,0,0,0,-1,65549.11153141667,1,2,1561243449.232934,1561243107.271691,28,1.054203,0,0,24.53997,0,0,1561243350.380748,65546.27998399999,0,-2.528809,74.5715,2650634390,177292352,1,1,0.15,-15.13375,-19.74982,0
1561243449.476377,68,0,0,1561243448.989525,4.602364688184673,-74.06499138108833,2653.258,0.81,292.8515625,4,10,-9999,1561243449.45827,-14.21219825744629,-5.369994163513184,28.34991455078125,124.6470184326172,132.1907043457031,20,65549.36406441667,-0.93939208984375,0.8879852294921875,0.5394439697265625,65549.35899841668,-5.837465883970693,6.263468327733076,4.695330900970514,65549.33623241667,25.47433471679688,-2.678695678710938,-505.9375,65549.35899841668,-1.469313912824449,-1.944335978956028,-0.5901966018611958,-5.838607788085938,6.258045196533203,4.692723274230957,-0.1549133062362671,0.3066805601119995,0.2272142171859741,1,-0.6514453291893005,-0.4766651093959808,-0.1831227242946625,0.5611374974250793,-0.7735382318496704,0.556524395942688,0.3031812906265259,0,0,0,-1,65549.11153141667,1,2,1561243449.232934,1561243107.271691,28,1.054203,0,0,24.53997,0,0,1561243350.380748,65546.27998399999,0,-2.528809,74.5715,2650634390,177292352,1,1,0.15,-15.69103,-20.77751,0
1561243449.497005,69,0,0,1561243448.989525,4.602364688184673,-74.06499138108833,2653.258,0.81,292.8515625,4,10,-9999,1561243449.48489,-18.68161392211914,-6.94182300567627,25.37631225585938,136.9291534423828,144.4728393554688,20,65549.38432841667,-0.8965301513671875,0.9022369384765625,0.44219970703125,65549.37926241667,-4.951634056911958,2.626721589515902,3.648678498849056,65549.35631341668,20.52305603027344,-4.589706420898438,-508.7789001464844,65549.37926241667,-1.634973481665546,-1.945291365454136,-0.630162652208144,-4.952775955200195,2.621298789978027,3.64607048034668,-0.1755084991455078,0.3087340593338013,0.2097054719924927,1,-0.6924818754196167,-0.4101714491844177,-0.2153518944978714,0.5530387163162231,-0.7519359588623047,0.5892761945724487,0.2955435216426849,0,0,0,-1,65549.11153141667,1,2,1561243449.232934,1561243107.271691,28,1.054203,0,0,24.53997,0,0,1561243350.380748,65546.27998399999,0,-2.528809,74.5715,2650634390,177292352,1,1,0.15,-16.24831,-21.42022,0
1561243449.516789,70,0,0,1561243448.989525,4.602364688184673,-74.06499138108833,2653.258,0.81,292.8515625,4,10,-9999,1561243449.508859,-20.80930137634277,-8.064050674438477,23.56491088867188,146.2850189208984,153.8287048339844,20,65549.40459241667,-0.8990325927734375,0.8796844482421875,0.38165283203125,65549.39952641667,-2.460801593597894,-2.123971370511288,2.443910494384067,65549.37639341666,17.58087158203125,-5.937911987304688,-511.1583862304688,65549.39952641667,-1.752224100764324,-2.012862131821911,-0.6560586977569927,-2.461943626403809,-2.129394292831421,2.441302299499512,-0.168704628944397,0.2831289172172546,0.06864273548126221,1,-0.7248229384422302,-0.3796440958976746,-0.2147555202245712,0.5332749485969543,-0.7162288427352905,0.6099985241889954,0.3389958739280701,0,0,0,-1,65549.11153141667,1,2,1561243449.232934,1561243107.271691,28,1.054203,0,0,24.53997,0,0,1561243350.380748,65546.27998399999,0,-2.528809,74.5715,2650634390,177292352,1,1,0.15,-16.80559,-22.29558,0
1561243449.54283,71,0,0,1561243448.989525,4.602364688184673,-74.06499138108833,2653.258,0.81,292.8515625,4,10,-9999,1561243449.536009,-20.45781135559082,-8.518190383911133,23.603271484375,150.4216461181641,157.96533203125,20,65549.42485541667,-0.925811767578125,0.8895721435546875,0.248138427734375,65549.41975941668,-0.502123843516227,-4.375958497777705,1.967354595229255,65549.39650541668,17.18939208984375,-6.272598266601562,-511.7167053222656,65549.41975941668,-1.810202680773998,-2.118968568742078,-0.6815692245689854,-0.5032657980918884,-4.381381511688232,1.964746594429016,-0.2528203129768372,0.2717210054397583,-0.08667659759521484,1,-0.7474603652954102,-0.3790160417556763,-0.1826943755149841,0.5140745043754578,-0.6627985835075378,0.6300124526023865,0.4047003090381622,0,0,0,-1,65549.11153141667,1,2,1561243449.232934,1561243107.271691,28,1.054203,0,0,24.53997,0,0,1561243350.380748,65546.27998399999,0,-2.528809,74.5715,2650634390,177292352,1,1,0.15,-17.36287,-23.29152,0
1561243449.557323,72,0,0,1561243448.989525,4.602364688184673,-74.06499138108833,2653.258,0.81,292.8515625,4,10,-9999,1561243449.536009,-20.45781135559082,-8.518190383911133,23.603271484375,150.4216461181641,157.96533203125,20,65549.44508941667,-0.954925537109375,0.857513427734375,0.1744842529296875,65549.44002341667,0.1459888983198547,-4.135478779769076,1.900772105867857,65549.41658541666,18.60365295410156,-6.363327026367188,-510.6636962890625,65549.44002341667,-1.84045774794021,-2.227864530288868,-0.7125428168494671,0.1448469012975693,-4.140902042388916,1.89816415309906,-0.334676206111908,0.2094143629074097,-0.2562443017959595,1,-0.7624684572219849,-0.3869599103927612,-0.1394148617982864,0.4994671940803528,-0.5991464257240295,0.6537600159645081,0.4621922373771667,0,0,0,-1,65549.11153141667,1,2,1561243449.232934,1561243107.271691,28,1.054203,0,0,24.53997,0,0,1561243350.380748,65546.27998399999,0,-2.528809,74.5715,2650634390,177292352,1,1,0.15,-17.92015,-23.63017,0
1561243449.57758,73,0,0,1561243448.989525,4.602364688184673,-74.06499138108833,2653.258,0.81,292.8515625,4,10,-9999,1561243449.559928,-16.41781425476074,-7.61239767074585,26.59332275390625,152.5308837890625,160.0745697021484,20,65549.46535241666,-0.97943115234375,0.81591796875,0.1920623779296875,65549.46028641667,-0.1541746565624312,-2.39315517138101,2.203457940618557,65549.43666641667,21.13096618652344,-5.439300537109375,-508.8311157226562,65549.46028641667,-1.875022086654533,-2.319059083784334,-0.7442272489635388,-0.1553166508674622,-2.398577928543091,2.200849771499634,-0.4290456771850586,0.1666668653488159,-0.3266422748565674,1,-0.7743224501609802,-0.3881592154502869,-0.1029692739248276,0.4890343248844147,-0.5391092300415039,0.6774035692214966,0.5004856586456299,0,0,0,-1,65549.11153141667,1,2,1561243449.232934,1561243107.271691,28,1.054203,0,0,24.53997,0,0,1561243350.380748,65546.27998399999,0,-2.528809,74.5715,2650634390,177292352,1,1,0.15,-17.92015,-23.63017,0
1561243449.597865,74,0,0,1561243448.989525,4.602364688184673,-74.06499138108833,2653.258,0.81,292.8515625,4,10,-9999,1561243449.594781,-14.86441802978516,-6.923925399780273,27.33541870117188,155.8778839111328,163.4215698242188,20,65549.48561641667,-0.9835662841796875,0.7691497802734375,0.2003936767578125,65549.48055041667,-1.230790017792262,0.4870439601597623,2.852894539832517,65549.45674641668,22.94439697265625,-5.015533447265625,-507.7671813964844,65549.48055041667,-1.936880489099203,-2.382569461374165,-0.771243272456085,-1.231932044029236,0.4816210567951202,2.850286483764648,-0.4927571415901184,0.09119600057601929,-0.3125650882720947,1,-0.7881175875663757,-0.3728024363517761,-0.08489967882633209,0.4823701977729797,-0.4934794306755066,0.6970272660255432,0.5202219486236572,0,0,0,-1,65549.11153141667,1,2,1561243449.232934,1561243107.271691,28,1.054203,0,0,24.53997,0,0,1561243350.380748,65546.27998399999,0,-2.528809,74.5715,2650634390,177292352,1,1,0.15,-18.47743,-24.52911,0
1561243449.626183,75,0,0,1561243448.989525,4.602364688184673,-74.06499138108833,2653.258,0.81,292.8515625,4,10,-9999,1561243449.594781,-14.86441802978516,-6.923925399780273,27.33541870117188,155.8778839111328,163.4215698242188,20,65549.50588041668,-1.005950927734375,0.687225341796875,0.146148681640625,65549.50081441666,-2.878522937950676,3.961936550495152,3.559920932355004,65549.47685741667,23.74913024902344,-4.924453735351562,-507.6569519042969,65549.50081441666,-2.04290559054851,-2.41327350852074,-0.7848836511727574,-2.879664897918701,3.956513643264771,3.557312726974487,-0.5218483209609985,0.02476346492767334,-0.3445552587509155,1,-0.8074751496315002,-0.3346258401870728,-0.09407751262187958,0.4766118228435516,-0.4709037840366364,0.7067428827285767,0.527981162071228,0,0,0,-1,65549.11153141667,1,2,1561243449.232934,1561243107.271691,28,1.054203,0,0,24.53997,0,0,1561243350.380748,65546.27998399999,0,-2.528809,74.5715,2650634390,177292352,1,1,0.15,-19.03471,-24.74374,0
1561243449.639642,76,0,0,1561243448.989525,4.602364688184673,-74.06499138108833,2653.258,0.81,292.8515625,4,10,-9999,1561243449.594781,-14.86441802978516,-6.923925399780273,27.33541870117188,155.8778839111328,163.4215698242188,20,65549.52614341668,-1.012802124023438,0.63787841796875,0.0991668701171875,65549.52107741668,-4.420928635944783,7.192192494676409,3.972662698101555,65549.49693841668,22.19793701171875,-5.128463745117188,-508.6602783203125,65549.52107741668,-2.19442969961377,-2.405986742718175,-0.7801986820068482,-4.422070503234863,7.186769485473633,3.970054626464844,-0.5331003665924072,-0.02446556091308594,-0.4136579036712646,1,-0.8303945660591125,-0.2719142436981201,-0.1341145485639572,0.4674620926380157,-0.4769551753997803,0.7034206390380859,0.5269849896430969,0,0,0,-1,65549.11153141667,1,2,1561243449.232934,1561243107.271691,28,1.054203,0,0,24.53997,0,0,1561243350.380748,65546.27998399999,0,-2.528809,74.5715,2650634390,177292352,1,1,0.15,-19.59199,-24.96793,0
1561243449.658489,77,0,0,1561243448.989525,4.602364688184673,-74.06499138108833,2653.258,0.81,292.8515625,4,10,-9999,1561243449.638834,-16.88913726806641,-7.242878437042236,25.8648681640625,173.5895385742188,181.1332244873047,20,65549.54640741667,-1.009231567382812,0.6247100830078125,0.0911712646484375,65549.54131041667,-5.216859867769603,8.988114350531191,3.891906865418755,65549.53709941667,13.96174621582031,-6.4849853515625,-515.6663818359375,65549.54131041667,-2.370991025558088,-2.361325183412417,-0.7632316652711726,-5.218001842498779,8.982691764831543,3.889298677444458,-0.5049437284469604,-0.05858510732650757,-0.4217623472213745,1,-0.8486319780349731,-0.1913400888442993,-0.1976252049207687,0.4518375098705292,-0.5083314180374146,0.6912602782249451,0.5135745406150818,0,0,0,-1,65549.11153141667,1,2,1561243449.232934,1561243107.271691,28,1.054203,0,0,24.53997,0,0,1561243350.380748,65546.27998399999,0,-2.528809,74.5715,2650634390,177292352,1,1,0.15,-20.14926,-25.81974,0
1561243449.678774,78,0,0,1561243448.989525,4.602364688184673,-74.06499138108833,2653.258,0.81,292.8515625,4,10,-9999,1561243449.660845,-25.21817398071289,-8.696929931640625,17.6517333984375,186.3576354980469,193.9013214111328,20,65549.56664041667,-0.9241180419921875,0.6025238037109375,0.069000244140625,65549.56157441667,-5.085942064374616,7.740525645214928,3.201777697380603,65549.55718041667,10.40243530273438,-6.679763793945312,-521.3948364257812,65549.56157441667,-2.545063306580631,-2.306142818511193,-0.7427417421611554,-5.08708381652832,7.735102653503418,3.199169635772705,-0.428396463394165,-0.06562280654907227,-0.4204400777816772,1,-0.8573640584945679,-0.1095649302005768,-0.2638653516769409,0.4281325042247772,-0.546273946762085,0.6763100624084473,0.4941551983356476,0,0,0,-1,65549.11153141667,1,2,1561243449.232934,1561243107.271691,28,1.054203,0,0,24.53997,0,0,1561243350.380748,65546.27998399999,0,-2.528809,74.5715,2650634390,177292352,1,1,0.15,-20.70654,-26.18951,0
1561243449.701973,79,0,0,1561243448.989525,4.602364688184673,-74.06499138108833,2653.258,0.81,292.8515625,4,10,-9999,1561243449.688319,-28.5712947845459,-8.759933471679688,12.3321533203125,197.7820129394531,205.3256988525391,20,65549.58690441668,-0.7432708740234375,0.5836029052734375,0.051544189453125,65549.58183841668,-3.781824569128112,2.439832928439047,1.736288352725728,65549.57726041667,8.2794189453125,-6.523056030273438,-525.382080078125,65549.58183841668,-2.684256302991275,-2.287645703006987,-0.720120009019901,-3.782966613769531,2.434410095214844,1.733680367469788,-0.2780763506889343,-0.06581646203994751,-0.4286779165267944,1,-0.8627554178237915,-0.05099090933799744,-0.304777979850769,0.400204211473465,-0.5667112469673157,0.6594749093055725,0.4938939809799194,0,0,0,-1,65549.11153141667,1,2,1561243449.232934,1561243107.271691,28,1.054203,0,0,24.53997,0,0,1561243350.380748,65546.27998399999,0,-2.528809,74.5715,2650634390,177292352,1,1,0.15,-21.26382,-26.94858,0
1561243449.71936,80,0,0,1561243448.989525,4.602364688184673,-74.06499138108833,2653.258,0.81,292.8515625,4,10,-9999,1561243449.711463,-29.95366096496582,-8.724353790283203,9.7169189453125,203.4267120361328,210.9703979492188,20,65549.60716741667,-0.764678955078125,0.60650634765625,0.0936431884765625,65549.60210241667,-0.1955908062547985,-6.165441629065003,-0.1092820163830745,65549.59734141667,8.684844970703125,-6.7845458984375,-525.0689697265625,65549.60210241667,-2.741346542559093,-2.363940370311089,-0.7028494401574266,-0.1967328041791916,-6.170864582061768,-0.1118900179862976,-0.1671086549758911,-0.06726235151290894,-0.4951953887939453,1,-0.8774028420448303,-0.04481258988380432,-0.2855066955089569,0.3829387128353119,-0.5353296995162964,0.6463944315910339,0.5436878204345703,0,0,0,-1,65549.11153141667,1,2,1561243449.232934,1561243107.271691,28,1.054203,0,0,24.53997,0,0,1561243350.380748,65546.27998399999,0,-2.528809,74.5715,2650634390,177292352,1,1,0.15,-21.8211,-27.48133,0
1561243449.739579,81,0,0,1561243448.989525,4.602364688184673,-74.06499138108833,2653.258,0.81,292.8515625,4,10,-9999,1561243449.711463,-29.95366096496582,-8.724353790283203,9.7169189453125,203.4267120361328,210.9703979492188,20,65549.62743141667,-0.939483642578125,0.5514678955078125,0.0801849365234375,65549.62236541667,3.653263663297845,-11.11635929564373,-1.608481387800063,65549.61745241667,11.12234497070312,-6.7083740234375,-519.8897705078125,65549.62236541667,-2.691936061131964,-2.514920014296858,-0.7207068924093658,3.652121543884277,-11.12178134918213,-1.61108934879303,-0.4312315583229065,-0.05015945434570312,-0.4851744174957275,1,-0.8920356035232544,-0.09251289814710617,-0.2063957899808884,0.3912985622882843,-0.4406251013278961,0.6599159240722656,0.6085723042488098,0,0,0,-1,65549.11153141667,1,2,1561243449.232934,1561243107.271691,28,1.054203,0,0,24.53997,0,0,1561243350.380748,65546.27998399999,0,-2.528809,74.5715,2650634390,177292352,1,1,0.15,-21.8211,-27.48133,0
1561243449.759878,82,0,0,1561243448.989525,4.602364688184673,-74.06499138108833,2653.258,0.81,292.8515625,4,10,-9999,1561243449.740219,-28.8193473815918,-8.783882141113281,11.59820556640625,199.8008880615234,207.3445739746094,20,65549.64769541667,-1.025924682617188,0.3853302001953125,0.0748138427734375,65549.64262941667,5.774482124190318,-11.71773941930332,-2.874273598115345,65549.63753241667,16.4161376953125,-5.879547119140625,-513.496337890625,65549.64262941667,-2.568274140849075,-2.667284170056917,-0.7811377156180793,5.773340225219727,-11.7231616973877,-2.87688159942627,-0.6488498449325562,-0.2280593514442444,-0.5710690021514893,1,-0.8874241709709167,-0.1683440208435059,-0.1037462130188942,0.416383683681488,-0.3243252038955688,0.7040877938270569,0.6317227482795715,0,0,0,-1,65549.11153141667,1,2,1561243449.232934,1561243107.271691,28,1.054203,0,0,24.53997,0,0,1561243350.380748,65547.220547,0,-2.528809,74.5715,2650634390,177292352,1,1,0.15,-22.37838,-28.33675,0
1561243449.782657,83,0,0,1561243448.989525,4.602364688184673,-74.06499138108833,2653.258,0.81,292.8515625,4,10,-9999,1561243449.762628,-19.69202995300293,-7.255161762237549,23.28518676757812,190.0512847900391,197.594970703125,20,65549.66795841667,-1.077163696289062,0.3006134033203125,0.09161376953125,65549.66286241668,5.627198663264577,-9.127307128065272,-3.230817604855154,65549.65761341667,22.58767700195312,-3.789230346679688,-508.50634765625,65549.66286241668,-2.411785803908243,-2.768628640828995,-0.8639621180325304,5.626056671142578,-9.132729530334473,-3.233425617218018,-0.8228414058685303,-0.4433439970016479,-0.533111572265625,1,-0.8613369464874268,-0.2459466159343719,-0.01046955958008766,0.4444088637828827,-0.2366373538970947,0.7604216337203979,0.6047821640968323,0,0,0,-1,65549.11153141667,1,2,1561243449.232934,1561243107.271691,28,1.054203,0,0,24.53997,0,0,1561243350.380748,65547.220547,0,-2.528809,74.5715,2650634390,177292352,1,1,0.15,-22.93566,-29.02184,0
1561243449.800361,84,0,0,1561243448.989525,4.602364688184673,-74.06499138108833,2653.258,0.81,292.8515625,4,10,-9999,1561243449.788586,-13.90326690673828,-5.049681663513184,27.32247924804688,179.0464172363281,186.5901031494141,20,65549.68819241667,-1.150421142578125,0.33477783203125,0.0681304931640625,65549.68312641667,3.265726586740022,-3.313431791346611,-2.40127807902186,65549.67769441668,27.3016357421875,-1.407501220703125,-506.0894775390625,65549.68312641667,-2.270922601657765,-2.790567110572675,-0.9310734249296144,3.264584541320801,-3.318854570388794,-2.403886079788208,-0.9076087474822998,-0.5110625028610229,-0.4661029577255249,1,-0.8308436274528503,-0.29997318983078,0.04492253810167313,0.4665800333023071,-0.2052757889032364,0.8022612333297729,0.5605701208114624,0,0,0,-1,65549.11153141667,1,2,1561243449.232934,1561243107.271691,28,1.054203,0,0,24.53997,0,0,1561243350.380748,65547.220547,0,-2.528809,74.5715,2650634390,177292352,1,1,0.15,-23.49294,-29.59034,0
1561243449.822711,85,0,0,1561243448.989525,4.602364688184673,-74.06499138108833,2653.258,0.81,292.8515625,4,10,-9999,1561243449.812755,-10.59108924865723,-3.160316705703735,29.14535522460938,172.3070678710938,179.8507537841797,20,65549.70845541666,-1.16058349609375,0.454498291015625,0.1257476806640625,65549.70338941667,0.1470275311449856,4.389275634808646,-1.212619269674652,65549.69777441667,27.78160095214844,-0.4601287841796875,-506.0428161621094,65549.70338941667,-2.192805135489633,-2.715148960137587,-0.9493039446503846,0.1458855420351028,4.383852481842041,-1.215227246284485,-0.9245206713676453,-0.4130470156669617,-0.4363083839416504,1,-0.8174893260002136,-0.3110678791999817,0.03661074861884117,0.4833295941352844,-0.2408388257026672,0.8130103945732117,0.5301040410995483,0,0,0,-1,65549.11153141667,1,2,1561243449.232934,1561243107.271691,28,1.054203,0,0,24.53997,0,0,1561243350.380748,65547.220547,0,-2.528809,74.5715,2650634390,177292352,1,1,0.15,-24.05022,-30.2204,0
1561243449.840951,86,0,0,1561243448.989525,4.602364688184673,-74.06499138108833,2653.258,0.81,292.8515625,4,10,-9999,1561243449.839757,-11.67324066162109,-2.568608045578003,28.620849609375,171.6498260498047,179.1935119628906,20,65549.72871941667,-1.134521484375,0.5730133056640625,0.2323455810546875,65549.72365341667,-1.633880754064476,9.838104823007422,-0.5057787657962517,65549.71788541667,23.41473388671875,-1.11944580078125,-507.7849731445312,65549.72365341667,-2.182974419614812,-2.555963659521453,-0.9258905581687497,-1.635022759437561,9.832682609558105,-0.5083867907524109,-0.8053640723228455,-0.2814562320709229,-0.3179407119750977,1,-0.8195703029632568,-0.2806810736656189,-0.03197845816612244,0.4984977543354034,-0.332254946231842,0.7991564273834229,0.5009546875953674,0,0,0,-1,65549.11153141667,1,2,1561243449.232934,1561243107.271691,28,1.054203,0,0,24.53997,0,0,1561243350.380748,65547.220547,0,-2.528809,74.5715,2650634390,177292352,1,1,0.15,-19.44384,-19.44384,0
1561243449.862481,87,0,0,1561243448.989525,4.602364688184673,-74.06499138108833,2653.258,0.81,292.8515625,4,10,-9999,1561243449.839757,-11.67324066162109,-2.568608045578003,28.620849609375,171.6498260498047,179.1935119628906,20,65549.74898341668,-1.104766845703125,0.650665283203125,0.3285369873046875,65549.74391741666,-1.899866098465012,10.59141722159159,-0.1102993439194848,65549.73796641667,17.57363891601562,-2.129058837890625,-511.6601867675781,65549.74391741666,-2.214565370987978,-2.366855642675004,-0.89298946310424,-1.901008129119873,10.58599472045898,-0.1129073426127434,-0.6779889464378357,-0.1608773469924927,-0.1873005628585815,1,-0.8199468851089478,-0.2274787873029709,-0.1260165870189667,0.5099611282348633,-0.4386644959449768,0.7789498567581177,0.4481189846992493,0,0,0,-1,65549.11153141667,1,2,1561243449.232934,1561243107.271691,28,1.054203,0,0,24.53997,0,0,1561243350.380748,65547.220547,0,-2.528809,74.5715,2650634390,177292352,1,1,0.15,-15.15581,-19.92596,0
1561243449.881467,88,0,0,1561243448.989525,4.602364688184673,-74.06499138108833,2653.258,0.81,292.8515625,4,10,-9999,1561243449.877669,-22.16268539428711,-4.202312469482422,22.00335693359375,174.1638488769531,181.7075347900391,20,65549.76924641668,-0.982208251953125,0.5936431884765625,0.4727935791015625,65549.76415041667,-0.7399667657295685,5.87769825855852,-0.6951271224559045,65549.75804641667,12.89741516113281,-2.507980346679688,-516.1571044921875,65549.76415041667,-2.242880072319581,-2.212956595851029,-0.8691816992468101,-0.7411087155342102,5.872275352478027,-0.6977351307868958,-0.5412404537200928,-0.1188424825668335,0.01999211311340332,1,-0.8124017715454102,-0.1824624985456467,-0.2023321688175201,0.5155313014984131,-0.5168802738189697,0.7638010382652283,0.3865784108638763,0,0,0,-1,65549.11153141667,1,2,1561243449.232934,1561243107.271691,28,1.054203,0,0,24.53997,0,0,1561243350.380748,65547.220547,0,-2.528809,74.5715,2650634390,177292352,1,1,0.15,-15.15581,-19.92596,0
1561243449.90222,89,0,0,1561243448.989525,4.602364688184673,-74.06499138108833,2653.258,0.81,292.8515625,4,10,-9999,1561243449.877669,-22.16268539428711,-4.202312469482422,22.00335693359375,174.1638488769531,181.7075347900391,20,65549.78947941666,-0.9462890625,0.589599609375,0.609649658203125,65549.78441441667,2.2753782037528,-2.753353035136407,-2.610428103650688,65549.77812741668,11.91879272460938,-3.170989990234375,-517.4340209960938,65549.78441441667,-2.198768532763546,-2.145496659304831,-0.8495178209648602,2.27423620223999,-2.758775949478149,-2.613036155700684,-0.3872489929199219,-0.1714943051338196,0.1950176954269409,1,-0.8025487065315247,-0.1881272047758102,-0.2233687490224838,0.5202211141586304,-0.5542640686035156,0.7509620785713196,0.3589525520801544,0,0,0,-1,65549.11153141667,1,2,1561243449.232934,1561243107.271691,28,1.054203,0,0,24.53997,0,0,1561243350.380748,65547.220547,0,-2.528809,74.5715,2650634390,177292352,1,1,0.15,-15.15581,-16.30004,0
1561243449.924221,90,0,0,1561243448.989525,4.602364688184673,-74.06499138108833,2653.258,0.81,292.8515625,4,10,-9999,1561243449.914029,-25.70648002624512,-5.399387359619141,18.523193359375,164.7444305419922,172.2881164550781,20,65549.80974341667,-1.017837524414062,0.6979827880859375,0.4875640869140625,65549.80467741667,4.82115940352236,-8.836259839910436,-4.329611239010947,65549.79820741666,14.15968322753906,-3.152801513671875,-514.542724609375,65549.80467741667,-2.046643265604588,-2.158302225675732,-0.830606203688752,4.820017337799072,-8.841682434082031,-4.332219123840332,-0.405193567276001,-0.1249217987060547,0.1860334873199463,1,-0.7878702282905579,-0.257242739200592,-0.1836719661951065,0.528536856174469,-0.5613439083099365,0.7383403182029724,0.373826652765274,0,0,0,-1,65549.11153141667,1,2,1561243449.232934,1561243107.271691,28,1.054203,0,0,24.53997,0,0,1561243350.380748,65547.220547,0,-2.528809,74.5715,2650634390,177292352,1,1,0.15,-14.79414,-16.56721,0
1561243449.944294,91,0,0,1561243448.989525,4.602364688184673,-74.06499138108833,2653.258,0.81,292.8515625,4,10,-9999,1561243449.940398,-16.7653694152832,-4.037539482116699,26.6141357421875,149.5339813232422,157.0776672363281,20,65549.83000741668,-1.070816040039062,0.706329345703125,0.3234710693359375,65549.82494141666,5.49843375929481,-10.1097440584022,-5.408121705672478,65549.81831941668,19.51554870605469,-2.447616577148438,-509.8648071289062,65549.82494141666,-1.833885607229184,-2.201399975276289,-0.8100493664887122,5.497291564941406,-10.11516666412354,-5.41072940826416,-0.4712928533554077,-0.001619219779968262,-0.01567566394805908,1,-0.7589567303657532,-0.3567204773426056,-0.1167783141136169,0.5320696234703064,-0.5568596124649048,0.724321186542511,0.4065296351909637,0,0,0,-1,65549.11153141667,1,2,1561243449.232934,1561243107.271691,28,1.054203,0,0,24.53997,0,0,1561243350.380748,65547.220547,0,-2.528809,74.5715,2650634390,177292352,1,1,0.15,-14.79414,-17.45321,0
1561243449.962439,92,0,0,1561243448.989525,4.602364688184673,-74.06499138108833,2653.258,0.81,292.8515625,4,10,-9999,1561243449.940398,-16.7653694152832,-4.037539482116699,26.6141357421875,149.5339813232422,157.0776672363281,20,65549.85027041667,-1.14569091796875,0.733184814453125,0.3084259033203125,65549.84520541667,4.42730770570385,-7.349946439743906,-5.822380674292048,65549.83839941667,25.16242980957031,-1.079376220703125,-506.346435546875,65549.84520541667,-1.616596425313464,-2.228949473633178,-0.780196772207613,4.426165580749512,-7.355369567871094,-5.82498836517334,-0.5634520649909973,0.0103258490562439,-0.1292085647583008,1,-0.716101348400116,-0.4522987306118011,-0.05890634655952454,0.5283510684967041,-0.5623108744621277,0.7034192681312561,0.4347505569458008,0,0,0,-1,65549.11153141667,1,2,1561243449.232934,1561243107.271691,28,1.054203,0,0,24.53997,0,0,1561243350.380748,65547.220547,0,-2.528809,74.5715,2650634390,177292352,1,1,0.15,-14.79414,-18.43167,0
1561243449.982703,93,0,0,1561243448.989525,4.602364688184673,-74.06499138108833,2653.258,0.81,292.8515625,4,10,-9999,1561243449.965524,-11.56807327270508,-2.780845165252686,29.41259765625,134.6824035644531,142.2260894775391,20,65549.87053441667,-1.207778930664062,0.7641754150390625,0.260528564453125,65549.86546841667,1.931989946481874,-2.137203020071238,-4.995176208102536,65549.85848041667,28.794677734375,-0.0113983154296875,-504.7767639160156,65549.86546841667,-1.450431939147399,-2.214005097277932,-0.7320634760845192,1.930847883224487,-2.14262580871582,-4.99778413772583,-0.5818949937820435,0.07669603824615479,-0.1576367616653442,1,-0.6737487316131592,-0.5187627077102661,-0.0375143438577652,0.5249196887016296,-0.5951679944992065,0.6684058904647827,0.4461041986942291,0,0,0,-1,65549.11153141667,1,2,1561243449.232934,1561243107.271691,28,1.054203,0,0,24.53997,0,0,1561243350.380748,65547.220547,0,-2.528809,74.5715,2650634390,177292352,1,1,0.15,-14.79414,-19.314,0
1561243450.005223,94,0,0,1561243448.989525,4.602364688184673,-74.06499138108833,2653.258,0.81,292.8515625,4,10,-9999,1561243449.991108,-9.021184921264648,-2.090600252151489,30.6175537109375,126.0841979980469,133.6278839111328,20,65549.89079841667,-1.29302978515625,0.90399169921875,0.310821533203125,65549.88570141667,-0.9717488659341079,4.251148654342814,-3.591395235381996,65549.87859141667,29.02171325683594,-0.3754425048828125,-504.5460205078125,65549.88570141667,-1.375651852269861,-2.143396204920721,-0.6666136439797236,-0.9728907942771912,4.245725631713867,-3.594003200531006,-0.5910248756408691,0.2058600783348083,-0.1506037712097168,1,-0.6477276682853699,-0.5416291356086731,-0.06519712507724762,0.5318233966827393,-0.6605620384216309,0.6183281540870667,0.4258265197277069,0,0,0,-1,65549.11153141667,1,2,1561243449.232934,1561243107.271691,28,1.054203,0,0,24.53997,0,0,1561243350.380748,65547.220547,0,-2.528809,74.5715,2650634390,177292352,1,1,0.15,-14.79414,-20.35411,0
1561243450.024805,95,0,0,1561243448.989525,4.602364688184673,-74.06499138108833,2653.258,0.81,292.8515625,4,10,-9999,1561243450.017673,-10.39996147155762,-2.861446380615234,30.32025146484375,125.1138916015625,132.6575775146484,20,65549.91103141668,-1.305679321289062,1.022109985351562,0.367034912109375,65549.90596541668,-2.281076303221134,9.062938524518058,-2.787495825575659,65549.89867141667,25.1375732421875,-1.966217041015625,-506.0584716796875,65549.90596541668,-1.376156216621742,-2.005336474395612,-0.5936229733585139,-2.282218217849731,9.057516098022461,-2.790103912353516,-0.5437716245651245,0.414997398853302,-0.0007181167602539062,1,-0.6334471702575684,-0.5227135419845581,-0.1363179981708527,0.5540149211883545,-0.7518827319145203,0.559367835521698,0.3489695191383362,0,0,0,-1,65549.11153141667,1,2,1561243449.232934,1561243107.271691,28,1.054203,0,0,24.53997,0,0,1561243350.380748,65547.220547,0,-2.528809,74.5715,2650634390,177292352,1,1,0.15,-14.79414,-21.13767,0
1561243450.043902,96,0,0,1561243448.989525,4.602364688184673,-74.06499138108833,2653.258,0.81,292.8515625,4,10,-9999,1561243450.017673,-10.39996147155762,-2.861446380615234,30.32025146484375,125.1138916015625,132.6575775146484,20,65549.93129541667,-1.2950439453125,1.07794189453125,0.292633056640625,65549.92622941667,-1.880156842185662,11.16829839375133,-2.495346787677857,65549.91875241668,19.24623107910156,-4.15216064453125,-509.5054016113281,65549.92622941667,-1.404569458086347,-1.810999709842101,-0.5290121865777101,-1.881298899650574,11.16287612915039,-2.497954845428467,-0.4706076383590698,0.5561712384223938,0.1255824565887451,1,-0.6137195825576782,-0.4754351675510406,-0.2278726100921631,0.5876935720443726,-0.8385201692581177,0.5046808123588562,0.2053806483745575,0,0,0,-1,65549.11153141667,1,2,1561243449.232934,1561243107.271691,28,1.054203,0,0,24.53997,0,0,1561243350.380748,65547.220547,0,-2.528809,74.5715,2650634390,177292352,1,1,0.15,-14.79414,-21.13767,0
1561243450.063737,97,0,0,1561243449.989511,4.602357312109882,-74.06499431475444,2653.198,0.86,253.828125,4,10,-9999,1561243450.041682,-20.61332511901855,-6.834810256958008,24.17498779296875,127.0993957519531,134.6430816650391,20,65549.95157400001,-1.253204345703125,1.045394897460938,0.262176513671875,65549.94650800001,-0.3965377620939644,10.16215400339052,-2.525530256524488,65549.93884800001,13.64212036132812,-6.227005004882812,-514.55615234375,65549.94650800001,-1.424359029220725,-1.599863224536107,-0.4753108774729818,-0.3976797461509705,10.15673160552979,-2.528138399124146,-0.380634069442749,0.6140556335449219,0.2457194328308105,1,-0.5797383785247803,-0.4205044806003571,-0.3146957755088806,0.6229334473609924,-0.8887750506401062,0.4576148986816406,0.02584121190011501,0,0,0,-1,65549.11153141667,1,2,1561243449.232934,1561243107.271691,28,1.054203,0,0,24.53997,0,0,1561243350.380748,65547.220547,0,-2.528809,74.5715,2650634390,177292352,1,1,0.15,-14.79414,-21.90663,0
1561243450.084112,98,0,0,1561243449.989511,4.602357312109882,-74.06499431475444,2653.198,0.86,253.828125,4,10,-9999,1561243450.066305,-25.38339233398438,-8.785598754882812,18.96746826171875,128.0133666992188,135.5570526123047,20,65549.971838,-1.123077392578125,0.93096923828125,0.22686767578125,65549.966772,1.610162907712339,5.843189549785491,-3.031390248733987,65549.958929,10.30014038085938,-7.670364379882812,-519.4857177734375,65549.966772,-1.415306915268943,-1.428561684931589,-0.418520397020572,1.609020829200745,5.837766647338867,-3.033998250961304,-0.2922976613044739,0.5937130451202393,0.3949168920516968,1,-0.5358138680458069,-0.3848936259746552,-0.3770341277122498,0.6500812172889709,-0.9044644832611084,0.4064089953899384,-0.1295207887887955,0,0,0,-1,65549.11153141667,1,2,1561243449.232934,1561243107.271691,28,1.054203,0,0,24.53997,0,0,1561243350.380748,65547.220547,0,-2.528809,74.5715,2650634390,177292352,1,1,0.15,-14.79414,-22.09632,0
1561243450.106057,99,0,0,1561243449.989511,4.602357312109882,-74.06499431475444,2653.198,0.86,253.828125,4,10,-9999,1561243450.092748,-28.15497970581055,-10.25803184509277,14.9434814453125,126.0816955566406,133.6253814697266,20,65549.992102,-0.902587890625,0.852935791015625,0.1960906982421875,65549.98703600001,3.584286193168139,0.09981447870784282,-3.661692834464055,65549.97904000001,9.594284057617188,-9.039993286132812,-521.5181884765625,65549.98703600001,-1.37230064368443,-1.352752984117396,-0.3410836805345683,3.583144187927246,0.09439157694578171,-3.664300918579102,-0.08666497468948364,0.5422309637069702,0.4412543773651123,1,-0.4932391345500946,-0.3934286236763,-0.4047192633152008,0.6619150638580322,-0.9200794100761414,0.3345085382461548,-0.2038581520318985,0,0,0,-1,65549.11153141667,1,2,1561243449.232934,1561243107.271691,28,1.054203,0,0,24.53997,0,0,1561243350.380748,65547.220547,0,-2.528809,74.5715,2650634390,177292352,1,1,0.15,-12.73297,-19.38904,0
1561243450.124548,100,0,0,1561243449.989511,4.602357312109882,-74.06499431475444,2653.198,0.86,253.828125,4,10,-9999,1561243450.116625,-28.06837844848633,-11.4814395904541,14.02789306640625,121.6211090087891,129.164794921875,20,65550.012365,-0.7689208984375,0.8076171875,0.04168701171875,65550.00726900001,4.189581696262363,-3.453962541012348,-3.785183081578811,65549.999121,10.78375244140625,-9.90478515625,-519.8604736328125,65550.00726900001,-1.306294004793229,-1.374270213851627,-0.249252830841886,4.188439846038818,-3.459385395050049,-3.787791013717651,0.1345399618148804,0.578301727771759,0.2913715839385986,1,-0.4587990045547485,-0.4414621591567993,-0.4035201072692871,0.6571043729782104,-0.9504426717758179,0.2466799467802048,-0.1892292648553848,0,0,0,-1,65549.11153141667,1,2,1561243449.232934,1561243107.271691,28,1.054203,0,0,24.53997,0,0,1561243350.380748,65547.220547,0,-2.528809,74.5715,2650634390,177292352,1,1,0.15,-4.169705,-9.330705,0
1561243450.14485,101,0,0,1561243449.989511,4.602357312109882,-74.06499431475444,2653.198,0.86,253.828125,4,10,-9999,1561243450.143004,-24.17962455749512,-12.40537548065186,19.23321533203125,116.3308258056641,123.87451171875,20,65550.03259800001,-0.732025146484375,0.7570037841796875,-0.00115966796875,65550.027533,4.255188403400355,-4.168776016562227,-3.457946630003107,65550.019201,13.08688354492188,-10.37692260742188,-516.844482421875,65550.027533,-1.232753705046711,-1.439041326895681,-0.1622470073662889,4.254046440124512,-4.174199104309082,-3.460554599761963,0.2283136248588562,0.6371089220046997,0.1452280282974243,1,-0.429449588060379,-0.5007480978965759,-0.3897822797298431,0.6425685286521912,-0.9783136248588562,0.1615361124277115,-0.1296487897634506,0,0,0,-1,65549.11153141667,1,2,1561243449.232934,1561243107.271691,28,1.054203,0,0,24.53997,0,0,1561243350.380748,65547.220547,0,-2.528809,74.5715,2650634390,177292352,1,1,0.15,-4.169705,-10.05058,0
1561243450.179468,102,0,0,1561243449.989511,4.602357312109882,-74.06499431475444,2653.198,0.86,253.828125,4,10,-9999,1561243450.167498,-21.33616065979004,-11.90079402923584,22.0428466796875,110.4819412231445,118.0256271362305,20,65550.052862,-0.69970703125,0.688201904296875,-0.0257415771484375,65550.047796,4.25346374027842,-3.900435638809734,-3.025139809655571,65550.039282,16.08444213867188,-10.14158630371094,-513.8692016601562,65550.047796,-1.152274425205904,-1.511727058929429,-0.08874096115068814,4.252321720123291,-3.905858516693115,-3.027747869491577,0.2768598198890686,0.6397842764854431,0.04023265838623047,1,-0.4003787636756897,-0.5570417642593384,-0.3705283105373383,0.6261870861053467,-0.9943280816078186,0.08862453699111938,-0.05880263820290565,0,0,0,-1,65549.11153141667,1,2,1561243449.232934,1561243107.271691,28,1.054203,0,0,24.53997,0,0,1561243350.380748,65547.220547,0,-2.528809,74.5715,2650634390,177292352,1,1,0.15,-4.169705,-10.92367,0
1561243450.185941,103,0,0,1561243449.989511,4.602357312109882,-74.06499431475444,2653.198,0.86,253.828125,4,10,-9999,1561243450.167498,-21.33616065979004,-11.90079402923584,22.0428466796875,110.4819412231445,118.0256271362305,20,65550.073126,-0.6602325439453125,0.59912109375,0.0066680908203125,65550.06806000001,4.004390267748215,-3.494897990127956,-2.827778267591979,65550.059362,18.60310363769531,-9.46697998046875,-511.2288818359375,65550.06806000001,-1.069536700285448,-1.581828403626333,-0.02773868824078876,4.00324821472168,-3.500320911407471,-2.830386400222778,0.3191651105880737,0.6154838800430298,-0.02631688117980957,1,-0.3707095682621002,-0.6067027449607849,-0.3498593270778656,0.6099874377250671,-0.9995545148849487,0.02773513086140156,0.01102760992944241,0,0,0,-1,65549.11153141667,1,2,1561243449.232934,1561243107.271691,28,1.054203,0,0,24.53997,0,0,1561243350.380748,65547.220547,0,-2.528809,74.5715,2650634390,177292352,1,1,0.15,-4.169705,-11.96963,0
1561243450.205814,104,0,0,1561243449.989511,4.602357312109882,-74.06499431475444,2653.198,0.86,253.828125,4,10,-9999,1561243450.194031,-18.79575157165527,-10.97830390930176,24.52676391601562,104.6592788696289,112.2029647827148,20,65550.093389,-0.5869293212890625,0.548004150390625,0.0943145751953125,65550.08832400001,3.475379682498765,-3.365638537143761,-2.562373492309081,65550.07947300001,20.98641967773438,-8.298507690429688,-509.13525390625,65550.08832400001,-0.9909237650141581,-1.64982008431026,0.02385476349671031,3.474237680435181,-3.371061325073242,-2.564981460571289,0.3651716709136963,0.5838500261306763,-0.02920591831207275,1,-0.3420574069023132,-0.6499663591384888,-0.3303271234035492,0.5928106307983398,-0.9965956211090088,-0.02385250106453896,0.07891907542943954,0,0,0,-1,65549.11153141667,1,2,1561243449.232934,1561243107.271691,28,1.054203,0,0,24.53997,0,0,1561243350.380748,65547.220547,0,-2.528809,74.5715,2650634390,177292352,1,1,0.15,-4.169705,-11.96963,0
1561243450.225916,105,0,0,1561243449.989511,4.602357312109882,-74.06499431475444,2653.198,0.86,253.828125,4,10,-9999,1561243450.217912,-16.23783683776855,-10.19823741912842,26.52825927734375,99.43759155273438,106.9812774658203,20,65550.11365300001,-0.4950103759765625,0.5370330810546875,0.2763519287109375,65550.108557,3.298789199041138,-4.756267222504835,-2.064668631989622,65550.099554,23.83131408691406,-7.082656860351562,-507.2455444335938,65550.108557,-0.9191800739788925,-1.732364631804028,0.0629229513385247,3.29764723777771,-4.761690139770508,-2.0672767162323,0.4483559131622314,0.600494384765625,-0.0005137920379638672,1,-0.3195187151432037,-0.6915068626403809,-0.3086612522602081,0.569608747959137,-0.9850227832794189,-0.06288143992424011,0.1605478972196579,0,0,0,-1,65549.11153141667,1,2,1561243449.232934,1561243107.271691,28,1.054203,0,0,24.53997,0,0,1561243350.380748,65547.220547,0,-2.528809,74.5715,2650634390,177292352,1,1,0.15,-4.169705,-12.92294,0
1561243450.258817,106,0,0,1561243449.989511,4.602357312109882,-74.06499431475444,2653.198,0.86,253.828125,4,10,-9999,1561243450.244397,-9.111364364624023,-6.506605625152588,30.29238891601562,93.52736663818359,101.0710525512695,20,65550.13388600001,-0.4178314208984375,0.4917449951171875,0.440216064453125,65550.12882,4.292867339135015,-7.395930709654086,-1.451646233308642,65550.11963500001,27.46661376953125,-5.403427124023438,-505.4378051757812,65550.12882,-0.8373181033234399,-1.8619118268941,0.08065458914405399,4.291725158691406,-7.40135383605957,-1.454254150390625,0.4988929033279419,0.6055458188056946,0.09719753265380859,1,-0.3038614988327026,-0.7420998215675354,-0.27208012342453,0.5319101810455322,-0.9548102617263794,-0.08056717365980148,0.2860879004001617,0,0,0,-1,65549.11153141667,1,2,1561243449.232934,1561243107.271691,28,1.054203,0,0,24.53997,0,0,1561243350.380748,65547.220547,0,-2.528809,74.5715,2650634390,177292352,1,1,0.15,-4.169705,-15.02284,0
1561243450.266358,107,0,0,1561243449.989511,4.602357312109882,-74.06499431475444,2653.198,0.86,253.828125,4,10,-9999,1561243450.244397,-9.111364364624023,-6.506605625152588,30.29238891601562,93.52736663818359,101.0710525512695,20,65550.15415,-0.439422607421875,0.4715118408203125,0.385986328125,65550.149084,4.70888053196462,-8.208753040692734,-0.9481615144753851,65550.139715,33.02565002441406,-2.4510498046875,-503.5341796875,65550.149084,-0.741363204160579,-2.031944478129121,0.06909135099541278,4.707738399505615,-8.214175224304199,-0.9507694840431213,0.4853093028068542,0.5421808958053589,0.0004056692123413086,1,-0.2907679378986359,-0.7983805537223816,-0.2180814146995544,0.4800865054130554,-0.8934056162834167,-0.06903639435768127,0.4439150094985962,0,0,0,-1,65549.11153141667,1,2,1561243449.232934,1561243107.271691,28,1.054203,0,0,24.53997,0,0,1561243350.380748,65547.220547,0,-2.528809,74.5715,2650634390,177292352,1,1,0.15,-4.169705,-15.02284,0
1561243450.288684,108,0,0,1561243449.989511,4.602357312109882,-74.06499431475444,2653.198,0.86,253.828125,4,10,-9999,1561243450.268601,-3.246265411376953,-3.632200002670288,31.74295043945312,86.77165985107422,94.31534576416016,20,65550.17441400001,-0.4785308837890625,0.4522552490234375,0.2541046142578125,65550.16934800001,3.353111826324356,-5.719286512701772,-0.3559338765340713,65550.15979600001,38.57443237304688,0.4178466796875,-502.6952514648438,65550.16934800001,-0.6615828920057226,-2.182635204118396,0.03720247997913583,3.351969718933105,-5.724709510803223,-0.358541876077652,0.3480713963508606,0.4888235330581665,-0.2476975917816162,1,-0.2800014615058899,-0.8417763113975525,-0.165413960814476,0.4308713376522064,-0.8180269002914429,-0.0371938981115818,0.5739763379096985,0,0,0,-1,65549.11153141667,1,2,1561243449.232934,1561243107.271691,28,1.054203,0,0,24.53997,0,0,1561243350.380748,65547.220547,0,-2.528809,74.5715,2650634390,177292352,1,1,0.15,-4.169705,-16.02376,0
1561243450.307039,109,0,0,1561243449.989511,4.602357312109882,-74.06499431475444,2653.198,0.86,253.828125,4,10,-9999,1561243450.295619,1.994621276855469,-0.7534694671630859,32.25848388671875,82.72284698486328,90.26653289794922,20,65550.19467700001,-0.5128021240234375,0.4619903564453125,0.179534912109375,65550.18961100001,0.3321190911182557,-0.8367809271533281,0.5571072010658938,65550.17987600001,42.408935546875,2.8292236328125,-502.8101501464844,65550.18961100001,-0.6313286263170074,-2.252533646990468,0.01286377001036096,0.3309809565544128,-0.8421977758407593,0.5544984340667725,0.2839375138282776,0.4745790958404541,-0.4355717897415161,1,-0.2776415050029755,-0.8590463399887085,-0.1390200257301331,0.4069742262363434,-0.7764148712158203,-0.01286341529339552,0.6300908327102661,0,0,0,-1,65549.11153141667,1,2,1561243449.232934,1561243107.271691,28,1.054203,0,0,24.53997,0,0,1561243350.380748,65547.220547,0,-2.528809,74.5715,2650634390,177292352,1,1,0.15,-4.169705,-17.09812,0
1561243450.342705,110,0,0,1561243449.989511,4.602357312109882,-74.06499431475444,2653.198,0.86,253.828125,4,10,-9999,1561243450.319179,4.242378234863281,0.5025918483734131,31.92974853515625,84.16208648681641,91.70577239990234,20,65550.214941,-0.5306854248046875,0.5138397216796875,0.228546142578125,65550.209875,-2.812836335979981,4.42339365784976,1.652667757658331,65550.199987,42.39120483398438,2.271484375,-502.8569030761719,65550.209875,-0.6661611361982462,-2.213823725541717,0.01146632119771166,-2.813974618911743,4.417976856231689,1.65005898475647,0.2744897603988647,0.4958258271217346,-0.3968684673309326,1,-0.2899746000766754,-0.8459937572479248,-0.1511314064264297,0.421151340007782,-0.8002313375473022,-0.01146607007831335,0.5995814204216003,0,0,0,-1,65549.11153141667,1,2,1561243449.232934,1561243107.271691,28,1.054203,0,0,24.53997,0,0,1561243350.380748,65547.220547,0,-2.528809,74.5715,2650634390,177292352,1,1,0.15,-4.169705,-18.13897,0
1561243450.347226,111,0,0,1561243449.989511,4.602357312109882,-74.06499431475444,2653.198,0.86,253.828125,4,10,-9999,1561243450.319179,4.242378234863281,0.5025918483734131,31.92974853515625,84.16208648681641,91.70577239990234,20,65550.235205,-0.528594970703125,0.54449462890625,0.3178863525390625,65550.230108,-4.523264595572713,7.762230940731291,2.516557800495902,65550.22006800001,38.60882568359375,-0.1631011962890625,-503.0679931640625,65550.230108,-0.7539213870045482,-2.085332735872376,0.01793718237234346,-4.524402618408203,7.756814002990723,2.513948917388916,0.3477826714515686,0.548987865447998,-0.2215292453765869,1,-0.3137286305427551,-0.8047362565994263,-0.1926858574151993,0.4656673669815063,-0.8703809380531311,-0.0179362203925848,0.4920521974563599,0,0,0,-1,65549.11153141667,1,2,1561243449.232934,1561243107.271691,28,1.054203,0,0,24.53997,0,0,1561243350.380748,65547.220547,0,-2.528809,74.5715,2650634390,177292352,1,1,0.15,-4.169705,-19.02761,0
1561243450.367623,112,0,0,1561243449.989511,4.602357312109882,-74.06499431475444,2653.198,0.86,253.828125,4,10,-9999,1561243450.358937,-1.284305572509766,-2.986010551452637,32.23052978515625,90.47431945800781,98.01800537109375,20,65550.25543800001,-0.53509521484375,0.5346527099609375,0.3708648681640625,65550.25037200001,-4.704550764664369,7.877180430230164,2.854054080171137,65550.240149,32.81280517578125,-3.136444091796875,-503.8279418945312,65550.25037200001,-0.8635857170914528,-1.918773942730291,0.007649148624062367,-4.705688953399658,7.871763706207275,2.851445198059082,0.4039955139160156,0.5558058023452759,0.003159403800964355,1,-0.3406879007816315,-0.7445974946022034,-0.2430706173181534,0.5200220942497253,-0.9400367140769958,-0.007649073842912912,0.340987354516983,0,0,0,-1,65549.11153141667,1,2,1561243449.232934,1561243107.271691,28,1.054203,0,0,24.53997,0,0,1561243350.380748,65547.220547,0,-2.528809,74.5715,2650634390,177292352,1,1,0.15,-4.169705,-19.02761,0
1561243450.388795,113,0,0,1561243449.989511,4.602357312109882,-74.06499431475444,2653.198,0.86,253.828125,4,10,-9999,1561243450.358937,-1.284305572509766,-2.986010551452637,32.23052978515625,90.47431945800781,98.01800537109375,20,65550.27570100001,-0.47021484375,0.6342315673828125,0.5126190185546875,65550.270636,-3.410519193098213,3.36302970453992,2.725882794808348,65550.26022900001,27.34518432617188,-5.5128173828125,-505.4279479980469,65550.270636,-0.9617693544730945,-1.797251119282594,-0.02329763950022024,-3.411657333374023,3.35761284828186,2.723273992538452,0.464834988117218,0.537922739982605,0.2056666612625122,1,-0.3683492839336395,-0.6903263330459595,-0.2799314558506012,0.5562433004379272,-0.974203884601593,0.02329553104937077,0.2244632840156555,0,0,0,-1,65549.11153141667,1,2,1561243449.232934,1561243107.271691,28,1.054203,0,0,24.53997,0,0,1561243350.380748,65547.220547,0,-2.528809,74.5715,2650634390,177292352,1,1,0.15,-4.169705,-19.29325,0
1561243450.422578,114,0,0,1561243449.989511,4.602357312109882,-74.06499431475444,2653.198,0.86,253.828125,4,10,-9999,1561243450.42055,-11.64770698547363,-8.377864837646484,29.0181884765625,101.3467254638672,108.8904113769531,20,65550.295965,-0.5001373291015625,0.6343841552734375,0.6929473876953125,65550.290899,0.9459838476520273,-5.571136991789537,2.271980010201859,65550.28031,25.57980346679688,-6.867462158203125,-506.3938598632812,65550.290899,-1.00166141912173,-1.818986165990217,-0.06658679679734571,0.9448457360267639,-5.576553821563721,2.269371271133423,0.5067765712738037,0.57173752784729,0.3622708320617676,1,-0.396656721830368,-0.6820675134658813,-0.2716777622699738,0.5510340929031372,-0.9672105312347412,0.06653760373592377,0.2451052963733673,0,0,0,-1,65549.11153141667,1,2,1561243449.232934,1561243107.271691,28,1.054203,0,0,24.53997,0,0,1561243350.380748,65547.220547,0,-2.528809,74.5715,2650634390,177292352,1,1,0.15,-4.169705,-21.10073,0
1561243450.428622,115,0,0,1561243449.989511,4.602357312109882,-74.06499431475444,2653.198,0.86,253.828125,4,10,-9999,1561243450.42055,-11.64770698547363,-8.377864837646484,29.0181884765625,101.3467254638672,108.8904113769531,20,65550.316229,-0.7154083251953125,0.5973968505859375,0.6264801025390625,65550.31116300001,5.239735888901166,-10.80935754203045,1.912989623684704,65550.30042100001,29.52334594726562,-5.165069580078125,-505.1450805664062,65550.31116300001,-0.9515055059175109,-1.991027951353576,-0.1286665345877187,5.238597869873047,-10.81477451324463,1.910380840301514,0.3243472576141357,0.509139358997345,0.2935053110122681,1,-0.4145846664905548,-0.7282989621162415,-0.2007229328155518,0.5073564648628235,-0.9054476618766785,0.128311812877655,0.4045996367931366,0,0,0,-1,65549.11153141667,1,2,1561243449.232934,1561243107.271691,28,1.054203,0,0,24.53997,0,0,1561243350.380748,65547.220547,0,-2.528809,74.5715,2650634390,177292352,1,1,0.15,-4.169705,-21.10073,0
1561243450.449297,116,0,0,1561243449.989511,4.602357312109882,-74.06499431475444,2653.198,0.86,253.828125,4,10,-9999,1561243450.448122,0.3716926574707031,-2.122485637664795,32.1519775390625,95.57632446289062,103.1200103759766,20,65550.33649300001,-0.8545379638671875,0.5579376220703125,0.3842315673828125,65550.331427,5.542652353402267,-9.472542287552169,1.877113914324138,65550.32050100001,36.5093994140625,-1.384384155273438,-502.8271484375,65550.331427,-0.86888459319655,-2.191838402647472,-0.219151691896657,5.541513919830322,-9.477958679199219,1.874505162239075,0.003430724143981934,0.3425806164741516,-0.07434368133544922,1,-0.4174422323703766,-0.7808487415313721,-0.1030739992856979,0.4532029330730438,-0.7938207387924194,0.2174016833305359,0.567965567111969,0,0,0,-1,65549.11153141667,1,2,1561243449.232934,1561243107.271691,28,1.054203,0,0,24.53997,0,0,1561243350.380748,65547.220547,0,-2.528809,74.5715,2650634390,177292352,1,1,0.15,-4.169705,-21.7442,0
1561243450.469021,117,0,0,1561243449.989511,4.602357312109882,-74.06499431475444,2653.198,0.86,253.828125,4,10,-9999,1561243450.448122,0.3716926574707031,-2.122485637664795,32.1519775390625,95.57632446289062,103.1200103759766,20,65550.35675600001,-0.9227142333984375,0.612823486328125,0.428314208984375,65550.35166,2.860719173431278,-3.174008384062128,2.203117055999027,65550.340582,42.78877258300781,2.17510986328125,-502.8963928222656,65550.35166,-0.8253934236019006,-2.313966756228317,-0.3059583991698408,2.859580993652344,-3.179425239562988,2.20050835609436,-0.1976340413093567,0.2870038449764252,-0.2624813318252563,1,-0.419068306684494,-0.8043524622917175,-0.0315852127969265,0.4200013279914856,-0.702130913734436,0.3012072145938873,0.6452022790908813,0,0,0,-1,65549.11153141667,1,2,1561243449.232934,1561243107.271691,28,1.054203,0,0,24.53997,0,0,1561243350.380748,65547.220547,0,-2.528809,74.5715,2650634390,177292352,1,1,0.15,-4.169705,-22.20605,0
1561243450.500813,118,0,0,1561243449.989511,4.602357312109882,-74.06499431475444,2653.198,0.86,253.828125,4,10,-9999,1561243450.471187,5.404930114746094,0.8620390892028809,31.90338134765625,93.67449188232422,101.2181777954102,20,65550.37698900001,-0.9562835693359375,0.657867431640625,0.411285400390625,65550.371923,-0.8090678065338546,3.660477634058652,3.13294963058805,65550.36069300001,44.55418395996094,3.688934326171875,-503.1869506835938,65550.371923,-0.8477783189862602,-2.314263241871608,-0.3588650528105082,-0.81020587682724,3.655060768127441,3.130340814590454,-0.2535931468009949,0.272048681974411,-0.2034742832183838,1,-0.4359601438045502,-0.79170823097229,-0.01372351963073015,0.4277247190475464,-0.6892321705818176,0.351211816072464,0.6337263584136963,0,0,0,-1,65549.11153141667,1,2,1561243449.232934,1561243107.271691,28,1.054203,0,0,24.53997,0,0,1561243350.380748,65547.220547,0,-2.528809,74.5715,2650634390,177292352,1,1,0.15,-4.169705,-23.20954,0
1561243450.509524,119,0,0,1561243449.989511,4.602357312109882,-74.06499431475444,2653.198,0.86,253.828125,4,10,-9999,1561243450.499474,5.670166015625,1.706794261932373,32.05917358398438,97.87741088867188,105.4210968017578,20,65550.397253,-0.967376708984375,0.7454833984375,0.4625701904296875,65550.392187,-3.223677669972651,8.107348388498005,4.104521396309668,65550.380774,41.65029907226562,2.937911987304688,-502.7765197753906,65550.392187,-0.9353295120122596,-2.222395190158205,-0.3870698658302401,-3.224815845489502,8.101931571960449,4.101912498474121,-0.2227382659912109,0.328577995300293,-0.1309890747070312,1,-0.4726346433162689,-0.7466006875038147,-0.04237516224384308,0.4662706553936005,-0.7362919449806213,0.377476692199707,0.561592161655426,0,0,0,-1,65549.11153141667,1,2,1561243449.232934,1561243107.271691,28,1.054203,0,0,24.53997,0,0,1561243350.380748,65547.220547,0,-2.528809,74.5715,2650634390,177292352,1,1,0.15,-4.169705,-24.13091,0
1561243450.529728,120,0,0,1561243449.989511,4.602357312109882,-74.06499431475444,2653.198,0.86,253.828125,4,10,-9999,1561243450.521932,1.792659759521484,0.394258975982666,32.22491455078125,106.2390975952148,113.7827835083008,20,65550.41751700001,-1.03558349609375,0.8060455322265625,0.4161224365234375,65550.41245100001,-4.082074144113608,9.974113525142204,4.797790697589133,65550.40085400001,35.76681518554688,0.9514007568359375,-502.9447631835938,65550.41245100001,-1.058108167837753,-2.083893315727278,-0.4210283021955101,-4.083212375640869,9.968696594238281,4.795181751251221,-0.2047191858291626,0.3724287748336792,0.008762836456298828,1,-0.5171626806259155,-0.6756828427314758,-0.09327808022499084,0.5170055627822876,-0.7951434850692749,0.4086991548538208,0.4480090737342834,0,0,0,-1,65549.11153141667,1,2,1561243449.232934,1561243107.271691,28,1.054203,0,0,24.53997,0,0,1561243350.380748,65547.220547,0,-2.528809,74.5715,2650634390,177292352,1,1,0.15,-4.169705,-24.13091,0
1561243450.549985,121,0,0,1561243449.989511,4.602357312109882,-74.06499431475444,2653.198,0.86,253.828125,4,10,-9999,1561243450.548167,-11.36842155456543,-3.748235464096069,29.69073486328125,115.7662048339844,123.3098907470703,20,65550.43778000001,-1.076995849609375,0.8070068359375,0.369781494140625,65550.43271400001,-4.186072715210074,8.923701005877662,5.317690342433312,65550.420935,28.66690063476562,-1.265914916992188,-504.3632202148438,65550.43271400001,-1.191222597939385,-1.94546844362972,-0.4778287318468465,-4.187211036682129,8.91828441619873,5.315081596374512,-0.2403030395507812,0.3496265709400177,0.05917787551879883,1,-0.5607682466506958,-0.5899387001991272,-0.1450065672397614,0.5625694394111633,-0.8263931274414062,0.4598521888256073,0.3249773979187012,0,0,0,-1,65549.11153141667,1,2,1561243449.232934,1561243107.271691,28,1.054203,0,0,24.53997,0,0,1561243350.380748,65547.220547,0,-2.528809,74.5715,2650634390,177292352,1,1,0.15,-4.169705,-24.93331,0
1561243450.58448,122,0,0,1561243449.989511,4.602357312109882,-74.06499431475444,2653.198,0.86,253.828125,4,10,-9999,1561243450.548167,-11.36842155456543,-3.748235464096069,29.69073486328125,115.7662048339844,123.3098907470703,20,65550.458044,-1.028182983398438,0.8160400390625,0.380035400390625,65550.45294800001,-4.351216399670323,6.249547984715232,5.502781103458255,65550.441015,22.85050964355469,-2.468063354492188,-507.4403686523438,65550.45294800001,-1.325447765739542,-1.857829499083137,-0.5546296345588889,-4.352354526519775,6.244131088256836,5.500172138214111,-0.2259737253189087,0.2691326141357422,0.1273273229598999,1,-0.6031950712203979,-0.5064485669136047,-0.1814220249652863,0.5888562202453613,-0.8153164982795715,0.5266284942626953,0.2406688928604126,0,0,0,-1,65549.11153141667,1,2,1561243449.232934,1561243107.271691,28,1.054203,0,0,24.53997,0,0,1561243350.380748,65547.220547,0,-2.528809,74.5715,2650634390,177292352,1,1,0.15,-4.169705,-24.17907,0
