loggingTime,loggingSample,identifierForVendor,deviceID,locationTimestamp_since1970,locationLatitude,locationLongitude,locationAltitude,locationSpeed,locationCourse,locationVerticalAccuracy,locationHorizontalAccuracy,locationFloor,locationHeadingTimestamp_since1970,locationHeadingX,locationHeadingY,locationHeadingZ,locationTrueHeading,locationMagneticHeading,locationHeadingAccuracy,accelerometerTimestamp_sinceReboot,accelerometerAccelerationX,accelerometerAccelerationY,accelerometerAccelerationZ,gyroTimestamp_sinceReboot,gyroRotationX,gyroRotationY,gyroRotationZ,magnetometerTimestamp_sinceReboot,magnetometerX,magnetometerY,magnetometerZ,motionTimestamp_sinceReboot,motionYaw,motionRoll,motionPitch,motionRotationRateX,motionRotationRateY,motionRotationRateZ,motionUserAccelerationX,motionUserAccelerationY,motionUserAccelerationZ,motionAttitudeReferenceFrame,motionQuaternionX,motionQuaternionY,motionQuaternionZ,motionQuaternionW,motionGravityX,motionGravityY,motionGravityZ,motionMagneticFieldX,motionMagneticFieldY,motionMagneticFieldZ,motionMagneticFieldCalibrationAccuracy,activityTimestamp_sinceReboot,activity,activityActivityConfidence,activityActivityStartDate,pedometerStartDate,pedometerNumberofSteps,pedometerAverageActivePace,pedometerCurrentPace,pedometerCurrentCadence,pedometerDistance,pedometerFloorAscended,pedometerFloorDescended,pedometerEndDate,altimeterTimestamp_sinceReboot,altimeterReset,altimeterRelativeAltitude,altimeterPressure,IP_en0,IP_pdp_ip0,deviceOrientation,batteryState,batteryLevel,avAudioRecorderPeakPower,avAudioRecorderAveragePower,label
1561243459.266526,1,0,0,1561243458.989384,4.602305218581671,-74.06496464281722,2650.362,0.2,339.9609375,4,10,-9999,1561243459.241409,-22.1917610168457,5.432360172271729,24.2442626953125,107.2618103027344,114.8054962158203,20,65559.14888266668,-0.72412109375,0.6826324462890625,-0.0591583251953125,65559.14378566667,-0.05340676618434004,0.03772793789871653,-0.022014222202813,65559.13856766667,15.44566345214844,7.09478759765625,-513.1298828125,65559.14378566667,-1.073364111396358,-1.498524784352388,-0.766640114963404,-0.05454334244132042,0.03231344372034073,-0.02462330833077431,-0.008700668811798096,-0.008996307849884033,-0.006906270980834961,1,-0.5583064556121826,-0.4028522372245789,-0.1282728910446167,0.7138277292251587,-0.7183653712272644,0.693719208240509,-0.05200795456767082,0,0,0,-1,65556.89065975,1,2,1561243457.012062,1561243107.271691,28,1.054203,0,0,24.53997,0,0,1561243350.380748,65556.62398600001,0,-5.01001,74.59476,2650634390,177292352,1,1,0.15,-28.25159,-33.73616,1
1561243459.281299,2,0,0,1561243458.989384,4.602305218581671,-74.06496464281722,2650.362,0.2,339.9609375,4,10,-9999,1561243459.265434,-22.2374324798584,5.211352348327637,24.2706298828125,107.4643783569336,115.0080642700195,20,65559.16911566666,-0.720733642578125,0.685577392578125,-0.0549163818359375,65559.16404966667,-0.0505523901279931,0.04105502504855253,-0.003449858876088645,65559.15864866666,15.16920471191406,7.185867309570312,-513.2691650390625,65559.16404966667,-1.074936752526991,-1.498975185732422,-0.7663634337790655,-0.05168896540999413,0.03564053028821945,-0.006058945320546627,-0.004289686679840088,-0.01081115007400513,-0.006300449371337891,1,-0.5585893988609314,-0.4026522040367126,-0.1288028359413147,0.7136238217353821,-0.7185801863670349,0.6935198903083801,-0.05169817060232162,0,0,0,-1,65556.89065975,1,2,1561243457.012062,1561243107.271691,28,1.054203,0,0,24.53997,0,0,1561243350.380748,65556.62398600001,0,-5.01001,74.59476,2650634390,177292352,1,1,0.15,-28.25159,-33.73616,1
1561243459.30454,3,0,0,1561243458.989384,4.602305218581671,-74.06496464281722,2650.362,0.2,339.9609375,4,10,-9999,1561243459.265434,-22.2374324798584,5.211352348327637,24.2706298828125,107.4643783569336,115.0080642700195,20,65559.18937966667,-0.7135467529296875,0.677337646484375,-0.0558929443359375,65559.18431366667,-0.03317020400915493,0.03617132024156522,0.02486407088530679,65559.17872866667,15.36276245117188,7.374710083007812,-513.2717895507812,65559.18431366667,-1.076080698363232,-1.499066644068896,-0.7665679614612445,-0.03430677950382233,0.03075682930648327,0.02225498482584953,0.002119481563568115,-0.01169091463088989,-0.004057049751281738,1,-0.5588718056678772,-0.4023073017597198,-0.1291155815124512,0.7135406732559204,-0.7184433341026306,0.6936672329902649,-0.05162227898836136,0,0,0,-1,65556.89065975,1,2,1561243457.012062,1561243107.271691,28,1.054203,0,0,24.53997,0,0,1561243350.380748,65556.62398600001,0,-5.01001,74.59476,2650634390,177292352,1,1,0.15,-27.63808,-31.98319,1
1561243459.322026,4,0,0,1561243458.989384,4.602305218581671,-74.06496464281722,2650.362,0.2,339.9609375,4,10,-9999,1561243459.309665,-22.32823181152344,5.13336181640625,24.186279296875,107.6178436279297,115.1615295410156,20,65559.20964266667,-0.7162322998046875,0.6745452880859375,-0.0528106689453125,65559.20457666667,-0.01871563087664085,0.02033110439388292,0.02059502365790977,65559.19883966667,15.28421020507812,7.247970581054688,-513.274658203125,65559.20457666667,-1.076717523413293,-1.499018837488644,-0.7670183352777573,-0.01985220424830914,0.01491661183536053,0.01798593625426292,0.003270268440246582,-0.01933950185775757,-0.00317537784576416,1,-0.5590986013412476,-0.4019846320152283,-0.1292023807764053,0.7135291695594788,-0.7181292772293091,0.6939916014671326,-0.05163421854376793,0,0,0,-1,65556.89065975,1,2,1561243457.012062,1561243107.271691,28,1.054203,0,0,24.53997,0,0,1561243350.380748,65556.62398600001,0,-5.01001,74.59476,2650634390,177292352,1,1,0.15,-27.63808,-32.87122,1
1561243459.341977,5,0,0,1561243458.989384,4.602305218581671,-74.06496464281722,2650.362,0.2,339.9609375,4,10,-9999,1561243459.309665,-22.32823181152344,5.13336181640625,24.186279296875,107.6178436279297,115.1615295410156,20,65559.22990666667,-0.72283935546875,0.6800079345703125,-0.052978515625,65559.22484066668,-0.03717586460474311,0.028635373304968,0.02166215230670452,65559.21892066667,15.52684020996094,7.445907592773438,-513.1865234375,65559.22484066668,-1.077345179729767,-1.499041325598409,-0.7673432438046152,-0.03830935060977936,0.0232256855815649,0.01905244402587414,-0.002049922943115234,-0.0158655047416687,-0.001101970672607422,1,-0.5592995882034302,-0.4017250537872314,-0.1293090879917145,0.7134985327720642,-0.7179055213928223,0.6942254900932312,-0.05160190537571907,0,0,0,-1,65556.89065975,1,2,1561243457.012062,1561243107.271691,28,1.054203,0,0,24.53997,0,0,1561243350.380748,65556.62398600001,0,-5.01001,74.59476,2650634390,177292352,1,1,0.15,-27.63808,-29.98156,1
1561243459.362327,6,0,0,1561243458.989384,4.602305218581671,-74.06496464281722,2650.362,0.2,339.9609375,4,10,-9999,1561243459.360911,-22.32674026489258,5.17449426651001,24.300537109375,107.7532043457031,115.2968902587891,20,65559.25017066667,-0.724609375,0.68231201171875,-0.055145263671875,65559.24510466667,-0.06174645513792317,0.0122239094034637,0.01493394212872834,65559.23900066667,15.34269714355469,7.120941162109375,-513.455078125,65559.24510466667,-1.078785375004676,-1.499644073100858,-0.7677307473954949,-0.06287994235754013,0.006814221385866404,0.01232423447072506,-0.007749855518341064,-0.01416075229644775,-0.004422426223754883,1,-0.559715211391449,-0.4014272689819336,-0.129521906375885,0.7133016586303711,-0.7176682353019714,0.6945043206214905,-0.05115006119012833,0,0,0,-1,65556.89065975,1,2,1561243457.012062,1561243107.271691,28,1.054203,0,0,24.53997,0,0,1561243350.380748,65556.62398600001,0,-5.01001,74.59476,2650634390,177292352,1,1,0.15,-27.63808,-29.56104,1
1561243459.382557,7,0,0,1561243458.989384,4.602305218581671,-74.06496464281722,2650.362,0.2,339.9609375,4,10,-9999,1561243459.360911,-22.32674026489258,5.17449426651001,24.300537109375,107.7532043457031,115.2968902587891,20,65559.27043366666,-0.727874755859375,0.6841278076171875,-0.0610504150390625,65559.26533766667,-0.04612195533853729,-0.01188329110004257,0.003889546772060727,65559.25908166666,15.48211669921875,7.209014892578125,-513.3807373046875,65559.26533766667,-1.080388781264292,-1.500920771320552,-0.7678698337142092,-0.04725544154644012,-0.01729298010468483,0.001279838848859072,-0.009612858295440674,-0.01040029525756836,-0.008290410041809082,1,-0.5601511597633362,-0.4013940393924713,-0.1296886056661606,0.7129476070404053,-0.7176362872123718,0.6946043968200684,-0.05022700503468513,0,0,0,-1,65556.89065975,1,2,1561243457.012062,1561243107.271691,28,1.054203,0,0,24.53997,0,0,1561243350.380748,65556.62398600001,0,-5.01001,74.59476,2650634390,177292352,1,1,0.15,-27.63808,-29.76099,1
1561243459.402737,8,0,0,1561243458.989384,4.602305218581671,-74.06496464281722,2650.362,0.2,339.9609375,4,10,-9999,1561243459.384737,-22.29849052429199,5.132040500640869,24.11492919921875,107.8447418212891,115.388427734375,20,65559.29066766668,-0.7203826904296875,0.679718017578125,-0.06732177734375,65559.28560166668,-0.01664981681906639,0.001476190192230922,0.004254399841401583,65559.27916166667,15.63603210449219,7.162139892578125,-513.259521484375,65559.28560166668,-1.081232530684294,-1.501665121278335,-0.7678812835027341,-0.01778330467641354,-0.003933498170226812,0.001644691918045282,-0.005082190036773682,-0.01294147968292236,-0.01477611064910889,1,-0.5603713393211365,-0.4014197587966919,-0.1297769397497177,0.7127440571784973,-0.7176656723022461,0.6946126222610474,-0.04969227686524391,0,0,0,-1,65556.89065975,1,2,1561243457.012062,1561243107.271691,28,1.054203,0,0,24.53997,0,0,1561243350.380748,65556.62398600001,0,-5.01001,74.59476,2650634390,177292352,1,1,0.15,-27.63808,-30.57855,1
1561243459.423717,9,0,0,1561243458.989384,4.602305218581671,-74.06496464281722,2650.362,0.2,339.9609375,4,10,-9999,1561243459.411078,-22.16072273254395,5.270853519439697,24.15423583984375,107.8745040893555,115.4181900024414,20,65559.31093066667,-0.7166900634765625,0.6787567138671875,-0.06201171875,65559.30586466668,0.0003856257258434737,0.01422128022102313,-0.000716656649340323,65559.29924266668,15.27317810058594,7.16766357421875,-513.0858154296875,65559.30586466668,-1.081459627923743,-1.501798904296545,-0.7677877535050894,-0.00074786227196455,0.008811591193079948,-0.003326364560052752,-3.647804260253906e-05,-0.01559031009674072,-0.01636302471160889,1,-0.5604045987129211,-0.4014303386211395,-0.1298523098230362,0.7126981616020203,-0.7177370190620422,0.6945453286170959,-0.04960073903203011,0,0,0,-1,65556.89065975,1,2,1561243457.012062,1561243107.271691,28,1.054203,0,0,24.53997,0,0,1561243350.380748,65556.62398600001,0,-5.01001,74.59476,2650634390,177292352,1,1,0.15,-27.63808,-30.57855,1
1561243459.444534,10,0,0,1561243458.989384,4.602305218581671,-74.06496464281722,2650.362,0.2,339.9609375,4,10,-9999,1561243459.435502,-22.31276893615723,5.232255458831787,24.119384765625,107.8758163452148,115.4195022583008,20,65559.33119466667,-0.721710205078125,0.6823883056640625,-0.0562591552734375,65559.32612866667,-0.00809281392053279,0.03287938681811828,-0.0009600695729735653,65559.31935366667,15.60501098632812,6.997268676757812,-513.3550415039062,65559.32612866667,-1.08154747932975,-1.501495506505644,-0.7676299955829669,-0.009226301684975624,0.0274696983397007,-0.003569777589291334,-0.00184929370880127,-0.0141492486000061,-0.009011745452880859,1,-0.5603669881820679,-0.4013424813747406,-0.1300226002931595,0.7127463221549988,-0.7178314924240112,0.6944318413734436,-0.04982610419392586,0,0,0,-1,65556.89065975,1,2,1561243457.012062,1561243107.271691,28,1.054203,0,0,24.53997,0,0,1561243350.380748,65556.62398600001,0,-5.01001,74.59476,2650634390,177292352,1,1,0.15,-27.63808,-30.97823,1
1561243459.467236,11,0,0,1561243458.989384,4.602305218581671,-74.06496464281722,2650.362,0.2,339.9609375,4,10,-9999,1561243459.461916,-22.23946380615234,5.047114849090576,24.0361328125,107.9101181030273,115.4538040161133,20,65559.35145866667,-0.7153167724609375,0.6858367919921875,-0.0523834228515625,65559.34639266667,-0.0345742225358447,0.06479177984442878,0.002272475358164614,65559.33943466668,15.22209167480469,6.976638793945312,-513.3566284179688,65559.34639266667,-1.082117008068598,-1.501009094466066,-0.7675570189363242,-0.03570770844817162,0.05938208848237991,-0.0003372326027601957,-0.0009840726852416992,-0.01128911972045898,-0.004264593124389648,1,-0.5604332089424133,-0.4010302126407623,-0.1303867250680923,0.7128033638000488,-0.7178574800491333,0.6943793296813965,-0.05017877370119095,0,0,0,-1,65556.89065975,1,2,1561243457.012062,1561243107.271691,28,1.054203,0,0,24.53997,0,0,1561243350.380748,65556.62398600001,0,-5.01001,74.59476,2650634390,177292352,1,1,0.15,-27.63808,-31.69491,1
1561243459.483849,12,0,0,1561243458.989384,4.602305218581671,-74.06496464281722,2650.362,0.2,339.9609375,4,10,-9999,1561243459.461916,-22.23946380615234,5.047114849090576,24.0361328125,107.9101181030273,115.4538040161133,20,65559.37172166667,-0.714752197265625,0.684661865234375,-0.052520751953125,65559.36665566667,-0.06317763790773175,0.06280479535512067,0.005527124526350451,65559.35951466668,15.48292541503906,6.856063842773438,-513.327392578125,65559.36665566667,-1.083479203738663,-1.500703325694336,-0.7676229775441684,-0.06431112438440323,0.05739510804414749,0.002917416393756866,0.001579403877258301,-0.009764909744262695,-0.003544747829437256,1,-0.5607010126113892,-0.4005207121372223,-0.130935400724411,0.7127786874771118,-0.7177965044975281,0.6944267749786377,-0.05039506778120995,0,0,0,-1,65556.89065975,1,2,1561243457.012062,1561243107.271691,28,1.054203,0,0,24.53997,0,0,1561243350.380748,65556.62398600001,0,-5.01001,74.59476,2650634390,177292352,1,1,0.15,-27.63808,-28.68171,1
1561243459.504207,13,0,0,1561243458.989384,4.602305218581671,-74.06496464281722,2650.362,0.2,339.9609375,4,10,-9999,1561243459.486799,-22.14835357666016,5.059386730194092,24.08782958984375,108.015983581543,115.5596694946289,20,65559.39198566668,-0.718017578125,0.6850738525390625,-0.0520782470703125,65559.38688966667,-0.06410974428925949,0.02577061092036977,0.005883189164094045,65559.37959566667,15.60832214355469,6.906234741210938,-513.4715576171875,65559.38688966667,-1.085309647850534,-1.501040512610042,-0.7677053522265259,-0.06524322926998138,0.0203609224408865,0.003273481037467718,0.002760052680969238,-0.01029723882675171,-0.0008458495140075684,1,-0.5611079931259155,-0.4001041054725647,-0.1314649879932404,0.7125949263572693,-0.717756450176239,0.6944860816001892,-0.05014904960989952,0,0,0,-1,65556.89065975,1,2,1561243457.012062,1561243107.271691,28,1.054203,0,0,24.53997,0,0,1561243350.380748,65556.62398600001,0,-5.01001,74.59476,2650634390,177292352,1,1,0.15,-27.63808,-29.35239,1
1561243459.524424,14,0,0,1561243458.989384,4.602305218581671,-74.06496464281722,2650.362,0.2,339.9609375,4,10,-9999,1561243459.512442,-22.04249954223633,4.857122898101807,24.1243896484375,108.1297225952148,115.6734085083008,20,65559.41221866666,-0.716278076171875,0.6849212646484375,-0.051971435546875,65559.40715266667,-0.0362847709040026,0.00549010658719835,-0.001608282982298852,65559.39967566667,15.37322998046875,6.669143676757812,-513.45703125,65559.40715266667,-1.086668223026861,-1.501800726680248,-0.7677031296606698,-0.03741825744509697,8.041830733418465e-05,-0.004217990674078465,0.0004646778106689453,-0.008281469345092773,-0.001711845397949219,1,-0.5614293217658997,-0.3999942243099213,-0.1317363083362579,0.7123532295227051,-0.7177956104278564,0.6944844722747803,-0.04960347339510918,0,0,0,-1,65556.89065975,1,2,1561243457.012062,1561243107.271691,28,1.054203,0,0,24.53997,0,0,1561243350.380748,65556.62398600001,0,-5.01001,74.59476,2650634390,177292352,1,1,0.15,-27.20854,-29.97417,1
1561243459.550811,15,0,0,1561243458.989384,4.602305218581671,-74.06496464281722,2650.362,0.2,339.9609375,4,10,-9999,1561243459.539019,-22.18877983093262,4.955605030059814,24.0965576171875,108.192138671875,115.7358245849609,20,65559.43248266667,-0.7205963134765625,0.687591552734375,-0.054901123046875,65559.42741666667,-0.02354074613964642,0.0333204062946354,0.006602508974524447,65559.41978666667,15.38308715820312,6.970840454101562,-513.2574462890625,65559.42741666667,-1.087475607981121,-1.502142152433233,-0.7676544753865024,-0.02467423491179943,0.02791071683168411,0.003992801066488028,-0.0004000663757324219,-0.009543418884277344,-0.006074428558349609,1,-0.5616023540496826,-0.3999030292034149,-0.1319446563720703,0.7122295498847961,-0.7178463935852051,0.6944494247436523,-0.0493607260286808,0,0,0,-1,65556.89065975,1,2,1561243457.012062,1561243107.271691,28,1.054203,0,0,24.53997,0,0,1561243350.380748,65556.62398600001,0,-5.01001,74.59476,2650634390,177292352,1,1,0.15,-27.20854,-30.43285,1
1561243459.56478,16,0,0,1561243458.989384,4.602305218581671,-74.06496464281722,2650.362,0.2,339.9609375,4,10,-9999,1561243459.539019,-22.18877983093262,4.955605030059814,24.0965576171875,108.192138671875,115.7358245849609,20,65559.45274566667,-0.7184600830078125,0.684295654296875,-0.05938720703125,65559.44768066666,-0.02378815380491478,0.06503732329693408,0.02148611735865029,65559.43986766668,15.31922912597656,6.882064819335938,-513.37109375,65559.44768066666,-1.088156823337952,-1.501639622460972,-0.7680001285703763,-0.02492164261639118,0.05962763726711273,0.01887640915811062,-0.005364060401916504,-0.007610142230987549,-0.008873641490936279,1,-0.5617826581001282,-0.399434357881546,-0.132210373878479,0.7123011350631714,-0.717582106590271,0.6946980953216553,-0.04970487579703331,0,0,0,-1,65556.89065975,1,2,1561243457.012062,1561243107.271691,28,1.054203,0,0,24.53997,0,0,1561243350.380748,65556.62398600001,0,-5.01001,74.59476,2650634390,177292352,1,1,0.15,-27.20854,-30.43285,1
1561243459.585336,17,0,0,1561243458.989384,4.602305218581671,-74.06496464281722,2650.362,0.2,339.9609375,4,10,-9999,1561243459.563607,-22.43881607055664,5.051948070526123,24.08251953125,108.2325134277344,115.7761993408203,20,65559.47300966668,-0.7186126708984375,0.6836090087890625,-0.0545196533203125,65559.46794366668,-0.01948288758669268,0.06558486921705438,0.01106783117426031,65559.45994866667,15.22550964355469,6.9796142578125,-513.1300659179688,65559.46794366668,-1.088688915005435,-1.500823475997827,-0.7682724432470541,-0.02061637677252293,0.06017518043518066,0.008458122611045837,-0.001305878162384033,-0.01015579700469971,-0.008224904537200928,1,-0.5618957877159119,-0.398916631937027,-0.1325362026691437,0.7124415040016174,-0.717352569103241,0.6948939561843872,-0.05027728900313377,0,0,0,-1,65556.89065975,1,2,1561243457.012062,1561243107.271691,28,1.054203,0,0,24.53997,0,0,1561243350.380748,65556.62398600001,0,-5.01001,74.59476,2650634390,177292352,1,1,0.15,-27.20854,-27.88059,1
1561243459.631082,18,0,0,1561243458.989384,4.602305218581671,-74.06496464281722,2650.362,0.2,339.9609375,4,10,-9999,1561243459.613898,-22.68896675109863,5.191276550292969,23.96881103515625,108.3407897949219,115.8844757080078,20,65559.49327366667,-0.72265625,0.6844635009765625,-0.055694580078125,65559.48817666667,-0.04119830311519879,0.04951508888340724,0.006056827267167212,65559.48002866667,15.07096862792969,7.228103637695312,-513.214111328125,65559.48817666667,-1.089553218875323,-1.500353356152218,-0.7684138674853689,-0.04233178868889809,0.0441053993999958,0.003447119146585464,-0.003731608390808105,-0.009723424911499023,-0.004278182983398438,1,-0.5620685219764709,-0.398466020822525,-0.1329279392957687,0.7124844789505005,-0.7172309160232544,0.694995641708374,-0.05060761421918869,0,0,0,-1,65556.89065975,1,2,1561243457.012062,1561243107.271691,28,1.054203,0,0,24.53997,0,0,1561243350.380748,65556.62398600001,0,-5.01001,74.59476,2650634390,177292352,1,1,0.15,-27.20854,-27.95517,1
1561243459.633949,19,0,0,1561243458.989384,4.602305218581671,-74.06496464281722,2650.362,0.2,339.9609375,4,10,-9999,1561243459.613898,-22.68896675109863,5.191276550292969,23.96881103515625,108.3407897949219,115.8844757080078,20,65559.51350666667,-0.7245330810546875,0.68316650390625,-0.048675537109375,65559.50844066667,-0.02832351714131972,0.04321564764093382,-0.0005158543031483485,65559.50013966668,15.13021850585938,6.982681274414062,-513.3533325195312,65559.50844066667,-1.090586931306928,-1.50021662276125,-0.7684075556588285,-0.02945700474083424,0.0378059595823288,-0.003125562099739909,-0.005214452743530273,-0.01080226898193359,7.730722427368164e-05,1,-0.5622639060020447,-0.3981285095214844,-0.1333367228507996,0.7124425172805786,-0.7172282338142395,0.6949911117553711,-0.05070598050951958,0,0,0,-1,65556.89065975,1,2,1561243457.012062,1561243107.271691,28,1.054203,0,0,24.53997,0,0,1561243350.380748,65556.62398600001,0,-5.01001,74.59476,2650634390,177292352,1,1,0.15,-27.20854,-27.95517,1
1561243459.645973,20,0,0,1561243458.989384,4.602305218581671,-74.06496464281722,2650.362,0.2,339.9609375,4,10,-9999,1561243459.640207,-22.47747421264648,5.040387153625488,24.0938720703125,108.3863220214844,115.9300079345703,20,65559.53377066668,-0.724609375,0.6808929443359375,-0.044189453125,65559.52870466666,-0.01720455327412989,0.03896763938614842,-0.001682585176712063,65559.52022066667,15.35066223144531,6.964614868164062,-513.2349853515625,65559.52870466666,-1.091182638321902,-1.499866638758397,-0.7682900514297597,-0.0183380413800478,0.0335579514503479,-0.004292292986065149,-0.005776405334472656,-0.01421201229095459,0.00512540340423584,1,-0.562332808971405,-0.3978698551654816,-0.1336874216794968,0.7124668955802917,-0.7172918319702148,0.6949066519737244,-0.05096277967095375,0,0,0,-1,65556.89065975,1,2,1561243457.012062,1561243107.271691,28,1.054203,0,0,24.53997,0,0,1561243350.380748,65556.62398600001,0,-5.01001,74.59476,2650634390,177292352,1,1,0.15,-27.20854,-28.76633,1
1561243459.666164,21,0,0,1561243458.989384,4.602305218581671,-74.06496464281722,2650.362,0.2,339.9609375,4,10,-9999,1561243459.640207,-22.47747421264648,5.040387153625488,24.0938720703125,108.3863220214844,115.9300079345703,20,65559.55403366667,-0.7254638671875,0.686737060546875,-0.041107177734375,65559.54896766668,-0.02369840527617911,0.04783836266109336,0.006554838391012029,65559.54030066667,15.12196350097656,6.970474243164062,-513.3958129882812,65559.54896766668,-1.091713135106319,-1.499475775923325,-0.7682256532930751,-0.02483189292252064,0.04242867603898048,0.00394513038918376,-0.008772850036621094,-0.01047307252883911,0.008674323558807373,1,-0.5623977184295654,-0.397599846124649,-0.1340083181858063,0.7125061750411987,-0.7173166275024414,0.6948603391647339,-0.05124633759260178,0,0,0,-1,65556.89065975,1,2,1561243457.012062,1561243107.271691,28,1.054203,0,0,24.53997,0,0,1561243350.380748,65556.62398600001,0,-5.01001,74.59476,2650634390,177292352,1,1,0.15,-27.20854,-29.51448,1
1561243459.710157,22,0,0,1561243458.989384,4.602305218581671,-74.06496464281722,2650.362,0.2,339.9609375,4,10,-9999,1561243459.688756,-22.31669616699219,4.915295124053955,24.08807373046875,108.4945220947266,116.0382080078125,20,65559.57429766667,-0.7198638916015625,0.681610107421875,-0.0454254150390625,65559.56923166667,-0.04844183496410531,0.05261953576611261,0.01726660492752874,65559.56038166667,15.34980773925781,6.796005249023438,-513.4175415039062,65559.56923166667,-1.092727174040201,-1.499223131929291,-0.7684176815322125,-0.0495753213763237,0.04720984771847725,0.01465689763426781,-0.003349661827087402,-0.01091635227203369,0.007930397987365723,1,-0.5626252293586731,-0.3971697986125946,-0.1343750655651093,0.7124972343444824,-0.7171703577041626,0.6949983835220337,-0.0514180064201355,0,0,0,-1,65556.89065975,1,2,1561243457.012062,1561243107.271691,28,1.054203,0,0,24.53997,0,0,1561243350.380748,65556.62398600001,0,-5.01001,74.59476,2650634390,177292352,1,1,0.15,-27.20854,-30.80007,1
1561243459.712815,23,0,0,1561243458.989384,4.602305218581671,-74.06496464281722,2650.362,0.2,339.9609375,4,10,-9999,1561243459.688756,-22.31669616699219,4.915295124053955,24.08807373046875,108.4945220947266,116.0382080078125,20,65559.59456166667,-0.7206268310546875,0.678436279296875,-0.0478363037109375,65559.58949566667,-0.0512679815128974,0.03814312471265989,0.0115416075321854,65559.58049266668,15.11468505859375,6.903915405273438,-513.5855712890625,65559.58949566667,-1.094138785342224,-1.499374800922203,-0.768698304776205,-0.05240146815776825,0.03273343667387962,0.008931899443268776,-0.001980125904083252,-0.01587885618209839,0.006205558776855469,1,-0.5629783272743225,-0.3967464566230774,-0.1347394734621048,0.7123852968215942,-0.7169834971427917,0.6952001452445984,-0.05129530280828476,0,0,0,-1,65556.89065975,1,2,1561243457.012062,1561243107.271691,28,1.054203,0,0,24.53997,0,0,1561243350.380748,65556.62398600001,0,-5.01001,74.59476,2650634390,177292352,1,1,0.15,-27.20854,-30.80007,1
1561243459.72701,24,0,0,1561243458.989384,4.602305218581671,-74.06496464281722,2650.362,0.2,339.9609375,4,10,-9999,1561243459.715198,-22.48899269104004,5.053954601287842,24.038818359375,108.5922622680664,116.1359481811523,20,65559.61482466667,-0.72412109375,0.6824951171875,-0.0473175048828125,65559.60972866668,-0.03074539583663778,0.01675900642375964,-0.008982842356837271,65559.60057366667,15.21307373046875,7.035369873046875,-513.2958984375,65559.60972866668,-1.095396594639269,-1.49980744814955,-0.7687063012434484,-0.03187888488173485,0.01134931854903698,-0.01159255020320415,-0.005396604537963867,-0.0142977237701416,0.001836121082305908,1,-0.5632587075233459,-0.3965441584587097,-0.1350629478693008,0.7122151255607605,-0.7170002460479736,0.6952058672904968,-0.05098471790552139,0,0,0,-1,65556.89065975,1,2,1561243457.012062,1561243107.271691,28,1.054203,0,0,24.53997,0,0,1561243350.380748,65556.62398600001,0,-5.01001,74.59476,2650634390,177292352,1,1,0.15,-27.20854,-30.80007,1
1561243459.74723,25,0,0,1561243458.989384,4.602305218581671,-74.06496464281722,2650.362,0.2,339.9609375,4,10,-9999,1561243459.739285,-22.34694671630859,5.043768405914307,24.11370849609375,108.6472320556641,116.19091796875,20,65559.63505766667,-0.7251434326171875,0.6859588623046875,-0.051666259765625,65559.62999266667,-0.01829192194720925,-0.01445670366138614,-0.008207329847406197,65559.62065366667,15.17134094238281,7.019012451171875,-513.2660522460938,65559.62999266667,-1.096126732236416,-1.500421582045078,-0.7684194142114033,-0.0194254107773304,-0.01986639201641083,-0.01081703789532185,-0.008401274681091309,-0.009620606899261475,0.00206601619720459,1,-0.563381016254425,-0.3966391682624817,-0.1352478414773941,0.7120304107666016,-0.7172304391860962,0.694999635219574,-0.05055840313434601,0,0,0,-1,65556.89065975,1,2,1561243457.012062,1561243107.271691,28,1.054203,0,0,24.53997,0,0,1561243350.380748,65556.62398600001,0,-5.01001,74.59476,2650634390,177292352,1,1,0.15,-27.20854,-31.2412,1
1561243459.787936,26,0,0,1561243458.989384,4.602305218581671,-74.06496464281722,2650.362,0.2,339.9609375,4,10,-9999,1561243459.769044,-22.46714210510254,4.972465515136719,23.90972900390625,108.6731185913086,116.2168045043945,20,65559.65532166667,-0.720855712890625,0.6846160888671875,-0.052978515625,65559.65025566667,-0.01652331666728762,0.003364904037315117,0.001127316089430541,65559.64073466667,14.98472595214844,6.8680419921875,-513.2654418945312,65559.65025566667,-1.096594619175536,-1.501073790023774,-0.7682568308458979,-0.01765680499374866,-0.00204478413797915,-0.001482391846366227,-0.004746377468109131,-0.009671568870544434,0.0002327561378479004,1,-0.5634817481040955,-0.3967859447002411,-0.1352860927581787,0.7118615508079529,-0.7173758149147034,0.6948827505111694,-0.05009846761822701,0,0,0,-1,65556.89065975,1,2,1561243457.012062,1561243107.271691,28,1.054203,0,0,24.53997,0,0,1561243350.380748,65556.62398600001,0,-5.01001,74.59476,2650634390,177292352,1,1,0.15,-27.20854,-31.9918,1
1561243459.790675,27,0,0,1561243458.989384,4.602305218581671,-74.06496464281722,2650.362,0.2,339.9609375,4,10,-9999,1561243459.769044,-22.46714210510254,4.972465515136719,23.90972900390625,108.6731185913086,116.2168045043945,20,65559.67558566667,-0.720672607421875,0.682891845703125,-0.054107666015625,65559.67051966667,-0.02786758396269816,0.02632268421434319,0.004547613877419307,65559.66084566667,15.0755615234375,6.8094482421875,-513.39453125,65559.67051966667,-1.09729106055883,-1.501314470859797,-0.7682633065950789,-0.02900107204914093,0.02091299556195736,0.001937905792146921,-0.001946449279785156,-0.01129364967346191,-0.005173981189727783,1,-0.5636376142501831,-0.3966735303401947,-0.1354639530181885,0.7117670178413391,-0.7173834443092346,0.6948873996734619,-0.04992549866437912,0,0,0,-1,65556.89065975,1,2,1561243457.012062,1561243107.271691,28,1.054203,0,0,24.53997,0,0,1561243350.380748,65556.62398600001,0,-5.01001,74.59476,2650634390,177292352,1,1,0.15,-27.20854,-31.9918,1
1561243459.808078,28,0,0,1561243458.989384,4.602305218581671,-74.06496464281722,2650.362,0.2,339.9609375,4,10,-9999,1561243459.790263,-22.50483322143555,4.841455459594727,24.1279296875,108.7230758666992,116.2667617797852,20,65559.69584866667,-0.72320556640625,0.6833953857421875,-0.0489349365234375,65559.69078366667,-0.01839658417804936,0.01899313226222711,-0.002319879625568024,65559.68092566667,15.21994018554688,6.85211181640625,-513.32763671875,65559.69078366667,-1.098032636411104,-1.501446875884532,-0.7681904729350325,-0.01953007280826569,0.01358344405889511,-0.004929587244987488,-0.003796696662902832,-0.01205003261566162,-0.002000093460083008,1,-0.5637774467468262,-0.3965324461460114,-0.1357153803110123,0.7116869688034058,-0.7174404859542847,0.6948350071907043,-0.04983402043581009,0,0,0,-1,65556.89065975,1,2,1561243457.012062,1561243107.271691,28,1.054203,0,0,24.53997,0,0,1561243350.380748,65556.62398600001,0,-5.01001,74.59476,2650634390,177292352,1,1,0.15,-27.20854,-32.85726,1
1561243459.828125,29,0,0,1561243458.989384,4.602305218581671,-74.06496464281722,2650.362,0.2,339.9609375,4,10,-9999,1561243459.816264,-22.3172492980957,4.832620143890381,24.049072265625,108.7601470947266,116.3038330078125,20,65559.71611266668,-0.7213592529296875,0.681427001953125,-0.048187255859375,65559.71104666666,-0.01124999139282173,0.0154873470032468,0.001656219881920278,65559.70100666667,15.25227355957031,6.889724731445312,-513.6996459960938,65559.71104666666,-1.098474923315724,-1.501519226678317,-0.7680976776694757,-0.01238347962498665,0.01007765904068947,-0.0009534880518913269,-0.004674732685089111,-0.01181542873382568,0.001828193664550781,1,-0.5638493895530701,-0.3964600563049316,-0.1358840465545654,0.7116381525993347,-0.7175084948539734,0.6947683095932007,-0.04978657886385918,0,0,0,-1,65556.89065975,1,2,1561243457.012062,1561243107.271691,28,1.054203,0,0,24.53997,0,0,1561243350.380748,65556.62398600001,0,-5.01001,74.59476,2650634390,177292352,1,1,0.15,-27.20854,-33.2474,1
1561243459.867192,30,0,0,1561243458.989384,4.602305218581671,-74.06496464281722,2650.362,0.2,339.9609375,4,10,-9999,1561243459.840545,-22.46612167358398,4.826943874359131,24.02191162109375,108.7783813476562,116.3220672607422,20,65559.73634566666,-0.720550537109375,0.68243408203125,-0.0421905517578125,65559.73127966667,-0.007423295222486868,0.0315696441940173,-0.003931092085065964,65559.72111766668,15.34541320800781,6.648529052734375,-513.3162231445312,65559.73127966667,-1.098788181913975,-1.50143571404686,-0.7680011974262572,-0.008556783199310303,0.02615995705127716,-0.006540799979120493,-0.003406763076782227,-0.01333290338516235,0.003479659557342529,1,-0.5638843774795532,-0.3963695764541626,-0.1360519379377365,0.7116286754608154,-0.7175710201263428,0.6946988701820374,-0.04985113441944122,0,0,0,-1,65556.89065975,1,2,1561243457.012062,1561243107.271691,28,1.054203,0,0,24.53997,0,0,1561243350.380748,65556.62398600001,0,-5.01001,74.59476,2650634390,177292352,1,1,0.15,-27.20854,-34.50286,1
1561243459.87259,31,0,0,1561243458.989384,4.602305218581671,-74.06496464281722,2650.362,0.2,339.9609375,4,10,-9999,1561243459.840545,-22.46612167358398,4.826943874359131,24.02191162109375,108.7783813476562,116.3220672607422,20,65559.75660966667,-0.7237548828125,0.680694580078125,-0.04150390625,65559.75154366667,-0.04324361083237965,0.05315403219689151,-0.005602758301308701,65559.74119866667,15.05316162109375,7.05462646484375,-513.3357543945312,65559.75154366667,-1.099512976505385,-1.501088032074043,-0.7678396391455288,-0.04437709599733353,0.04774434491991997,-0.008212465792894363,-0.002488195896148682,-0.01365923881530762,0.01046609878540039,1,-0.5639683604240417,-0.3960877060890198,-0.1364629864692688,0.7116403579711914,-0.7176656126976013,0.6945826411247253,-0.05010843649506569,0,0,0,-1,65556.89065975,1,2,1561243457.012062,1561243107.271691,28,1.054203,0,0,24.53997,0,0,1561243350.380748,65556.62398600001,0,-5.01001,74.59476,2650634390,177292352,1,1,0.15,-27.20854,-34.50286,1
1561243459.889055,32,0,0,1561243458.989384,4.602305218581671,-74.06496464281722,2650.362,0.2,339.9609375,4,10,-9999,1561243459.876326,-22.39090538024902,5.007482528686523,24.03741455078125,108.8208312988281,116.3645172119141,20,65559.77687366668,-0.7244873046875,0.6815338134765625,-0.03955078125,65559.77180766666,-0.04618587120469919,0.01542636061428399,-0.01617204571950617,65559.76127866667,15.39501953125,6.892074584960938,-513.3206787109375,65559.77180766666,-1.100868467536585,-1.501339561371553,-0.7676048574871006,-0.04731935635209084,0.01001667231321335,-0.018781753256917,-0.004952549934387207,-0.01313930749893188,0.01173120737075806,1,-0.5642017126083374,-0.3958621025085449,-0.1369544416666031,0.7114865779876709,-0.7178410291671753,0.6944137215614319,-0.04993924498558044,0,0,0,-1,65556.89065975,1,2,1561243457.012062,1561243107.271691,28,1.054203,0,0,24.53997,0,0,1561243350.380748,65556.62398600001,0,-5.01001,74.59476,2650634390,177292352,1,1,0.15,-27.20854,-34.50286,1
1561243459.909785,33,0,0,1561243458.989384,4.602305218581671,-74.06496464281722,2650.362,0.2,339.9609375,4,10,-9999,1561243459.876326,-22.39090538024902,5.007482528686523,24.03741455078125,108.8208312988281,116.3645172119141,20,65559.79713666668,-0.7229156494140625,0.6936492919921875,-0.044281005859375,65559.79207066668,-0.03085591702187607,0.000104928546949122,-0.01416109278038734,65559.78135966667,15.18133544921875,6.677352905273438,-513.2962036132812,65559.79207066668,-1.101968914713799,-1.502204620285287,-0.7672483038346581,-0.03198940306901932,-0.005304759833961725,-0.01677080057561398,-0.009713172912597656,-0.008183002471923828,0.008517980575561523,1,-0.5643996596336365,-0.3959613740444183,-0.1372234523296356,0.7112225294113159,-0.7181310653686523,0.6941571235656738,-0.04933523014187813,0,0,0,-1,65556.89065975,1,2,1561243457.012062,1561243107.271691,28,1.054203,0,0,24.53997,0,0,1561243350.380748,65556.62398600001,0,-5.01001,74.59476,2650634390,177292352,1,1,0.15,-27.20854,-34.55944,1
1561243459.943118,34,0,0,1561243458.989384,4.602305218581671,-74.06496464281722,2650.362,0.2,339.9609375,4,10,-9999,1561243459.941852,-22.64950942993164,5.115668296813965,24.0157470703125,109.0403518676758,116.5840377807617,20,65559.81740066667,-0.72088623046875,0.6879425048828125,-0.05633544921875,65559.81233466667,-0.03605414115360173,0.006955910451177962,-0.006705839624819522,65559.80147066667,14.89451599121094,6.739456176757812,-513.2681274414062,65559.81233466667,-1.102971776012664,-1.50291314062718,-0.7670049386163292,-0.03718762844800949,0.001546222250908613,-0.009315547533333302,-0.003040194511413574,0.0002776980400085449,-0.0007379055023193359,1,-0.5645928978919983,-0.3959999084472656,-0.1374630928039551,0.7110013961791992,-0.7183343768119812,0.693981945514679,-0.04883786290884018,0,0,0,-1,65559.80812366668,2,0,1561243459.929526,1561243107.271691,28,1.054203,0,0,24.53997,0,0,1561243350.380748,65556.62398600001,0,-5.01001,74.59476,2650634390,177292352,1,1,0.15,-27.20854,-30.4415,1
1561243459.949882,35,0,0,1561243458.989384,4.602305218581671,-74.06496464281722,2650.362,0.2,339.9609375,4,10,-9999,1561243459.941852,-22.64950942993164,5.115668296813965,24.0157470703125,109.0403518676758,116.5840377807617,20,65559.83766466667,-0.7199554443359375,0.684539794921875,-0.05584716796875,65559.83256766667,-0.008759136825270615,0.0136052910608878,-0.00702541895562903,65559.82155066667,15.11454772949219,6.84197998046875,-513.330810546875,65559.83256766667,-1.103767336177994,-1.503391093925609,-0.7668196452437195,-0.009892623871564865,0.008195603266358376,-0.00963512621819973,-0.0007830262184143066,-0.009644448757171631,-0.007481276988983154,1,-0.5647422671318054,-0.3959982097148895,-0.1376741379499435,0.7108427882194519,-0.7184857726097107,0.6938484907150269,-0.04850317910313606,0,0,0,-1,65559.80812366668,2,0,1561243459.929526,1561243107.271691,28,1.054203,0,0,24.53997,0,0,1561243350.380748,65556.62398600001,0,-5.01001,74.59476,2650634390,177292352,1,1,0.15,-27.20854,-30.4415,1
1561243459.970162,36,0,0,1561243458.989384,4.602305218581671,-74.06496464281722,2650.362,0.2,339.9609375,4,10,-9999,1561243459.968265,-22.35331344604492,4.839741230010986,24.00640869140625,109.0278625488281,116.5715484619141,20,65559.85789766668,-0.71875,0.6889495849609375,-0.05389404296875,65559.85283166666,0.01209474609059486,0.01099752372148221,-0.0185156274787759,65559.84163166667,15.29519653320312,6.844314575195312,-513.4298095703125,65559.85283166666,-1.103702097983985,-1.503165185609737,-0.7664763036390667,0.0109612587839365,0.0055878353305161,-0.02112533524632454,-0.001044631004333496,-0.008176445960998535,-0.005395591259002686,1,-0.5646377205848694,-0.3960346579551697,-0.137831911444664,0.7108749747276306,-0.7187124490737915,0.6936012506484985,-0.0486815869808197,0,0,0,-1,65559.80812366668,2,0,1561243459.929526,1561243107.271691,28,1.054203,0,0,24.53997,0,0,1561243350.380748,65556.62398600001,0,-5.01001,74.59476,2650634390,177292352,1,1,0.15,-27.20854,-30.68507,1
1561243459.990388,37,0,0,1561243458.989384,4.602305218581671,-74.06496464281722,2650.362,0.2,339.9609375,4,10,-9999,1561243459.968265,-22.35331344604492,4.839741230010986,24.00640869140625,109.0278625488281,116.5715484619141,20,65559.87816066667,-0.716156005859375,0.6876373291015625,-0.051605224609375,65559.87309566667,0.0008085357069480567,-0.009456885030871375,-0.01887435527760958,65559.86174266668,15.04156494140625,7.007781982421875,-513.2698974609375,65559.87309566667,-1.103562885303164,-1.503187524117487,-0.7659764517178618,-0.0003249522997066379,-0.01486657373607159,-0.02148406207561493,0.001850366592407227,-0.00667184591293335,-0.005159378051757812,1,-0.5645009279251099,-0.3962249755859375,-0.1379466652870178,0.71085524559021,-0.7190592288970947,0.6932410597801208,-0.04868894070386887,0,0,0,-1,65559.80812366668,2,0,1561243459.929526,1561243107.271691,28,1.054203,0,0,24.53997,0,0,1561243350.380748,65556.62398600001,0,-5.01001,74.59476,2650634390,177292352,1,1,0.15,-27.20854,-31.34629,1
1561243460.027304,38,0,0,1561243458.989384,4.602305218581671,-74.06496464281722,2650.362,0.2,339.9609375,4,10,-9999,1561243460.024758,-22.47183036804199,5.029379367828369,23.97320556640625,109.0300750732422,116.5737609863281,20,65559.89842466667,-0.7134246826171875,0.69097900390625,-0.0496368408203125,65559.89335866667,-0.008517854430509435,0.02274579255425777,-0.001021854910263404,65559.88182366667,15.4508056640625,7.03765869140625,-513.331787109375,65559.89335866667,-1.103709373552481,-1.503332862194322,-0.765657760939805,-0.009651342406868935,0.01733610406517982,-0.003631562925875187,0.005526304244995117,-0.002871572971343994,-0.0005949735641479492,1,-0.5644693374633789,-0.3963265120983124,-0.1380664557218552,0.7108004689216614,-0.7192866802215576,0.6930113434791565,-0.04859932512044907,0,0,0,-1,65559.80812366668,2,0,1561243459.929526,1561243107.271691,28,1.054203,0,0,24.53997,0,0,1561243350.380748,65556.62398600001,0,-5.01001,74.59476,2650634390,177292352,1,1,0.15,-27.20854,-31.64437,1
1561243460.030807,39,0,0,1561243458.989384,4.602305218581671,-74.06496464281722,2650.362,0.2,339.9609375,4,10,-9999,1561243460.024758,-22.47183036804199,5.029379367828369,23.97320556640625,109.0300750732422,116.5737609863281,20,65559.91868866667,-0.710968017578125,0.6858367919921875,-0.0510406494140625,65559.91362266667,-0.01013359426386051,0.03754710926070016,0.009101619341454804,65559.90190366667,15.10275268554688,6.785247802734375,-513.5089721679688,65559.91362266667,-1.103991944138881,-1.502959998560464,-0.7657673574073486,-0.01126708276569843,0.0321374200284481,0.006491911131888628,0.005646169185638428,-0.006933093070983887,-0.002849698066711426,1,-0.5645238161087036,-0.3960829079151154,-0.1382347792387009,0.7108603715896606,-0.7191929221153259,0.6930903792381287,-0.04886238276958466,0,0,0,-1,65559.80812366668,2,0,1561243459.929526,1561243107.271691,28,1.054203,0,0,24.53997,0,0,1561243350.380748,65556.62398600001,0,-5.01001,74.59476,2650634390,177292352,1,1,0.15,-27.02584,-32.30304,1
1561243460.05105,40,0,0,1561243459.98937,4.602305218581671,-74.06497143215879,2650.055,0.34,312.1875,6,10,-9999,1561243460.044823,-22.37760353088379,5.009244441986084,24.0704345703125,109.038330078125,116.5820159912109,20,65559.93895166667,-0.71527099609375,0.6857147216796875,-0.0512542724609375,65559.93388666667,-0.002267681668202471,0.0236307609844911,0.01020789645827372,65559.92198466667,15.18489074707031,6.924560546875,-513.4158325195312,65559.93388666667,-1.104104563357958,-1.502516252457304,-0.765850047024526,-0.00340116978622973,0.01822107285261154,0.007598188240081072,0.005765557289123535,-0.007130026817321777,-0.003266811370849609,1,-0.5645337700843811,-0.3958697021007538,-0.1383718401193619,0.7109445333480835,-0.7191139459609985,0.6931499838829041,-0.04917760193347931,0,0,0,-1,65559.80812366668,2,0,1561243459.929526,1561243107.271691,28,1.054203,0,0,24.53997,0,0,1561243350.380748,65556.62398600001,0,-5.01001,74.59476,2650634390,177292352,1,1,0.15,-27.02584,-32.30304,1
1561243460.071365,41,0,0,1561243459.98937,4.602305218581671,-74.06497143215879,2650.055,0.34,312.1875,6,10,-9999,1561243460.069556,-22.57369995117188,4.816074371337891,23.8099365234375,109.0405426025391,116.584228515625,20,65559.95922966667,-0.718414306640625,0.6885986328125,-0.0503997802734375,65559.95413366667,-0.01331766966315925,0.02897039897009997,0.01676752853924789,65559.94207866667,15.00938415527344,6.758148193359375,-513.5964965820312,65559.95413366667,-1.104249602016927,-1.502173228082679,-0.7660451253613658,-0.01445115730166435,0.02356071025133133,0.01415782049298286,0.004591405391693115,-0.005378603935241699,0.0007699728012084961,1,-0.5645819902420044,-0.3956509530544281,-0.1384536772966385,0.711012065410614,-0.7189621329307556,0.6932905316352844,-0.04941499978303909,0,0,0,-1,65559.80812366668,2,0,1561243459.929526,1561243107.271691,28,1.054203,0,0,24.53997,0,0,1561243350.380748,65556.62398600001,0,-5.01001,74.59476,2650634390,177292352,1,1,0.15,-27.02584,-28.37751,1
1561243460.10184,42,0,0,1561243459.98937,4.602305218581671,-74.06497143215879,2650.055,0.34,312.1875,6,10,-9999,1561243460.093847,-22.64722442626953,4.769854545593262,23.91497802734375,109.0665893554688,116.6102752685547,20,65559.97946266667,-0.721221923828125,0.6897125244140625,-0.049591064453125,65559.97439666667,-0.01367479956533887,0.02739247602422802,0.0158266337261229,65559.96215966667,14.96771240234375,6.849456787109375,-513.5382080078125,65559.97439666667,-1.104711097283886,-1.502001295056729,-0.7663769610188201,-0.01480828784406185,0.02198278717696667,0.01321692578494549,-0.002131760120391846,-0.005541384220123291,-0.001289010047912598,1,-0.564734935760498,-0.3953644633293152,-0.1385530680418015,0.7110305428504944,-0.7187239527702332,0.6935296654701233,-0.04952278733253479,0,0,0,-1,65559.80812366668,2,0,1561243459.929526,1561243107.271691,28,1.054203,0,0,24.53997,0,0,1561243350.380748,65557.564369,0,-4.713867,74.59198,2650634390,177292352,1,1,0.15,-27.02584,-28.74113,1
1561243460.112289,43,0,0,1561243459.98937,4.602305218581671,-74.06497143215879,2650.055,0.34,312.1875,6,10,-9999,1561243460.093847,-22.64722442626953,4.769854545593262,23.91497802734375,109.0665893554688,116.6102752685547,20,65559.99972666668,-0.723236083984375,0.6898651123046875,-0.0509490966796875,65559.99466066666,0.005666141535252587,0.0190365417879954,0.01783199402695256,65559.98227066667,15.04246520996094,6.771957397460938,-513.4368896484375,65559.99466066666,-1.104858679366518,-1.501666789826219,-0.7667032576869039,0.004532653372734785,0.01362685300409794,0.01522228680551052,-0.005899012088775635,-0.004662513732910156,-0.0007590055465698242,1,-0.5648132562637329,-0.3951103687286377,-0.1385886967182159,0.7111026048660278,-0.7184814810752869,0.6937646865844727,-0.04974756389856339,0,0,0,-1,65559.80812366668,2,0,1561243459.929526,1561243107.271691,28,1.054203,0,0,24.53997,0,0,1561243350.380748,65557.564369,0,-4.713867,74.59198,2650634390,177292352,1,1,0.15,-27.02584,-28.74113,1
1561243460.13213,44,0,0,1561243459.98937,4.602305218581671,-74.06497143215879,2650.055,0.34,312.1875,6,10,-9999,1561243460.12026,-22.79246520996094,4.96532154083252,24.097412109375,109.0477676391602,116.5914535522461,20,65560.01999066667,-0.7211151123046875,0.691802978515625,-0.050048828125,65560.01492466667,0.02638553481606906,-0.008272044661895121,0.01050430628759954,65560.00235166667,14.84384155273438,6.707962036132812,-513.41943359375,65560.01492466667,-1.104380682749016,-1.501294649470428,-0.766919379147964,0.02525204606354237,-0.01368173211812973,0.007894597947597504,-0.002420246601104736,-0.002880275249481201,-0.0003800392150878906,1,-0.5647409558296204,-0.395051121711731,-0.1384501308202744,0.7112199664115906,-0.7183133959770203,0.6939203143119812,-0.05000452697277069,0,0,0,-1,65559.80812366668,2,0,1561243459.929526,1561243107.271691,28,1.054203,0,0,24.53997,0,0,1561243350.380748,65557.564369,0,-4.713867,74.59198,2650634390,177292352,1,1,0.15,-27.02584,-29.59979,1
1561243460.152471,45,0,0,1561243459.98937,4.602305218581671,-74.06497143215879,2650.055,0.34,312.1875,6,10,-9999,1561243460.144379,-22.79855155944824,4.884858131408691,24.0477294921875,108.9916610717773,116.5353469848633,20,65560.04025366667,-0.7184600830078125,0.691162109375,-0.04962158203125,65560.03518766667,0.02189970627593959,-0.02859302904363574,-0.001464205967325565,65560.02243166667,14.83917236328125,6.925949096679688,-513.307373046875,65560.03518766667,-1.103689040389014,-1.501325384885016,-0.7669314005489118,0.02076621726155281,-0.03400271758437157,-0.004073913674801588,-0.001145362854003906,-0.001652956008911133,0.0002686977386474609,1,-0.5646091103553772,-0.3952538669109344,-0.1381913721561432,0.7112622857093811,-0.7183065414428711,0.6939289569854736,-0.04998186603188515,0,0,0,-1,65559.80812366668,2,0,1561243459.929526,1561243107.271691,28,1.054203,0,0,24.53997,0,0,1561243350.380748,65557.564369,0,-4.713867,74.59198,2650634390,177292352,1,1,0.15,-27.02584,-29.85614,1
1561243460.187758,46,0,0,1561243459.98937,4.602305218581671,-74.06497143215879,2650.055,0.34,312.1875,6,10,-9999,1561243460.17412,-22.58351516723633,5.10907506942749,24.086181640625,108.9527359008789,116.4964218139648,20,65560.06051766667,-0.71588134765625,0.692779541015625,-0.048583984375,65560.05545166667,0.01713051739582569,-0.02059715418678184,-0.0009262474271295591,65560.04254266668,15.06892395019531,6.979904174804688,-513.568603515625,65560.05545166667,-1.103206049405896,-1.50168989116675,-0.7667741565708049,0.01599702797830105,-0.02600684203207493,-0.003535955213010311,0.0006296038627624512,-0.003050386905670166,-0.0004433393478393555,1,-0.5645039081573486,-0.39556485414505,-0.1379703432321548,0.7112157940864563,-0.7184335589408875,0.6938157677650452,-0.04972756654024124,0,0,0,-1,65559.80812366668,2,0,1561243459.929526,1561243107.271691,28,1.054203,0,0,24.53997,0,0,1561243350.380748,65557.564369,0,-4.713867,74.59198,2650634390,177292352,1,1,0.15,-27.02584,-30.16587,1
1561243460.192858,47,0,0,1561243459.98937,4.602305218581671,-74.06497143215879,2650.055,0.34,312.1875,6,10,-9999,1561243460.17412,-22.58351516723633,5.10907506942749,24.086181640625,108.9527359008789,116.4964218139648,20,65560.08075066668,-0.7101287841796875,0.693450927734375,-0.053955078125,65560.07568466668,0.01266519519608983,-0.0005105279809681899,0.01882988048740526,65560.06262366667,15.08421325683594,6.790557861328125,-513.5613403320312,65560.07568466668,-1.102837986688031,-1.501663724699692,-0.7668328878607362,0.01153170689940453,-0.00592021644115448,0.01622017286717892,0.004814267158508301,0.001042425632476807,-0.0001832246780395508,1,-0.5644423365592957,-0.3956426084041595,-0.1378268003463745,0.7112492322921753,-0.7183915376663208,0.6938580274581909,-0.04974355176091194,0,0,0,-1,65559.80812366668,2,0,1561243459.929526,1561243107.271691,28,1.054203,0,0,24.53997,0,0,1561243350.380748,65557.564369,0,-4.713867,74.59198,2650634390,177292352,1,1,0.15,-27.02584,-30.85435,1
1561243460.213038,48,0,0,1561243459.98937,4.602305218581671,-74.06497143215879,2650.055,0.34,312.1875,6,10,-9999,1561243460.195104,-22.50413703918457,5.055314540863037,23.9521484375,108.9200439453125,116.4637298583984,20,65560.10101466667,-0.7095489501953125,0.694091796875,-0.053466796875,65560.09594866667,0.02426858806556507,-0.004348942060099396,0.0210296515478107,65560.08270366667,15.09747314453125,6.965652465820312,-513.4235229492188,65560.09594866667,-1.102260198688396,-1.50141299904153,-0.7671448946512502,0.02313509956002235,-0.009758630767464638,0.01841994374990463,0.008278310298919678,-0.0003113150596618652,-0.004137992858886719,1,-0.5643800497055054,-0.3956271409988403,-0.1375856101512909,0.7113538980484009,-0.7181629538536072,0.6940826773643494,-0.04990864917635918,0,0,0,-1,65559.80812366668,2,0,1561243459.929526,1561243107.271691,28,1.054203,0,0,24.53997,0,0,1561243350.380748,65557.564369,0,-4.713867,74.59198,2650634390,177292352,1,1,0.15,-27.02584,-30.85435,1
1561243460.233486,49,0,0,1561243459.98937,4.602305218581671,-74.06497143215879,2650.055,0.34,312.1875,6,10,-9999,1561243460.222052,-22.6219596862793,4.884020805358887,24.12060546875,108.8745422363281,116.4182281494141,20,65560.12127866667,-0.7132110595703125,0.692138671875,-0.053924560546875,65560.11621266667,-0.003163036426687111,0.007351389873054729,0.02138971092718942,65560.10278466667,15.09379577636719,6.835403442382812,-513.6196899414062,65560.11621266667,-1.101929466308416,-1.501238561322105,-0.7674910156218355,-0.004296524450182915,0.001941701397299767,0.01878000423312187,0.008716702461242676,-0.001827001571655273,-0.002076268196105957,1,-0.5643794536590576,-0.3955593705177307,-0.1373991668224335,0.711428165435791,-0.7179147005081177,0.6943318247795105,-0.05001723393797874,0,0,0,-1,65559.80812366668,2,0,1561243459.929526,1561243107.271691,28,1.054203,0,0,24.53997,0,0,1561243350.380748,65557.564369,0,-4.713867,74.59198,2650634390,177292352,1,1,0.15,-27.02584,-29.05246,1
1561243460.267986,50,0,0,1561243459.98937,4.602305218581671,-74.06497143215879,2650.055,0.34,312.1875,6,10,-9999,1561243460.249784,-22.55677223205566,4.848470687866211,24.119384765625,108.8724365234375,116.4161224365234,20,65560.14154166667,-0.7134552001953125,0.691436767578125,-0.052276611328125,65560.13647566667,-0.0001763012641632456,0.02081047339009718,0.0159107896165694,65560.12286466667,15.08021545410156,6.879226684570312,-513.4451904296875,65560.13647566667,-1.102076202821612,-1.50121159128379,-0.7678084689531546,-0.001309789251536131,0.01540078595280647,0.01330108195543289,0.004497647285461426,-0.006510913372039795,-0.00423896312713623,1,-0.5644770860671997,-0.3954174816608429,-0.1373506933450699,0.7114389538764954,-0.7176934480667114,0.6945602297782898,-0.05002126842737198,0,0,0,-1,65559.80812366668,2,0,1561243459.929526,1561243107.271691,28,1.054203,0,0,24.53997,0,0,1561243350.380748,65557.564369,0,-4.713867,74.59198,2650634390,177292352,1,1,0.15,-27.02584,-29.37003,1
1561243460.274054,51,0,0,1561243459.98937,4.602305218581671,-74.06497143215879,2650.055,0.34,312.1875,6,10,-9999,1561243460.272368,-22.4063663482666,5.035214900970459,23.82537841796875,108.8568878173828,116.4005737304688,20,65560.16180566668,-0.7110595703125,0.69219970703125,-0.0530853271484375,65560.15673966667,0.008859271682257594,0.02589231738218638,0.02394847610253755,65560.14297666667,15.16120910644531,7.17633056640625,-513.5822143554688,65560.15673966667,-1.101906548626591,-1.500681911800643,-0.7681651443699485,0.007725783158093691,0.0204826295375824,0.02133876830339432,0.006451547145843506,-0.001549005508422852,-0.002914905548095703,1,-0.5644863843917847,-0.3951747715473175,-0.1373181492090225,0.7115726470947266,-0.7174195647239685,0.6948168277740479,-0.0503840446472168,0,0,0,-1,65559.80812366668,2,0,1561243459.929526,1561243107.271691,28,1.054203,0,0,24.53997,0,0,1561243350.380748,65557.564369,0,-4.713867,74.59198,2650634390,177292352,1,1,0.15,-27.02584,-29.37003,1
1561243460.294143,52,0,0,1561243459.98937,4.602305218581671,-74.06497143215879,2650.055,0.34,312.1875,6,10,-9999,1561243460.272368,-22.4063663482666,5.035214900970459,23.82537841796875,108.8568878173828,116.4005737304688,20,65560.18206966667,-0.7153778076171875,0.6909637451171875,-0.05267333984375,65560.17697266667,-0.00162772405825643,0.006564692087045322,0.02120595281197395,65560.16305666667,14.97538757324219,6.895004272460938,-513.392822265625,65560.17697266667,-1.101817188570365,-1.500416728659215,-0.7685863759621115,-0.002761212177574635,0.001155003905296326,0.01859624497592449,0.00442206859588623,-0.002111256122589111,-0.004149019718170166,1,-0.5645440220832825,-0.3949850499629974,-0.1372175812721252,0.7116517424583435,-0.7171143293380737,0.6951196789741516,-0.05055371671915054,0,0,0,-1,65559.80812366668,2,0,1561243459.929526,1561243107.271691,28,1.054203,0,0,24.53997,0,0,1561243350.380748,65557.564369,0,-4.713867,74.59198,2650634390,177292352,1,1,0.15,-27.02584,-29.80337,1
1561243460.314886,53,0,0,1561243459.98937,4.602305218581671,-74.06497143215879,2650.055,0.34,312.1875,6,10,-9999,1561243460.296715,-22.72646713256836,5.008081912994385,23.867431640625,108.8470153808594,116.3907012939453,20,65560.20230266667,-0.713653564453125,0.693389892578125,-0.0498504638671875,65560.19723666667,0.000559530145025648,0.02442012193159058,0.02407843836373342,65560.18313766667,14.94676208496094,6.949310302734375,-513.463134765625,65560.19723666667,-1.101761659673889,-1.500246169663501,-0.7690167513530324,-0.0005739578627981246,0.01901043392717838,0.02146873064339161,-0.0009509921073913574,-0.002298474311828613,-0.001652181148529053,1,-0.5646169185638428,-0.3948167562484741,-0.1370991766452789,0.7117100954055786,-0.7168071866035461,0.6954290270805359,-0.05065492913126945,0,0,0,-1,65559.80812366668,2,0,1561243459.929526,1561243107.271691,28,1.054203,0,0,24.53997,0,0,1561243350.380748,65557.564369,0,-4.713867,74.59198,2650634390,177292352,1,1,0.15,-27.02584,-30.5059,1
1561243460.351604,54,0,0,1561243459.98937,4.602305218581671,-74.06497143215879,2650.055,0.34,312.1875,6,10,-9999,1561243460.323015,-22.55876541137695,5.059065818786621,24.0172119140625,108.8451690673828,116.3888549804688,20,65560.22256566667,-0.713165283203125,0.68963623046875,-0.0534820556640625,65560.21749966667,-0.0126002140654919,0.01842721053058527,0.01571371569590354,65560.20321766667,15.1033935546875,6.9976806640625,-513.3939208984375,65560.21749966667,-1.101985444655033,-1.50003286965672,-0.769423849098514,-0.01373061630874872,0.01302233524620533,0.01310338452458382,0.00124281644821167,-0.00393378734588623,-0.001748204231262207,1,-0.5647368431091309,-0.3945610225200653,-0.1371001750230789,0.7117565274238586,-0.7165138125419617,0.6957215070724487,-0.0507877953350544,0,0,0,-1,65559.80812366668,2,0,1561243459.929526,1561243107.271691,28,1.054203,0,0,24.53997,0,0,1561243350.380748,65557.564369,0,-4.713867,74.59198,2650634390,177292352,1,1,0.15,-27.02584,-31.19533,1
1561243460.355239,55,0,0,1561243459.98937,4.602305218581671,-74.06497143215879,2650.055,0.34,312.1875,6,10,-9999,1561243460.348431,-22.56125640869141,5.066044330596924,24.15386962890625,108.8481597900391,116.391845703125,20,65560.24282966668,-0.7113800048828125,0.6900482177734375,-0.05242919921875,65560.23776366666,0.01064545382537374,0.00876739262464986,0.01316054315884457,65560.22329866666,15.08412170410156,6.785293579101562,-513.5103759765625,65560.23776366666,-1.102058711169075,-1.499948594962236,-0.7696636102839498,0.009515051729977131,0.003362517338246107,0.01055021211504936,0.003254234790802002,-0.008271634578704834,-0.002065896987915039,1,-0.5647987127304077,-0.3944416642189026,-0.1370683014392853,0.711779773235321,-0.7163432240486145,0.6958937048912048,-0.05083637684583664,0,0,0,-1,65559.80812366668,2,0,1561243459.929526,1561243107.271691,28,1.054203,0,0,24.53997,0,0,1561243350.380748,65557.564369,0,-4.713867,74.59198,2650634390,177292352,1,1,0.15,-27.02584,-31.38889,1
1561243460.37524,56,0,0,1561243459.98937,4.602305218581671,-74.06497143215879,2650.055,0.34,312.1875,6,10,-9999,1561243460.373426,-22.77643013000488,5.176413059234619,23.98992919921875,108.8184356689453,116.3621215820312,20,65560.26309366667,-0.7129364013671875,0.6944732666015625,-0.0523681640625,65560.25802766667,0.007091731666772003,-0.006811567120095668,0.008743690490948156,65560.24340966667,14.86039733886719,7.252593994140625,-513.4388427734375,65560.25802766667,-1.101667118801211,-1.499704971998018,-0.7698139102567653,0.00596132967621088,-0.01221644226461649,0.006133358925580978,0.004846453666687012,-0.002764284610748291,-2.193450927734375e-05,1,-0.5647381544113159,-0.3944224715232849,-0.1369464695453644,0.7118619084358215,-0.7162264585494995,0.6960016489028931,-0.05100346356630325,0,0,0,-1,65559.80812366668,2,0,1561243459.929526,1561243107.271691,28,1.054203,0,0,24.53997,0,0,1561243350.380748,65557.564369,0,-4.713867,74.59198,2650634390,177292352,1,1,0.15,-27.02584,-31.38889,1
1561243460.395439,57,0,0,1561243459.98937,4.602305218581671,-74.06497143215879,2650.055,0.34,312.1875,6,10,-9999,1561243460.373426,-22.77643013000488,5.176413059234619,23.98992919921875,108.8184356689453,116.3621215820312,20,65560.28335666667,-0.7129974365234375,0.6979522705078125,-0.05072021484375,65560.27829066667,-0.0180919185493443,0.01565086509417767,0.01300208507398486,65560.26348966667,14.76373291015625,6.960525512695312,-513.4781494140625,65560.27829066667,-1.101769464654853,-1.499858320788169,-0.7699487532458836,-0.0192223209887743,0.01024599000811577,0.01039175316691399,0.001632571220397949,0.0007704496383666992,0.000410914421081543,1,-0.5647987723350525,-0.3944095075130463,-0.1368936002254486,0.7118311524391174,-0.7161406278610229,0.6960984468460083,-0.05088697373867035,0,0,0,-1,65559.80812366668,2,0,1561243459.929526,1561243107.271691,28,1.054203,0,0,24.53997,0,0,1561243350.380748,65557.564369,0,-4.713867,74.59198,2650634390,177292352,1,1,0.15,-26.16032,-26.51145,1
1561243460.423896,58,0,0,1561243459.98937,4.602305218581671,-74.06497143215879,2650.055,0.34,312.1875,6,10,-9999,1561243460.401675,-22.70905303955078,4.957976341247559,23.95513916015625,108.8404541015625,116.3841400146484,20,65560.30362066667,-0.7132568359375,0.6953277587890625,-0.055206298828125,65560.29852466666,-0.03650368274560711,0.03932104086280194,0.02069276166991568,65560.28357066667,14.96257019042969,6.957290649414062,-513.355224609375,65560.29852466666,-1.10263770239777,-1.499933183950127,-0.7703015956363716,-0.03763408586382866,0.0339161641895771,0.01808243058621883,0.004320979118347168,-0.0001236796379089355,-0.003139138221740723,1,-0.5650533437728882,-0.3940897583961487,-0.1370611041784286,0.7117739319801331,-0.7158992886543274,0.6963517069816589,-0.05081596225500107,0,0,0,-1,65559.80812366668,2,0,1561243459.929526,1561243107.271691,28,1.054203,0,0,24.53997,0,0,1561243350.380748,65557.564369,0,-4.713867,74.59198,2650634390,177292352,1,1,0.15,-23.84222,-26.71598,1
1561243460.43601,59,0,0,1561243459.98937,4.602305218581671,-74.06497143215879,2650.055,0.34,312.1875,6,10,-9999,1561243460.425458,-22.75791549682617,5.045475959777832,24.12823486328125,108.9033889770508,116.4470748901367,20,65560.32385366668,-0.711273193359375,0.692657470703125,-0.0569915771484375,65560.31878766666,-0.02148052472036112,0.02969557773492855,0.0214160762219812,65560.30365166668,14.90733337402344,6.820144653320312,-513.489501953125,65560.31878766666,-1.103460494995861,-1.499821017417186,-0.7707029022075905,-0.02261092700064182,0.02429070323705673,0.01880574412643909,0.004631519317626953,-0.001784920692443848,-0.005870938301086426,1,-0.5652966499328613,-0.3937022686004639,-0.137248769402504,0.7117590308189392,-0.7156148552894592,0.6966397166252136,-0.0508764423429966,0,0,0,-1,65559.80812366668,2,0,1561243459.929526,1561243107.271691,28,1.054203,0,0,24.53997,0,0,1561243350.380748,65557.564369,0,-4.713867,74.59198,2650634390,177292352,1,1,0.15,-23.84222,-27.60151,1
1561243460.456249,60,0,0,1561243459.98937,4.602305218581671,-74.06497143215879,2650.055,0.34,312.1875,6,10,-9999,1561243460.448339,-22.59692764282227,5.081157207489014,23.95025634765625,108.9272537231445,116.4709396362305,20,65560.34411766667,-0.7147674560546875,0.6905670166015625,-0.054290771484375,65560.33905166667,-0.001000815937651778,0.00884062955462704,0.009927465595488376,65560.32373166666,15.18803405761719,6.8031005859375,-513.409912109375,65560.33905166667,-1.103791062285354,-1.499779903915769,-0.7709946058935481,-0.002131217624992132,0.003435754682868719,0.0073171341791749,0.002199053764343262,-0.006541311740875244,-0.005672931671142578,1,-0.5654234886169434,-0.3935105502605438,-0.1372785866260529,0.7117586135864258,-0.7154101133346558,0.6968489289283752,-0.0508914515376091,0,0,0,-1,65559.80812366668,2,0,1561243459.929526,1561243107.271691,28,1.054203,0,0,24.53997,0,0,1561243350.380748,65557.564369,0,-4.713867,74.59198,2650634390,177292352,1,1,0.15,-23.84222,-27.94021,1
1561243460.47655,61,0,0,1561243459.98937,4.602305218581671,-74.06497143215879,2650.055,0.34,312.1875,6,10,-9999,1561243460.474891,-22.55709266662598,5.116891860961914,23.876953125,108.9344100952148,116.4780960083008,20,65560.36438166667,-0.714874267578125,0.6884613037109375,-0.0516815185546875,65560.35931566668,-0.01180259731901317,0.02206934963737764,-0.0001025317019680507,65560.34384266667,14.99935913085938,6.977569580078125,-513.5349731445312,65560.35931566668,-1.103910908391023,-1.499677370832445,-0.770994349631143,-0.01293299905955791,0.01666447520256042,-0.002712863031774759,0.002438008785247803,-0.006007075309753418,-0.001174449920654297,1,-0.5654399991035461,-0.3934402167797089,-0.1373502761125565,0.7117704749107361,-0.7154049277305603,0.6968487501144409,-0.05096480622887611,0,0,0,-1,65559.80812366668,2,0,1561243459.929526,1561243107.271691,28,1.054203,0,0,24.53997,0,0,1561243350.380748,65557.564369,0,-4.713867,74.59198,2650634390,177292352,1,1,0.15,-23.84222,-28.69072,1
1561243460.507256,62,0,0,1561243459.98937,4.602305218581671,-74.06497143215879,2650.055,0.34,312.1875,6,10,-9999,1561243460.50312,-22.70110321044922,5.002336978912354,23.926513671875,108.9984436035156,116.5421295166016,20,65560.38464466667,-0.7171630859375,0.6891021728515625,-0.0497894287109375,65560.37957866667,-0.03789838020848161,0.04688175519753689,0.002253300598316044,65560.36392366666,15.06689453125,6.811614990234375,-513.52734375,65560.37957866667,-1.104754619189919,-1.49968147910121,-0.7710270694935729,-0.03902878239750862,0.04147687926888466,-0.0003570308908820152,-0.0008804202079772949,-0.009601116180419922,-0.000629723072052002,1,-0.5656134486198425,-0.3931937217712402,-0.1376382112503052,0.7117132544517517,-0.7153823971748352,0.6968722343444824,-0.0509602464735508,0,0,0,-1,65559.80812366668,2,0,1561243459.929526,1561243107.271691,28,1.054203,0,0,24.53997,0,0,1561243350.380748,65557.564369,0,-4.713867,74.59198,2650634390,177292352,1,1,0.15,-23.84222,-29.01019,1
1561243460.517613,63,0,0,1561243459.98937,4.602305218581671,-74.06497143215879,2650.055,0.34,312.1875,6,10,-9999,1561243460.50312,-22.70110321044922,5.002336978912354,23.926513671875,108.9984436035156,116.5421295166016,20,65560.40490866666,-0.713470458984375,0.692718505859375,-0.05328369140625,65560.39981166668,-0.03653324383370699,0.04630518082153474,0.004917793268940322,65560.38400366667,15.15705871582031,6.673995971679688,-513.4583740234375,65560.39981166668,-1.105854893982959,-1.499476053619126,-0.7710827140373799,-0.03766364604234695,0.04090030491352081,0.00230746204033494,-0.0006548166275024414,-0.004208862781524658,0.001177668571472168,1,-0.5658277869224548,-0.3927934467792511,-0.138068899512291,0.71168053150177,-0.7153333425521851,0.6969121098518372,-0.05110444873571396,0,0,0,-1,65559.80812366668,2,0,1561243459.929526,1561243107.271691,28,1.054203,0,0,24.53997,0,0,1561243350.380748,65557.564369,0,-4.713867,74.59198,2650634390,177292352,1,1,0.15,-23.84222,-29.14649,1
1561243460.537394,64,0,0,1561243459.98937,4.602305218581671,-74.06497143215879,2650.055,0.34,312.1875,6,10,-9999,1561243460.525452,-22.71741104125977,4.8924241065979,23.92156982421875,109.064826965332,116.608512878418,20,65560.42514166667,-0.713775634765625,0.6932830810546875,-0.05426025390625,65560.42007566667,-0.02850141630213701,0.02074682384004429,0.003997671112317944,65560.40408466668,15.07398986816406,6.938140869140625,-513.614013671875,65560.42007566667,-1.106744861308856,-1.49954718077785,-0.7711542995941395,-0.02963181771337986,0.01534194871783257,0.001387339551001787,0.003083407878875732,-0.003161609172821045,-0.002325177192687988,1,-0.5660232305526733,-0.3925464153289795,-0.1383410841226578,0.7116086483001709,-0.7152873873710632,0.6969634294509888,-0.05105002969503403,0,0,0,-1,65559.80812366668,2,0,1561243459.929526,1561243107.271691,28,1.054203,0,0,24.53997,0,0,1561243350.380748,65557.564369,0,-4.713867,74.59198,2650634390,177292352,1,1,0.15,-23.84222,-29.14649,1
1561243460.557606,65,0,0,1561243459.98937,4.602305218581671,-74.06497143215879,2650.055,0.34,312.1875,6,10,-9999,1561243460.549607,-22.67048263549805,4.971473693847656,23.97955322265625,109.1107406616211,116.654426574707,20,65560.44540566667,-0.7145233154296875,0.689117431640625,-0.05474853515625,65560.44033966667,-0.02259292710768722,0.02537486518238399,0.003809385623249343,65560.42416466668,14.91058349609375,6.742340087890625,-513.571044921875,65560.44033966667,-1.107509636707342,-1.499748507212815,-0.7712123069753051,-0.02372332848608494,0.0199699904769659,0.00119905429892242,0.0008559823036193848,-0.005629301071166992,-0.004532098770141602,1,-0.5662000775337219,-0.3923848867416382,-0.1385363936424255,0.7115190029144287,-0.7152572274208069,0.697005033493042,-0.05090314522385597,0,0,0,-1,65559.80812366668,2,0,1561243459.929526,1561243107.271691,28,1.054203,0,0,24.53997,0,0,1561243350.380748,65557.564369,0,-4.713867,74.59198,2650634390,177292352,1,1,0.15,-23.84222,-29.94999,1
1561243460.586246,66,0,0,1561243459.98937,4.602305218581671,-74.06497143215879,2650.055,0.34,312.1875,6,10,-9999,1561243460.576112,-22.85488128662109,5.028908729553223,23.86322021484375,109.1438140869141,116.6875,20,65560.46566866667,-0.72088623046875,0.6888885498046875,-0.0524139404296875,65560.46060266667,-0.01379757129159153,0.02598126696259503,0.007587612261744757,65560.44424566667,15.05108642578125,6.96319580078125,-513.587158203125,65560.46060266667,-1.108055150220172,-1.499631594837546,-0.7712635901940238,-0.01492797303944826,0.02057639136910439,0.004977280739694834,-0.001352310180664062,-0.008092224597930908,-0.001780688762664795,1,-0.5663102865219116,-0.3921741247177124,-0.1387460976839066,0.7115066647529602,-0.7152156829833984,0.6970418095588684,-0.05098422989249229,0,0,0,-1,65559.80812366668,2,0,1561243459.929526,1561243107.271691,28,1.054203,0,0,24.53997,0,0,1561243350.380748,65557.564369,0,-4.713867,74.59198,2650634390,177292352,1,1,0.15,-23.84222,-31.01239,1
1561243460.598139,67,0,0,1561243459.98937,4.602305218581671,-74.06497143215879,2650.055,0.34,312.1875,6,10,-9999,1561243460.576112,-22.85488128662109,5.028908729553223,23.86322021484375,109.1438140869141,116.6875,20,65560.48593266668,-0.7177276611328125,0.685150146484375,-0.0479736328125,65560.48086666666,-0.006415022433782869,0.00801957699055561,-0.006774549180943566,65560.46432666667,14.69122314453125,6.818252563476562,-513.425048828125,65560.48086666666,-1.108353959686004,-1.499565701525749,-0.7712444321804455,-0.007545424625277519,0.002614701632410288,-0.009384879842400551,-0.004134893417358398,-0.008963525295257568,0.001120805740356445,1,-0.5663601160049438,-0.3920715153217316,-0.1388775259256363,0.7114977836608887,-0.7152253985404968,0.6970281004905701,-0.05103229358792305,0,0,0,-1,65559.80812366668,2,0,1561243459.929526,1561243107.271691,28,1.054203,0,0,24.53997,0,0,1561243350.380748,65557.564369,0,-4.713867,74.59198,2650634390,177292352,1,1,0.15,-23.84222,-31.01239,1
1561243460.618352,68,0,0,1561243459.98937,4.602305218581671,-74.06497143215879,2650.055,0.34,312.1875,6,10,-9999,1561243460.600299,-22.75146865844727,4.943880558013916,24.009521484375,109.1589889526367,116.7026748657227,20,65560.50619666667,-0.716522216796875,0.691680908203125,-0.048675537109375,65560.50113066667,-0.0208075439128981,0.01254615189536329,-0.01785542984454526,65560.48443766667,15.00802612304688,6.7061767578125,-513.5634765625,65560.50113066667,-1.108697928048931,-1.499759323143106,-0.7709253477303505,-0.02193794585764408,0.007141276728361845,-0.02046576142311096,-0.003796219825744629,-0.008933067321777344,0.004217684268951416,1,-0.5663704872131348,-0.3921347558498383,-0.1390538960695267,0.7114203572273254,-0.7154573202133179,0.6967992782592773,-0.0509096086025238,0,0,0,-1,65559.80812366668,2,0,1561243459.929526,1561243107.271691,28,1.054203,0,0,24.53997,0,0,1561243350.380748,65557.564369,0,-4.713867,74.59198,2650634390,177292352,1,1,0.15,-23.84222,-31.39623,1
1561243460.638622,69,0,0,1561243459.98937,4.602305218581671,-74.06497143215879,2650.055,0.34,312.1875,6,10,-9999,1561243460.626555,-22.7612190246582,4.915055274963379,23.9454345703125,109.1975021362305,116.7411880493164,20,65560.52645966667,-0.7152252197265625,0.69598388671875,-0.05181884765625,65560.52136366667,-0.04772091725702086,0.03299736485440879,-0.01310994309813307,65560.50451766668,14.96186828613281,7.004104614257812,-513.5849609375,65560.52136366667,-1.10972332350706,-1.500155936449121,-0.7706110050780325,-0.04885131865739822,0.0275924913585186,-0.01572027429938316,-0.0006889700889587402,-0.005472660064697266,-0.001818418502807617,1,-0.5665297508239746,-0.3920757472515106,-0.1394134163856506,0.711255669593811,-0.7156959176063538,0.6965737342834473,-0.05064129829406738,0,0,0,-1,65559.80812366668,2,0,1561243459.929526,1561243107.271691,28,1.054203,0,0,24.53997,0,0,1561243350.380748,65557.564369,0,-4.713867,74.59198,2650634390,177292352,1,1,0.15,-23.84222,-32.16323,1
1561243460.669695,70,0,0,1561243459.98937,4.602305218581671,-74.06497143215879,2650.055,0.34,312.1875,6,10,-9999,1561243460.650937,-23.00713729858398,4.796213626861572,23.940673828125,109.2945404052734,116.8382263183594,20,65560.54669366666,-0.71173095703125,0.6957244873046875,-0.056976318359375,65560.54162766667,-0.05152257971310897,0.05372341603795046,0.006546049959414767,65560.52459866667,14.73837280273438,6.672866821289062,-513.66748046875,65560.54162766667,-1.11118361885699,-1.500301066779653,-0.7705468364914329,-0.05265298113226891,0.04831854254007339,0.003935718443244696,0.002338230609893799,0.002141714096069336,-0.003078818321228027,1,-0.5668119192123413,-0.3917320072650909,-0.1399133950471878,0.7111219763755798,-0.7157476544380188,0.6965277194976807,-0.05054056644439697,0,0,0,-1,65559.80812366668,2,0,1561243459.929526,1561243107.271691,28,1.054203,0,0,24.53997,0,0,1561243350.380748,65557.564369,0,-4.713867,74.59198,2650634390,177292352,1,1,0.15,-23.84222,-29.673,1
1561243460.679035,71,0,0,1561243459.98937,4.602305218581671,-74.06497143215879,2650.055,0.34,312.1875,6,10,-9999,1561243460.650937,-23.00713729858398,4.796213626861572,23.940673828125,109.2945404052734,116.8382263183594,20,65560.56695666668,-0.7143096923828125,0.693206787109375,-0.0562896728515625,65560.56189066666,-0.02477778446598822,0.03263197915284991,0.0198666490997731,65560.54467866667,14.96060180664062,6.7391357421875,-513.41015625,65560.56189066666,-1.112339736176673,-1.500286293795476,-0.7707877054655452,-0.02590818703174591,0.02722710371017456,0.01725631766021252,0.004184305667877197,-0.0009912848472595215,-0.006833732128143311,1,-0.5670902729034424,-0.3913297355175018,-0.1402465403079987,0.7110559344291687,-0.7155795693397522,0.6967005133628845,-0.05053932219743729,0,0,0,-1,65559.80812366668,2,0,1561243459.929526,1561243107.271691,28,1.054203,0,0,24.53997,0,0,1561243350.380748,65557.564369,0,-4.713867,74.59198,2650634390,177292352,1,1,0.15,-23.84222,-29.673,1
1561243460.699421,72,0,0,1561243459.98937,4.602305218581671,-74.06497143215879,2650.055,0.34,312.1875,6,10,-9999,1561243460.677322,-22.74479293823242,4.79230785369873,23.99224853515625,109.3697052001953,116.9133911132812,20,65560.58722066667,-0.7176361083984375,0.68804931640625,-0.053558349609375,65560.58215466667,0.007812116741638437,-0.003912183641326401,0.02057425100140715,65560.56475966667,14.8607177734375,6.703750610351562,-513.6273193359375,65560.58215466667,-1.112603645385679,-1.500269232755481,-0.7711722220512058,0.00668171513825655,-0.009317059069871902,0.01796391978859901,-0.000234067440032959,-0.007233262062072754,-0.004139602184295654,1,-0.5672253370285034,-0.3911381959915161,-0.1402141749858856,0.7110600471496582,-0.7153115272521973,0.6969763040542603,-0.05053265765309334,0,0,0,-1,65559.80812366668,2,0,1561243459.929526,1561243107.271691,28,1.054203,0,0,24.53997,0,0,1561243350.380748,65557.564369,0,-4.713867,74.59198,2650634390,177292352,1,1,0.15,-23.84222,-30.03008,1
1561243460.719615,73,0,0,1561243459.98937,4.602305218581671,-74.06497143215879,2650.055,0.34,312.1875,6,10,-9999,1561243460.701576,-22.90255355834961,4.877233982086182,23.87042236328125,109.3662338256836,116.9099197387695,20,65560.60748466667,-0.7204742431640625,0.68310546875,-0.0510406494140625,65560.60241866668,0.03145832406045199,-0.0278255060174749,0.003020557308367872,65560.58484066668,14.73226928710938,6.97796630859375,-513.61865234375,65560.60241866668,-1.111975021699711,-1.500277783065789,-0.7713153628202594,0.03032791987061501,-0.03323038294911385,0.0004102259408682585,-0.004193723201751709,-0.01107430458068848,-0.0005058646202087402,1,-0.5671344995498657,-0.3912782967090607,-0.1399394422769547,0.7111095190048218,-0.7152124047279358,0.6970789432525635,-0.05051950737833977,0,0,0,-1,65559.80812366668,2,0,1561243459.929526,1561243107.271691,28,1.054203,0,0,24.53997,0,0,1561243350.380748,65557.564369,0,-4.713867,74.59198,2650634390,177292352,1,1,0.15,-23.84222,-30.64965,1
1561243460.754174,74,0,0,1561243459.98937,4.602305218581671,-74.06497143215879,2650.055,0.34,312.1875,6,10,-9999,1561243460.733454,-22.85276031494141,4.788257122039795,23.71466064453125,109.3007202148438,116.8444061279297,20,65560.62774766667,-0.7198333740234375,0.6846923828125,-0.05133056640625,65560.62268166667,0.02191461997804403,-0.02765959108156297,-0.01113121440820419,65560.60492066666,14.88717651367188,6.793289184570312,-513.7020874023438,65560.62268166667,-1.111187334150022,-1.500456207214789,-0.7711525837182123,0.02078421786427498,-0.03306446596980095,-0.01374154537916183,-0.00573498010635376,-0.01359736919403076,-0.001525819301605225,1,-0.5669569969177246,-0.3916118443012238,-0.1396642178297043,0.7111214399337769,-0.7153343558311462,0.6969622373580933,-0.05039985477924347,0,0,0,-1,65559.80812366668,2,0,1561243459.929526,1561243107.271691,28,1.054203,0,0,24.53997,0,0,1561243350.380748,65557.564369,0,-4.713867,74.59198,2650634390,177292352,1,1,0.15,-23.84222,-31.7343,1
1561243460.760206,75,0,0,1561243459.98937,4.602305218581671,-74.06497143215879,2650.055,0.34,312.1875,6,10,-9999,1561243460.75593,-22.93464660644531,4.860441207885742,23.70745849609375,109.2730026245117,116.8166885375977,20,65560.64801166666,-0.717559814453125,0.6898956298828125,-0.0492401123046875,65560.64291466668,-0.01397174202688271,0.0112859440675378,-0.01931670633467174,65560.62503166667,14.76748657226562,6.964828491210938,-513.6306762695312,65560.64291466668,-1.111064511998793,-1.500635182569874,-0.7707598771050942,-0.01510214433073997,0.005881068762391806,-0.02192703820765018,-0.001622855663299561,-0.01064538955688477,0.001356124877929688,1,-0.5668588876724243,-0.3918232917785645,-0.1397037357091904,0.711075484752655,-0.7156164646148682,0.6966805458068848,-0.0502910204231739,0,0,0,-1,65559.80812366668,2,0,1561243459.929526,1561243107.271691,28,1.054203,0,0,24.53997,0,0,1561243350.380748,65557.564369,0,-4.713867,74.59198,2650634390,177292352,1,1,0.15,-23.84222,-31.7343,1
1561243460.780305,76,0,0,1561243459.98937,4.602305218581671,-74.06497143215879,2650.055,0.34,312.1875,6,10,-9999,1561243460.75593,-22.93464660644531,4.860441207885742,23.70745849609375,109.2730026245117,116.8166885375977,20,65560.66824466667,-0.7134552001953125,0.692840576171875,-0.0479736328125,65560.66317866667,-0.02806891894110815,0.02044908243017343,-0.01275068266708138,65560.64511266667,14.90858459472656,6.91455078125,-513.484375,65560.66317866667,-1.111822381089931,-1.500903356573807,-0.7703904135671669,-0.02919932082295418,0.01504420675337315,-0.01536101382225752,6.639957427978516e-05,-0.004505693912506104,0.0008922815322875977,1,-0.5669447183609009,-0.3918100893497467,-0.1400231122970581,0.7109515070915222,-0.715886652469635,0.6964154839515686,-0.05011707916855812,0,0,0,-1,65559.80812366668,2,0,1561243459.929526,1561243107.271691,28,1.054203,0,0,24.53997,0,0,1561243350.380748,65557.564369,0,-4.713867,74.59198,2650634390,177292352,1,1,0.15,-23.84222,-32.21348,1
1561243460.800705,77,0,0,1561243459.98937,4.602305218581671,-74.06497143215879,2650.055,0.34,312.1875,6,10,-9999,1561243460.779913,-22.72140121459961,4.830049514770508,23.856201171875,109.3208694458008,116.8645553588867,20,65560.68850866667,-0.711822509765625,0.695159912109375,-0.0508575439453125,65560.68344266668,-0.01516696872411027,-0.004138818650092144,0.006188653741126134,65560.66519266667,15.056396484375,6.886627197265625,-513.6265869140625,65560.68344266668,-1.112480933218416,-1.501213625616252,-0.7702827007696261,-0.01629737019538879,-0.009543693624436855,0.003578322473913431,0.003559470176696777,-0.001681804656982422,0.0007668733596801758,1,-0.5670717358589172,-0.3917646706104279,-0.1402059644460678,0.7108392119407654,-0.7159770727157593,0.6963381767272949,-0.04990017786622047,0,0,0,-1,65559.80812366668,2,0,1561243459.929526,1561243107.271691,28,1.054203,0,0,24.53997,0,0,1561243350.380748,65557.564369,0,-4.713867,74.59198,2650634390,177292352,1,1,0.15,-23.84222,-32.54719,1
1561243460.833785,78,0,0,1561243459.98937,4.602305218581671,-74.06497143215879,2650.055,0.34,312.1875,6,10,-9999,1561243460.802909,-22.62269592285156,4.846496105194092,23.95928955078125,109.3543167114258,116.8980026245117,20,65560.70877166667,-0.713226318359375,0.6931915283203125,-0.0505523681640625,65560.70370566667,-0.002769953849791416,-0.01819791236072945,0.009923737169962265,65560.68527366668,15.14286804199219,6.8221435546875,-513.6688842773438,65560.70370566667,-1.112690775278503,-1.501756430681459,-0.7703615856296141,-0.003900355659425259,-0.02360278740525246,0.007313406094908714,0.00369948148727417,-0.001219630241394043,-0.0008157491683959961,1,-0.5671682357788086,-0.3918753862380981,-0.1400997340679169,0.7107221484184265,-0.7159492969512939,0.6963948011398315,-0.0495077483355999,0,0,0,-1,65559.80812366668,2,0,1561243459.929526,1561243107.271691,28,1.054203,0,0,24.53997,0,0,1561243350.380748,65557.564369,0,-4.713867,74.59198,2650634390,177292352,1,1,0.15,-23.84222,-32.74623,1
1561243460.841305,79,0,0,1561243459.98937,4.602305218581671,-74.06497143215879,2650.055,0.34,312.1875,6,10,-9999,1561243460.802909,-22.62269592285156,4.846496105194092,23.95928955078125,109.3543167114258,116.8980026245117,20,65560.72903566666,-0.71697998046875,0.6880645751953125,-0.051666259765625,65560.72396966667,-0.01624874475890046,0.007569769082441227,0.008684035682530379,65560.70535366666,14.91764831542969,6.751007080078125,-513.6385498046875,65560.72396966667,-1.112940511399729,-1.502157275913434,-0.7704400587919146,-0.01737914606928825,0.002164893783628941,0.006073703989386559,-0.0003483891487121582,-0.004831254482269287,-0.001991510391235352,1,-0.5672625303268433,-0.3919243812561035,-0.1400479972362518,0.7106299996376038,-0.7159144282341003,0.6964510679244995,-0.04921700060367584,0,0,0,-1,65559.80812366668,2,0,1561243459.929526,1561243107.271691,28,1.054203,0,0,24.53997,0,0,1561243350.380748,65557.564369,0,-4.713867,74.59198,2650634390,177292352,1,1,0.15,-23.84222,-32.76031,1
1561243460.861334,80,0,0,1561243459.98937,4.602305218581671,-74.06497143215879,2650.055,0.34,312.1875,6,10,-9999,1561243460.850858,-22.58403205871582,4.945501327514648,23.833740234375,109.3572845458984,116.9009704589844,20,65560.74929966667,-0.71734619140625,0.6847076416015625,-0.0503692626953125,65560.74420266667,-0.005038967098538926,0.007858189428496809,0.004871986898190958,65560.72543466667,15.13137817382812,6.998947143554688,-513.6687622070312,65560.74420266667,-1.113326837593872,-1.502359260318602,-0.7705404040602321,-0.006169368512928486,0.002453314606100321,0.002261655405163765,-0.0006521940231323242,-0.01109826564788818,-0.00294959545135498,1,-0.5673744082450867,-0.3918577134609222,-0.1400937736034393,0.7105684876441956,-0.7158547043800354,0.6965230703353882,-0.04906762763857841,0,0,0,-1,65559.80812366668,2,0,1561243459.929526,1561243107.271691,28,1.054203,0,0,24.53997,0,0,1561243350.380748,65557.564369,0,-4.713867,74.59198,2650634390,177292352,1,1,0.15,-23.84222,-32.76031,1
1561243460.881586,81,0,0,1561243459.98937,4.602305218581671,-74.06497143215879,2650.055,0.34,312.1875,6,10,-9999,1561243460.879831,-22.59939384460449,4.825086116790771,23.6937255859375,109.3768768310547,116.9205627441406,20,65560.76953266667,-0.717987060546875,0.6879425048828125,-0.0501708984375,65560.76446666667,0.001678324118967936,-0.00235130492643096,0.003446396766671542,65560.74554566666,14.93643188476562,6.732315063476562,-513.4281616210938,65560.76446666667,-1.113339176226769,-1.502386892860502,-0.7705552829269197,0.0005479222163558006,-0.007756180129945278,0.0008360652718693018,-0.0003255605697631836,-0.01126158237457275,0.0006462931632995605,1,-0.5673820376396179,-0.3918597400188446,-0.1400852352380753,0.7105629444122314,-0.7158457040786743,0.6965337991714478,-0.04904713481664658,0,0,0,-1,65559.80812366668,2,0,1561243459.929526,1561243107.271691,28,1.054203,0,0,24.53997,0,0,1561243350.380748,65557.564369,0,-4.713867,74.59198,2650634390,177292352,1,1,0.15,-23.84222,-32.90247,1
1561243460.902884,82,0,0,1561243459.98937,4.602305218581671,-74.06497143215879,2650.055,0.34,312.1875,6,10,-9999,1561243460.879831,-22.59939384460449,4.825086116790771,23.6937255859375,109.3768768310547,116.9205627441406,20,65560.78979666666,-0.718658447265625,0.6900177001953125,-0.0527191162109375,65560.78473066667,-0.009701895851158665,0.001982989747673001,0.001279648903783074,65560.76562666667,14.98013305664062,6.802963256835938,-513.5704345703125,65560.78473066667,-1.113440534576008,-1.502625082592269,-0.7706111259269929,-0.01083229761570692,-0.003421885427087545,-0.001330682542175055,-0.002519488334655762,-0.006968140602111816,-0.004623293876647949,1,-0.567430853843689,-0.3918995261192322,-0.1400346159934998,0.7105119824409485,-0.7158185243606567,0.6965738534927368,-0.04887397587299347,0,0,0,-1,65559.80812366668,2,0,1561243459.929526,1561243107.271691,28,1.054203,0,0,24.53997,0,0,1561243350.380748,65557.564369,0,-4.713867,74.59198,2650634390,177292352,1,1,0.15,-23.84222,-30.86835,1
1561243460.922586,83,0,0,1561243459.98937,4.602305218581671,-74.06497143215879,2650.055,0.34,312.1875,6,10,-9999,1561243460.905522,-22.70389938354492,4.911267757415771,23.90411376953125,109.3868865966797,116.9305725097656,20,65560.81005966668,-0.7181396484375,0.690093994140625,-0.0515899658203125,65560.80499366666,-0.01391261985068295,0.01431369191084888,-0.01109712594625118,65560.78570666668,14.84356689453125,6.833099365234375,-513.2869873046875,65560.80499366666,-1.11386323845505,-1.502869283991534,-0.7704497194173366,-0.01504302211105824,0.008908817544579506,-0.01370745711028576,-0.003234684467315674,-0.006623446941375732,-0.00343245267868042,1,-0.5674953460693359,-0.3919127881526947,-0.1401705294847488,0.7104263305664062,-0.7159425616264343,0.6964580416679382,-0.04870679602026939,0,0,0,-1,65559.80812366668,2,0,1561243459.929526,1561243107.271691,28,1.054203,0,0,24.53997,0,0,1561243350.380748,65557.564369,0,-4.713867,74.59198,2650634390,177292352,1,1,0.15,-23.84222,-31.7542,1
1561243460.942466,84,0,0,1561243459.98937,4.602305218581671,-74.06497143215879,2650.055,0.34,312.1875,6,10,-9999,1561243460.930493,-22.91194152832031,4.979977607727051,23.87860107421875,109.4042892456055,116.9479751586914,20,65560.83032366667,-0.715362548828125,0.6909942626953125,-0.052093505859375,65560.82525766667,0.0004495415920053754,0.002376338640677704,-0.003685016000342642,65560.80578766667,14.95036315917969,6.72601318359375,-513.72802734375,65560.82525766667,-1.114149047804759,-1.502937115106676,-0.7702428118505731,-0.0006808602483943105,-0.003028536448255181,-0.006295347586274147,-0.0006614327430725098,-0.005116939544677734,-0.002021670341491699,1,-0.5675106644630432,-0.39191535115242,-0.1403233855962753,0.7103825211524963,-0.71608966588974,0.696309506893158,-0.04866800829768181,0,0,0,-1,65559.80812366668,2,0,1561243459.929526,1561243107.271691,28,1.054203,0,0,24.53997,0,0,1561243350.380748,65557.564369,0,-4.713867,74.59198,2650634390,177292352,1,1,0.15,-23.84222,-30.43101,1
1561243460.964509,85,0,0,1561243459.98937,4.602305218581671,-74.06497143215879,2650.055,0.34,312.1875,6,10,-9999,1561243460.954822,-22.85561752319336,4.93316125869751,23.918212890625,109.3916397094727,116.9353256225586,20,65560.85058766667,-0.714935302734375,0.6922149658203125,-0.050628662109375,65560.84552166668,0.01926131258399809,-0.01344683297602809,0.00231268909062481,65560.82586766667,14.76995849609375,6.809463500976562,-513.660400390625,65560.84552166668,-1.113866682246311,-1.502981035034052,-0.7700843705551317,0.01813090965151787,-0.01885170862078667,-0.0002976423129439354,0.002258539199829102,-0.004713237285614014,-0.001679420471191406,1,-0.5674235820770264,-0.3920567035675049,-0.140264704823494,0.7103857398033142,-0.7162019610404968,0.6961957812309265,-0.0486440397799015,0,0,0,-1,65559.80812366668,2,0,1561243459.929526,1561243107.271691,28,1.054203,0,0,24.53997,0,0,1561243350.380748,65557.564369,0,-4.713867,74.59198,2650634390,177292352,1,1,0.15,-23.84222,-31.36752,1
1561243460.988325,86,0,0,1561243459.98937,4.602305218581671,-74.06497143215879,2650.055,0.34,312.1875,6,10,-9999,1561243460.985697,-22.97077178955078,4.971634387969971,23.8060302734375,109.3352661132812,116.8789520263672,20,65560.87085066667,-0.714996337890625,0.6900787353515625,-0.05084228515625,65560.86575466667,0.03009691611120349,-0.01131017883345752,0.009659285273717398,65560.84594866667,14.71723937988281,6.722015380859375,-513.7760620117188,65560.86575466667,-1.113146560536888,-1.502807448689749,-0.7701263378295009,0.02896651439368725,-0.01671505346894264,0.007048954255878925,0.002037763595581055,-0.005491018295288086,-0.001862287521362305,1,-0.5672794580459595,-0.392187237739563,-0.1400438249111176,0.7104723453521729,-0.7161643505096436,0.6962259411811829,-0.0487663745880127,0,0,0,-1,65559.80812366668,2,0,1561243459.929526,1561243107.271691,28,1.054203,0,0,24.53997,0,0,1561243350.380748,65557.564369,0,-4.713867,74.59198,2650634390,177292352,1,1,0.15,-23.84222,-30.81569,1
1561243461.003273,87,0,0,1561243459.98937,4.602305218581671,-74.06497143215879,2650.055,0.34,312.1875,6,10,-9999,1561243460.985697,-22.97077178955078,4.971634387969971,23.8060302734375,109.3352661132812,116.8789520263672,20,65560.89108366668,-0.7158203125,0.6902008056640625,-0.0495758056640625,65560.88601766666,0.02514210490311106,-0.02047624667329224,0.003137203764113343,65560.86605966667,14.9486083984375,6.75579833984375,-513.6788330078125,65560.88601766666,-1.112330055308866,-1.502608493809642,-0.7701318678112654,0.02401170320808887,-0.02588112093508244,0.0005268722306936979,2.533197402954102e-05,-0.006074905395507812,-0.0004993677139282227,1,-0.5671066045761108,-0.3923465311527252,-0.1398082971572876,0.7105687856674194,-0.7161508202552795,0.696229875087738,-0.04890859872102737,0,0,0,-1,65559.80812366668,2,0,1561243459.929526,1561243107.271691,28,1.054203,0,0,24.53997,0,0,1561243350.380748,65557.564369,0,-4.713867,74.59198,2650634390,177292352,1,1,0.15,-23.84222,-31.31753,1
1561243461.023455,88,0,0,1561243459.98937,4.602305218581671,-74.06497143215879,2650.055,0.34,312.1875,6,10,-9999,1561243461.006052,-22.73008728027344,4.862732410430908,24.02801513671875,109.2737274169922,116.8174133300781,20,65560.91134766667,-0.71429443359375,0.686859130859375,-0.050323486328125,65560.90628166667,0.03898228677214385,-0.04311471383561981,0.009322928028040389,65560.88614066667,14.88334655761719,6.658172607421875,-513.4690551757812,65560.90628166667,-1.111468732388551,-1.502761570433412,-0.7701480619210463,0.03785188496112823,-0.04851958900690079,0.006712596863508224,0.0003420114517211914,-0.005598247051239014,-0.0003808736801147461,1,-0.5669518113136292,-0.3926404714584351,-0.1394533663988113,0.7105997204780579,-0.7161471247673035,0.6962414979934692,-0.04879820719361305,0,0,0,-1,65559.80812366668,2,0,1561243459.929526,1561243107.271691,28,1.054203,0,0,24.53997,0,0,1561243350.380748,65557.564369,0,-4.713867,74.59198,2650634390,177292352,1,1,0.15,-23.84222,-31.31753,1
1561243461.044543,89,0,0,1561243459.98937,4.602305218581671,-74.06497143215879,2650.055,0.34,312.1875,6,10,-9999,1561243461.032009,-22.73555755615234,4.921640396118164,24.01873779296875,109.1872024536133,116.7308883666992,20,65560.93161166667,-0.714019775390625,0.684600830078125,-0.0490875244140625,65560.92654566668,0.04314081281430258,-0.02045547401678962,0.0004870921633754927,65560.90622066667,14.96995544433594,6.718551635742188,-513.397216796875,65560.92654566668,-1.110209248931238,-1.502639746128979,-0.7701272929326498,0.04201041162014008,-0.02586034871637821,-0.002123239217326045,0.005904674530029297,-0.01121377944946289,-0.001040279865264893,1,-0.5666913986206055,-0.3929601013660431,-0.1390474438667297,0.7107102870941162,-0.7161555290222168,0.6962265968322754,-0.04888643324375153,0,0,0,-1,65559.80812366668,2,0,1561243459.929526,1561243107.271691,28,1.054203,0,0,24.53997,0,0,1561243350.380748,65558.504737,0,-4.655762,74.59144,2650634390,177292352,1,1,0.15,-23.84222,-27.53082,1
1561243461.067424,90,0,0,1561243460.989356,4.602300608534927,-74.06497989788099,2649.828,0.26,312.1875,6,10,-9999,1561243461.032009,-22.73555755615234,4.921640396118164,24.01873779296875,109.1872024536133,116.7308883666992,20,65560.95188754167,-0.722808837890625,0.6920623779296875,-0.048065185546875,65560.94680966667,0.003840810924112277,-0.001502289170913698,0.0002511360907944721,65560.92630166667,14.878662109375,6.709976196289062,-513.4169311523438,65560.94680966667,-1.109541918457236,-1.502489198335869,-0.770062450335703,0.002710408996790648,-0.006907164119184017,-0.002359195379540324,-0.003212988376617432,-0.01040428876876831,-0.0009142160415649414,1,-0.5665355324745178,-0.3931142687797546,-0.1388750374317169,0.7107829451560974,-0.7161931395530701,0.6961800456047058,-0.04899732396006584,0,0,0,-1,65559.80812366668,2,0,1561243459.929526,1561243107.271691,28,1.054203,0,0,24.53997,0,0,1561243350.380748,65558.504737,0,-4.655762,74.59144,2650634390,177292352,1,1,0.15,-23.84222,-28.08809,1
1561243461.084262,91,0,0,1561243460.989356,4.602300608534927,-74.06497989788099,2649.828,0.26,312.1875,6,10,-9999,1561243461.073275,-22.74726104736328,4.84624195098877,24.06439208984375,109.1229019165039,116.6665878295898,20,65560.97215154167,-0.7195587158203125,0.6958465576171875,-0.0487518310546875,65560.96708554168,-0.01443220257935741,0.007262173976537075,-0.0001547296593336037,65560.94639454166,15.08103942871094,7.053054809570312,-513.570068359375,65560.96708554168,-1.109760887162123,-1.502603897995776,-0.7700081391038797,-0.01556260418146849,0.001857298891991377,-0.002765061100944877,-0.004848122596740723,0.00130760669708252,0.002149581909179688,1,-0.5665745735168457,-0.393108606338501,-0.1389388889074326,0.7107424736022949,-0.7162364721298218,0.6961410641670227,-0.0489177517592907,0,0,0,-1,65559.80812366668,2,0,1561243459.929526,1561243107.271691,28,1.054203,0,0,24.53997,0,0,1561243350.380748,65558.504737,0,-4.655762,74.59144,2650634390,177292352,1,1,0.15,-23.84222,-28.4149,1
1561243461.107067,92,0,0,1561243460.989356,4.602300608534927,-74.06497989788099,2649.828,0.26,312.1875,6,10,-9999,1561243461.073275,-22.74726104736328,4.84624195098877,24.06439208984375,109.1229019165039,116.6665878295898,20,65560.99241554167,-0.7154998779296875,0.6945343017578125,-0.04986572265625,65560.98731854167,-0.002320678573895048,-0.008476575433613208,0.002676476895529635,65560.96650554167,15.07894897460938,6.80743408203125,-513.3369140625,65560.98731854167,-1.11006093835672,-1.502910245304209,-0.7699807049418902,-0.003451080527156591,-0.01388145051896572,6.614555604755878e-05,-0.001060724258422852,-0.0005800127983093262,0.0005123615264892578,1,-0.5666488409042358,-0.3931402862071991,-0.1389680206775665,0.710659921169281,-0.7162702083587646,0.6961213946342468,-0.04869961366057396,0,0,0,-1,65559.80812366668,2,0,1561243459.929526,1561243107.271691,28,1.054203,0,0,24.53997,0,0,1561243350.380748,65558.504737,0,-4.655762,74.59144,2650634390,177292352,1,1,0.15,-23.84222,-29.23507,1
1561243461.125138,93,0,0,1561243460.989356,4.602300608534927,-74.06497989788099,2649.828,0.26,312.1875,6,10,-9999,1561243461.106826,-22.46291351318359,4.721738815307617,24.19659423828125,109.1408462524414,116.6845321655273,20,65561.01264854167,-0.7138519287109375,0.68804931640625,-0.0515594482421875,65561.00758254167,0.02051592777353442,-0.02071726275194441,0.009918943480000122,65560.98658654167,14.884765625,6.629592895507812,-513.536865234375,65561.00758254167,-1.109798563777113,-1.503111873971339,-0.7700777839821284,0.01938552595674992,-0.02612213790416718,0.007308611646294594,0.002757728099822998,-0.005715608596801758,-0.002077996730804443,1,-0.5666325688362122,-0.3932584524154663,-0.1387846320867538,0.7106435298919678,-0.7162129282951355,0.6961910724639893,-0.04855064302682877,0,0,0,-1,65559.80812366668,2,0,1561243459.929526,1561243107.271691,28,1.054203,0,0,24.53997,0,0,1561243350.380748,65558.504737,0,-4.655762,74.59144,2650634390,177292352,1,1,0.15,-23.84222,-29.23901,1
1561243461.145574,94,0,0,1561243460.989356,4.602300608534927,-74.06497989788099,2649.828,0.26,312.1875,6,10,-9999,1561243461.133233,-22.72213745117188,4.772515296936035,24.05853271484375,109.0948257446289,116.6385116577148,20,65561.03291254168,-0.7150115966796875,0.68572998046875,-0.04974365234375,65561.02784654168,0.02447817884335431,-0.03131131756827962,0.00467544560974311,65561.00666654167,15.02447509765625,6.765594482421875,-513.6292114257812,65561.02784654168,-1.109117145451353,-1.503247556555616,-0.7700862913971073,0.02334777638316154,-0.03671619296073914,0.002065114211291075,0.003765344619750977,-0.009734809398651123,-0.003274202346801758,1,-0.5665098428726196,-0.3934972286224365,-0.1385011374950409,0.7106644511222839,-0.7162135243415833,0.6961972117424011,-0.04845305904746056,0,0,0,-1,65559.80812366668,2,0,1561243459.929526,1561243107.271691,28,1.054203,0,0,24.53997,0,0,1561243350.380748,65558.504737,0,-4.655762,74.59144,2650634390,177292352,1,1,0.15,-23.84222,-29.72968,1
1561243461.165343,95,0,0,1561243460.989356,4.602300608534927,-74.06497989788099,2649.828,0.26,312.1875,6,10,-9999,1561243461.157749,-22.46622085571289,4.90469217300415,24.09027099609375,109.0430297851562,116.5867156982422,20,65561.05317554167,-0.71807861328125,0.687896728515625,-0.0501556396484375,65561.04810954168,0.02014308522092333,-0.02728275378731676,0.00415985762270377,65561.02674754168,14.89834594726562,6.897415161132812,-513.1885986328125,65561.04810954168,-1.108483758670122,-1.503543504857345,-0.7700720828736001,0.0190126821398735,-0.03268763050436974,0.001549526117742062,-0.001306772232055664,-0.008458077907562256,-0.001364529132843018,1,-0.5664024949073792,-0.3937858939170837,-0.1381971389055252,0.7106493711471558,-0.7162377834320068,0.6961869597434998,-0.04824176803231239,0,0,0,-1,65559.80812366668,2,0,1561243459.929526,1561243107.271691,28,1.054203,0,0,24.53997,0,0,1561243350.380748,65558.504737,0,-4.655762,74.59144,2650634390,177292352,1,1,0.15,-23.84222,-29.72968,1
1561243461.18549,96,0,0,1561243460.989356,4.602300608534927,-74.06497989788099,2649.828,0.26,312.1875,6,10,-9999,1561243461.183664,-22.5601921081543,4.990891456604004,24.16705322265625,109.0027542114258,116.5464401245117,20,65561.07343954167,-0.71923828125,0.68536376953125,-0.0535736083984375,65561.06837354167,0.01840377471299258,-0.0232880121521979,-0.003542536882023402,65561.04685854167,15.01802062988281,6.96533203125,-513.3795166015625,65561.06837354167,-1.107990293698774,-1.50380059043908,-0.7700098143920547,0.01727337203919888,-0.02869288623332977,-0.006152868270874023,-0.002334475517272949,-0.008764326572418213,-0.00429236888885498,1,-0.5663093328475952,-0.3940348625183105,-0.1379702538251877,0.7106297016143799,-0.7162934541702271,0.6961422562599182,-0.04806053265929222,0,0,0,-1,65559.80812366668,2,0,1561243459.929526,1561243107.271691,28,1.054203,0,0,24.53997,0,0,1561243350.380748,65558.504737,0,-4.655762,74.59144,2650634390,177292352,1,1,0.15,-23.84222,-30.27948,1
1561243461.222104,97,0,0,1561243460.989356,4.602300608534927,-74.06497989788099,2649.828,0.26,312.1875,6,10,-9999,1561243461.208154,-22.67299270629883,4.785011768341064,24.166748046875,108.9733581542969,116.5170440673828,20,65561.09370354167,-0.7188873291015625,0.6869049072265625,-0.0538330078125,65561.08860654167,0.01062042011112699,-0.003051716293121799,-0.009875800270340839,65561.06693954168,15.05291748046875,6.766372680664062,-513.396240234375,65561.08860654167,-1.107539763501884,-1.503847918205595,-0.769784265969381,0.009490017779171467,-0.00845659151673317,-0.01248613186180592,-0.002740383148193359,-0.009807884693145752,-0.004926085472106934,1,-0.5661741495132446,-0.3942439258098602,-0.1378736943006516,0.7106400728225708,-0.7164521217346191,0.6959803700447083,-0.04803711920976639,0,0,0,-1,65559.80812366668,2,0,1561243459.929526,1561243107.271691,28,1.054203,0,0,24.53997,0,0,1561243350.380748,65558.504737,0,-4.655762,74.59144,2650634390,177292352,1,1,0.15,-23.84222,-30.49974,1
1561243461.226466,98,0,0,1561243460.989356,4.602300608534927,-74.06497989788099,2649.828,0.26,312.1875,6,10,-9999,1561243461.208154,-22.67299270629883,4.785011768341064,24.166748046875,108.9733581542969,116.5170440673828,20,65561.11393654167,-0.717864990234375,0.6874542236328125,-0.0524749755859375,65561.10887054168,0.007015831575704745,-0.004087685957162622,-0.01750362626454579,65561.08701954166,14.97496032714844,7.076400756835938,-513.4376831054688,65561.10887054168,-1.107404299757267,-1.503887648235718,-0.7694795342549325,0.005885429680347443,-0.009492561221122742,-0.02011395804584026,-0.002816677093505859,-0.009192287921905518,-0.006893515586853027,1,-0.5660829544067383,-0.3943839073181152,-0.1379183828830719,0.710626482963562,-0.7166658043861389,0.695761501789093,-0.04802284389734268,0,0,0,-1,65559.80812366668,2,0,1561243459.929526,1561243107.271691,28,1.054203,0,0,24.53997,0,0,1561243350.380748,65558.504737,0,-4.655762,74.59144,2650634390,177292352,1,1,0.15,-23.84222,-30.49974,1
1561243461.246314,99,0,0,1561243460.989356,4.602300608534927,-74.06497989788099,2649.828,0.26,312.1875,6,10,-9999,1561243461.23486,-22.57620811462402,5.043342590332031,24.11181640625,108.951171875,116.4948577880859,20,65561.13419954167,-0.714691162109375,0.6926727294921875,-0.05230712890625,65561.12913454167,0.03000477073748675,0.000402137324601965,-0.01028725865875808,65561.10710054167,15.33793640136719,6.964813232421875,-513.32568359375,65561.12913454167,-1.10698435739031,-1.503834559802338,-0.7690839941276144,0.02887436933815479,-0.005002737976610661,-0.01289759017527103,-0.0009577274322509766,-0.00475776195526123,-0.005006015300750732,1,-0.565909206867218,-0.3945974111557007,-0.1379192173480988,0.7106462121009827,-0.7169378399848938,0.695477306842804,-0.04807930439710617,0,0,0,-1,65559.80812366668,2,0,1561243459.929526,1561243107.271691,28,1.054203,0,0,24.53997,0,0,1561243350.380748,65558.504737,0,-4.655762,74.59144,2650634390,177292352,1,1,0.15,-23.84222,-31.36473,1
1561243461.267058,100,0,0,1561243460.989356,4.602300608534927,-74.06497989788099,2649.828,0.26,312.1875,6,10,-9999,1561243461.258586,-22.53372573852539,5.197615623474121,24.14013671875,108.8858108520508,116.4294967651367,20,65561.15446354166,-0.714569091796875,0.6964569091796875,-0.050872802734375,65561.14939754167,0.04055568234416267,-0.01910818082131853,-0.003646400164536493,65561.12721154167,15.15182495117188,7.018508911132812,-513.3630981445312,65561.14939754167,-1.106038534858383,-1.503451553607829,-0.7688355695462576,0.03942527994513512,-0.02451305463910103,-0.006256731227040291,0.001835823059082031,-0.0003067255020141602,-0.003529667854309082,1,-0.5656413435935974,-0.3948000967502594,-0.1377762109041214,0.7107745409011841,-0.7170915603637695,0.6952987909317017,-0.0483655072748661,0,0,0,-1,65559.80812366668,2,0,1561243459.929526,1561243107.271691,28,1.054203,0,0,24.53997,0,0,1561243350.380748,65558.504737,0,-4.655762,74.59144,2650634390,177292352,1,1,0.15,-23.84222,-31.87161,1
1561243461.302024,101,0,0,1561243460.989356,4.602300608534927,-74.06497989788099,2649.828,0.26,312.1875,6,10,-9999,1561243461.285077,-22.71804809570312,4.989859580993652,24.0233154296875,108.7906646728516,116.3343505859375,20,65561.17472754167,-0.7098846435546875,0.695098876953125,-0.04534912109375,65561.16966154167,0.0473760378958556,-0.0367588135780367,-0.003336940845869285,65561.14729154167,15.1561279296875,6.908706665039062,-513.33154296875,65561.16966154167,-1.104756946629548,-1.503201362414389,-0.7686193212712423,0.04624563455581665,-0.04216368868947029,-0.005947272293269634,0.005818963050842285,0.0008710622787475586,0.002259910106658936,1,-0.5653232336044312,-0.3951355516910553,-0.1374652683734894,0.7109014391899109,-0.7172294855117798,0.6951433420181274,-0.04855507612228394,0,0,0,-1,65559.80812366668,2,0,1561243459.929526,1561243107.271691,28,1.054203,0,0,24.53997,0,0,1561243350.380748,65558.504737,0,-4.655762,74.59144,2650634390,177292352,1,1,0.15,-23.84222,-31.99557,1
1561243461.307534,102,0,0,1561243460.989356,4.602300608534927,-74.06497989788099,2649.828,0.26,312.1875,6,10,-9999,1561243461.285077,-22.71804809570312,4.989859580993652,24.0233154296875,108.7906646728516,116.3343505859375,20,65561.19499054167,-0.7134552001953125,0.6917877197265625,-0.0449676513671875,65561.18992554166,0.03558089742789466,-0.03718838146186648,-0.004144411288381311,65561.16737254168,15.15948486328125,6.851181030273438,-513.248291015625,65561.18992554166,-1.103545788500571,-1.503273755575821,-0.7684179130294932,0.03445049375295639,-0.04259325563907623,-0.006754742469638586,0.004741430282592773,-0.002631068229675293,0.003651797771453857,1,-0.5650442242622375,-0.3955612778663635,-0.137083038687706,0.710960328578949,-0.717372715473175,0.694998562335968,-0.04851260036230087,0,0,0,-1,65559.80812366668,2,0,1561243459.929526,1561243107.271691,28,1.054203,0,0,24.53997,0,0,1561243350.380748,65558.504737,0,-4.655762,74.59144,2650634390,177292352,1,1,0.15,-23.84222,-31.52546,1
1561243461.32725,103,0,0,1561243460.989356,4.602300608534927,-74.06497989788099,2649.828,0.26,312.1875,6,10,-9999,1561243461.310275,-22.54496383666992,5.151324272155762,24.09588623046875,108.7051620483398,116.2488479614258,20,65561.21525454168,-0.7135467529296875,0.693939208984375,-0.04705810546875,65561.21015854167,0.004535363336404943,-0.01286200280064669,-0.005886118641293132,65561.18745354167,15.14036560058594,6.713104248046875,-513.3935546875,65561.21015854167,-1.102961802109515,-1.503455691067497,-0.7682117014458746,0.003404961666092277,-0.01826687715947628,-0.008496450260281563,0.004710078239440918,-0.002284348011016846,0.00327146053314209,1,-0.5648955106735229,-0.3958499729633331,-0.1368944197893143,0.7109541296958923,-0.7175244092941284,0.6948502659797668,-0.04839172214269638,0,0,0,-1,65559.80812366668,2,0,1561243459.929526,1561243107.271691,28,1.054203,0,0,24.53997,0,0,1561243350.380748,65558.504737,0,-4.655762,74.59144,2650634390,177292352,1,1,0.15,-23.84222,-31.52546,1
1561243461.347641,104,0,0,1561243460.989356,4.602300608534927,-74.06497989788099,2649.828,0.26,312.1875,6,10,-9999,1561243461.335653,-22.39477157592773,5.003894329071045,24.1634521484375,108.6884841918945,116.2321701049805,20,65561.23548754166,-0.711273193359375,0.6949462890625,-0.0496368408203125,65561.23042154167,-0.009658220009281366,-0.005271461061702844,-0.001153681384222326,65561.20753354167,15.10580444335938,6.78765869140625,-513.2376708984375,65561.23042154167,-1.103105209098695,-1.503814860410698,-0.7680949384356236,-0.01079170778393745,-0.0106811486184597,-0.003763389308005571,0.006273269653320312,-0.0003998875617980957,-0.0003224611282348633,1,-0.5649226307868958,-0.3959705829620361,-0.1368838101625443,0.7108674645423889,-0.7176227569580078,0.6947662830352783,-0.04813943803310394,0,0,0,-1,65559.80812366668,2,0,1561243459.929526,1561243107.271691,28,1.054203,0,0,24.53997,0,0,1561243350.380748,65558.504737,0,-4.655762,74.59144,2650634390,177292352,1,1,0.15,-24.3995,-32.30905,1
1561243461.384168,105,0,0,1561243460.989356,4.602300608534927,-74.06497989788099,2649.828,0.26,312.1875,6,10,-9999,1561243461.360559,-22.31757736206055,5.023681163787842,24.16473388671875,108.7005767822266,116.2442626953125,20,65561.25575154167,-0.70941162109375,0.692474365234375,-0.05242919921875,65561.25068554167,0.0003723099203930775,0.004104197555921114,0.007064301107544187,65561.22761454167,15.42550659179688,6.940277099609375,-513.2763671875,65561.25068554167,-1.10330014745324,-1.504076432184192,-0.7681221882880387,-0.0007611780893057585,-0.001305490732192993,0.004454593174159527,0.007060348987579346,-0.0009992718696594238,-0.003898918628692627,1,-0.5649851560592651,-0.3960006833076477,-0.1368699073791504,0.7108036875724792,-0.7176164388656616,0.6947858929634094,-0.04795046523213387,0,0,0,-1,65559.80812366668,2,0,1561243459.929526,1561243107.271691,28,1.054203,0,0,24.53997,0,0,1561243350.380748,65558.504737,0,-4.655762,74.59144,2650634390,177292352,1,1,0.15,-25.51406,-28.30774,1
1561243461.391144,106,0,0,1561243460.989356,4.602300608534927,-74.06497989788099,2649.828,0.26,312.1875,6,10,-9999,1561243461.360559,-22.31757736206055,5.023681163787842,24.16473388671875,108.7005767822266,116.2442626953125,20,65561.27601554168,-0.71356201171875,0.688934326171875,-0.0543365478515625,65561.27094954166,0.0163510101447595,-0.0005707154216039807,0.01145984848671997,65561.24772554167,15.3883056640625,6.900222778320312,-513.3869018554688,65561.27094954166,-1.103101299076643,-1.503994122120672,-0.7682864260111818,0.01521752215921879,-0.005980403628200293,0.008850140497088432,0.006118476390838623,-0.004596412181854248,-0.006319403648376465,1,-0.5649765133857727,-0.3959805369377136,-0.1367663890123367,0.7108416557312012,-0.7174985408782959,0.6949040293693542,-0.04800190776586533,0,0,0,-1,65559.80812366668,2,0,1561243459.929526,1561243107.271691,28,1.054203,0,0,24.53997,0,0,1561243350.380748,65558.504737,0,-4.655762,74.59144,2650634390,177292352,1,1,0.15,-25.51406,-28.30774,1
1561243461.40839,107,0,0,1561243460.989356,4.602300608534927,-74.06497989788099,2649.828,0.26,312.1875,6,10,-9999,1561243461.398918,-22.29453277587891,5.06977653503418,24.21588134765625,108.6800308227539,116.2237167358398,20,65561.29627854167,-0.716766357421875,0.689361572265625,-0.0548095703125,65561.29121254168,0.03171478647342663,-0.01724263647771803,0.008957808642590525,65561.26780554168,15.46159362792969,7.197738647460938,-513.3516235351562,65561.29121254168,-1.102472902008045,-1.503901785884182,-0.7684052851159621,0.03058129735291004,-0.02265232428908348,0.006348100956529379,0.002949357032775879,-0.004819214344024658,-0.007723510265350342,1,-0.5648720860481262,-0.3960911631584167,-0.1365285217761993,0.7109087109565735,-0.7174116373062134,0.6949895024299622,-0.04806263372302055,0,0,0,-1,65559.80812366668,2,0,1561243459.929526,1561243107.271691,28,1.054203,0,0,24.53997,0,0,1561243350.380748,65558.504737,0,-4.655762,74.59144,2650634390,177292352,1,1,0.15,-26.07134,-28.81671,1
1561243461.428641,108,0,0,1561243460.989356,4.602300608534927,-74.06497989788099,2649.828,0.26,312.1875,6,10,-9999,1561243461.398918,-22.29453277587891,5.06977653503418,24.21588134765625,108.6800308227539,116.2237167358398,20,65561.31654254167,-0.717681884765625,0.686920166015625,-0.0531463623046875,65561.31147654167,0.04007551439962138,-0.01494592635363369,0.004748149907502274,65561.28788654167,15.27987670898438,7.019302368164062,-513.2692260742188,65561.31147654167,-1.101424427888912,-1.503654026509125,-0.7684113449461859,0.03894202783703804,-0.02035561390221119,0.002138441894203424,7.992982864379883e-05,-0.006181597709655762,-0.004662156105041504,1,-0.5646488070487976,-0.3962974548339844,-0.1362237334251404,0.7110296487808228,-0.7173956036567688,0.6949938535690308,-0.04824010282754898,0,0,0,-1,65559.80812366668,2,0,1561243459.929526,1561243107.271691,28,1.054203,0,0,24.53997,0,0,1561243350.380748,65558.504737,0,-4.655762,74.59144,2650634390,177292352,1,1,0.15,-26.62862,-29.47327,1
1561243461.463128,109,0,0,1561243460.989356,4.602300608534927,-74.06497989788099,2649.828,0.26,312.1875,6,10,-9999,1561243461.439266,-22.44040489196777,5.066959857940674,24.06243896484375,108.5316772460938,116.0753631591797,20,65561.33677554167,-0.71759033203125,0.686859130859375,-0.0487823486328125,65561.33170954167,0.03563123117249715,0.004415521087351377,0.003878627811591403,65561.30796754167,15.05433654785156,6.9439697265625,-513.36669921875,65561.33170954167,-1.100327097515481,-1.503138831356122,-0.7684015143115941,0.03449774533510208,-0.0009941672906279564,0.001268919790163636,-0.001052141189575195,-0.00922626256942749,-0.003101885318756104,1,-0.5643941164016724,-0.396426796913147,-0.1359823197126389,0.7112058997154236,-0.7173774242401123,0.6949867606163025,-0.0486101508140564,0,0,0,-1,65559.80812366668,2,0,1561243459.929526,1561243107.271691,28,1.054203,0,0,24.53997,0,0,1561243350.380748,65558.504737,0,-4.655762,74.59144,2650634390,177292352,1,1,0.15,-27.1859,-29.89009,1
1561243461.469605,110,0,0,1561243460.989356,4.602300608534927,-74.06497989788099,2649.828,0.26,312.1875,6,10,-9999,1561243461.461998,-22.533203125,5.034252166748047,24.02874755859375,108.4702987670898,116.0139846801758,20,65561.35703954168,-0.720184326171875,0.6879119873046875,-0.0482330322265625,65561.35197354168,0.02180170194782468,0.003336141897542262,0.009840912860060801,65561.32804754167,15.22549438476562,7.354995727539062,-513.1861572265625,65561.35197354168,-1.099561579103801,-1.502630601096701,-0.7684685969028749,0.02066821418702602,-0.002073546405881643,0.007231205236166716,-0.002862811088562012,-0.007031500339508057,-0.001138269901275635,1,-0.5642226934432983,-0.3964428901672363,-0.1358306109905243,0.7113620042800903,-0.7173062562942505,0.6950350403785706,-0.04897157475352287,0,0,0,-1,65559.80812366668,2,0,1561243459.929526,1561243107.271691,28,1.054203,0,0,24.53997,0,0,1561243350.380748,65558.504737,0,-4.655762,74.59144,2650634390,177292352,1,1,0.15,-27.74318,-30.62377,1
1561243461.490465,111,0,0,1561243460.989356,4.602300608534927,-74.06497989788099,2649.828,0.26,312.1875,6,10,-9999,1561243461.461998,-22.533203125,5.034252166748047,24.02874755859375,108.4702987670898,116.0139846801758,20,65561.37730254167,-0.7213287353515625,0.687957763671875,-0.04656982421875,65561.37223754167,0.01929593367816912,-0.004339887312393127,0.005441370739249899,65561.34815854167,15.29646301269531,6.709701538085938,-513.2579345703125,65561.37223754167,-1.098973106346399,-1.502292349618212,-0.768515519820834,0.01816244423389435,-0.009749575518071651,0.002831663005053997,-0.00221019983291626,-0.005844533443450928,0.002825260162353516,1,-0.5640935301780701,-0.3964751064777374,-0.1357006430625916,0.7114711999893188,-0.7172569632530212,0.6950687766075134,-0.04921195656061172,0,0,0,-1,65559.80812366668,2,0,1561243459.929526,1561243107.271691,28,1.054203,0,0,24.53997,0,0,1561243350.380748,65558.504737,0,-4.655762,74.59144,2650634390,177292352,1,1,0.15,-27.74318,-30.62377,1
1561243461.50955,112,0,0,1561243460.989356,4.602300608534927,-74.06497989788099,2649.828,0.26,312.1875,6,10,-9999,1561243461.493829,-22.45705413818359,5.332664012908936,24.19677734375,108.4243087768555,115.9679946899414,20,65561.39756654167,-0.7186126708984375,0.6883544921875,-0.0436859130859375,65561.39250054167,0.02463317481879692,-0.01193229326410003,0.002145442574167834,65561.38831954167,15.28263854980469,7.155044555664062,-513.1318359375,65561.39250054167,-1.098366171252037,-1.502158796914812,-0.7684881677973235,0.02349968627095222,-0.01734198071062565,-0.0004642652347683907,-0.004837512969970703,-0.007243931293487549,0.003822565078735352,1,-0.5639580488204956,-0.3966065943241119,-0.1355317384004593,0.7115375399589539,-0.7172693610191345,0.6950491070747375,-0.04930905625224113,0,0,0,-1,65559.80812366668,2,0,1561243459.929526,1561243107.271691,28,1.054203,0,0,24.53997,0,0,1561243350.380748,65558.504737,0,-4.655762,74.59144,2650634390,177292352,1,1,0.15,-28.09146,-31.31332,1
1561243461.543862,113,0,0,1561243460.989356,4.602300608534927,-74.06497989788099,2649.828,0.26,312.1875,6,10,-9999,1561243461.493829,-22.45705413818359,5.332664012908936,24.19677734375,108.4243087768555,115.9679946899414,20,65561.41783054167,-0.718505859375,0.6866607666015625,-0.0452117919921875,65561.41276454167,0.01291713023521133,-0.006477074087181715,-0.0006005428258128682,65561.40840054167,15.32341003417969,7.031967163085938,-513.3955078125,65561.41276454167,-1.097859611119958,-1.502076592039787,-0.7684273077762742,0.01178364269435406,-0.01188676245510578,-0.003210250753909349,-0.001060962677001953,-0.007367968559265137,0.003991305828094482,1,-0.5638384819030762,-0.3967375755310059,-0.1353954672813416,0.7115852236747742,-0.7173075675964355,0.6950052976608276,-0.04937092587351799,0,0,0,-1,65559.80812366668,2,0,1561243459.929526,1561243107.271691,28,1.054203,0,0,24.53997,0,0,1561243350.380748,65558.504737,0,-4.655762,74.59144,2650634390,177292352,1,1,0.15,-28.09146,-31.97292,1
1561243461.550054,114,0,0,1561243460.989356,4.602300608534927,-74.06497989788099,2649.828,0.26,312.1875,6,10,-9999,1561243461.547151,-22.23971366882324,5.101171016693115,24.1490478515625,108.3383712768555,115.8820571899414,20,65561.43809354167,-0.7172088623046875,0.686187744140625,-0.0465850830078125,65561.43299754168,0.01798539210574113,-0.01041961776493502,-0.004363589446094831,65561.42848054167,15.23324584960938,7.199539184570312,-513.398681640625,65561.43299754168,-1.097545405686435,-1.502149442684332,-0.7682800577736868,0.01685190387070179,-0.01582930609583855,-0.006973297335207462,-0.0005587339401245117,-0.008330225944519043,0.003701925277709961,1,-0.5637483596801758,-0.3968941271305084,-0.1353133618831635,0.7115848660469055,-0.717413067817688,0.6948994398117065,-0.04932567849755287,0,0,0,-1,65559.80812366668,2,0,1561243459.929526,1561243107.271691,28,1.054203,0,0,24.53997,0,0,1561243350.380748,65558.504737,0,-4.655762,74.59144,2650634390,177292352,1,1,0.15,-28.09146,-31.97292,1
1561243461.573513,115,0,0,1561243460.989356,4.602300608534927,-74.06497989788099,2649.828,0.26,312.1875,6,10,-9999,1561243461.547151,-22.23971366882324,5.101171016693115,24.1490478515625,108.3383712768555,115.8820571899414,20,65561.45832754167,-0.7174835205078125,0.688323974609375,-0.049896240234375,65561.45326154167,0.02334447116730758,-0.02319826362346223,-0.0003169161697194294,65561.44859254167,15.26737976074219,6.990509033203125,-513.3881225585938,65561.45326154167,-1.096967237822173,-1.502187924841402,-0.7681265976688129,0.0222109816968441,-0.02860795147716999,-0.002926624147221446,0.001045048236846924,-0.00750267505645752,0.002476155757904053,1,-0.5636020302772522,-0.3971146643161774,-0.1351492255926132,0.7116090059280396,-0.7175214886665344,0.6947891116142273,-0.04930539056658745,0,0,0,-1,65559.80812366668,2,0,1561243459.929526,1561243107.271691,28,1.054203,0,0,24.53997,0,0,1561243350.380748,65558.504737,0,-4.655762,74.59144,2650634390,177292352,1,1,0.15,-28.09146,-32.55241,1
1561243461.591325,116,0,0,1561243460.989356,4.602300608534927,-74.06497989788099,2649.828,0.26,312.1875,6,10,-9999,1561243461.547151,-22.23971366882324,5.101171016693115,24.1490478515625,108.3383712768555,115.8820571899414,20,65561.47859054166,-0.7154541015625,0.6884613037109375,-0.050872802734375,65561.47352454167,0.01753425261708171,-0.01202976495999693,-0.0001568601882056671,65561.46867254167,15.33750915527344,7.248611450195312,-513.2647705078125,65561.47352454167,-1.096427459380503,-1.502390595583196,-0.7680039265490477,0.01640076376497746,-0.0174394529312849,-0.002766567980870605,0.001323103904724121,-0.007841765880584717,-0.001264512538909912,1,-0.5634812116622925,-0.3973739147186279,-0.1349419355392456,0.7115992903709412,-0.7176164984703064,0.6947008371353149,-0.04916579276323318,0,0,0,-1,65559.80812366668,2,0,1561243459.929526,1561243107.271691,28,1.054203,0,0,24.53997,0,0,1561243350.380748,65558.504737,0,-4.655762,74.59144,2650634390,177292352,1,1,0.15,-28.09146,-32.24588,1
1561243461.625213,117,0,0,1561243460.989356,4.602300608534927,-74.06497989788099,2649.828,0.26,312.1875,6,10,-9999,1561243461.61318,-22.50184059143066,5.033090114593506,24.05694580078125,108.2365875244141,115.7802734375,20,65561.49885454167,-0.718048095703125,0.6902923583984375,-0.05303955078125,65561.49378854167,0.003985154255194572,0.007205981277536403,-0.001503887067567746,65561.48875354166,15.15666198730469,6.8656005859375,-513.4344482421875,65561.49378854167,-1.096210498514777,-1.502353722585495,-0.767930718302127,0.002851666416972876,0.001796293072402477,-0.004113595001399517,-0.000214695930480957,-0.006522536277770996,-0.003187656402587891,1,-0.5634192824363708,-0.3974428772926331,-0.1349001675844193,0.7116178274154663,-0.7176656126976013,0.6946482062339783,-0.04919574409723282,0,0,0,-1,65559.80812366668,2,0,1561243459.929526,1561243107.271691,28,1.054203,0,0,24.53997,0,0,1561243350.380748,65558.504737,0,-4.655762,74.59144,2650634390,177292352,1,1,0.15,-26.10289,-33.06733,1
1561243461.631134,118,0,0,1561243460.989356,4.602300608534927,-74.06497989788099,2649.828,0.26,312.1875,6,10,-9999,1561243461.61318,-22.50184059143066,5.033090114593506,24.05694580078125,108.2365875244141,115.7802734375,20,65561.51911854168,-0.7166748046875,0.690521240234375,-0.05157470703125,65561.51405254166,0.01322579060555151,5.432848623761646e-05,0.001328384751731524,65561.50883354167,15.2601318359375,6.941375732421875,-513.4650268554688,65561.51405254166,-1.096067364430511,-1.502304791374363,-0.7678084533765434,0.01209230162203312,-0.005355359520763159,-0.001281323144212365,0.000783085823059082,-0.004100024700164795,-0.003207802772521973,1,-0.563360333442688,-0.3975006937980652,-0.1349047422409058,0.7116312980651855,-0.7177478075027466,0.6945602297782898,-0.04923666641116142,0,0,0,-1,65559.80812366668,2,0,1561243459.929526,1561243107.271691,28,1.054203,0,0,24.53997,0,0,1561243350.380748,65558.504737,0,-4.655762,74.59144,2650634390,177292352,1,1,0.15,-26.10289,-33.06733,1
1561243461.651376,119,0,0,1561243460.989356,4.602300608534927,-74.06497989788099,2649.828,0.26,312.1875,6,10,-9999,1561243461.639919,-22.37316131591797,5.036203384399414,23.98651123046875,108.2107162475586,115.7544021606445,20,65561.53938154168,-0.7142181396484375,0.6905975341796875,-0.04962158203125,65561.53431554168,0.01308890412552144,0.001988848702071175,0.004053597495209608,65561.52891454168,15.31211853027344,7.191604614257812,-513.2598266601562,65561.53431554168,-1.095654648394688,-1.502184513862893,-0.7677836622759783,0.01195541583001614,-0.003420839551836252,0.001443889457732439,0.002030313014984131,-0.003075122833251953,-0.002464175224304199,1,-0.5632646679878235,-0.3975812196731567,-0.1348002254962921,0.7116818428039551,-0.7177590727806091,0.694542407989502,-0.04932417348027229,0,0,0,-1,65559.80812366668,2,0,1561243459.929526,1561243107.271691,28,1.054203,0,0,24.53997,0,0,1561243350.380748,65558.504737,0,-4.655762,74.59144,2650634390,177292352,1,1,0.15,-26.10289,-33.38605,1
