loggingTime,loggingSample,identifierForVendor,deviceID,locationTimestamp_since1970,locationLatitude,locationLongitude,locationAltitude,locationSpeed,locationCourse,locationVerticalAccuracy,locationHorizontalAccuracy,locationFloor,locationHeadingTimestamp_since1970,locationHeadingX,locationHeadingY,locationHeadingZ,locationTrueHeading,locationMagneticHeading,locationHeadingAccuracy,accelerometerTimestamp_sinceReboot,accelerometerAccelerationX,accelerometerAccelerationY,accelerometerAccelerationZ,gyroTimestamp_sinceReboot,gyroRotationX,gyroRotationY,gyroRotationZ,magnetometerTimestamp_sinceReboot,magnetometerX,magnetometerY,magnetometerZ,motionTimestamp_sinceReboot,motionYaw,motionRoll,motionPitch,motionRotationRateX,motionRotationRateY,motionRotationRateZ,motionUserAccelerationX,motionUserAccelerationY,motionUserAccelerationZ,motionAttitudeReferenceFrame,motionQuaternionX,motionQuaternionY,motionQuaternionZ,motionQuaternionW,motionGravityX,motionGravityY,motionGravityZ,motionMagneticFieldX,motionMagneticFieldY,motionMagneticFieldZ,motionMagneticFieldCalibrationAccuracy,activityTimestamp_sinceReboot,activity,activityActivityConfidence,activityActivityStartDate,pedometerStartDate,pedometerNumberofSteps,pedometerAverageActivePace,pedometerCurrentPace,pedometerCurrentCadence,pedometerDistance,pedometerFloorAscended,pedometerFloorDescended,pedometerEndDate,altimeterTimestamp_sinceReboot,altimeterReset,altimeterRelativeAltitude,altimeterPressure,IP_en0,IP_pdp_ip0,deviceOrientation,batteryState,batteryLevel,avAudioRecorderPeakPower,avAudioRecorderAveragePower,label
1561827158.112673,1,0,0,1561827157.998722,4.634658861909653,-74.15110101930252,2552.771,-1,-1,4,30,-9999,1561827158.098122,-28.22356414794922,9.125253677368164,7.68780517578125,65.90966033935547,73.40285491943359,15,157095.4407037917,-0.58648681640625,0.1876678466796875,-0.7684326171875,157095.4315787917,-0.01457841012320276,0.02558339069573719,0.02529390508524558,157095.4169907917,-106.7946319580078,-19.27005004882812,-555.6764526367188,157095.4315787917,0.7179839812784544,-0.6426491312535727,-0.1857749382795189,-0.01697257719933987,0.01954001747071743,0.02228999137878418,0.0009322166442871094,0.001281186938285828,0.01979959011077881,1,0.02808386087417603,-0.3253350257873535,0.3593382239341736,0.8742107748985291,-0.5890060067176819,0.1847081929445267,-0.7867368459701538,0,0,0,-1,157092.418364,3,2,1561827155.11842,1561827055.717469,12,1.562096,0,0,11.78992,0,0,1561827143.457785,157092.537628,0,0.5654297,75.37096,0,182478453,5,1,0.19,-36.29882,-40.28125,3
1561827158.138247,2,0,0,1561827157.998722,4.634658861909653,-74.15110101930252,2552.771,-1,-1,4,30,-9999,1561827158.120954,-28.20281982421875,9.218591690063477,7.840087890625,65.90524291992188,73.3984375,15,157095.4609667917,-0.5870208740234375,0.1925506591796875,-0.777130126953125,157095.4518417917,-0.02504170373001508,0.02339294069914702,0.02136787300625077,157095.4371327917,-106.684326171875,-18.97590637207031,-555.266845703125,157095.4518417917,0.7180438660408722,-0.6423048486353604,-0.1864362609112115,-0.02743587084114552,0.01734956726431847,0.0183639582246542,0.002342820167541504,0.005269959568977356,0.01268690824508667,1,0.0277358666062355,-0.3252843916416168,0.3594563007354736,0.8741921186447144,-0.588661789894104,0.1853580921888351,-0.7868415713310242,0,0,0,-1,157092.418364,3,2,1561827155.11842,1561827055.717469,12,1.562096,0,0,11.78992,0,0,1561827143.457785,157092.537628,0,0.5654297,75.37096,0,182478453,5,1,0.19,-36.29882,-41.09156,3
1561827158.152913,3,0,0,1561827157.998722,4.634658861909653,-74.15110101930252,2552.771,-1,-1,4,30,-9999,1561827158.147317,-28.37681579589844,9.161754608154297,7.83966064453125,65.90982818603516,73.40302276611328,15,157095.4812307917,-0.5860443115234375,0.1925506591796875,-0.775787353515625,157095.4721057917,-0.01599361392647087,0.008479771226921302,0.01151524223739362,157095.4572437917,-107.0703277587891,-18.99032592773438,-555.4641723632812,157095.4721057917,0.718023203058388,-0.6421143076992538,-0.186963611652824,-0.01838778145611286,0.002436398528516293,0.00851132906973362,0.002500414848327637,0.009054750204086304,0.01095068454742432,1,0.02746229991316795,-0.3252816498279572,0.3595192730426788,0.8741759061813354,-0.5884532332420349,0.1858762800693512,-0.7868753671646118,0,0,0,-1,157092.418364,3,2,1561827155.11842,1561827055.717469,12,1.562096,0,0,11.78992,0,0,1561827143.457785,157092.537628,0,0.5654297,75.37096,0,182478453,5,1,0.19,-36.29882,-41.69787,3
1561827158.173206,4,0,0,1561827157.998722,4.634658861909653,-74.15110101930252,2552.771,-1,-1,4,30,-9999,1561827158.17142,-28.1900634765625,9.154243469238281,7.8184814453125,65.91401672363281,73.40721130371094,15,157095.5014947917,-0.5869598388671875,0.1890716552734375,-0.7720184326171875,157095.4923697917,-0.02346830815799626,0.01765915487220642,0.02130635398506994,157095.4773547917,-106.992431640625,-19.11231994628906,-555.6019897460938,157095.4923697917,0.7179797984427364,-0.6419968445922791,-0.1874538958692933,-0.02586247585713863,0.01161578297615051,0.01830244064331055,0.001269996166229248,0.001996487379074097,0.01273196935653687,1,0.02721473760902882,-0.3253054916858673,0.3595663607120514,0.8741554617881775,-0.5883061289787292,0.1863580048084259,-0.7868713736534119,0,0,0,-1,157092.418364,3,2,1561827155.11842,1561827055.717469,12,1.562096,0,0,11.78992,0,0,1561827143.457785,157092.537628,0,0.5654297,75.37096,0,182478453,5,1,0.19,-36.29882,-42.38208,3
1561827158.193502,5,0,0,1561827157.998722,4.634658861909653,-74.15110101930252,2552.771,-1,-1,4,30,-9999,1561827158.17142,-28.1900634765625,9.154243469238281,7.8184814453125,65.91401672363281,73.40721130371094,15,157095.5217577917,-0.584991455078125,0.191131591796875,-0.7769622802734375,157095.5126327917,-0.03139307661374505,0.01084812038432877,0.0281480148254835,157095.4974967917,-107.0030975341797,-19.20547485351562,-555.64208984375,157095.5126327917,0.7179633634014232,-0.6418616827814011,-0.1882542150342811,-0.03378724306821823,0.004804747179150581,0.02514410018920898,0.00223386287689209,0.001881629228591919,0.01301223039627075,1,0.02682965248823166,-0.3253683745861053,0.3596661686897278,0.8741028904914856,-0.5881103277206421,0.1871442347764969,-0.7868312001228333,0,0,0,-1,157092.418364,3,2,1561827155.11842,1561827055.717469,12,1.562096,0,0,11.78992,0,0,1561827143.457785,157092.537628,0,0.5654297,75.37096,0,182478453,5,1,0.19,-36.29882,-42.67027,3
1561827158.217607,6,0,0,1561827157.998722,4.634658861909653,-74.15110101930252,2552.771,-1,-1,4,30,-9999,1561827158.199014,-28.2689208984375,9.184564590454102,7.8795166015625,65.91287994384766,73.40607452392578,15,157095.5419907917,-0.590118408203125,0.192596435546875,-0.7813873291015625,157095.5328967917,-0.010116550032884,-0.01402926630642842,0.03589807991372309,157095.5176077917,-107.0347290039062,-19.20051574707031,-555.5146484375,157095.5328967917,0.7181160715344784,-0.6419318176927126,-0.1890011909616501,-0.01251071691513062,-0.02007263898849487,0.03289416432380676,0.000694572925567627,0.004977867007255554,0.004893720149993896,1,0.0265328623354435,-0.325510561466217,0.3598300516605377,0.8739916086196899,-0.5880816578865051,0.1878779679536819,-0.7866777777671814,0,0,0,-1,157092.418364,3,2,1561827155.11842,1561827055.717469,12,1.562096,0,0,11.78992,0,0,1561827143.457785,157092.537628,0,0.5654297,75.37096,0,182478453,5,1,0.19,-36.29882,-43.28477,3
1561827158.233941,7,0,0,1561827157.998722,4.634658861909653,-74.15110101930252,2552.771,-1,-1,4,30,-9999,1561827158.222137,-28.05972290039062,9.493947982788086,7.87841796875,65.87744903564453,73.37064361572266,15,157095.5622547917,-0.589874267578125,0.196197509765625,-0.7743377685546875,157095.5531297917,0.01354643520079705,-0.0537484497521972,0.04668121916745393,157095.5377487917,-106.6620483398438,-19.1837158203125,-555.5462646484375,157095.5531297917,0.7187700423235682,-0.6427043819586689,-0.1895106579705214,0.01115226838737726,-0.05979182571172714,0.04367730394005775,-0.002768337726593018,0.005866050720214844,0.006727516651153564,1,0.02655049227178097,-0.3259169161319733,0.36017245054245,0.8736985325813293,-0.5886317491531372,0.1883783340454102,-0.7861464619636536,0,0,0,-1,157092.418364,3,2,1561827155.11842,1561827055.717469,12,1.562096,0,0,11.78992,0,0,1561827143.457785,157092.537628,0,0.5654297,75.37096,0,182478453,5,1,0.19,-36.29882,-43.28477,3
1561827158.254195,8,0,0,1561827157.998722,4.634658861909653,-74.15110101930252,2552.771,-1,-1,4,30,-9999,1561827158.248572,-27.98497772216797,9.072542190551758,7.89208984375,65.82189178466797,73.31508636474609,15,157095.582534875,-0.5911407470703125,0.192138671875,-0.7609100341796875,157095.5733937917,0.01622530894130776,-0.04256370580608242,0.03568476071040774,157095.5578607917,-107.0546264648438,-19.1695556640625,-555.4561767578125,157095.5733937917,0.7195951050930613,-0.6436973556353334,-0.1897684968318278,0.01383114140480757,-0.04860708117485046,0.03268084675073624,-0.001269519329071045,0.005612835288047791,0.0189363956451416,1,0.02674862183630466,-0.3263788521289825,0.3605534732341766,0.8733628392219543,-0.5893829464912415,0.1886315494775772,-0.7855226993560791,0,0,0,-1,157092.418364,3,2,1561827155.11842,1561827055.717469,12,1.562096,0,0,11.78992,0,0,1561827143.457785,157092.537628,0,0.5654297,75.37096,0,182478453,5,1,0.19,-36.29882,-44.2426,3
1561827158.274314,9,0,0,1561827157.998722,4.634658861909653,-74.15110101930252,2552.771,-1,-1,4,30,-9999,1561827158.272912,-27.86520385742188,9.234828948974609,7.9849853515625,65.79570007324219,73.28889465332031,15,157095.602797875,-0.579742431640625,0.1966705322265625,-0.7585601806640625,157095.593673875,0.01254508663092726,-0.01112429018936999,0.01587670115461639,157095.577987875,-106.8550415039062,-19.01858520507812,-555.566162109375,157095.593673875,0.720095753033442,-0.644345456982459,-0.189872865778892,0.01015091966837645,-0.01716766320168972,0.01287278812378645,0.002843976020812988,0.004838943481445312,0.02641201019287109,1,0.02690058387815952,-0.3266710340976715,0.3607771396636963,0.8731564283370972,-0.5898800492286682,0.1887340396642685,-0.7851247787475586,0,0,0,-1,157092.418364,3,2,1561827155.11842,1561827055.717469,12,1.562096,0,0,11.78992,0,0,1561827143.457785,157092.537628,0,0.5654297,75.37096,0,182478453,5,1,0.19,-36.29882,-44.73601,3
1561827158.301769,10,0,0,1561827157.998722,4.634658861909653,-74.15110101930252,2552.771,-1,-1,4,30,-9999,1561827158.299395,-27.99231719970703,9.111761093139648,7.910400390625,65.81008148193359,73.30327606201172,15,157095.623061875,-0.583892822265625,0.19378662109375,-0.7647705078125,157095.613936875,-0.01557070394536628,0.039793751956291,0.005367867493163712,157095.598128875,-106.5591278076172,-19.17466735839844,-555.4932861328125,157095.613936875,0.720161237998437,-0.6441091819082388,-0.1900693915707533,-0.01796487160027027,0.03375037759542465,0.002363954437896609,0.0112115740776062,0.007209435105323792,0.02183729410171509,1,0.02678075805306435,-0.3265969157218933,0.3608347475528717,0.8731641173362732,-0.5896722674369812,0.1889270395040512,-0.7852345108985901,0,0,0,-1,157092.418364,3,2,1561827155.11842,1561827055.717469,12,1.562096,0,0,11.78992,0,0,1561827143.457785,157092.537628,0,0.5654297,75.37096,0,182478453,5,1,0.19,-36.29882,-45.21415,3
1561827158.314995,11,0,0,1561827157.998722,4.634658861909653,-74.15110101930252,2552.771,-1,-1,4,30,-9999,1561827158.299395,-27.99231719970703,9.111761093139648,7.910400390625,65.81008148193359,73.30327606201172,15,157095.643325875,-0.584014892578125,0.191925048828125,-0.7707977294921875,157095.634200875,-0.01981072271688144,0.04129897060440379,-0.004074636467821234,157095.618239875,-106.5433654785156,-18.98098754882812,-555.53662109375,157095.634200875,0.7198659099528385,-0.6434380262710082,-0.1903232877692232,-0.02220489084720612,0.03525559604167938,-0.007078549824655056,0.004582643508911133,0.004228800535202026,0.01831871271133423,1,0.02649794518947601,-0.3263464868068695,0.3607481420040131,0.8733021020889282,-0.5891163349151611,0.1891763508319855,-0.7855916619300842,0,0,0,-1,157092.418364,3,2,1561827155.11842,1561827055.717469,12,1.562096,0,0,11.78992,0,0,1561827143.457785,157092.537628,0,0.5654297,75.37096,0,182478453,5,1,0.19,-36.29882,-45.99245,3
1561827158.335257,12,0,0,1561827157.998722,4.634658861909653,-74.15110101930252,2552.771,-1,-1,4,30,-9999,1561827158.323451,-28.04177856445312,9.259218215942383,8.047119140625,65.83203125,73.32522583007812,15,157095.663588875,-0.58807373046875,0.18914794921875,-0.7771759033203125,157095.654464875,-0.01757393371732388,0.03758679036094233,0.01100338267588039,157095.638350875,-106.7092895507812,-19.13194274902344,-555.353271484375,157095.654464875,0.7196363642775886,-0.6427359146988576,-0.1906629050215904,-0.01996810175478458,0.03154341876506805,0.00799946952611208,0.002527534961700439,0.001270800828933716,0.01172268390655518,1,0.02618195675313473,-0.3260945975780487,0.3607017397880554,0.8734249472618103,-0.5885260701179504,0.1895098239183426,-0.7859536409378052,0,0,0,-1,157092.418364,3,2,1561827155.11842,1561827055.717469,12,1.562096,0,0,11.78992,0,0,1561827143.457785,157092.537628,0,0.5654297,75.37096,0,182478453,5,1,0.19,-36.29882,-46.56139,3
1561827158.355555,13,0,0,1561827157.998722,4.634658861909653,-74.15110101930252,2552.771,-1,-1,4,30,-9999,1561827158.350074,-27.80706787109375,9.16191291809082,7.9124755859375,65.83583068847656,73.32902526855469,15,157095.683852875,-0.589691162109375,0.19061279296875,-0.7786712646484375,157095.674727875,-0.01046116307794026,0.009565542003346608,0.01277305322023804,157095.658492875,-106.7803955078125,-18.99992370605469,-555.53125,157095.674727875,0.7196062853540167,-0.6424752673777694,-0.1910341751247663,-0.01285532955080271,0.003522168844938278,0.009769139811396599,6.914138793945312e-06,-0.0002686381340026855,0.006692707538604736,1,0.02596397697925568,-0.3260376751422882,0.3607407212257385,0.8734365701675415,-0.5882790088653564,0.1898743510246277,-0.7860506176948547,0,0,0,-1,157092.418364,3,2,1561827155.11842,1561827055.717469,12,1.562096,0,0,11.78992,0,0,1561827143.457785,157092.537628,0,0.5654297,75.37096,0,182478453,5,1,0.19,-36.29882,-47.20982,3
1561827158.382081,14,0,0,1561827157.998722,4.634658861909653,-74.15110101930252,2552.771,-1,-1,4,30,-9999,1561827158.376064,-28.09377288818359,9.25030517578125,7.9078369140625,65.83889007568359,73.33208465576172,15,157095.704116875,-0.587188720703125,0.19512939453125,-0.7706298828125,157095.694991875,-0.005464007608515573,0.006817159758384834,0.003838414079131206,157095.678603875,-106.9223937988281,-18.925048828125,-555.57421875,157095.694991875,0.7196184937075384,-0.6424404124195022,-0.1913218964455559,-0.007858174853026867,0.0007737870328128338,0.0008345008827745914,-0.002189517021179199,0.002683743834495544,0.01005691289901733,1,0.02583097293972969,-0.3260660767555237,0.3607842326164246,0.8734119534492493,-0.5882188081741333,0.1901568323373795,-0.7860273718833923,0,0,0,-1,157092.418364,3,2,1561827155.11842,1561827055.717469,12,1.562096,0,0,11.78992,0,0,1561827143.457785,157092.537628,0,0.5654297,75.37096,0,182478453,5,1,0.19,-36.29882,-44.70131,3
1561827158.396217,15,0,0,1561827157.998722,4.634658861909653,-74.15110101930252,2552.771,-1,-1,4,30,-9999,1561827158.376064,-28.09377288818359,9.25030517578125,7.9078369140625,65.83889007568359,73.33208465576172,15,157095.724379875,-0.583984375,0.1962127685546875,-0.763214111328125,157095.715255875,-0.007467770012691192,0.02643560224456255,1.22505410143645e-05,157095.698714875,-106.8727874755859,-19.21015930175781,-555.7905883789062,157095.715255875,0.719470733163966,-0.642288560848352,-0.1914404531742946,-0.009861936792731285,0.02039222978055477,-0.002991662593558431,0.00252997875213623,0.0058327317237854,0.01955807209014893,1,0.02572645992040634,-0.3260197043418884,0.3607372045516968,0.8734517693519592,-0.588085949420929,0.1902732253074646,-0.7860985994338989,0,0,0,-1,157092.418364,3,2,1561827155.11842,1561827055.717469,12,1.562096,0,0,11.78992,0,0,1561827143.457785,157092.537628,0,0.5654297,75.37096,0,182478453,5,1,0.19,-36.29882,-44.70131,3
1561827158.416404,16,0,0,1561827157.998722,4.634658861909653,-74.15110101930252,2552.771,-1,-1,4,30,-9999,1561827158.400681,-28.23548889160156,9.260740280151367,7.5877685546875,65.85445404052734,73.34764862060547,15,157095.744643875,-0.5865325927734375,0.194183349609375,-0.7647857666015625,157095.735518875,-0.01521703615260376,0.03309270602143363,-0.000220243422149553,157095.718856875,-106.7642059326172,-19.16471862792969,-555.542724609375,157095.735518875,0.7192695048949509,-0.6418515877586924,-0.1916386021909964,-0.01761120371520519,0.02704933471977711,-0.003224156564101577,0.00178229808807373,0.005607694387435913,0.02301961183547974,1,0.02552620694041252,-0.3258615732192993,0.360680878162384,0.873539924621582,-0.5877197980880737,0.1904677599668503,-0.7863252758979797,0,0,0,-1,157092.418364,3,2,1561827155.11842,1561827055.717469,12,1.562096,0,0,11.78992,0,0,1561827143.457785,157092.537628,0,0.5654297,75.37096,0,182478453,5,1,0.19,-36.29882,-44.76092,3
1561827158.436634,17,0,0,1561827157.998722,4.634658861909653,-74.15110101930252,2552.771,-1,-1,4,30,-9999,1561827158.424862,-28.19257354736328,9.225433349609375,7.90142822265625,65.87565612792969,73.36885070800781,15,157095.764876875,-0.58294677734375,0.192291259765625,-0.774566650390625,157095.755782875,-0.005776662720490875,0.02815786852151679,-0.007482950030904644,157095.738967875,-106.9497680664062,-19.12196350097656,-555.3984375,157095.755782875,0.7189832716234577,-0.6413531131670622,-0.1918024528945073,-0.008170830085873604,0.02211449481546879,-0.01048686355352402,0.001295268535614014,0.001723691821098328,0.01742810010910034,1,0.0253163855522871,-0.3256723880767822,0.360583633184433,0.8736567497253418,-0.5873091220855713,0.1906286031007767,-0.7865931391716003,0,0,0,-1,157092.418364,3,2,1561827155.11842,1561827055.717469,12,1.562096,0,0,11.78992,0,0,1561827143.457785,157092.537628,0,0.5654297,75.37096,0,182478453,5,1,0.19,-36.29882,-45.38448,3
1561827158.468799,18,0,0,1561827157.998722,4.634658861909653,-74.15110101930252,2552.771,-1,-1,4,30,-9999,1561827158.451357,-28.09579467773438,9.333505630493164,8.023681640625,65.8895263671875,73.38272094726562,15,157095.785140875,-0.5821380615234375,0.1937713623046875,-0.77801513671875,157095.776015875,0.005208344143867966,0.02322329733770897,-0.005240834709166933,157095.759078875,-106.9232940673828,-19.0787353515625,-555.48486328125,157095.776015875,0.7188131836841699,-0.6409964430783359,-0.1916776287971159,0.002814177190884948,0.01717992499470711,-0.00824474822729826,0.007819116115570068,0.002059847116470337,0.01129364967346191,1,0.02528027631342411,-0.3254997730255127,0.3604975342750549,0.873757541179657,-0.5870426893234253,0.1905060708522797,-0.7868216037750244,0,0,0,-1,157092.418364,3,2,1561827155.11842,1561827055.717469,12,1.562096,0,0,11.78992,0,0,1561827143.457785,157092.537628,0,0.5654297,75.37096,0,182478453,5,1,0.19,-36.29882,-44.72424,3
1561827158.477113,19,0,0,1561827157.998722,4.634658861909653,-74.15110101930252,2552.771,-1,-1,4,30,-9999,1561827158.451357,-28.09579467773438,9.333505630493164,8.023681640625,65.8895263671875,73.38272094726562,15,157095.805404875,-0.5904388427734375,0.1902923583984375,-0.772125244140625,157095.796279875,0.004316717810909437,0.01854865067629289,0.008575378710055146,157095.779189875,-106.8322448730469,-19.04862976074219,-555.720703125,157095.796279875,0.7187994295975111,-0.6407112486580757,-0.1916597051949656,0.001922550844028592,0.01250527799129486,0.005571465939283371,0.004682242870330811,0.003282904624938965,0.008976638317108154,1,0.02523463778197765,-0.3253726065158844,0.3604927659034729,0.8738082647323608,-0.5868203639984131,0.1904884725809097,-0.7869917750358582,0,0,0,-1,157092.418364,3,2,1561827155.11842,1561827055.717469,12,1.562096,0,0,11.78992,0,0,1561827143.457785,157092.537628,0,0.5654297,75.37096,0,182478453,5,1,0.19,-36.29882,-44.72424,3
1561827158.497328,20,0,0,1561827157.998722,4.634658861909653,-74.15110101930252,2552.771,-1,-1,4,30,-9999,1561827158.476457,-28.20886993408203,9.133834838867188,7.82470703125,65.88787078857422,73.38106536865234,15,157095.825667875,-0.5903778076171875,0.1934356689453125,-0.768951416015625,157095.816543875,0.01683890125646201,0.002291916434122192,0.01736167977844457,157095.799331875,-107.0825042724609,-19.18446350097656,-555.53271484375,157095.816543875,0.7190716275967514,-0.6405633608047803,-0.1916685147373713,0.01444473396986723,-0.003751456271857023,0.01435776706784964,-0.004208922386169434,0.001931458711624146,0.01763749122619629,1,0.02524832263588905,-0.3253059089183807,0.3606147170066833,0.8737823367118835,-0.5867029428482056,0.1904971152544022,-0.7870771884918213,0,0,0,-1,157092.418364,3,2,1561827155.11842,1561827055.717469,12,1.562096,0,0,11.78992,0,0,1561827143.457785,157092.537628,0,0.5654297,75.37096,0,182478453,5,1,0.19,-36.29882,-45.44297,3
1561827158.51774,21,0,0,1561827157.998722,4.634658861909653,-74.15110101930252,2552.771,-1,-1,4,30,-9999,1561827158.501782,-28.30302429199219,9.117658615112305,7.93182373046875,65.86311340332031,73.35630798339844,15,157095.845931875,-0.5824432373046875,0.2001190185546875,-0.7654876708984375,157095.836806875,0.01732546078761949,0.006105296799006654,0.02034175703824324,157095.819442875,-106.8195190429688,-19.54301452636719,-555.5199584960938,157095.836806875,0.7195423820411472,-0.6405745533547262,-0.1916099024618848,0.01493129413574934,6.192410364747047e-05,0.01733784377574921,-0.001034855842590332,0.006154656410217285,0.0195014476776123,1,0.02535313740372658,-0.3252959251403809,0.3608125746250153,0.8737013339996338,-0.5867184400558472,0.1904395818710327,-0.7870795726776123,0,0,0,-1,157092.418364,3,2,1561827155.11842,1561827055.717469,12,1.562096,0,0,11.78992,0,0,1561827143.457785,157092.537628,0,0.5654297,75.37096,0,182478453,5,1,0.19,-36.29882,-45.57269,3
1561827158.542417,22,0,0,1561827157.998722,4.634658861909653,-74.15110101930252,2552.771,-1,-1,4,30,-9999,1561827158.526805,-28.17059326171875,9.359260559082031,8.010009765625,65.83670043945312,73.32989501953125,15,157095.866195875,-0.5756988525390625,0.2047882080078125,-0.7601776123046875,157095.857070875,0.008413724831887338,0.0359856979135867,0.01410303586862361,157095.839553875,-106.7631683349609,-19.50950622558594,-555.4871826171875,157095.857070875,0.7199108033551631,-0.6402343688681923,-0.1915896742086207,0.006019557826220989,0.02994232438504696,0.01109912246465683,0.008160114288330078,0.01281209290027618,0.02608227729797363,1,0.02536069974303246,-0.3251395523548126,0.3609751760959625,0.8736922144889832,-0.5864529609680176,0.1904197186231613,-0.7872822284698486,0,0,0,-1,157092.418364,3,2,1561827155.11842,1561827055.717469,12,1.562096,0,0,11.78992,0,0,1561827143.457785,157092.537628,0,0.5654297,75.37096,0,182478453,5,1,0.19,-36.29882,-46.18674,3
1561827158.558799,23,0,0,1561827157.998722,4.634658861909653,-74.15110101930252,2552.771,-1,-1,4,30,-9999,1561827158.552458,-28.31309509277344,9.324485778808594,7.94482421875,65.83794403076172,73.33113861083984,15,157095.886458875,-0.5774688720703125,0.20489501953125,-0.7673187255859375,157095.877334875,-0.02362889677172804,0.06973274261485279,0.007258179234901956,157095.859664875,-107.0986175537109,-19.00627136230469,-555.4010009765625,157095.877334875,0.7199258082527129,-0.6392442345164344,-0.1918672983328483,-0.02602306380867958,0.06368936598300934,0.004254265688359737,0.01011055707931519,0.01302783191204071,0.02439230680465698,1,0.02506018243730068,-0.324749082326889,0.3610304296016693,0.8738232851028442,-0.585641622543335,0.1906922608613968,-0.787820041179657,0,0,0,-1,157092.418364,3,2,1561827155.11842,1561827055.717469,12,1.562096,0,0,11.78992,0,0,1561827143.457785,157092.537628,0,0.5654297,75.37096,0,182478453,5,1,0.19,-36.29882,-46.18674,3
1561827158.578378,24,0,0,1561827157.998722,4.634658861909653,-74.15110101930252,2552.771,-1,-1,4,30,-9999,1561827158.576664,-28.22076416015625,9.408489227294922,7.8818359375,65.87348937988281,73.36668395996094,15,157095.906722875,-0.5845947265625,0.19952392578125,-0.781524658203125,157095.897597875,-0.03748079654955718,0.06903472809314302,0.002546780950442775,157095.879775875,-106.9489440917969,-18.99278259277344,-555.4775390625,157095.897597875,0.7194771034472366,-0.6380176214083275,-0.1924713846742181,-0.03987496346235275,0.06299135088920593,-0.0004571322351694107,0.0021781325340271,0.01136675477027893,0.0132375955581665,1,0.02449561469256878,-0.3243106603622437,0.3609282076358795,0.8740442991256714,-0.5846061110496521,0.1912852227687836,-0.7884451150894165,0,0,0,-1,157092.418364,3,2,1561827155.11842,1561827055.717469,12,1.562096,0,0,11.78992,0,0,1561827143.457785,157092.537628,0,0.5654297,75.37096,0,182478453,5,1,0.19,-36.29882,-46.26975,3
1561827158.598733,25,0,0,1561827157.998722,4.634658861909653,-74.15110101930252,2552.771,-1,-1,4,30,-9999,1561827158.576664,-28.22076416015625,9.408489227294922,7.8818359375,65.87348937988281,73.36668395996094,15,157095.926986875,-0.5891571044921875,0.1951904296875,-0.78216552734375,157095.917861875,-0.04207874417157899,0.05877170420030466,0.02229944675556049,157095.899917875,-106.6770172119141,-19.10049438476562,-555.3598022460938,157095.917861875,0.7190474996869508,-0.6369751384214487,-0.1932274662652703,-0.04447291046380997,0.05272833257913589,0.01929553225636482,-0.002850174903869629,0.007115155458450317,0.003766119480133057,1,0.0238993838429451,-0.3239752948284149,0.3608512580394745,0.8742169737815857,-0.5836976766586304,0.192027285695076,-0.7889376282691956,0,0,0,-1,157092.418364,3,2,1561827155.11842,1561827055.717469,12,1.562096,0,0,11.78992,0,0,1561827143.457785,157093.484269,0,0.8720703,75.36806,0,182478453,5,1,0.19,-36.29882,-41.80924,3
1561827158.62632,26,0,0,1561827157.998722,4.634658861909653,-74.15110101930252,2552.771,-1,-1,4,30,-9999,1561827158.603757,-28.05998992919922,9.326711654663086,7.7916259765625,65.89166259765625,73.38485717773438,15,157095.947249875,-0.58953857421875,0.18463134765625,-0.775054931640625,157095.938125875,-0.0284167277794725,0.03412814305325643,0.04911375050713231,157095.920028875,-106.9116516113281,-19.22084045410156,-555.4852905273438,157095.938125875,0.7191001443796281,-0.636096119360362,-0.1943365849203056,-0.03081089444458485,0.028084771707654,0.04610983654856682,-0.006280064582824707,0.002074778079986572,0.007113039493560791,1,0.02325266785919666,-0.3237591981887817,0.3610284030437469,0.8742412328720093,-0.5828770399093628,0.1931156516075134,-0.7892785668373108,0,0,0,-1,157092.418364,3,2,1561827155.11842,1561827055.717469,12,1.562096,0,0,11.78992,0,0,1561827143.457785,157093.484269,0,0.8720703,75.36806,0,182478453,5,1,0.19,-36.29882,-42.43981,3
1561827158.639219,27,0,0,1561827157.998722,4.634658861909653,-74.15110101930252,2552.771,-1,-1,4,30,-9999,1561827158.627504,-28.34695434570312,9.182682037353516,7.6702880859375,65.85580444335938,73.3489990234375,15,157095.967513875,-0.58380126953125,0.172698974609375,-0.7738494873046875,157095.958388875,-0.01293204393731577,0.01595579703899174,0.07770012164804285,157095.940139875,-106.8877105712891,-19.16897583007812,-555.517822265625,157095.958388875,0.7197854088831829,-0.6356148610009809,-0.1954590501704438,-0.01532621029764414,0.00991242378950119,0.07469621300697327,-0.006468594074249268,-0.01643671095371246,0.01631277799606323,1,0.02277403138577938,-0.3237117528915405,0.3614786267280579,0.8740853667259216,-0.5823680758476257,0.1942168623209,-0.7893840670585632,0,0,0,-1,157092.418364,3,2,1561827155.11842,1561827055.717469,12,1.562096,0,0,11.78992,0,0,1561827143.457785,157093.484269,0,0.8720703,75.36806,0,182478453,5,1,0.19,-36.29882,-43.1074,3
1561827158.659549,28,0,0,1561827157.998722,4.634658861909653,-74.15110101930252,2552.771,-1,-1,4,30,-9999,1561827158.653868,-28.20716857910156,9.524826049804688,7.64154052734375,65.74851226806641,73.24170684814453,15,157095.987777875,-0.583282470703125,0.159393310546875,-0.781646728515625,157095.978652875,-0.02912113388779845,0.00111213607121709,0.1446503935559808,157095.960250875,-107.1322174072266,-18.98599243164062,-555.70361328125,157095.978652875,0.7212697554609079,-0.6352118077605128,-0.1971141988282699,-0.03151530027389526,-0.004931236617267132,0.1416464895009995,0.002527892589569092,-0.02811563014984131,0.01630282402038574,1,0.02220030128955841,-0.323771059513092,0.3623453676700592,0.8737191557884216,-0.5818582773208618,0.1958402246236801,-0.789358913898468,0,0,0,-1,157092.418364,3,2,1561827155.11842,1561827055.717469,12,1.562096,0,0,11.78992,0,0,1561827143.457785,157093.484269,0,0.8720703,75.36806,0,182478453,5,1,0.19,-36.29882,-43.57316,3
1561827158.68219,29,0,0,1561827157.998722,4.634658861909653,-74.15110101930252,2552.771,-1,-1,4,30,-9999,1561827158.678227,-28.14426422119141,9.743927001953125,7.725830078125,65.54145812988281,73.03465270996094,15,157096.008010875,-0.62469482421875,0.1298980712890625,-0.8207550048828125,157095.998885875,-0.05550027711725133,-0.05171139783439559,0.2358064029277581,157095.980361875,-106.8558349609375,-18.52922058105469,-555.6365356445312,157095.998885875,0.7237802891475605,-0.6353125995793244,-0.2000090858400767,-0.05789444223046303,-0.0577547699213028,0.2328024953603745,-0.01500439643859863,-0.05080531537532806,-0.009621262550354004,1,0.02132951095700264,-0.3242294490337372,0.3638131618499756,0.87296062707901,-0.5815989971160889,0.1986782401800156,-0.788840651512146,0,0,0,-1,157092.418364,3,2,1561827155.11842,1561827055.717469,12,1.562096,0,0,11.78992,0,0,1561827143.457785,157093.484269,0,0.8720703,75.36806,0,182478453,5,1,0.19,-36.29882,-43.9512,3
1561827158.708808,30,0,0,1561827157.998722,4.634658861909653,-74.15110101930252,2552.771,-1,-1,4,30,-9999,1561827158.704608,-27.97643280029297,9.945430755615234,7.98773193359375,65.2288818359375,72.72207641601562,15,157096.028273875,-0.721832275390625,0.070343017578125,-0.872344970703125,157096.019149875,-0.1128847407057337,-0.1201431862567447,0.3615534127502474,157096.000502875,-106.7651062011719,-18.42298889160156,-555.5278930664062,157096.019149875,0.7276799295297712,-0.636336106607395,-0.2050672082094384,-0.1152789071202278,-0.1261865496635437,0.3585494756698608,-0.08706760406494141,-0.09450210630893707,-0.05705583095550537,1,0.01988687738776207,-0.3254092931747437,0.3661524653434753,0.8715764880180359,-0.5818014144897461,0.2036329656839371,-0.7874265909194946,0,0,0,-1,157092.418364,3,2,1561827155.11842,1561827055.717469,12,1.562096,0,0,11.78992,0,0,1561827143.457785,157093.484269,0,0.8720703,75.36806,0,182478453,5,1,0.19,-36.29882,-44.20364,3
1561827158.720297,31,0,0,1561827157.998722,4.634658861909653,-74.15110101930252,2552.771,-1,-1,4,30,-9999,1561827158.704608,-27.97643280029297,9.945430755615234,7.98773193359375,65.2288818359375,72.72207641601562,15,157096.048537875,-0.8313140869140625,-0.05810546875,-0.9276885986328125,157096.039412875,-0.1141422853724691,-0.1913619727598617,0.2136353205367394,157096.020614875,-106.7194061279297,-18.48789978027344,-555.2967529296875,157096.039412875,0.7316893581015331,-0.638994477621451,-0.2109567148803762,-0.1165364533662796,-0.1974053531885147,0.2106314152479172,-0.1867759823799133,-0.1889944970607758,-0.1161916255950928,1,0.01839721575379372,-0.3274310529232025,0.3686265647411346,0.8698073625564575,-0.5831673145294189,0.2093954980373383,-0.7849009037017822,0,0,0,-1,157092.418364,3,2,1561827155.11842,1561827055.717469,12,1.562096,0,0,11.78992,0,0,1561827143.457785,157093.484269,0,0.8720703,75.36806,0,182478453,5,1,0.19,-36.29882,-44.20364,3
1561827158.740993,32,0,0,1561827157.998722,4.634658861909653,-74.15110101930252,2552.771,-1,-1,4,30,-9999,1561827158.728847,-27.76007080078125,10.0022087097168,7.96478271484375,65.24159240722656,72.73478698730469,15,157096.068801875,-0.9833526611328125,-0.29815673828125,-0.9830322265625,157096.059676875,-0.150570334343118,0.01918727670569389,-0.3624945738794815,157096.040725875,-106.5011749267578,-18.2867431640625,-555.3108520507812,157096.059676875,0.7296811780660251,-0.6416062153160575,-0.2121275188043126,-0.1529645025730133,0.01314390450716019,-0.3654984831809998,-0.3275905847549438,-0.4085840284824371,-0.1663609743118286,1,0.01802563294768333,-0.3287643194198608,0.3678796589374542,0.8696284294128418,-0.5850681066513062,0.2105402052402496,-0.7831782102584839,0,0,0,-1,157092.418364,3,2,1561827155.11842,1561827055.717469,12,1.562096,0,0,11.78992,0,0,1561827143.457785,157093.484269,0,0.8720703,75.36806,0,182478453,5,1,0.19,-36.29882,-44.77066,3
1561827158.762625,33,0,0,1561827157.998722,4.634658861909653,-74.15110101930252,2552.771,-1,-1,4,30,-9999,1561827158.755184,-28.16346740722656,9.527288436889648,8.10736083984375,66.39410400390625,73.88729858398438,15,157096.089064875,-1.0762939453125,-0.59246826171875,-1.052322387695312,157096.079940875,-0.4207355100745333,0.2923607592044628,-1.095101693936616,157096.060836875,-106.6474914550781,-18.51937866210938,-555.471435546875,157096.079940875,0.714086424712469,-0.6416796258462169,-0.2080472982754993,-0.423129677772522,0.286317378282547,-1.098105669021606,-0.4539005756378174,-0.6182776093482971,-0.2142910361289978,1,0.01730235852301121,-0.3283171951770782,0.3605586290359497,0.8728721737861633,-0.5856349468231201,0.2065497040748596,-0.7838168740272522,0,0,0,-1,157092.418364,3,2,1561827155.11842,1561827055.717469,12,1.562096,0,0,11.78992,0,0,1561827143.457785,157093.484269,0,0.8720703,75.36806,0,182478453,5,1,0.19,-36.8561,-44.80986,3
1561827158.788523,34,0,0,1561827157.998722,4.634658861909653,-74.15110101930252,2552.771,-1,-1,4,30,-9999,1561827158.779536,-28.3333740234375,8.81645393371582,7.86712646484375,68.72336578369141,76.21656036376953,15,157096.109328875,-0.9503173828125,-0.51171875,-1.218856811523438,157096.100203875,-0.3774540823546745,1.042199596778846,-1.750852381779045,157096.080977875,-106.7099761962891,-18.95941162109375,-555.395263671875,157096.100203875,0.6805859453806464,-0.6292736869110782,-0.1985845828207046,-0.3798482418060303,1.036156296730042,-1.753856301307678,-0.4472097754478455,-0.9101725816726685,-0.4478204846382141,1,0.01392384059727192,-0.321749746799469,0.344733715057373,0.8817266225814819,-0.5769906640052795,0.1972819268703461,-0.7925664782524109,0,0,0,-1,157092.418364,3,2,1561827155.11842,1561827055.717469,12,1.562096,0,0,11.78992,0,0,1561827143.457785,157093.484269,0,0.8720703,75.36806,0,182478453,5,1,0.19,-34.32046,-43.73228,3
1561827158.801348,35,0,0,1561827157.998722,4.634658861909653,-74.15110101930252,2552.771,-1,-1,4,30,-9999,1561827158.779536,-28.3333740234375,8.81645393371582,7.86712646484375,68.72336578369141,76.21656036376953,15,157096.129592875,-0.8381805419921875,-0.72161865234375,-1.261184692382812,157096.120467875,1.497129562617779,-0.9306331208127016,-1.418311445944121,157096.101088875,-107.2004241943359,-20.12896728515625,-555.703125,157096.120467875,0.6626582115889889,-0.6341298460507202,-0.1715085828407488,1.494735360145569,-0.9366765022277832,-1.421315431594849,-0.238435685634613,-0.6843560934066772,-0.3474365472793579,1,0.02409529685974121,-0.3202112913131714,0.3332009017467499,0.886488139629364,-0.5837841629981995,0.1706689894199371,-0.7937682867050171,0,0,0,-1,157092.418364,3,2,1561827155.11842,1561827055.717469,12,1.562096,0,0,11.78992,0,0,1561827143.457785,157093.484269,0,0.8720703,75.36806,0,182478453,5,1,0.19,-20.10879,-31.30587,3
1561827158.822155,36,0,0,1561827157.998722,4.634658861909653,-74.15110101930252,2552.771,-1,-1,4,30,-9999,1561827158.806361,-28.80359649658203,7.553068161010742,7.66326904296875,69.41041564941406,76.90361022949219,15,157096.149856875,-1.130218505859375,-0.879058837890625,-1.473114013671875,157096.140731875,1.344199401232742,-0.3226281176254313,-2.062433973518937,157096.121200875,-107.3713531494141,-20.7259521484375,-555.5909423828125,157096.140731875,0.6530227852135184,-0.6517518862758303,-0.1263923029827088,1.341805219650269,-0.3286714851856232,-2.065437793731689,-0.2364389896392822,-0.8476747274398804,-0.4725041389465332,1,0.04580722004175186,-0.3218095898628235,0.3224036395549774,0.8890423178672791,-0.6017414927482605,0.126056045293808,-0.7886805534362793,0,0,0,-1,157092.418364,3,2,1561827155.11842,1561827055.717469,12,1.562096,0,0,11.78992,0,0,1561827143.457785,157093.484269,0,0.8720703,75.36806,0,182478453,5,1,0.19,-17.32783,-23.58181,3
1561827158.843382,37,0,0,1561827157.998722,4.634658861909653,-74.15110101930252,2552.771,-1,-1,4,30,-9999,1561827158.830139,-29.13961791992188,6.640270233154297,7.48480224609375,71.06332397460938,78.5565185546875,15,157096.170119875,-1.046478271484375,-0.8232574462890625,-1.57012939453125,157096.160994875,0.9130104512474292,1.107965294633917,-2.916242886366122,157096.141341875,-107.869140625,-21.26957702636719,-555.57666015625,157096.160994875,0.625947495358433,-0.6447884689898959,-0.07807610356872337,0.9106162786483765,1.101921916007996,-2.919246673583984,-0.4572285413742065,-0.9299712777137756,-0.7734745740890503,1,0.06225763633847237,-0.3126146197319031,0.303569108247757,0.8979097604751587,-0.5991984009742737,0.07799680531024933,-0.7967921495437622,0,0,0,-1,157092.418364,3,2,1561827155.11842,1561827055.717469,12,1.562096,0,0,11.78992,0,0,1561827143.457785,157093.484269,0,0.8720703,75.36806,0,182478453,5,1,0.19,-17.32783,-24.34608,3
1561827158.869099,38,0,0,1561827157.998722,4.634658861909653,-74.15110101930252,2552.771,-1,-1,4,30,-9999,1561827158.856568,-29.88347625732422,5.215898513793945,6.9771728515625,73.81125640869141,81.30445098876953,15,157096.190383875,-0.922943115234375,-0.601226806640625,-1.461196899414062,157096.181258875,1.375592211530378,0.7757639118379777,-3.249007261416504,157096.161452875,-108.4652709960938,-22.53620910644531,-556.1822509765625,157096.181258875,0.587360935120408,-0.6241154630549456,-0.02331869133067291,1.37319803237915,0.7697205543518066,-3.252011060714722,-0.4634017944335938,-0.7778636813163757,-0.7360882759094238,1,0.07824760675430298,-0.2970647215843201,0.278903990983963,0.9098584651947021,-0.584220826625824,0.02331657893955708,-0.8112597465515137,0,0,0,-1,157092.418364,3,2,1561827155.11842,1561827055.717469,12,1.562096,0,0,11.78992,0,0,1561827143.457785,157093.484269,0,0.8720703,75.36806,0,182478453,5,1,0.19,-17.32783,-24.39228,3
1561827158.882447,39,0,0,1561827157.998722,4.634658861909653,-74.15110101930252,2552.771,-1,-1,4,30,-9999,1561827158.880752,-30.54660034179688,3.524040222167969,6.40740966796875,76.05441284179688,83.547607421875,15,157096.210647875,-0.798095703125,-0.433868408203125,-1.40325927734375,157096.201522875,2.189646787205406,-0.8944298426380554,-3.332440103627051,157096.181563875,-108.9122924804688,-24.30186462402344,-556.872802734375,157096.201522875,0.5537078310914404,-0.6241259783532787,0.04553438243765748,2.187252521514893,-0.9004732370376587,-3.33544397354126,-0.229739785194397,-0.4544661045074463,-0.57529217004776,1,0.1047376543283463,-0.2893328070640564,0.2533387541770935,0.917134702205658,-0.5837825536727905,-0.04551864787936211,-0.81063312292099,0,0,0,-1,157092.418364,3,2,1561827155.11842,1561827055.717469,12,1.562096,0,0,11.78992,0,0,1561827143.457785,157093.484269,0,0.8720703,75.36806,0,182478453,5,1,0.19,-17.32783,-24.39228,3
1561827158.902568,40,0,0,1561827157.998722,4.634658861909653,-74.15110101930252,2552.771,-1,-1,4,30,-9999,1561827158.880752,-30.54660034179688,3.524040222167969,6.40740966796875,76.05441284179688,83.547607421875,15,157096.230880875,-0.828125,-0.331817626953125,-1.4324951171875,157096.221755875,3.040407978501105,-2.216282126531724,-3.326270358329665,157096.201674875,-109.2499847412109,-26.24330139160156,-556.7532958984375,157096.221755875,0.5311048176843868,-0.6558737027911633,0.1275455169044193,3.038013696670532,-2.222325563430786,-3.32927417755127,-0.1908019185066223,-0.2488833963871002,-0.6440521478652954,1,0.1425768584012985,-0.2943346798419952,0.2281442731618881,0.9170545935630798,-0.6048981547355652,-0.1271999776363373,-0.7860778570175171,0,0,0,-1,157092.418364,3,2,1561827155.11842,1561827055.717469,12,1.562096,0,0,11.78992,0,0,1561827143.457785,157093.484269,0,0.8720703,75.36806,0,182478453,5,1,0.19,-17.32783,-25.41902,3
1561827158.948362,41,0,0,1561827157.998722,4.634658861909653,-74.15110101930252,2552.771,-1,-1,4,30,-9999,1561827158.932017,-29.91497802734375,-1.422956466674805,9.24078369140625,77.35840606689453,84.85160064697266,15,157096.251143875,-0.9173431396484375,-0.267852783203125,-1.401123046875,157096.242019875,3.822390904116635,-2.589249581397942,-3.506903254005925,157096.241897875,-108.7933044433594,-29.35072326660156,-554.6589965820312,157096.242019875,0.5211607675806224,-0.7039557433686745,0.2254462712428533,3.81999659538269,-2.595293045043945,-3.509907007217407,-0.2454070448875427,-0.06745900213718414,-0.6837447881698608,1,0.1902832984924316,-0.3037982881069183,0.2028407454490662,0.911237895488739,-0.6308594346046448,-0.2235413640737534,-0.7429977059364319,0,0,0,-1,157092.418364,3,2,1561827155.11842,1561827055.717469,12,1.562096,0,0,11.78992,0,0,1561827143.457785,157093.484269,0,0.8720703,75.36806,0,182478453,5,1,0.19,-17.32783,-27.21341,3
1561827158.951039,42,0,0,1561827157.998722,4.634658861909653,-74.15110101930252,2552.771,-1,-1,4,30,-9999,1561827158.932017,-29.91497802734375,-1.422956466674805,9.24078369140625,77.35840606689453,84.85160064697266,15,157096.271407875,-0.944580078125,-0.31024169921875,-1.30389404296875,157096.262282875,4.200662044293746,-2.583684906300221,-3.604247118170501,157096.262038875,-108.4528045654297,-30.74807739257812,-553.2574462890625,157096.262282875,0.5220269683378258,-0.7571629668114501,0.3347719494402861,4.198267936706543,-2.589728355407715,-3.607250928878784,-0.2956045866012573,0.06605684757232666,-0.6673347949981689,1,0.2436111122369766,-0.3121434450149536,0.1769431233406067,0.9010612368583679,-0.6487313508987427,-0.3285537958145142,-0.6864401698112488,0,0,0,-1,157092.418364,3,2,1561827155.11842,1561827055.717469,12,1.562096,0,0,11.78992,0,0,1561827143.457785,157093.484269,0,0.8720703,75.36806,0,182478453,5,1,0.19,-17.32783,-27.21341,3
1561827158.963604,43,0,0,1561827157.998722,4.634658861909653,-74.15110101930252,2552.771,-1,-1,4,30,-9999,1561827158.95851,-29.44920349121094,-2.630851745605469,10.7010498046875,76.76265716552734,84.25585174560547,15,157096.291671875,-0.9757232666015625,-0.4581756591796875,-1.192703247070312,157096.282546875,4.085175661519114,-2.426687032666197,-3.60514114134844,157096.282149875,-107.4849548339844,-32.14056396484375,-551.8472900390625,157096.282546875,0.531090392328632,-0.8117455682521402,0.4463301074901371,4.082781314849854,-2.432730436325073,-3.608144998550415,-0.3064576983451843,0.0509512722492218,-0.6242289543151855,1,0.2972554862499237,-0.3181716501712799,0.1508175283670425,0.8875021934509277,-0.6544187664985657,-0.4316580593585968,-0.620811939239502,0,0,0,-1,157092.418364,3,2,1561827155.11842,1561827055.717469,12,1.562096,0,0,11.78992,0,0,1561827143.457785,157093.484269,0,0.8720703,75.36806,0,182478453,5,1,0.19,-17.32783,-28.17685,3
1561827158.983669,44,0,0,1561827157.998722,4.634658861909653,-74.15110101930252,2552.771,-1,-1,4,30,-9999,1561827158.981992,-28.62503051757812,-4.079624176025391,12.01287841796875,76.60669708251953,84.09989166259766,15,157096.311934875,-0.9929351806640625,-0.5650482177734375,-1.152297973632812,157096.302810875,3.197014101138778,-2.126969290950391,-3.740602031246994,157096.302260875,-106.6272125244141,-33.34982299804688,-550.3849487304688,157096.302810875,0.5374643685035969,-0.8612592457585244,0.5519483572080707,3.19461989402771,-2.133012771606445,-3.743605852127075,-0.3372708559036255,-0.01016813516616821,-0.6178974509239197,1,0.3453613519668579,-0.3214891850948334,0.1224754601716995,0.8731381297111511,-0.6460055112838745,-0.5243472456932068,-0.5547404885292053,0,0,0,-1,157092.418364,3,2,1561827155.11842,1561827055.717469,12,1.562096,0,0,11.78992,0,0,1561827143.457785,157093.484269,0,0.8720703,75.36806,0,182478453,5,1,0.19,-17.32783,-29.23648,3
1561827159.020999,45,0,0,1561827157.998722,4.634658861909653,-74.15110101930252,2552.771,-1,-1,4,30,-9999,1561827159.011726,-26.74935913085938,-6.48626708984375,14.34033203125,77.51011657714844,85.00331115722656,15,157096.332198875,-0.9573822021484375,-0.6110382080078125,-1.016708374023438,157096.323073875,2.276249590061474,-1.567543275523365,-3.623014414372289,157096.322371875,-105.6800689697266,-34.60441589355469,-549.4892578125,157096.323073875,0.5303970387278345,-0.8950277844082327,0.6441758672478709,2.273855447769165,-1.573586583137512,-3.626018285751343,-0.3583431243896484,0.006148815155029297,-0.5993735194206238,1,0.3829848170280457,-0.3213261067867279,0.09195011854171753,0.8611720204353333,-0.6238651275634766,-0.6005396842956543,-0.5001443028450012,0,0,0,-1,157092.418364,3,2,1561827155.11842,1561827055.717469,12,1.562096,0,0,11.78992,0,0,1561827143.457785,157093.484269,0,0.8720703,75.36806,0,182478453,5,1,0.19,-17.32783,-29.94273,3
1561827159.024733,46,0,0,1561827157.998722,4.634658861909653,-74.15110101930252,2552.771,-1,-1,4,30,-9999,1561827159.011726,-26.74935913085938,-6.48626708984375,14.34033203125,77.51011657714844,85.00331115722656,15,157096.352462875,-0.8279571533203125,-0.7270355224609375,-0.8382110595703125,157096.343337875,2.079696850020939,-1.072163887467763,-3.662656366146446,157096.342482875,-105.0003814697266,-35.80650329589844,-548.730224609375,157096.343337875,0.5155099320521819,-0.9120783518733886,0.7284966412549746,2.077302694320679,-1.0782071352005,-3.66566014289856,-0.3117808699607849,0.01110076904296875,-0.4707531929016113,1,0.4141700565814972,-0.3163773715496063,0.06213771551847458,0.8511800169944763,-0.5900593400001526,-0.6657485961914062,-0.4567370414733887,0,0,0,-1,157092.418364,3,2,1561827155.11842,1561827055.717469,12,1.562096,0,0,11.78992,0,0,1561827143.457785,157093.484269,0,0.8720703,75.36806,0,182478453,5,1,0.19,-17.32783,-29.94273,3
1561827159.044364,47,0,0,1561827158.99871,4.634660622109319,-74.15110127075961,2552.775,-1,-1,4,30,-9999,1561827159.039224,-25.87832641601562,-7.714485168457031,15.0506591796875,78.84872436523438,86.3419189453125,15,157096.372725875,-0.6692962646484375,-0.8253631591796875,-0.64605712890625,157096.363601875,2.145763751395298,-0.6296471817857991,-4.094775558300523,157096.362624875,-104.3584899902344,-37.00907897949219,-548.1004638671875,157096.363601875,0.4962451715568401,-0.9156766802057518,0.8164757343144917,2.143369436264038,-0.6356905698776245,-4.097779750823975,-0.2169397473335266,-0.05841821432113647,-0.330452024936676,1,0.4448310136795044,-0.3058082461357117,0.03208768367767334,0.8411759734153748,-0.5430243015289307,-0.728736937046051,-0.4172133803367615,0,0,0,-1,157092.418364,3,2,1561827155.11842,1561827055.717469,12,1.562096,0,0,11.78992,0,0,1561827143.457785,157093.484269,0,0.8720703,75.36806,0,182478453,5,1,0.19,-17.32783,-30.84777,3
1561827159.064606,48,0,0,1561827158.99871,4.634660622109319,-74.15110127075961,2552.775,-1,-1,4,30,-9999,1561827159.059268,-25.14099884033203,-9.165840148925781,15.54583740234375,80.85668182373047,88.34987640380859,15,157096.392989875,-0.509124755859375,-0.75823974609375,-0.38397216796875,157096.383864875,2.46746828475469,-0.831837833854032,-4.576882017799278,157096.382735875,-103.0761871337891,-38.32791137695312,-547.5222778320312,157096.383864875,0.4691460743107057,-0.9088225791759813,0.9143089944051888,2.465074062347412,-0.8378812074661255,-4.579885959625244,-0.1145244240760803,-0.01939767599105835,-0.1436088085174561,1,0.4772860109806061,-0.2908922433853149,-0.001042326912283897,0.8292036652565002,-0.4814228415489197,-0.7921410202980042,-0.3751595318317413,0,0,0,-1,157092.418364,3,2,1561827155.11842,1561827055.717469,12,1.562096,0,0,11.78992,0,0,1561827143.457785,157093.484269,0,0.8720703,75.36806,0,182478453,5,1,0.19,-17.32783,-31.2992,3
1561827159.098759,49,0,0,1561827158.99871,4.634660622109319,-74.15110127075961,2552.775,-1,-1,4,30,-9999,1561827159.083392,-23.96286010742188,-10.54286956787109,16.08642578125,83.08413696289062,90.57733154296875,15,157096.413253875,-0.234405517578125,-0.6815338134765625,-0.1735076904296875,157096.404128875,2.985901326786562,-1.76538711606037,-5.065858633962111,157096.402846875,-101.6006011962891,-39.89126586914062,-546.4190063476562,157096.404128875,0.4399706803664924,-0.9098821912235611,1.025228637169451,2.9835045337677,-1.77143394947052,-5.068861961364746,0.03717154264450073,0.1403552889823914,0.04886960983276367,1,0.5135150551795959,-0.2775622606277466,-0.03949327766895294,0.8109880685806274,-0.4096385836601257,-0.8548328280448914,-0.3185229599475861,0,0,0,-1,157092.418364,3,2,1561827155.11842,1561827055.717469,12,1.562096,0,0,11.78992,0,0,1561827143.457785,157093.484269,0,0.8720703,75.36806,0,182478453,5,1,0.19,-17.32783,-32.3354,3
1561827159.105144,50,0,0,1561827158.99871,4.634660622109319,-74.15110127075961,2552.775,-1,-1,4,30,-9999,1561827159.083392,-23.96286010742188,-10.54286956787109,16.08642578125,83.08413696289062,90.57733154296875,15,157096.433516875,-0.13067626953125,-0.5207061767578125,-0.045074462890625,157096.424392875,3.407640582275946,-3.166708393198113,-5.669098709327011,157096.422957875,-98.98599243164062,-41.20927429199219,-544.7744750976562,157096.424392875,0.409071799666467,-0.9328717838924733,1.151291566195473,3.405243635177612,-3.172755241394043,-5.672102451324463,0.09279888868331909,0.2317569851875305,0.06905639171600342,1,0.5527098774909973,-0.2706099450588226,-0.08752747625112534,0.7833396792411804,-0.3272044062614441,-0.9132907390594482,-0.2425640970468521,0,0,0,-1,157092.418364,3,2,1561827155.11842,1561827055.717469,12,1.562096,0,0,11.78992,0,0,1561827143.457785,157093.484269,0,0.8720703,75.36806,0,182478453,5,1,0.19,-17.32783,-32.3354,3
1561827159.125441,51,0,0,1561827158.99871,4.634660622109319,-74.15110127075961,2552.775,-1,-1,4,30,-9999,1561827159.110032,-19.36053466796875,-12.92964172363281,19.20013427734375,141.3953094482422,148.8885040283203,15,157096.453750875,-0.1587371826171875,-0.2382354736328125,0.0238189697265625,157096.444655875,3.667681218491207,-4.241393228953745,-5.889584479135761,157096.443099875,-96.03907775878906,-42.1898193359375,-542.41455078125,157096.444655875,0.382191058569694,-0.9836744759845604,1.289087130944829,3.665284395217896,-4.247439861297607,-5.892588138580322,0.1081831008195877,0.5645855665206909,0.1507666110992432,1,0.5916748046875,-0.2700373828411102,-0.1447444707155228,0.7456873655319214,-0.2314436137676239,-0.9605816602706909,-0.1540014743804932,0,0,0,-1,157092.418364,3,2,1561827155.11842,1561827055.717469,12,1.562096,0,0,11.78992,0,0,1561827143.457785,157093.484269,0,0.8720703,75.36806,0,182478453,5,1,0.19,-17.32783,-32.30646,3
1561827159.145696,52,0,0,1561827158.99871,4.634660622109319,-74.15110127075961,2552.775,-1,-1,4,30,-9999,1561827159.133869,-16.19938659667969,-13.60935211181641,21.4844970703125,146.5126190185547,154.0058135986328,15,157096.474013875,-0.3003692626953125,0.04522705078125,-0.010345458984375,157096.464888875,3.574200802120009,-4.355534182745669,-5.729261116248555,157096.463210875,-92.45098876953125,-42.13536071777344,-540.2954711914062,157096.464888875,0.3996983354436455,-1.09050712420756,1.428518744897677,3.571804046630859,-4.361580848693848,-5.732264518737793,-0.1020128130912781,0.904553234577179,0.07979798316955566,1,0.6267189979553223,-0.2728835642337799,-0.2047258764505386,0.7006034255027771,-0.1257551312446594,-0.9898955821990967,-0.06551571935415268,0,0,0,-1,157092.418364,3,2,1561827155.11842,1561827055.717469,12,1.562096,0,0,11.78992,0,0,1561827143.457785,157093.484269,0,0.8720703,75.36806,0,182478453,5,1,0.19,-17.32783,-28.1176,3
1561827159.180022,53,0,0,1561827158.99871,4.634660622109319,-74.15110127075961,2552.775,-1,-1,4,30,-9999,1561827159.163014,-12.70970916748047,-13.90081787109375,23.32122802734375,151.5765838623047,159.0697784423828,15,157096.494277875,-0.42034912109375,0.3239593505859375,-0.1151123046875,157096.485152875,2.86716136010818,-3.04210041737385,-4.524711757309062,157096.483321875,-89.39691162109375,-41.62353515625,-538.8485107421875,157096.485152875,1.080784597905951,-1.847641420494682,1.547712871499865,2.864764451980591,-3.048147201538086,-4.52771520614624,-0.3428941965103149,1.200264573097229,-0.07701802253723145,1,0.6548501253128052,-0.2726273834705353,-0.2563976645469666,0.6565865278244019,-0.02220284938812256,-0.999733567237854,0.00630875350907445,0,0,0,-1,157092.418364,3,2,1561827155.11842,1561827055.717469,12,1.562096,0,0,11.78992,0,0,1561827143.457785,157093.484269,0,0.8720703,75.36806,0,182478453,5,1,0.19,-17.32783,-22.72276,3
1561827159.186217,54,0,0,1561827158.99871,4.634660622109319,-74.15110127075961,2552.775,-1,-1,4,30,-9999,1561827159.18452,-10.16445159912109,-13.24818801879883,24.7645263671875,153.9617004394531,161.4548950195312,15,157096.514541875,-0.43792724609375,0.44830322265625,-0.0637054443359375,157096.505416875,1.480745262959393,-1.147639470657263,-2.362390867100632,157096.503432875,-87.18412780761719,-41.25677490234375,-538.4017333984375,157096.505416875,3.106037964265467,2.369209110097218,1.499681654265759,1.47834837436676,-1.15368640422821,-2.365394115447998,-0.4762518107891083,1.38977587223053,-0.1514945030212402,1,0.6732303500175476,-0.2687146365642548,-0.2868206799030304,0.6263284087181091,0.04958555102348328,-0.9974724054336548,0.05089332163333893,0,0,0,-1,157092.418364,3,2,1561827155.11842,1561827055.717469,12,1.562096,0,0,11.78992,0,0,1561827143.457785,157093.484269,0,0.8720703,75.36806,0,182478453,5,1,0.19,-17.32783,-22.72276,3
1561827159.206418,55,0,0,1561827158.99871,4.634660622109319,-74.15110127075961,2552.775,-1,-1,4,30,-9999,1561827159.18452,-10.16445159912109,-13.24818801879883,24.7645263671875,153.9617004394531,161.4548950195312,15,157096.534804875,-0.5461578369140625,0.4401092529296875,0.0196533203125,157096.525679875,-0.2299144253320667,-0.4748980813762378,0.2121266397792095,157096.523574875,-86.64353942871094,-41.17860412597656,-538.04931640625,157096.525679875,-3.100903716113764,2.278946238206598,1.474863765859838,-0.2323112785816193,-0.4809449315071106,0.2091232538223267,-0.5366077423095703,1.459543824195862,-0.07742345333099365,1,0.6779850721359253,-0.2673709690570831,-0.2969672679901123,0.6169760823249817,0.07275576144456863,-0.9954019784927368,0.06230198591947556,0,0,0,-1,157092.418364,3,2,1561827155.11842,1561827055.717469,12,1.562096,0,0,11.78992,0,0,1561827143.457785,157093.484269,0,0.8720703,75.36806,0,182478453,5,1,0.19,-16.03321,-23.03032,3
1561827159.226766,56,0,0,1561827158.99871,4.634660622109319,-74.15110127075961,2552.775,-1,-1,4,30,-9999,1561827159.210982,-8.036964416503906,-12.95001602172852,25.1444091796875,154.6937255859375,162.1869201660156,15,157096.555068875,-0.667236328125,0.260467529296875,0.0916748046875,157096.545943875,-0.9847810447284107,-0.6499106418879941,2.200946313394503,157096.543685875,-86.8001708984375,-41.38914489746094,-538.1437377929688,157096.545943875,3.097102636358865,2.353498399452881,1.504108239074219,-0.987177848815918,-0.6559574604034424,2.197942972183228,-0.6443849205970764,1.381810426712036,0.03213870525360107,1,0.6683192849159241,-0.2772111594676971,-0.2943393588066101,0.6243938207626343,0.04724746942520142,-0.9977771639823914,0.04699338600039482,0,0,0,-1,157092.418364,3,2,1561827155.11842,1561827055.717469,12,1.562096,0,0,11.78992,0,0,1561827143.457785,157093.484269,0,0.8720703,75.36806,0,182478453,5,1,0.19,-16.03321,-16.03321,3
1561827159.26377,57,0,0,1561827158.99871,4.634660622109319,-74.15110127075961,2552.775,-1,-1,4,30,-9999,1561827159.262187,-8.278472900390625,-12.90108871459961,25.33966064453125,158.0967559814453,165.5899505615234,15,157096.575332875,-0.9085693359375,-0.131988525390625,0.138031005859375,157096.566207875,-0.3490378872074201,-1.246284821646561,3.192029728842586,157096.563796875,-87.11695861816406,-41.40650939941406,-538.2804565429688,157096.566207875,2.044438024648757,-2.896672557783777,1.538190894695716,-0.351434737443924,-1.252331733703613,3.189026355743408,-0.7703856229782104,1.095537900924683,0.07904744148254395,1,0.65281742811203,-0.2994022071361542,-0.2850679457187653,0.6347628831863403,-0.007904170081019402,-0.9994685053825378,0.03162455186247826,0,0,0,-1,157092.418364,3,2,1561827155.11842,1561827055.717469,12,1.562096,0,0,11.78992,0,0,1561827143.457785,157093.484269,0,0.8720703,75.36806,0,182478453,5,1,0.19,-16.03321,-17.40064,3
1561827159.26725,58,0,0,1561827158.99871,4.634660622109319,-74.15110127075961,2552.775,-1,-1,4,30,-9999,1561827159.262187,-8.278472900390625,-12.90108871459961,25.33966064453125,158.0967559814453,165.5899505615234,15,157096.595614625,-1.079910278320312,-0.611236572265625,0.11431884765625,157096.586490625,0.3643428076759965,-1.835906023829015,2.98187249668949,157096.583957625,-86.9765625,-40.77316284179688,-538.2199096679688,157096.586490625,1.141968158052939,-2.027044316454822,1.491179769846483,0.3619459569454193,-1.841952919960022,2.978869199752808,-0.9577159881591797,0.6333678960800171,0.1340417861938477,1,0.6388691067695618,-0.330706387758255,-0.2744287550449371,0.6380975246429443,-0.07139774411916733,-0.9968322515487671,0.03504090011119843,0,0,0,-1,157092.418364,3,2,1561827155.11842,1561827055.717469,12,1.562096,0,0,11.78992,0,0,1561827143.457785,157093.484269,0,0.8720703,75.36806,0,182478453,5,1,0.19,-16.03321,-17.40064,3
1561827159.287658,59,0,0,1561827158.99871,4.634660622109319,-74.15110127075961,2552.775,-1,-1,4,30,-9999,1561827159.285908,-7.473808288574219,-12.5119514465332,25.35595703125,160.4449462890625,167.9381408691406,15,157096.615878625,-1.062286376953125,-1.0911865234375,-0.1030731201171875,157096.606753625,-0.4757486950284092,-1.487068672651677,1.870784645677455,157096.604068625,-86.46034240722656,-40.45527648925781,-537.8980712890625,157096.606753625,0.9658650165984808,-1.887661297795239,1.444116845624768,-0.4781455397605896,-1.493115544319153,1.867781281471252,-0.9731646776199341,0.129804253578186,-0.03710818290710449,1,0.6256282329559326,-0.3581515550613403,-0.2695624828338623,0.6384769678115845,-0.120051234960556,-0.991986870765686,0.03936644271016121,0,0,0,-1,157092.418364,3,2,1561827155.11842,1561827055.717469,12,1.562096,0,0,11.78992,0,0,1561827143.457785,157093.484269,0,0.8720703,75.36806,0,182478453,5,1,0.19,-16.03321,-18.0575,3
1561827159.308058,60,0,0,1561827158.99871,4.634660622109319,-74.15110127075961,2552.775,-1,-1,4,30,-9999,1561827159.285908,-7.473808288574219,-12.5119514465332,25.35595703125,160.4449462890625,167.9381408691406,15,157096.636142625,-0.87762451171875,-0.9993133544921875,-0.1096038818359375,157096.627017625,-1.452225737161844,-0.1484912044800931,0.045440186099477,157096.624179625,-86.21067810058594,-41.11698913574219,-538.0074462890625,157096.627017625,0.7785187258701957,-1.719543468500132,1.429715881352194,-1.454622507095337,-0.1545380502939224,0.04243680089712143,-0.8515253067016602,-0.159364640712738,-0.1479902267456055,1,0.6129415035247803,-0.3670450448989868,-0.2724844217300415,0.6444632411003113,-0.1390600502490997,-0.9900646209716797,0.02083870396018028,0,0,0,-1,157092.418364,3,2,1561827155.11842,1561827055.717469,12,1.562096,0,0,11.78992,0,0,1561827143.457785,157093.484269,0,0.8720703,75.36806,0,182478453,5,1,0.19,-16.03321,-19.12934,3
1561827159.342887,61,0,0,1561827158.99871,4.634660622109319,-74.15110127075961,2552.775,-1,-1,4,30,-9999,1561827159.336807,-7.715202331542969,-13.72372436523438,24.875,160.1445159912109,167.6377105712891,15,157096.656405625,-0.35882568359375,-0.6342926025390625,-0.0542755126953125,157096.647281625,-1.068401107163591,0.7006718238454493,-1.112196258657726,157096.644290625,-86.29197692871094,-42.06439208984375,-538.5623168945312,157096.647281625,0.5714236707357084,-1.506954077272354,1.444096213445582,-1.070797920227051,0.6946249604225159,-1.115199565887451,-0.5233246088027954,0.1932476758956909,-0.08326208591461182,1,0.6071895360946655,-0.3567772209644318,-0.2796020209789276,0.6525746583938599,-0.1261046975851059,-0.9919842481613159,-0.00806176383048296,0,0,0,-1,157092.418364,3,2,1561827155.11842,1561827055.717469,12,1.562096,0,0,11.78992,0,0,1561827143.457785,157093.484269,0,0.8720703,75.36806,0,182478453,5,1,0.19,-16.03321,-20.1952,3
1561827159.348403,62,0,0,1561827158.99871,4.634660622109319,-74.15110127075961,2552.775,-1,-1,4,30,-9999,1561827159.336807,-7.715202331542969,-13.72372436523438,24.875,160.1445159912109,167.6377105712891,15,157096.676638625,0.0390777587890625,-0.494659423828125,0.0335693359375,157096.667544625,0.5367353503073328,0.4445186038733769,-0.7938278671958761,157096.664431625,-86.51005554199219,-42.30967712402344,-538.7421875,157096.667544625,0.5017518812423641,-1.42501500043715,1.464662351523567,0.5343385338783264,0.4384717345237732,-0.7968311905860901,-0.006393939256668091,0.4638097286224365,0.007500052452087402,1,0.6107938289642334,-0.3453063666820526,-0.2837107181549072,0.6536074876785278,-0.1048121452331543,-0.994373083114624,-0.01538882311433554,0,0,0,-1,157092.418364,3,2,1561827155.11842,1561827055.717469,12,1.562096,0,0,11.78992,0,0,1561827143.457785,157093.484269,0,0.8720703,75.36806,0,182478453,5,1,0.19,-16.03321,-20.1952,3
1561827159.368513,63,0,0,1561827158.99871,4.634660622109319,-74.15110127075961,2552.775,-1,-1,4,30,-9999,1561827159.363062,-7.7191162109375,-13.80770874023438,24.71435546875,159.5947418212891,167.0879364013672,15,157096.696902625,0.0245819091796875,-0.580413818359375,0.1700286865234375,157096.687777625,1.651544702626644,0.1802531289048142,-0.2299463832651477,157096.684542625,-86.24348449707031,-41.61709594726562,-538.3560791015625,157096.687777625,0.7325268593281148,-1.649497096574552,1.475158679835584,1.649147868156433,0.1742062866687775,-0.2329497635364532,0.1766174137592316,0.4849779605865479,0.0889127254486084,1,0.62082439661026,-0.3439925014972687,-0.2812090218067169,0.6458852291107178,-0.09519650787115097,-0.9954302310943604,0.007507544942200184,0,0,0,-1,157092.418364,3,2,1561827155.11842,1561827055.717469,12,1.562096,0,0,11.78992,0,0,1561827143.457785,157093.484269,0,0.8720703,75.36806,0,182478453,5,1,0.19,-16.03321,-21.2649,3
1561827159.388939,64,0,0,1561827158.99871,4.634660622109319,-74.15110127075961,2552.775,-1,-1,4,30,-9999,1561827159.387271,-8.09429931640625,-12.17458343505859,25.57537841796875,158.6889038085938,166.1820983886719,15,157096.717166625,-0.07708740234375,-0.798980712890625,0.2922210693359375,157096.708041625,1.814250795741144,0.5680804900214563,-0.1029948256816155,157096.704654625,-86.28440856933594,-40.90962219238281,-537.902099609375,157096.708041625,1.100849549938237,-2.009037770964564,1.468636076541258,1.811854004859924,0.5620336532592773,-0.1059982106089592,0.04443365335464478,0.3111161589622498,0.1973240375518799,1,0.6340465545654297,-0.3458659648895264,-0.2736674547195435,0.6351912617683411,-0.09234626591205597,-0.9947862029075623,0.043276596814394,0,0,0,-1,157092.418364,3,2,1561827155.11842,1561827055.717469,12,1.562096,0,0,11.78992,0,0,1561827143.457785,157093.484269,0,0.8720703,75.36806,0,182478453,5,1,0.19,-16.03321,-22.3116,3
1561827159.429246,65,0,0,1561827158.99871,4.634660622109319,-74.15110127075961,2552.775,-1,-1,4,30,-9999,1561827159.414272,-8.528816223144531,-11.58661651611328,25.6358642578125,157.453125,164.9463195800781,15,157096.737429625,-0.06939697265625,-0.9730072021484375,0.3648529052734375,157096.728305625,1.351807786150989,0.7679206361115852,-0.01845757056701218,157096.724765625,-86.68603515625,-40.2357177734375,-537.60498046875,157096.728305625,1.359468991097613,-2.251994587813344,1.452417399620062,1.349411010742188,0.7618737816810608,-0.02146095782518387,0.01792231202125549,0.09401458501815796,0.2603600025177002,1,0.6464771628379822,-0.3453307449817657,-0.263971209526062,0.6270033121109009,-0.0917443260550499,-0.993001401424408,0.07437209039926529,0,0,0,-1,157092.418364,3,2,1561827155.11842,1561827055.717469,12,1.562096,0,0,11.78992,0,0,1561827143.457785,157093.484269,0,0.8720703,75.36806,0,182478453,5,1,0.19,-16.03321,-24.34637,3
1561827159.431866,66,0,0,1561827158.99871,4.634660622109319,-74.15110127075961,2552.775,-1,-1,4,30,-9999,1561827159.414272,-8.528816223144531,-11.58661651611328,25.6358642578125,157.453125,164.9463195800781,15,157096.757693625,-0.080657958984375,-1.096481323242188,0.37701416015625,157096.748568625,0.6723392519564234,0.6337250140469285,0.1715347384442217,157096.744876625,-87.57283020019531,-39.93580627441406,-537.7470092773438,157096.748568625,1.473038057872889,-2.350519793421886,1.437586549937088,0.6699424386024475,0.6276781558990479,0.1685313433408737,0.02308171987533569,-0.04532778263092041,0.2809169292449951,1,0.6544535756111145,-0.3440655767917633,-0.2553603053092957,0.6229771971702576,-0.09444709122180939,-0.9911406636238098,0.09338121116161346,0,0,0,-1,157092.418364,3,2,1561827155.11842,1561827055.717469,12,1.562096,0,0,11.78992,0,0,1561827143.457785,157093.484269,0,0.8720703,75.36806,0,182478453,5,1,0.19,-16.03321,-24.34637,3
1561827159.449753,67,0,0,1561827158.99871,4.634660622109319,-74.15110127075961,2552.775,-1,-1,4,30,-9999,1561827159.437933,-8.568702697753906,-11.31978607177734,25.7906494140625,156.5529632568359,164.0461578369141,15,157096.777957625,-0.15625,-1.150482177734375,0.3342742919921875,157096.768832625,0.02136201405185259,0.4500425326064193,0.1990060440367161,157096.765017625,-87.49093627929688,-39.33816528320312,-537.657958984375,157096.768832625,1.487950332109296,-2.354523870449785,1.429855930585106,0.01896516419947147,0.4439956545829773,0.1960026472806931,-0.01418155431747437,-0.1466954350471497,0.258181095123291,1,0.6572637557983398,-0.3429090678691864,-0.2493834942579269,0.6230775713920593,-0.09949643164873123,-0.9900843501091003,0.09916454553604126,0,0,0,-1,157092.418364,3,2,1561827155.11842,1561827055.717469,12,1.562096,0,0,11.78992,0,0,1561827143.457785,157093.484269,0,0.8720703,75.36806,0,182478453,5,1,0.19,-16.03321,-25.34507,3
1561827159.47013,68,0,0,1561827158.99871,4.634660622109319,-74.15110127075961,2552.775,-1,-1,4,30,-9999,1561827159.437933,-8.568702697753906,-11.31978607177734,25.7906494140625,156.5529632568359,164.0461578369141,15,157096.798220625,-0.1812286376953125,-1.138137817382812,0.2757720947265625,157096.789096625,-0.5690035416552778,0.421901708315879,0.1081323297404873,157096.785128625,-87.9219970703125,-39.31588745117188,-537.685546875,157096.789096625,1.443123159757285,-2.301423172464495,1.431648415587631,-0.5714003443717957,0.4158548414707184,0.1051289439201355,-0.07806819677352905,-0.1556615233421326,0.2167971134185791,1,0.6560267210006714,-0.3404537737369537,-0.2465742081403732,0.6268344521522522,-0.1032977700233459,-0.9903345108032227,0.09255965799093246,0,0,0,-1,157092.418364,3,2,1561827155.11842,1561827055.717469,12,1.562096,0,0,11.78992,0,0,1561827143.457785,157093.484269,0,0.8720703,75.36806,0,182478453,5,1,0.19,-16.03321,-26.39766,3
1561827159.49772,69,0,0,1561827158.99871,4.634660622109319,-74.15110127075961,2552.775,-1,-1,4,30,-9999,1561827159.489693,-9.449462890625,-11.75527954101562,25.49853515625,155.5880889892578,163.0812835693359,15,157096.818484625,-0.1560211181640625,-1.141921997070312,0.1909637451171875,157096.809359625,-0.9965620704425942,0.3440151653915307,0.1016736314648271,157096.805240625,-88.08770751953125,-40.01223754882812,-537.806640625,157096.809359625,1.339931982855146,-2.191365331182078,1.440303271451002,-0.9989588856697083,0.3379682898521423,0.09867024421691895,-0.06488403677940369,-0.1484557390213013,0.1621568202972412,1,0.6515489220619202,-0.336626410484314,-0.2461638152599335,0.6336956024169922,-0.1058618128299713,-0.9914978742599487,0.07566667348146439,0,0,0,-1,157092.418364,3,2,1561827155.11842,1561827055.717469,12,1.562096,0,0,11.78992,0,0,1561827143.457785,157093.484269,0,0.8720703,75.36806,0,182478453,5,1,0.19,-16.03321,-27.30552,3
1561827159.5106,70,0,0,1561827158.99871,4.634660622109319,-74.15110127075961,2552.775,-1,-1,4,30,-9999,1561827159.489693,-9.449462890625,-11.75527954101562,25.49853515625,155.5880889892578,163.0812835693359,15,157096.838748625,-0.1421661376953125,-1.164031982421875,0.1097869873046875,157096.829623625,-1.145087896016858,0.2857428038956158,0.1302999500220889,157096.825351625,-88.57290649414062,-40.57695007324219,-538.178466796875,157096.829623625,1.17700021527021,-2.023641287567001,1.449762860354658,-1.147484660148621,0.2796959280967712,0.1272965669631958,-0.04055589437484741,-0.1544103026390076,0.0930938720703125,1,0.6447727084159851,-0.3326877057552338,-0.2471938133239746,0.6422477960586548,-0.1085682436823845,-0.9926843643188477,0.05282590910792351,0,0,0,-1,157092.418364,3,2,1561827155.11842,1561827055.717469,12,1.562096,0,0,11.78992,0,0,1561827143.457785,157093.484269,0,0.8720703,75.36806,0,182478453,5,1,0.19,-16.03321,-27.30552,3
1561827159.53068,71,0,0,1561827158.99871,4.634660622109319,-74.15110127075961,2552.775,-1,-1,4,30,-9999,1561827159.515055,-9.701637268066406,-12.10321807861328,25.068115234375,155.3554992675781,162.8486938476562,15,157096.859011625,-0.1677703857421875,-1.145675659179688,0.06402587890625,157096.849887625,-0.9619620152441757,0.2416280730706713,0.1051858083104236,157096.845462625,-88.4298095703125,-40.86929321289062,-538.4884033203125,157096.849887625,0.9974701389627393,-1.83989378555448,1.455102225908498,-0.9643588066101074,0.2355812191963196,0.1021824181079865,-0.03979501128196716,-0.1703051328659058,0.05156993865966797,1,0.6380274295806885,-0.3290381133556366,-0.2482194453477859,0.6504168510437012,-0.1112822368741035,-0.9933149218559265,0.03069016151130199,0,0,0,-1,157092.418364,3,2,1561827155.11842,1561827055.717469,12,1.562096,0,0,11.78992,0,0,1561827143.457785,157094.430913,0,0.9487305,75.36733,0,182478453,5,1,0.19,-16.03321,-28.07847,3
1561827159.550992,72,0,0,1561827158.99871,4.634660622109319,-74.15110127075961,2552.775,-1,-1,4,30,-9999,1561827159.539082,-9.67169189453125,-12.62998962402344,24.82525634765625,155.1955108642578,162.6887054443359,15,157096.879275625,-0.1885528564453125,-1.106887817382812,0.031982421875,157096.870150625,-0.736420500422019,0.1616584055416629,0.01043612936369351,157096.865603625,-88.49702453613281,-41.25088500976562,-538.7967529296875,157096.870150625,0.8487727868953054,-1.68832163642983,1.45725947551472,-0.7388173341751099,0.1556115597486496,0.007432742044329643,-0.06563451886177063,-0.1360771059989929,0.03453683853149414,1,0.6327338218688965,-0.3260214924812317,-0.2494190633296967,0.6566186547279358,-0.1125118359923363,-0.9935616254806519,0.01328420545905828,0,0,0,-1,157092.418364,3,2,1561827155.11842,1561827055.717469,12,1.562096,0,0,11.78992,0,0,1561827143.457785,157094.430913,0,0.9487305,75.36733,0,182478453,1,1,0.19,-16.03321,-29.05817,3
1561827159.581788,73,0,0,1561827158.99871,4.634660622109319,-74.15110127075961,2552.775,-1,-1,4,30,-9999,1561827159.565824,-9.837669372558594,-13.14562225341797,24.70062255859375,155.0841064453125,162.5773010253906,15,157096.899539625,-0.187469482421875,-1.097000122070312,0.0039520263671875,157096.890414625,-0.4808694211724135,0.1512595604332305,-0.09886106703759445,157096.885714625,-88.41720581054688,-41.47206115722656,-538.8834228515625,157096.890414625,0.7375987530151019,-1.574938824645684,1.459028105452107,-0.4832662642002106,0.145212709903717,-0.1018644571304321,-0.08486145734786987,-0.1062914133071899,0.01674985885620117,1,0.6291186809539795,-0.3231728672981262,-0.2508721053600311,0.6609327793121338,-0.1115344241261482,-0.9937604069709778,0.0004620337567757815,0,0,0,-1,157092.418364,3,2,1561827155.11842,1561827055.717469,12,1.562096,0,0,11.78992,0,0,1561827143.457785,157094.430913,0,0.9487305,75.36733,0,182478453,1,1,0.19,-16.03321,-30.0325,3
1561827159.592268,74,0,0,1561827158.99871,4.634660622109319,-74.15110127075961,2552.775,-1,-1,4,30,-9999,1561827159.589791,-10.05998992919922,-13.48047256469727,24.48590087890625,154.8327789306641,162.3259735107422,15,157096.919772625,-0.156097412109375,-1.055465698242188,0.0014495849609375,157096.910647625,-0.1978715374123424,0.2375337292107834,-0.1480070417939167,157096.905825625,-88.62222290039062,-41.86172485351562,-538.7530517578125,157096.910647625,0.6751350291483239,-1.5092543747879,1.461460015139578,-0.2002683877944946,0.2314868867397308,-0.1510104238986969,-0.06729647517204285,-0.08127337694168091,0.004803776741027832,1,0.6277367472648621,-0.3202983140945435,-0.2517068982124329,0.6633243560791016,-0.108912006020546,-0.9940287470817566,-0.006711132358759642,0,0,0,-1,157092.418364,3,2,1561827155.11842,1561827055.717469,12,1.562096,0,0,11.78992,0,0,1561827143.457785,157094.430913,0,0.9487305,75.36733,0,182478453,1,1,0.19,-16.03321,-31.03387,3
1561827159.611795,75,0,0,1561827158.99871,4.634660622109319,-74.15110127075961,2552.775,-1,-1,4,30,-9999,1561827159.589791,-10.05998992919922,-13.48047256469727,24.48590087890625,154.8327789306641,162.3259735107422,15,157096.940036625,-0.0949249267578125,-1.011962890625,0.0160064697265625,157096.930911625,0.05226267218004199,0.2350255640961468,-0.06540004583740287,157096.925937625,-88.75299072265625,-42.25578308105469,-539.0836791992188,157096.930911625,0.6593418068961866,-1.488598373764253,1.463882217909953,0.04986581951379776,0.2289787083864212,-0.06840343028306961,-0.01837402582168579,-0.03737181425094604,0.01556706428527832,1,0.6282579898834229,-0.3176650702953339,-0.2512364089488983,0.6642749309539795,-0.1063513234257698,-0.9942901134490967,-0.008761602453887463,0,0,0,-1,157092.418364,3,2,1561827155.11842,1561827055.717469,12,1.562096,0,0,11.78992,0,0,1561827143.457785,157094.430913,0,0.9487305,75.36733,0,182478453,1,1,0.19,-16.03321,-31.98437,3
1561827159.631953,76,0,0,1561827158.99871,4.634660622109319,-74.15110127075961,2552.775,-1,-1,4,30,-9999,1561827159.616289,-9.984420776367188,-13.82485198974609,24.4007568359375,154.5111541748047,162.0043487548828,15,157096.960299625,-0.08734130859375,-0.9852142333984375,0.0404052734375,157096.951175625,0.2598741886471311,0.1189367742829388,0.04011439655153654,157096.946078625,-88.91497802734375,-42.11463928222656,-539.0284423828125,157096.951175625,0.6890776618013695,-1.514735386953617,1.464200382018,0.257477343082428,0.1128899157047272,0.03711100667715073,0.02211913466453552,-0.001800179481506348,0.03081792593002319,1,0.6297601461410522,-0.3168934881687164,-0.2496866583824158,0.6638050079345703,-0.1062255576252937,-0.9943240284919739,-0.005961351096630096,0,0,0,-1,157092.418364,3,2,1561827155.11842,1561827055.717469,12,1.562096,0,0,11.78992,0,0,1561827143.457785,157094.430913,0,0.9487305,75.36733,0,182478453,1,1,0.19,-16.03321,-32.62549,3
1561827159.667761,77,0,0,1561827158.99871,4.634660622109319,-74.15110127075961,2552.775,-1,-1,4,30,-9999,1561827159.64274,-10.25666046142578,-13.76354598999023,24.535888671875,154.3332366943359,161.8264312744141,15,157096.980563625,-0.102203369140625,-0.97894287109375,0.067535400390625,157096.971438625,0.3649854284470326,0.05071271242561588,0.09741177477237334,157096.966189625,-88.70962524414062,-41.87901306152344,-539.0454711914062,157096.971438625,0.7505177335411476,-1.574359856833462,1.462938677011955,0.3625885844230652,0.0446658581495285,0.09440838545560837,0.0122506320476532,0.01590228080749512,0.05291533470153809,1,0.6318820714950562,-0.3176741302013397,-0.2477118968963623,0.6621533632278442,-0.1076485738158226,-0.9941890239715576,0.0003836105461232364,0,0,0,-1,157092.418364,3,2,1561827155.11842,1561827055.717469,12,1.562096,0,0,11.78992,0,0,1561827143.457785,157094.430913,0,0.9487305,75.36733,0,182478453,1,1,0.19,-16.03321,-33.41756,3
1561827159.672491,78,0,0,1561827158.99871,4.634660622109319,-74.15110127075961,2552.775,-1,-1,4,30,-9999,1561827159.667619,-10.27353668212891,-13.41897583007812,24.322509765625,154.2552490234375,161.7484436035156,15,157097.000827625,-0.1358489990234375,-0.9981231689453125,0.0768585205078125,157096.991702625,0.2624633138589062,0.006211024294282799,0.09508656882462516,157096.986300625,-88.90361022949219,-41.62030029296875,-538.7352294921875,157096.991702625,0.8108470119298875,-1.633937877359982,1.460722954560247,0.2600664496421814,0.0001641721464693546,0.09208317846059799,-0.01008781790733337,0.01111418008804321,0.06786692142486572,1,0.6338052749633789,-0.3189932107925415,-0.2458726316690445,0.6603642106056213,-0.1096326559782028,-0.9939480423927307,0.006931590382009745,0,0,0,-1,157092.418364,3,2,1561827155.11842,1561827055.717469,12,1.562096,0,0,11.78992,0,0,1561827143.457785,157094.430913,0,0.9487305,75.36733,0,182478453,1,1,0.19,-16.03321,-33.41756,3
1561827159.69314,79,0,0,1561827158.99871,4.634660622109319,-74.15110127075961,2552.775,-1,-1,4,30,-9999,1561827159.667619,-10.27353668212891,-13.41897583007812,24.322509765625,154.2552490234375,161.7484436035156,15,157097.021090625,-0.1407470703125,-1.022567749023438,0.055572509765625,157097.011966625,0.04461247563268037,0.01673264112896785,0.03816949000745167,157097.006411625,-88.97663879394531,-41.50814819335938,-538.7840576171875,157097.011966625,0.8374275869833404,-1.660292609361298,1.459240266164631,0.04221562296152115,0.01068578846752644,0.03516609966754913,-0.02908989787101746,-0.02235972881317139,0.06101882457733154,1,0.6346172094345093,-0.3197435140609741,-0.244953066110611,0.6595627665519714,-0.110878974199295,-0.9937840700149536,0.009949835017323494,0,0,0,-1,157092.418364,3,2,1561827155.11842,1561827055.717469,12,1.562096,0,0,11.78992,0,0,1561827143.457785,157094.430913,0,0.9487305,75.36733,0,182478453,1,1,0.19,-16.03321,-34.29149,3
1561827159.713068,80,0,0,1561827158.99871,4.634660622109319,-74.15110127075961,2552.775,-1,-1,4,30,-9999,1561827159.693211,-10.33737182617188,-13.13613128662109,24.50396728515625,154.2273406982422,161.7205352783203,15,157097.041354625,-0.1200408935546875,-1.0184326171875,0.0061187744140625,157097.032229625,-0.07076551648558552,0.02522945658686566,0.0483608748669669,157097.026553625,-88.93878173828125,-41.64080810546875,-538.90869140625,157097.032229625,0.8315681727348574,-1.654102370840052,1.458706278242474,-0.07316236943006516,0.01918260380625725,0.04535748809576035,-0.01907077431678772,-0.0283549427986145,0.02514684200286865,1,0.634368360042572,-0.3197351098060608,-0.2447388172149658,0.6598857641220093,-0.1114681735634804,-0.9937244653701782,0.009307513013482094,0,0,0,-1,157092.418364,3,2,1561827155.11842,1561827055.717469,12,1.562096,0,0,11.78992,0,0,1561827143.457785,157094.430913,0,0.9487305,75.36733,0,182478453,1,1,0.19,-16.03321,-35.00134,3
1561827159.749254,81,0,0,1561827158.99871,4.634660622109319,-74.15110127075961,2552.775,-1,-1,4,30,-9999,1561827159.745149,-10.13690948486328,-13.1135368347168,24.52838134765625,154.0491790771484,161.5423736572266,15,157097.061618625,-0.130401611328125,-0.9933319091796875,-0.02734375,157097.052493625,-0.03599288844852992,0.07405771622514147,0.09711110388530339,157097.046664625,-88.96011352539062,-41.39865112304688,-539.0580444335938,157097.052493625,0.8195996364209162,-1.641550839925478,1.457403380162178,-0.03838973864912987,0.06801085919141769,0.09410771727561951,-0.006335854530334473,-0.01333433389663696,-0.02405142784118652,1,0.6338147521018982,-0.3198099732398987,-0.2442661970853806,0.6605560779571533,-0.1128658056259155,-0.9935778975486755,0.007999117486178875,0,0,0,-1,157092.418364,3,2,1561827155.11842,1561827055.717469,12,1.562096,0,0,11.78992,0,0,1561827143.457785,157094.430913,0,0.9487305,75.36733,0,182478453,1,1,0.19,-16.03321,-36.12214,3
1561827159.753574,82,0,0,1561827158.99871,4.634660622109319,-74.15110127075961,2552.775,-1,-1,4,30,-9999,1561827159.745149,-10.13690948486328,-13.1135368347168,24.52838134765625,154.0491790771484,161.5423736572266,15,157097.081881625,-0.1624908447265625,-0.973388671875,-0.0216064453125,157097.072757625,0.009496566131113555,0.2195936108435737,0.04742477374380405,157097.066775625,-89.19447326660156,-41.6575927734375,-538.9144287109375,157097.072757625,0.8176021411970916,-1.636748491562397,1.455797376564753,0.007099715527147055,0.2135467678308487,0.04442138969898224,-0.03215581178665161,0.01303291320800781,-0.03530275821685791,1,0.6338604688644409,-0.3193775713443756,-0.2428567558526993,0.6612408757209778,-0.1144964173436165,-0.9933949112892151,0.007562254089862108,0,0,0,-1,157092.418364,3,2,1561827155.11842,1561827055.717469,12,1.562096,0,0,11.78992,0,0,1561827143.457785,157094.430913,0,0.9487305,75.36733,0,182478453,1,1,0.19,-16.03321,-36.12214,3
1561827159.773834,83,0,0,1561827158.99871,4.634660622109319,-74.15110127075961,2552.775,-1,-1,4,30,-9999,1561827159.768117,-10.46932220458984,-13.35416412353516,24.5167236328125,153.7191162109375,161.2123107910156,15,157097.102145625,-0.1546783447265625,-0.9916534423828125,-0.006805419921875,157097.093020625,0.05138010059478974,0.2262720199091654,-0.03463627418924355,157097.086886625,-89.16806030273438,-41.47471618652344,-538.7318725585938,157097.093020625,0.823173581545168,-1.637687053798232,1.455798922030999,0.04898324981331825,0.2202251702547073,-0.03763966262340546,-0.04675242304801941,0.01350617408752441,-0.02085316181182861,1,0.634634792804718,-0.3179205358028412,-0.2413123697042465,0.661765456199646,-0.1144872084259987,-0.9933950901031494,0.007669574581086636,0,0,0,-1,157092.418364,3,2,1561827155.11842,1561827055.717469,12,1.562096,0,0,11.78992,0,0,1561827143.457785,157094.430913,0,0.9487305,75.36733,0,182478453,1,1,0.19,-16.03321,-36.57313,3
1561827159.794078,84,0,0,1561827158.99871,4.634660622109319,-74.15110127075961,2552.775,-1,-1,4,30,-9999,1561827159.768117,-10.46932220458984,-13.35416412353516,24.5167236328125,153.7191162109375,161.2123107910156,15,157097.122409625,-0.1504669189453125,-1.012069702148438,-0.015411376953125,157097.113284625,0.1279070997826527,0.2267378067838202,-0.01915478614039492,157097.107028625,-89.1112060546875,-41.50859069824219,-539.0699462890625,157097.113284625,0.8394539896142387,-1.649508764332771,1.456347274572056,0.1255102455615997,0.2206909656524658,-0.0221581719815731,-0.03408750891685486,-0.0097312331199646,-0.0182722806930542,1,0.6358682513237,-0.3164828717708588,-0.2398671358823776,0.6617960333824158,-0.1138464286923409,-0.9934578537940979,0.008979681879281998,0,0,0,-1,157092.418364,3,2,1561827155.11842,1561827055.717469,12,1.562096,0,0,11.78992,0,0,1561827143.457785,157094.430913,0,0.9487305,75.36733,0,182478453,1,1,0.19,-16.03321,-37.16182,3
1561827159.828958,85,0,0,1561827158.99871,4.634660622109319,-74.15110127075961,2552.775,-1,-1,4,30,-9999,1561827159.819033,-10.61219787597656,-13.14020919799805,24.37542724609375,152.8788146972656,160.3720092773438,15,157097.142642625,-0.1757965087890625,-1.014862060546875,-0.0333251953125,157097.133517625,0.0830054048555897,0.3377732484286029,0.02013749258263416,157097.127139625,-89.33712768554688,-41.58401489257812,-538.9031372070312,157097.133517625,0.8609785310920705,-1.665468277744829,1.456138442113895,0.0806085541844368,0.3317263722419739,0.01713410578668118,-0.04694896936416626,-0.01939868927001953,-0.03615975379943848,1,0.637333869934082,-0.3149809241294861,-0.2377530336380005,0.6618655323982239,-0.113893911242485,-0.9934340119361877,0.01081488840281963,0,0,0,-1,157092.418364,3,2,1561827155.11842,1561827055.717469,12,1.562096,0,0,11.78992,0,0,1561827143.457785,157094.430913,0,0.9487305,75.36733,0,182478453,1,1,0.19,-16.03321,-34.02402,3
1561827159.834503,86,0,0,1561827158.99871,4.634660622109319,-74.15110127075961,2552.775,-1,-1,4,30,-9999,1561827159.819033,-10.61219787597656,-13.14020919799805,24.37542724609375,152.8788146972656,160.3720092773438,15,157097.162906625,-0.200103759765625,-1.01849365234375,-0.0273895263671875,157097.153781625,-0.1542830472187975,0.5282718243630609,-0.002081793024114941,157097.147250625,-89.5189208984375,-41.6038818359375,-539.048583984375,157097.153781625,0.8541901194087297,-1.650137880808545,1.455927679995366,-0.1566798985004425,0.5222249627113342,-0.005085179582238197,-0.07673877477645874,-0.02638077735900879,-0.04334032535552979,1,0.6380547285079956,-0.3121350705623627,-0.235041618347168,0.6634857058525085,-0.1142554804682732,-0.9934098720550537,0.009084277786314487,0,0,0,-1,157092.418364,3,2,1561827155.11842,1561827055.717469,12,1.562096,0,0,11.78992,0,0,1561827143.457785,157094.430913,0,0.9487305,75.36733,0,182478453,1,1,0.19,-16.03321,-34.02402,3
1561827159.854881,87,0,0,1561827158.99871,4.634660622109319,-74.15110127075961,2552.775,-1,-1,4,30,-9999,1561827159.843423,-10.94734191894531,-13.24588775634766,24.229248046875,152.1015472412109,159.5947418212891,15,157097.183169625,-0.1814727783203125,-1.005767822265625,-0.00799560546875,157097.174044625,-0.296134724785214,0.6448109547166013,-0.03228097452117747,157097.167361625,-89.60655212402344,-41.51458740234375,-539.20166015625,157097.174044625,0.8094552626070474,-1.593592106391158,1.456578163248272,-0.29853156208992,0.6387641429901123,-0.03528436273336411,-0.07545283436775208,-0.02014189958572388,-0.02226638793945312,1,0.6378192901611328,-0.3073848485946655,-0.2321063727140427,0.666953980922699,-0.1139392554759979,-0.9934841990470886,0.002597784157842398,0,0,0,-1,157092.418364,3,2,1561827155.11842,1561827055.717469,12,1.562096,0,0,11.78992,0,0,1561827143.457785,157094.430913,0,0.9487305,75.36733,0,182478453,1,1,0.19,-16.03321,-34.63927,3
1561827159.875249,88,0,0,1561827158.99871,4.634660622109319,-74.15110127075961,2552.775,-1,-1,4,30,-9999,1561827159.870141,-11.38822937011719,-13.3178825378418,23.76422119140625,151.2926483154297,158.7858428955078,15,157097.203433625,-0.189300537109375,-0.99163818359375,0.002288818359375,157097.194308625,-0.1084812038432877,0.5157813325344802,-0.04623806916206474,157097.187503625,-89.8316650390625,-41.62899780273438,-539.4317626953125,157097.194308625,0.768187679146327,-1.540575877584484,1.457312206521424,-0.1108780577778816,0.5097345113754272,-0.04924145340919495,-0.07086324691772461,-0.002846598625183105,0.004337131977081299,1,0.6377534866333008,-0.3025882840156555,-0.2292400896549225,0.6701937913894653,-0.1131882444024086,-0.9935675859451294,-0.003421641420572996,0,0,0,-1,157092.418364,3,2,1561827155.11842,1561827055.717469,12,1.562096,0,0,11.78992,0,0,1561827143.457785,157094.430913,0,0.9487305,75.36733,0,182478453,1,1,0.19,-16.03321,-34.04915,3
1561827159.908006,89,0,0,1561827158.99871,4.634660622109319,-74.15110127075961,2552.775,-1,-1,4,30,-9999,1561827159.893995,-11.69615936279297,-13.19974899291992,23.8026123046875,150.6628570556641,158.1560516357422,15,157097.223697625,-0.2344818115234375,-1.010406494140625,-0.018951416015625,157097.214572625,0.1772826390249398,0.4039634541614323,-0.02190077154037562,157097.207614625,-90.12582397460938,-41.49519348144531,-539.4957275390625,157097.214572625,0.7757886661509841,-1.539287272995286,1.45810586954636,0.1748857796192169,0.3979165852069855,-0.02490415796637535,-0.08863800764083862,-0.002467095851898193,-0.002606630325317383,1,0.6391718983650208,-0.2994794547557831,-0.2265417575836182,0.6711558699607849,-0.1123965382575989,-0.9936571717262268,-0.00354268099181354,0,0,0,-1,157092.418364,3,2,1561827155.11842,1561827055.717469,12,1.562096,0,0,11.78992,0,0,1561827143.457785,157094.430913,0,0.9487305,75.36733,0,182478453,1,1,0.19,-16.03321,-35.26913,3
1561827159.91564,90,0,0,1561827158.99871,4.634660622109319,-74.15110127075961,2552.775,-1,-1,4,30,-9999,1561827159.893995,-11.69615936279297,-13.19974899291992,23.8026123046875,150.6628570556641,158.1560516357422,15,157097.243960625,-0.3266448974609375,-1.026763916015625,-0.0312652587890625,157097.234835625,0.1300842339737925,0.6820989384032368,-0.05073987666873469,157097.227725625,-90.58749389648438,-41.90228271484375,-539.3985595703125,157097.234835625,0.808112412827329,-1.561274875162546,1.45855204996604,0.1276873797178268,0.6760520935058594,-0.05374326556921005,-0.1740378737449646,-0.02876895666122437,-0.02479714155197144,1,0.6415861248970032,-0.2963680326938629,-0.2228809297084808,0.6714590787887573,-0.1120033860206604,-0.9937072396278381,-0.001066467026248574,0,0,0,-1,157092.418364,3,2,1561827155.11842,1561827055.717469,12,1.562096,0,0,11.78992,0,0,1561827143.457785,157094.430913,0,0.9487305,75.36733,0,182478453,1,1,0.19,-16.03321,-35.26913,3
1561827159.935898,91,0,0,1561827158.99871,4.634660622109319,-74.15110127075961,2552.775,-1,-1,4,30,-9999,1561827159.92032,-11.97045135498047,-13.25418090820312,23.7259521484375,149.63037109375,157.1235656738281,15,157097.264224625,-0.33416748046875,-1.03607177734375,-0.01580810546875,157097.255099625,-0.07582818571782615,1.133667195998163,-0.2018758664273855,157097.247866625,-90.85350036621094,-41.53997802734375,-539.8636474609375,157097.255099625,0.8086284618807754,-1.543098460353216,1.461019964050442,-0.0782250389456749,1.127620339393616,-0.2048792541027069,-0.2242252826690674,-0.03948193788528442,-0.02766656875610352,1,0.6440402865409851,-0.2893009781837463,-0.2176880091428757,0.673891007900238,-0.1095149591565132,-0.9939806461334229,-0.003034106688573956,0,0,0,-1,157092.418364,3,2,1561827155.11842,1561827055.717469,12,1.562096,0,0,11.78992,0,0,1561827143.457785,157094.430913,0,0.9487305,75.36733,0,182478453,1,1,0.19,-16.03321,-35.98952,3
1561827159.956289,92,0,0,1561827158.99871,4.634660622109319,-74.15110127075961,2552.775,-1,-1,4,30,-9999,1561827159.944422,-12.30033111572266,-13.27109146118164,23.41510009765625,148.0010833740234,155.4942779541016,15,157097.284488625,-0.3767852783203125,-1.023513793945312,0.0269927978515625,157097.275363625,0.1234907797469743,1.115311358184791,-0.3238917875626739,157097.267978625,-91.59292602539062,-41.41738891601562,-539.9527587890625,157097.275363625,0.8037375014264377,-1.514837886965433,1.466344275429614,0.1210939288139343,1.109264492988586,-0.3268951773643494,-0.250743955373764,-0.03482335805892944,0.01707708835601807,1,0.6472122669219971,-0.2796437442302704,-0.2119815051555634,0.6767418384552002,-0.1040991842746735,-0.9945498704910278,-0.005831315647810698,0,0,0,-1,157092.418364,3,2,1561827155.11842,1561827055.717469,12,1.562096,0,0,11.78992,0,0,1561827143.457785,157094.430913,0,0.9487305,75.36733,0,182478453,1,1,0.19,-16.03321,-33.7725,3
1561827159.984213,93,0,0,1561827158.99871,4.634660622109319,-74.15110127075961,2552.775,-1,-1,4,30,-9999,1561827159.970923,-13.0523681640625,-12.91397094726562,23.2928466796875,146.4874877929688,153.9806823730469,15,157097.304751625,-0.462982177734375,-0.9781036376953125,0.000244140625,157097.295626625,0.4040731763983436,0.9664257395472575,-0.3551066986994926,157097.288089625,-91.67597961425781,-41.48794555664062,-540.0089721679688,157097.295626625,0.858077214053676,-1.54833189561532,1.473713784155233,0.4016763269901276,0.960378885269165,-0.3581100702285767,-0.3155850470066071,-0.01036983728408813,0.02180010080337524,1,0.6522964835166931,-0.2709624469280243,-0.2069257646799088,0.6769567131996155,-0.09690579771995544,-0.9952911734580994,-0.002177299931645393,0,0,0,-1,157092.418364,3,2,1561827155.11842,1561827055.717469,12,1.562096,0,0,11.78992,0,0,1561827143.457785,157094.430913,0,0.9487305,75.36733,0,182478453,1,1,0.19,-16.03321,-33.85818,3
1561827159.996705,94,0,0,1561827158.99871,4.634660622109319,-74.15110127075961,2552.775,-1,-1,4,30,-9999,1561827159.970923,-13.0523681640625,-12.91397094726562,23.2928466796875,146.4874877929688,153.9806823730469,15,157097.325015625,-0.567230224609375,-0.9426422119140625,-0.065948486328125,157097.315890625,0.1718061145593008,1.179450663562151,-0.1949891981645496,157097.308230625,-92.1597900390625,-41.41412353515625,-540.412353515625,157097.315890625,0.9304158643014393,-1.599390637597714,1.479540320557203,0.1694092601537704,1.173403739929199,-0.1979925781488419,-0.434101015329361,0.03853315114974976,-0.03400802612304688,1,0.6575102210044861,-0.2626461684703827,-0.2011358588933945,0.6769354343414307,-0.09109123051166534,-0.9958390593528748,0.00260540097951889,0,0,0,-1,157092.418364,3,2,1561827155.11842,1561827055.717469,12,1.562096,0,0,11.78992,0,0,1561827143.457785,157094.430913,0,0.9487305,75.36733,0,182478453,1,1,0.19,-16.03321,-33.85818,3
1561827160.016946,95,0,0,1561827158.99871,4.634660622109319,-74.15110127075961,2552.775,-1,-1,4,30,-9999,1561827159.995694,-13.48859405517578,-12.8891487121582,22.85418701171875,144.843505859375,152.3367004394531,15,157097.345279625,-0.682891845703125,-0.841644287109375,-0.1128387451171875,157097.336154625,-0.5812226573687794,1.750467288685419,0.04547933456750117,157097.328341625,-92.76348876953125,-41.41189575195312,-540.701416015625,157097.336154625,0.8912038820728223,-1.531380949952007,1.480995875930664,-0.5836194753646851,1.744420409202576,0.04247594624757767,-0.5093111991882324,0.07954299449920654,-0.08695071935653687,1,0.6593485474586487,-0.251977264881134,-0.1925572156906128,0.6816808581352234,-0.08961151540279388,-0.9959706664085388,-0.003533901879563928,0,0,0,-1,157092.418364,3,2,1561827155.11842,1561827055.717469,12,1.562096,0,0,11.78992,0,0,1561827143.457785,157094.430913,0,0.9487305,75.36733,0,182478453,1,1,0.19,-16.03321,-34.17846,3
1561827160.037142,96,0,0,1561827158.99871,4.634660622109319,-74.15110127075961,2552.775,-1,-1,4,30,-9999,1561827160.021205,-14.27027130126953,-13.19257354736328,22.538818359375,142.3131256103516,149.8063201904297,15,157097.365512625,-0.787567138671875,-0.7071075439453125,-0.1429901123046875,157097.356417625,-1.294717335546851,2.764918078486185,0.1118743373881576,157097.348452625,-93.63125610351562,-41.65078735351562,-541.4830932617188,157097.356417625,0.6783926518850266,-1.274237848174087,1.475830197381301,-1.297114133834839,2.75887131690979,0.1088709458708763,-0.6662429571151733,0.2469131946563721,-0.1008906364440918,1,0.6563977003097534,-0.235131561756134,-0.1795215904712677,0.6939936876296997,-0.09068451821804047,-0.9954941272735596,-0.02771041542291641,0,0,0,-1,157092.418364,3,2,1561827155.11842,1561827055.717469,12,1.562096,0,0,11.78992,0,0,1561827143.457785,157094.430913,0,0.9487305,75.36733,0,182478453,1,1,0.19,-16.03321,-34.98061,3
1561827160.059227,97,0,0,1561827159.998698,4.634663094770755,-74.15110294714025,2552.774,-1,-1,4,30,-9999,1561827160.021205,-14.27027130126953,-13.19257354736328,22.538818359375,142.3131256103516,149.8063201904297,15,157097.385775625,-0.899169921875,-0.5847015380859375,-0.1529388427734375,157097.376651625,-0.8803148225445264,3.236924499550815,0.1490374188196684,157097.368594625,-94.98057556152344,-41.71064758300781,-542.47607421875,157097.376651625,0.4712452775477922,-1.005976642238034,1.46369142915266,-0.88271164894104,3.230877637863159,0.1460340321063995,-0.6972708702087402,0.287162184715271,-0.08577078580856323,1,0.6530200839042664,-0.2120262086391449,-0.1610618084669113,0.7089912891387939,-0.09029627591371536,-0.9942697286605835,-0.05721931532025337,0,0,0,-1,157092.418364,3,2,1561827155.11842,1561827055.717469,12,1.562096,0,0,11.78992,0,0,1561827143.457785,157094.430913,0,0.9487305,75.36733,0,182478453,1,1,0.19,-16.03321,-35.47389,3
1561827160.077745,98,0,0,1561827159.998698,4.634663094770755,-74.15110294714025,2552.774,-1,-1,4,30,-9999,1561827160.054724,-15.37065887451172,-13.43754577636719,21.5791015625,138.2477569580078,145.7409515380859,15,157097.406039625,-0.9404754638671875,-0.4579010009765625,-0.1688995361328125,157097.396914625,0.0875799166600188,3.066505092971118,0.3867261440058944,157097.388705625,-96.2037353515625,-42.3206787109375,-543.6597900390625,157097.396914625,0.4406438834555229,-0.9112375914252101,1.455119534572588,0.08517768979072571,3.060451030731201,0.3837237954139709,-0.8500272631645203,0.4903872013092041,-0.0829463005065918,1,0.6545853614807129,-0.1901460736989975,-0.1390006393194199,0.7183601260185242,-0.09121114760637283,-0.9933168888092041,-0.07072494924068451,0,0,0,-1,157092.418364,3,2,1561827155.11842,1561827055.717469,12,1.562096,0,0,11.78992,0,0,1561827143.457785,157094.430913,0,0.9487305,75.36733,0,182478453,1,1,0.19,-16.03321,-27.22595,3
1561827160.097953,99,0,0,1561827159.998698,4.634663094770755,-74.15110294714025,2552.774,-1,-1,4,30,-9999,1561827160.096349,-19.12311553955078,-13.42446517944336,18.2449951171875,129.4166870117188,136.9098815917969,15,157097.426303625,-0.8220367431640625,-0.4063262939453125,-0.2112274169921875,157097.417178625,0.1723744331359237,2.911099523352852,0.6752687291555106,157097.408816625,-97.70196533203125,-41.921875,-544.9234619140625,157097.417178625,0.5260664960286241,-0.9361611416744963,1.449449335756919,0.1699722111225128,2.905045509338379,0.6722663640975952,-0.8023310899734497,0.5561840534210205,-0.1125426292419434,1,0.6591014862060547,-0.1723400503396988,-0.1150830388069153,0.7229384779930115,-0.09747970104217529,-0.9926464557647705,-0.07176827639341354,0,0,0,-1,157092.418364,3,2,1561827155.11842,1561827055.717469,12,1.562096,0,0,11.78992,0,0,1561827143.457785,157094.430913,0,0.9487305,75.36733,0,182478453,1,1,0.19,-16.03321,-28.07976,3
1561827160.118471,100,0,0,1561827159.998698,4.634663094770755,-74.15110294714025,2552.774,-1,-1,4,30,-9999,1561827160.096349,-19.12311553955078,-13.42446517944336,18.2449951171875,129.4166870117188,136.9098815917969,15,157097.446566625,-0.540496826171875,-0.3741455078125,-0.224822998046875,157097.437442625,-0.4760642796175836,3.323084951349821,0.9400535205366388,157097.428927625,-98.99934387207031,-41.90194702148438,-545.9268798828125,157097.437442625,0.5803459384352576,-0.9273355686254241,1.434194861797826,-0.4784664809703827,3.317030906677246,0.9370511770248413,-0.5700864195823669,0.5923995971679688,-0.1394132971763611,1,0.659683883190155,-0.1548103839159012,-0.08875007182359695,0.7300509214401245,-0.108944945037365,-0.9906845092773438,-0.08170183748006821,0,0,0,-1,157092.418364,3,2,1561827155.11842,1561827055.717469,12,1.562096,0,0,11.78992,0,0,1561827143.457785,157094.430913,0,0.9487305,75.36733,0,182478453,1,1,0.19,-16.59049,-29.0528,3
1561827160.147083,101,0,0,1561827159.998698,4.634663094770755,-74.15110294714025,2552.774,-1,-1,4,30,-9999,1561827160.122876,-20.69541931152344,-13.19754028320312,17.01458740234375,124.6892547607422,132.1824493408203,15,157097.466830625,-0.39892578125,-0.2919769287109375,-0.20074462890625,157097.457705625,-0.2775096413856359,3.62001303182377,1.546687528394736,157097.449069625,-100.3697967529297,-41.47930908203125,-547.291259765625,157097.457705625,0.6325423953855693,-0.9085078952340684,1.409685822530256,-0.2799118459224701,3.613959074020386,1.5436851978302,-0.3332007527351379,0.6513411402702332,-0.1192682385444641,1,0.6572868227958679,-0.1365750879049301,-0.05731257423758507,0.7389428615570068,-0.1265007704496384,-0.9870497584342957,-0.09864255785942078,0,0,0,-1,157092.418364,3,2,1561827155.11842,1561827055.717469,12,1.562096,0,0,11.78992,0,0,1561827143.457785,157094.430913,0,0.9487305,75.36733,0,182478453,1,1,0.19,-17.14777,-29.5475,3
1561827160.158933,102,0,0,1561827159.998698,4.634663094770755,-74.15110294714025,2552.774,-1,-1,4,30,-9999,1561827160.151495,-22.27566528320312,-12.76401138305664,15.553955078125,119.4851455688477,126.9783401489258,15,157097.487094625,-0.3035430908203125,-0.300445556640625,-0.096832275390625,157097.477969625,0.1365493238360688,3.565836878400506,2.347024427610875,157097.469180625,-101.8153076171875,-40.56814575195312,-548.947509765625,157097.477969625,0.7595883630723056,-0.9599604707951094,1.376970546606799,0.1341471076011658,3.559782981872559,2.344022035598755,-0.2029343098402023,0.716824471950531,-0.04759150743484497,1,0.6556079387664795,-0.1222337782382965,-0.01855010353028774,0.7449113726615906,-0.1577834784984589,-0.9812745451927185,-0.1104742661118507,0,0,0,-1,157092.418364,3,2,1561827155.11842,1561827055.717469,12,1.562096,0,0,11.78992,0,0,1561827143.457785,157094.430913,0,0.9487305,75.36733,0,182478453,1,1,0.19,-17.14777,-29.5475,3
1561827160.179025,103,0,0,1561827159.998698,4.634663094770755,-74.15110294714025,2552.774,-1,-1,4,30,-9999,1561827160.173303,-25.06970977783203,-10.61819458007812,12.68450927734375,114.8796997070312,122.3728942871094,15,157097.507357625,-0.1867828369140625,-0.4140472412109375,-0.0460968017578125,157097.498233625,0.3640440010016895,2.744870068116177,2.743205326118769,157097.489291625,-103.2669677734375,-39.32316589355469,-550.2400512695312,157097.498233625,0.9165316660974649,-1.048954126885369,1.33547472309789,0.3616417944431305,2.738816022872925,2.740202903747559,-0.02588905394077301,0.6175962686538696,0.04572725296020508,1,0.6546317338943481,-0.1155242621898651,0.02260276675224304,0.7467265129089355,-0.2021230310201645,-0.9724394083023071,-0.1162228733301163,0,0,0,-1,157092.418364,3,2,1561827155.11842,1561827055.717469,12,1.562096,0,0,11.78992,0,0,1561827143.457785,157094.430913,0,0.9487305,75.36733,0,182478453,1,1,0.19,-17.70505,-29.92633,3
1561827160.199356,104,0,0,1561827159.998698,4.634663094770755,-74.15110294714025,2552.774,-1,-1,4,30,-9999,1561827160.198164,-26.03533172607422,-9.301338195800781,11.3873291015625,111.3439025878906,118.8370971679688,15,157097.527621625,-0.0736846923828125,-0.572509765625,-0.0103302001953125,157097.518496625,0.3658195305004454,2.326858971836795,2.5275942063693,157097.509402625,-104.5253143310547,-38.15939331054688,-551.73095703125,157097.518496625,1.03991058130068,-1.117687923235517,1.291572016989352,0.3634172976016998,2.320805072784424,2.524591684341431,0.1217453479766846,0.4488794207572937,0.1100772619247437,1,0.6532142758369446,-0.1139531061053276,0.05950505658984184,0.7461801767349243,-0.2477982044219971,-0.9612694978713989,-0.1206515952944756,0,0,0,-1,157092.418364,3,2,1561827155.11842,1561827055.717469,12,1.562096,0,0,11.78992,0,0,1561827143.457785,157094.430913,0,0.9487305,75.36733,0,182478453,1,1,0.19,-18.26233,-29.96066,3
1561827160.226632,105,0,0,1561827159.998698,4.634663094770755,-74.15110294714025,2552.774,-1,-1,4,30,-9999,1561827160.198164,-26.03533172607422,-9.301338195800781,11.3873291015625,111.3439025878906,118.8370971679688,15,157097.547885625,0.0430145263671875,-0.61529541015625,0.0494537353515625,157097.538760625,0.7245992609753753,1.890106145702089,2.511938281269051,157097.529544625,-105.5333557128906,-36.8466796875,-552.7930908203125,157097.538760625,1.142815837301376,-1.172409339179924,1.249805014497575,0.7221969962120056,1.884052276611328,2.508935928344727,0.2171145677566528,0.3764133453369141,0.1120651960372925,1,0.6525698304176331,-0.1138196215033531,0.09316354244947433,0.7433156967163086,-0.2907992601394653,-0.9489231109619141,-0.1223954185843468,0,0,0,-1,157092.418364,3,2,1561827155.11842,1561827055.717469,12,1.562096,0,0,11.78992,0,0,1561827143.457785,157094.430913,0,0.9487305,75.36733,0,182478453,1,1,0.19,-18.54527,-23.1335,3
1561827160.239762,106,0,0,1561827159.998698,4.634663094770755,-74.15110294714025,2552.774,-1,-1,4,30,-9999,1561827160.226647,-27.0089111328125,-7.843109130859375,10.37725830078125,108.5032272338867,115.9964218139648,15,157097.568148625,0.0350189208984375,-0.734649658203125,0.1584014892578125,157097.559024625,0.8866811091303608,0.8272540009857876,2.72670384737242,157097.549655625,-106.2358703613281,-35.43978881835938,-553.4381103515625,157097.559024625,1.245985162064396,-1.241524090152001,1.206546481356093,0.8842788338661194,0.8212001919746399,2.723701477050781,0.3921485543251038,0.2571604251861572,0.20662522315979,1,0.6542683243751526,-0.1197317242622375,0.1228340044617653,0.7365521788597107,-0.3371101319789886,-0.9343912601470947,-0.1151945441961288,0,0,0,-1,157092.418364,3,2,1561827155.11842,1561827055.717469,12,1.562096,0,0,11.78992,0,0,1561827143.457785,157094.430913,0,0.9487305,75.36733,0,182478453,1,1,0.19,-18.54527,-23.54133,3
1561827160.260362,107,0,0,1561827159.998698,4.634663094770755,-74.15110294714025,2552.774,-1,-1,4,30,-9999,1561827160.248385,-27.72600555419922,-6.613918304443359,9.843994140625,107.4404525756836,114.9336471557617,15,157097.588404125,-0.1114959716796875,-0.9072723388671875,0.1982879638671875,157097.579287625,0.6695597107267077,-0.4008499525310207,3.016295185359309,157097.569766625,-106.6727752685547,-33.43463134765625,-553.669921875,157097.579287625,1.330706890980242,-1.316168861746163,1.155352249688251,0.6671574711799622,-0.4069037735462189,3.013292789459229,0.3658335208892822,0.1118518710136414,0.2919369339942932,1,0.6561830043792725,-0.1363596320152283,0.146418496966362,0.7275930047035217,-0.3905832767486572,-0.9149371981620789,-0.1016598343849182,0,0,0,-1,157092.418364,3,2,1561827155.11842,1561827055.717469,12,1.562096,0,0,11.78992,0,0,1561827143.457785,157094.430913,0,0.9487305,75.36733,0,182478453,1,1,0.19,-18.54527,-24.5085,3
1561827160.282434,108,0,0,1561827159.998698,4.634663094770755,-74.15110294714025,2552.774,-1,-1,4,30,-9999,1561827160.275026,-28.01530456542969,-2.853340148925781,9.97998046875,107.9716873168945,115.4648818969727,15,157097.608667125,-0.2841339111328125,-1.081878662109375,0.1986083984375,157097.599543125,0.2775101740178539,-0.6144727562106367,2.857107926993131,157097.589929125,-106.6350555419922,-31.97697448730469,-553.49365234375,157097.599543125,1.385038330103757,-1.378684077645635,1.098949446703382,0.2751079499721527,-0.6205265522003174,2.854105472564697,0.2290378212928772,-0.1167006492614746,0.2840507030487061,1,0.6564739346504211,-0.1601543724536896,0.1645230352878571,0.7185574769973755,-0.4461704194545746,-0.8907303214073181,-0.08678510040044785,0,0,0,-1,157092.418364,3,2,1561827155.11842,1561827055.717469,12,1.562096,0,0,11.78992,0,0,1561827143.457785,157094.430913,0,0.9487305,75.36733,0,182478453,1,1,0.19,-18.54527,-25.11152,3
1561827160.311797,109,0,0,1561827159.998698,4.634663094770755,-74.15110294714025,2552.774,-1,-1,4,30,-9999,1561827160.299008,-28.33694458007812,-1.407342910766602,9.9713134765625,107.7151565551758,115.2083511352539,15,157097.628931125,-0.2338409423828125,-1.072662353515625,0.2630462646484375,157097.619806125,-0.5822410501696257,0.78952366624209,2.705718936930922,157097.610041125,-107.1530914306641,-30.34858703613281,-553.5286254882812,157097.619806125,1.400857436523862,-1.392328339462466,1.043842629690035,-0.5846433043479919,0.7834698557853699,2.702716588973999,0.2196465134620667,-0.2509828805923462,0.3034792542457581,1,0.6507795453071594,-0.1784595400094986,0.1842823773622513,0.7146175503730774,-0.4949150383472443,-0.8643430471420288,-0.08927635103464127,0,0,0,-1,157092.418364,3,2,1561827155.11842,1561827055.717469,12,1.562096,0,0,11.78992,0,0,1561827143.457785,157094.430913,0,0.9487305,75.36733,0,182478453,1,1,0.19,-18.54527,-26.12705,3
1561827160.320855,110,0,0,1561827159.998698,4.634663094770755,-74.15110294714025,2552.774,-1,-1,4,30,-9999,1561827160.299008,-28.33694458007812,-1.407342910766602,9.9713134765625,107.7151565551758,115.2083511352539,15,157097.649195125,-0.1512298583984375,-0.8914794921875,0.4015350341796875,157097.640070125,-1.780977527397803,1.965473604551332,2.720541558926085,157097.630152125,-107.1429748535156,-28.89143371582031,-553.7230224609375,157097.640070125,1.378005412617825,-1.343510400518654,0.9849446491750825,-1.783379673957825,1.959419727325439,2.717539072036743,0.3534172773361206,-0.1533002853393555,0.4641278982162476,1,0.6343144178390503,-0.188017413020134,0.2113689035177231,0.7194567322731018,-0.5386894941329956,-0.8332414627075195,-0.1245893463492393,0,0,0,-1,157092.418364,3,2,1561827155.11842,1561827055.717469,12,1.562096,0,0,11.78992,0,0,1561827143.457785,157094.430913,0,0.9487305,75.36733,0,182478453,1,1,0.19,-18.54527,-26.12705,3
1561827160.341378,111,0,0,1561827159.998698,4.634663094770755,-74.15110294714025,2552.774,-1,-1,4,30,-9999,1561827160.325832,-28.42819213867188,-0.003282546997070312,9.3221435546875,106.8183517456055,114.3115463256836,15,157097.669458125,-0.1513671875,-0.607391357421875,0.463775634765625,157097.660334125,-2.799772199252597,2.093909608126474,2.591061596203632,157097.650263125,-107.5962829589844,-27.50434875488281,-554.702880859375,157097.660334125,1.323545790463177,-1.25649765713888,0.9202816312796853,-2.80217456817627,2.087855577468872,2.588059186935425,0.439012885093689,0.025432288646698,0.6325322389602661,1,0.6070427298545837,-0.1946515887975693,0.2395675778388977,0.7322685718536377,-0.5759299993515015,-0.7957721948623657,-0.1872197687625885,0,0,0,-1,157092.418364,3,2,1561827155.11842,1561827055.717469,12,1.562096,0,0,11.78992,0,0,1561827143.457785,157094.430913,0,0.9487305,75.36733,0,182478453,1,1,0.19,-18.54527,-26.94466,3
1561827160.362627,112,0,0,1561827159.998698,4.634663094770755,-74.15110294714025,2552.774,-1,-1,4,30,-9999,1561827160.349808,-28.92296600341797,1.11639404296875,8.07659912109375,107.2986373901367,114.7918319702148,15,157097.689722125,-0.3162384033203125,-0.440673828125,0.373291015625,157097.680597125,-3.081853689281572,0.7306547566619975,2.603575257533696,157097.670404125,-107.5060424804688,-26.46821594238281,-555.50146484375,157097.680597125,1.263464650998724,-1.179839154608429,0.8505608825175827,-3.084255933761597,0.7246009707450867,2.600572824478149,0.3919751644134521,0.2633844614028931,0.6817614436149597,1,0.5759305357933044,-0.2064782232046127,0.2618012428283691,0.7464120388031006,-0.6097943186759949,-0.7516504526138306,-0.2513415217399597,0,0,0,-1,157092.418364,3,2,1561827155.11842,1561827055.717469,12,1.562096,0,0,11.78992,0,0,1561827143.457785,157094.430913,0,0.9487305,75.36733,0,182478453,1,1,0.19,-18.54527,-27.93053,3
1561827160.388043,113,0,0,1561827159.998698,4.634663094770755,-74.15110294714025,2552.774,-1,-1,4,30,-9999,1561827160.376358,-28.84064483642578,3.41790771484375,7.74432373046875,110.3247985839844,117.8179931640625,15,157097.709986125,-0.487701416015625,-0.3870391845703125,0.3045501708984375,157097.700861125,-3.45333669815618,-0.1343418296085021,2.821688150811186,157097.690515125,-107.7187347412109,-25.42674255371094,-555.6712036132812,157097.700861125,1.207299096648563,-1.135284108953325,0.773439399854988,-3.45573902130127,-0.1403956711292267,2.81868577003479,0.2419990301132202,0.280616283416748,0.6276317834854126,1,0.5444595217704773,-0.2294243425130844,0.276342898607254,0.7579993009567261,-0.6487220525741577,-0.6986002922058105,-0.3018566071987152,0,0,0,-1,157092.418364,3,2,1561827155.11842,1561827055.717469,12,1.562096,0,0,11.78992,0,0,1561827143.457785,157094.430913,0,0.9487305,75.36733,0,182478453,1,1,0.19,-18.54527,-28.82728,3
1561827160.402478,114,0,0,1561827159.998698,4.634663094770755,-74.15110294714025,2552.774,-1,-1,4,30,-9999,1561827160.400147,-28.63596343994141,4.476778030395508,8.59539794921875,114.869499206543,122.3626937866211,15,157097.730249125,-0.5593109130859375,-0.26837158203125,0.278533935546875,157097.721125125,-3.106479939881535,-1.183440345191198,2.752929592523084,157097.710626125,-107.868896484375,-24.18289184570312,-555.304931640625,157097.721125125,1.157927901112719,-1.113267954090363,0.6928512473062737,-3.108882188796997,-1.189494132995605,2.749927282333374,0.156156063079834,0.3017737865447998,0.6390142440795898,1,0.5132062435150146,-0.2582225203514099,0.2868054211139679,0.7666049003601074,-0.6902899742126465,-0.6387336254119873,-0.3398809731006622,0,0,0,-1,157092.418364,3,2,1561827155.11842,1561827055.717469,12,1.562096,0,0,11.78992,0,0,1561827143.457785,157094.430913,0,0.9487305,75.36733,0,182478453,1,1,0.19,-18.54527,-29.69749,3
1561827160.422221,115,0,0,1561827159.998698,4.634663094770755,-74.15110294714025,2552.774,-1,-1,4,30,-9999,1561827160.400147,-28.63596343994141,4.476778030395508,8.59539794921875,114.869499206543,122.3626937866211,15,157097.750513125,-0.662384033203125,-0.2490081787109375,0.00146484375,157097.741388125,-3.17933124413287,-3.092710864413607,3.050038501635049,157097.730738125,-106.9556884765625,-23.11152648925781,-553.908447265625,157097.741388125,1.120410721877856,-1.134746549651854,0.6143441019868445,-3.18173360824585,-3.098764657974243,3.047036170959473,0.1413536667823792,0.3450841903686523,0.5197402238845825,1,0.4882089495658875,-0.298471212387085,0.2894715666770935,0.7673154473304749,-0.7406883835792542,-0.5764226913452148,-0.345133900642395,0,0,0,-1,157092.418364,3,2,1561827155.11842,1561827055.717469,12,1.562096,0,0,11.78992,0,0,1561827143.457785,157094.430913,0,0.9487305,75.36733,0,182478453,1,1,0.19,-18.54527,-30.15748,3
1561827160.469193,116,0,0,1561827159.998698,4.634663094770755,-74.15110294714025,2552.774,-1,-1,4,30,-9999,1561827160.451128,-27.09719848632812,6.760948181152344,12.26165771484375,50.18656539916992,57.67975997924805,15,157097.770777125,-0.8376617431640625,-0.274261474609375,-0.3946533203125,157097.761652125,-4.698146927507164,-3.415206356616752,3.587269199905136,157097.750879125,-105.7910919189453,-22.09832763671875,-551.8235473632812,157097.761652125,1.067176693272863,-1.175947000241439,0.5206980612751276,-4.700549125671387,-3.421260356903076,3.584266662597656,0.0564156174659729,0.2264592051506042,0.1305036544799805,1,0.4570290446281433,-0.3525331020355225,0.2860138118267059,0.7648797035217285,-0.8007240891456604,-0.4974858164787292,-0.3336897194385529,0,0,0,-1,157092.418364,3,2,1561827155.11842,1561827055.717469,12,1.562096,0,0,11.78992,0,0,1561827143.457785,157094.430913,0,0.9487305,75.36733,0,182478453,1,1,0.19,-18.54527,-28.09443,3
1561827160.471906,117,0,0,1561827159.998698,4.634663094770755,-74.15110294714025,2552.774,-1,-1,4,30,-9999,1561827160.451128,-27.09719848632812,6.760948181152344,12.26165771484375,50.18656539916992,57.67975997924805,15,157097.791040125,-0.856170654296875,-0.21343994140625,-0.633087158203125,157097.781916125,-5.540960180845631,-1.97017435019143,3.515561457025881,157097.770990125,-104.8071441650391,-21.02595520019531,-549.3519287109375,157097.781916125,0.9866903388859086,-1.19544995832751,0.4131923701626846,-5.543362617492676,-1.97622811794281,3.512558937072754,-0.04214280843734741,0.1358337998390198,-0.2118943929672241,1,0.410187155008316,-0.4048144519329071,0.2814671695232391,0.7672339677810669,-0.8520832061767578,-0.4015350937843323,-0.3357435166835785,0,0,0,-1,157092.418364,3,2,1561827155.11842,1561827055.717469,12,1.562096,0,0,11.78992,0,0,1561827143.457785,157094.430913,0,0.9487305,75.36733,0,182478453,1,1,0.19,-18.54527,-28.09443,3
1561827160.482978,118,0,0,1561827159.998698,4.634663094770755,-74.15110294714025,2552.774,-1,-1,4,30,-9999,1561827160.477395,-24.44472503662109,7.490318298339844,16.37908935546875,55.30983734130859,62.80303192138672,15,157097.811304125,-0.755157470703125,-0.0768890380859375,-0.6573486328125,157097.802179125,-3.92949312314748,-1.73936963010695,3.047120742344758,157097.791101125,-103.5882415771484,-21.14607238769531,-547.4031372070312,157097.802179125,0.912946020106651,-1.202989748864128,0.3146592642217252,-3.93189549446106,-1.745423436164856,3.044118404388428,0.09842449426651001,0.1758865118026733,-0.318958044052124,1,0.3623045384883881,-0.4447220861911774,0.279350221157074,0.770013689994812,-0.88730388879776,-0.3094924688339233,-0.3419153690338135,0,0,0,-1,157092.418364,3,2,1561827155.11842,1561827055.717469,12,1.562096,0,0,11.78992,0,0,1561827143.457785,157095.377621,0,1.006836,75.3668,0,182478453,1,1,0.19,-18.54527,-28.09443,3
1561827160.503184,119,0,0,1561827159.998698,4.634663094770755,-74.15110294714025,2552.774,-1,-1,4,30,-9999,1561827160.501586,-23.12501525878906,7.99901008605957,18.04083251953125,56.73078918457031,64.22398376464844,15,157097.831537125,-0.97442626953125,-0.150146484375,-0.7879180908203125,157097.822412125,-1.479050427241667,-3.269699490454202,2.932778986206642,157097.811243125,-102.4439239501953,-20.67967224121094,-545.9757690429688,157097.822412125,0.8829087444935545,-1.244806200059025,0.2411468896778406,-1.481452584266663,-3.275753498077393,2.929776668548584,0.1092689633369446,0.160569429397583,-0.3803800344467163,1,0.3356340527534485,-0.4815179705619812,0.2812154293060303,0.7592153549194336,-0.9199226498603821,-0.2388164848089218,-0.3109804391860962,0,0,0,-1,157092.418364,3,2,1561827155.11842,1561827055.717469,12,1.562096,0,0,11.78992,0,0,1561827143.457785,157095.377621,0,1.006836,75.3668,0,182478453,1,1,0.19,-18.54527,-28.65328,3
1561827160.538078,120,0,0,1561827159.998698,4.634663094770755,-74.15110294714025,2552.774,-1,-1,4,30,-9999,1561827160.52851,-21.28828430175781,8.654382705688477,19.70849609375,58.10995483398438,65.6031494140625,15,157097.851801125,-1.428436279296875,-0.4145965576171875,-0.929656982421875,157097.842676125,-1.655724001325305,-3.295515907745321,3.356579528379748,157097.831354125,-100.3708953857422,-19.9952392578125,-544.062744140625,157097.842676125,0.8747880405991821,-1.314060573350605,0.1726330305329101,-1.65812611579895,-3.301569700241089,3.353577136993408,-0.2268710732460022,-0.09416860342025757,-0.602632999420166,1,0.3195813596248627,-0.5222955346107483,0.2864491939544678,0.7369001507759094,-0.9528469443321228,-0.1717768311500549,-0.2501502633094788,0,0,0,-1,157092.418364,3,2,1561827155.11842,1561827055.717469,12,1.562096,0,0,11.78992,0,0,1561827143.457785,157095.377621,0,1.006836,75.3668,0,182478453,1,1,0.19,-18.54527,-29.20985,3
1561827160.543867,121,0,0,1561827159.998698,4.634663094770755,-74.15110294714025,2552.774,-1,-1,4,30,-9999,1561827160.52851,-21.28828430175781,8.654382705688477,19.70849609375,58.10995483398438,65.6031494140625,15,157097.872064125,-1.835983276367188,-0.5501861572265625,-1.047012329101562,157097.862940125,-3.947277180274811,-0.9048649067373128,3.637710269899564,157097.851465125,-98.16133117675781,-19.18302917480469,-542.4346313476562,157097.862940125,0.836800307889325,-1.355028893775284,0.08974885232817252,-3.949679374694824,-0.9109187126159668,3.634707927703857,-0.7193949818611145,-0.4413774609565735,-0.8230956792831421,1,0.2863721251487732,-0.5580083131790161,0.2905476689338684,0.722633957862854,-0.972881019115448,-0.08962841331958771,-0.2132354527711868,0,0,0,-1,157092.418364,3,2,1561827155.11842,1561827055.717469,12,1.562096,0,0,11.78992,0,0,1561827143.457785,157095.377621,0,1.006836,75.3668,0,182478453,1,1,0.19,-18.54527,-29.20985,3
1561827160.563971,122,0,0,1561827159.998698,4.634663094770755,-74.15110294714025,2552.774,-1,-1,4,30,-9999,1561827160.552179,-19.63298797607422,8.893472671508789,21.01776123046875,62.99584197998047,70.48903656005859,15,157097.892328125,-1.702117919921875,-0.3990020751953125,-0.8977203369140625,157097.883203125,-4.416487282194858,0.7676207641728423,2.868646338732008,157097.871576125,-97.09454345703125,-19.57221984863281,-541.5697631835938,157097.883203125,0.7624505713145556,-1.347884995670859,0.004529190632130062,-4.41888952255249,0.7615669369697571,2.865643978118896,-0.8556236624717712,-0.4814174771308899,-0.7588061094284058,1,0.2338326573371887,-0.5786091089248657,0.2894014716148376,0.7257964611053467,-0.9752479195594788,-0.004529175348579884,-0.2210675776004791,0,0,0,-1,157092.418364,3,2,1561827155.11842,1561827055.717469,12,1.562096,0,0,11.78992,0,0,1561827143.457785,157095.377621,0,1.006836,75.3668,0,182478453,1,1,0.19,-18.54527,-30.23318,3
1561827160.584309,123,0,0,1561827159.998698,4.634663094770755,-74.15110294714025,2552.774,-1,-1,4,30,-9999,1561827160.578672,-18.36607360839844,7.840320587158203,22.60546875,66.46308135986328,73.95627593994141,15,157097.912592125,-1.535552978515625,-0.337890625,-0.710906982421875,157097.903467125,-1.512266970253789,-0.351218749824086,1.879554435147086,157097.891687125,-97.33737182617188,-20.42178344726562,-540.76171875,157097.903467125,0.7117345584469613,-1.342737704850645,-0.0560349973949157,-1.514669179916382,-0.35727259516716,1.876552104949951,-0.610643208026886,-0.3868314623832703,-0.5610722303390503,1,0.1960824728012085,-0.5904961228370667,0.2890170812606812,0.7275542020797729,-0.972578227519989,0.05600567907094955,-0.2257319837808609,0,0,0,-1,157092.418364,3,2,1561827155.11842,1561827055.717469,12,1.562096,0,0,11.78992,0,0,1561827143.457785,157095.377621,0,1.006836,75.3668,0,182478453,1,1,0.19,-18.54527,-31.01707,3
1561827160.622779,124,0,0,1561827159.998698,4.634663094770755,-74.15110294714025,2552.774,-1,-1,4,30,-9999,1561827160.603166,-17.76631164550781,7.944009780883789,22.883544921875,66.34786224365234,73.84105682373047,15,157097.932855125,-1.737716674804688,-0.44647216796875,-0.70025634765625,157097.923731125,0.04612808060904447,-0.7148246608264575,1.258783569274521,157097.911829125,-96.68179321289062,-20.20051574707031,-540.4632568359375,157097.923731125,0.7094861078926615,-1.357913173118828,-0.08838843233433846,0.04372585564851761,-0.7208784818649292,1.255781292915344,-0.6240307092666626,-0.4836896359920502,-0.5029096007347107,1,0.1856747418642044,-0.6002481579780579,0.2960698902606964,0.7194231748580933,-0.9736102819442749,0.08827339112758636,-0.2104540765285492,0,0,0,-1,157092.418364,3,2,1561827155.11842,1561827055.717469,12,1.562096,0,0,11.78992,0,0,1561827143.457785,157095.377621,0,1.006836,75.3668,0,182478453,1,1,0.19,-18.54527,-31.96697,3
