loggingTime,loggingSample,identifierForVendor,deviceID,locationTimestamp_since1970,locationLatitude,locationLongitude,locationAltitude,locationSpeed,locationCourse,locationVerticalAccuracy,locationHorizontalAccuracy,locationFloor,locationHeadingTimestamp_since1970,locationHeadingX,locationHeadingY,locationHeadingZ,locationTrueHeading,locationMagneticHeading,locationHeadingAccuracy,accelerometerTimestamp_sinceReboot,accelerometerAccelerationX,accelerometerAccelerationY,accelerometerAccelerationZ,gyroTimestamp_sinceReboot,gyroRotationX,gyroRotationY,gyroRotationZ,magnetometerTimestamp_sinceReboot,magnetometerX,magnetometerY,magnetometerZ,motionTimestamp_sinceReboot,motionYaw,motionRoll,motionPitch,motionRotationRateX,motionRotationRateY,motionRotationRateZ,motionUserAccelerationX,motionUserAccelerationY,motionUserAccelerationZ,motionAttitudeReferenceFrame,motionQuaternionX,motionQuaternionY,motionQuaternionZ,motionQuaternionW,motionGravityX,motionGravityY,motionGravityZ,motionMagneticFieldX,motionMagneticFieldY,motionMagneticFieldZ,motionMagneticFieldCalibrationAccuracy,activityTimestamp_sinceReboot,activity,activityActivityConfidence,activityActivityStartDate,pedometerStartDate,pedometerNumberofSteps,pedometerAverageActivePace,pedometerCurrentPace,pedometerCurrentCadence,pedometerDistance,pedometerFloorAscended,pedometerFloorDescended,pedometerEndDate,altimeterTimestamp_sinceReboot,altimeterReset,altimeterRelativeAltitude,altimeterPressure,IP_en0,IP_pdp_ip0,deviceOrientation,batteryState,batteryLevel,avAudioRecorderPeakPower,avAudioRecorderAveragePower,label
1561841340.134064,1,0,0,1561841339.998768,4.634471861649895,-74.15112440481236,2552.805,-1,-1,4,30,-9999,1561841340.119901,-26.03514862060547,-10.27560043334961,11.0751953125,130.9740295410156,138.4672393798828,15,169156.422342375,-0.965179443359375,0.548614501953125,0.483154296875,169156.422342375,2.466471996190891,-1.935925299624685,-0.6123512820862795,169156.404153375,-98.0001220703125,-35.81622314453125,-548.2132568359375,169156.417276375,0.002241145073904911,-1.381941533137133,-0.6368649933993386,2.753695249557495,-2.031575441360474,-0.6566928029060364,-0.2048525214195251,-0.03884601593017578,0.5930091738700867,1,-0.2405883967876434,-0.6055175065994263,0.2003402262926102,0.7316622734069824,-0.7896695733070374,0.5946779251098633,-0.1509315520524979,0,0,0,-1,169153.47566175,3,1,1561841337.42216,0,0,0,0,0,0,0,0,0,169153.85094,0,-0.1638184,75.19449,0,182478453,5,1,1,-4.574767,-37.8279,0
1561841340.162065,2,0,0,1561841339.998768,4.634471861649895,-74.15112440481236,2552.805,-1,-1,4,30,-9999,1561841340.119901,-26.03514862060547,-10.27560043334961,11.0751953125,130.9740295410156,138.4672393798828,15,169156.442605375,-0.96844482421875,0.5087738037109375,0.5504302978515625,169156.442605375,1.193959298864793,-1.490169657424966,-0.5974373136657268,169156.424234375,-97.25431823730469,-35.25987243652344,-546.546142578125,169156.437509375,0.05264262736674129,-1.389398214320649,-0.6168489285256946,1.546950340270996,-1.607178330421448,-0.5808515548706055,-0.1542977094650269,-0.051200270652771,0.6707015633583069,1,-0.2170736491680145,-0.6158736944198608,0.2135213911533356,0.7266272902488708,-0.8023215532302856,0.5784676671028137,-0.1471572518348694,0,0,0,-1,169153.47566175,3,1,1561841337.42216,0,0,0,0,0,0,0,0,0,169153.85094,0,-0.1638184,75.19449,0,182478453,5,1,1,-5.132046,-34.90376,0
1561841340.168795,3,0,0,1561841339.998768,4.634471861649895,-74.15112440481236,2552.805,-1,-1,4,30,-9999,1561841340.163185,-23.62718963623047,-8.946269989013672,15.06536865234375,124.8458786010742,132.3390808105469,15,169156.462838375,-1.016845703125,0.4833221435546875,0.53118896484375,169156.462838375,-0.4186550486309634,-1.103041642410578,-0.7992631126646188,169156.444345375,-96.64651489257812,-35.02767944335938,-545.7418823242188,169156.457773375,0.06928675359928305,-1.408077756344479,-0.6011092954729208,-0.007611297536641359,-1.198125123977661,-0.7427868843078613,-0.1777011156082153,-0.06908243894577026,0.6824932098388672,1,-0.2041088342666626,-0.6257296204566956,0.2167361974716187,0.7209907174110413,-0.8138149380683899,0.5655576586723328,-0.1336040496826172,0,0,0,-1,169153.47566175,3,1,1561841337.42216,0,0,0,0,0,0,0,0,0,169153.85094,0,-0.1638184,75.19449,0,182478453,5,1,1,-5.132046,-34.90376,0
1561841340.190342,4,0,0,1561841339.998768,4.634471861649895,-74.15112440481236,2552.805,-1,-1,4,30,-9999,1561841340.163185,-23.62718963623047,-8.946269989013672,15.06536865234375,124.8458786010742,132.3390808105469,15,169156.483102375,-1.095046997070312,0.4461669921875,0.470245361328125,169156.483102375,-1.938995658045437,-0.5949480569948298,-1.113910002819192,169156.464425375,-95.85408020019531,-35.40397644042969,-545.23681640625,169156.478036375,0.04644450194630187,-1.440958653903901,-0.5859300564370099,-1.591489911079407,-0.7535410523414612,-1.025448441505432,-0.2235128879547119,-0.08405673503875732,0.6166506409645081,1,-0.2022991478443146,-0.6365034580230713,0.2071840465068817,0.7148517966270447,-0.8261849880218506,0.5529745221138,-0.1078768074512482,0,0,0,-1,169153.47566175,3,1,1561841337.42216,0,0,0,0,0,0,0,0,0,169153.85094,0,-0.1638184,75.19449,0,182478453,5,1,1,-5.689325,-35.87585,0
1561841340.209531,5,0,0,1561841339.998768,4.634471861649895,-74.15112440481236,2552.805,-1,-1,4,30,-9999,1561841340.187432,-23.08711242675781,-9.485145568847656,15.31591796875,126.6853408813477,134.1785430908203,15,169156.503366375,-1.207916259765625,0.3934173583984375,0.3812103271484375,169156.503366375,-3.109722604824815,0.09007796176251313,-1.492795534259784,169156.484536375,-95.48806762695312,-36.39434814453125,-544.949951171875,169156.498300375,-0.01074826198956317,-1.480787291400866,-0.5664505717372462,-2.848533153533936,-0.08826074749231339,-1.400823473930359,-0.3068825602531433,-0.1233713626861572,0.5005764961242676,1,-0.2097715586423874,-0.6465847492218018,0.1847017407417297,0.7097952961921692,-0.8403952717781067,0.5366404056549072,-0.07584811002016068,0,0,0,-1,169153.47566175,3,1,1561841337.42216,0,0,0,0,0,0,0,0,0,169153.85094,0,-0.1638184,75.19449,0,182478453,5,1,1,-6.246603,-35.958,0
1561841340.242914,6,0,0,1561841339.998768,4.634471861649895,-74.15112440481236,2552.805,-1,-1,4,30,-9999,1561841340.21419,-22.80521392822266,-10.72190093994141,15.32025146484375,131.4335021972656,138.9267120361328,15,169156.523629375,-1.306838989257812,0.347564697265625,0.278961181640625,169156.523629375,-4.093950510994816,0.6519096106022075,-1.965055754576298,169156.504617375,-95.16940307617188,-38.04554748535156,-545.77294921875,169156.518564375,-0.09315702041219477,-1.519249012518791,-0.5386461390280762,-3.84985089302063,0.5285350680351257,-1.839463949203491,-0.4025780558586121,-0.1365552544593811,0.381280243396759,1,-0.2236319482326508,-0.6541210412979126,0.1504917740821838,0.7067295908927917,-0.8572638630867004,0.5129743218421936,-0.04422882944345474,0,0,0,-1,169153.47566175,3,1,1561841337.42216,0,0,0,0,0,0,0,0,0,169153.85094,0,-0.1638184,75.19449,0,182478453,5,1,1,-7.361162,-37.10733,0
1561841340.249918,7,0,0,1561841339.998768,4.634471861649895,-74.15112440481236,2552.805,-1,-1,4,30,-9999,1561841340.241931,-22.41372680664062,-12.51446914672852,14.56439208984375,138.2135314941406,145.7067413330078,15,169156.543893375,-1.3992919921875,0.2870330810546875,0.1305999755859375,169156.543893375,-4.999942201189342,1.098759812009949,-2.518022272779337,169156.524728375,-94.61911010742188,-40.50209045410156,-546.4779663085938,169156.538827375,-0.1958144034376548,-1.554797747428208,-0.4988985574223311,-4.794597625732422,0.9839262962341309,-2.379852533340454,-0.4750295877456665,-0.1643869876861572,0.2228491902351379,1,-0.241554781794548,-0.6592627167701721,0.1048178598284721,0.7042990922927856,-0.8779977560043335,0.4784586429595947,-0.01404791511595249,0,0,0,-1,169153.47566175,3,1,1561841337.42216,0,0,0,0,0,0,0,0,0,169153.85094,0,-0.1638184,75.19449,0,182478453,5,1,1,-7.361162,-37.10733,0
1561841340.270186,8,0,0,1561841339.998768,4.634471861649895,-74.15112440481236,2552.805,-1,-1,4,30,-9999,1561841340.264368,-21.48898315429688,-17.45979690551758,11.3807373046875,146.5003967285156,153.9936065673828,15,169156.564157375,-1.48748779296875,0.2560882568359375,-0.005096435546875,169156.564157375,-5.541421440346432,1.594442267797601,-3.108374512681017,169156.544809375,-94.52572631835938,-42.56767272949219,-548.367431640625,169156.559091375,-0.3133516699368147,-1.583613845801615,-0.4448811550801358,-5.454904556274414,1.470487117767334,-2.959652662277222,-0.5391391515731812,-0.1613839268684387,0.04273641109466553,1,-0.2613968849182129,-0.6614049077033997,0.04814540594816208,0.7013537883758545,-0.9025875329971313,0.4303506016731262,0.01156956702470779,0,0,0,-1,169153.47566175,3,1,1561841337.42216,0,0,0,0,0,0,0,0,0,169153.85094,0,-0.1638184,75.19449,0,182478453,5,1,1,-7.91844,-37.26128,0
1561841340.290729,9,0,0,1561841339.998768,4.634471861649895,-74.15112440481236,2552.805,-1,-1,4,30,-9999,1561841340.264368,-21.48898315429688,-17.45979690551758,11.3807373046875,146.5003967285156,153.9936065673828,15,169156.584420375,-1.546615600585938,0.258331298828125,-0.117340087890625,169156.584420375,-5.641642051120512,2.059400633037336,-3.721230996426085,169156.564920375,-93.62298583984375,-45.25389099121094,-550.620849609375,169156.579324375,-0.4351482714119877,-1.597762719829733,-0.3763570409234437,-5.657968521118164,1.943232297897339,-3.579274892807007,-0.602249801158905,-0.1125300526618958,-0.08788108825683594,1,-0.2793572545051575,-0.6591642498970032,-0.01701787672936916,0.6979773640632629,-0.929671585559845,0.3675349354743958,0.02507596835494041,0,0,0,-1,169153.47566175,3,1,1561841337.42216,0,0,0,0,0,0,0,0,0,169153.85094,0,-0.1638184,75.19449,0,182478453,5,1,1,-8.475719,-37.45438,0
1561841340.325073,10,0,0,1561841339.998768,4.634471861649895,-74.15112440481236,2552.805,-1,-1,4,30,-9999,1561841340.315287,-19.6895751953125,-22.5941276550293,6.17645263671875,163.4754638671875,170.9686737060547,15,169156.604654375,-1.539413452148438,0.2796783447265625,-0.1938323974609375,169156.604654375,-5.357546678675219,2.505934983539794,-4.217258597891011,169156.585031375,-92.58268737792969,-47.84559631347656,-553.3272094726562,169156.599588375,-0.5527990511210193,-1.592744425143419,-0.2952826248709223,-5.449118137359619,2.392809629440308,-4.112599849700928,-0.5923234820365906,-0.03008496761322021,-0.1811221837997437,1,-0.2919156551361084,-0.6521376371383667,-0.08759627491235733,0.6941387057304382,-0.9564893841743469,0.2910102605819702,0.02099649421870708,0,0,0,-1,169153.47566175,3,1,1561841337.42216,0,0,0,0,0,0,0,0,0,169153.85094,0,-0.1638184,75.19449,0,182478453,5,1,1,-9.032998,-37.99112,0
1561841340.330978,11,0,0,1561841339.998768,4.634471861649895,-74.15112440481236,2552.805,-1,-1,4,30,-9999,1561841340.315287,-19.6895751953125,-22.5941276550293,6.17645263671875,163.4754638671875,170.9686737060547,15,169156.624917375,-1.443344116210938,0.3176422119140625,-0.2501220703125,169156.624917375,-4.895814733096115,2.86758533535372,-4.467667113075674,169156.605111375,-91.09077453613281,-50.61479187011719,-556.4625854492188,169156.619851375,-0.6618205771227825,-1.567230549654029,-0.207004847999655,-5.039543628692627,2.785027265548706,-4.437659740447998,-0.527535080909729,0.09964615106582642,-0.2220200300216675,1,-0.2973207831382751,-0.640199601650238,-0.1599496155977249,0.6900442242622375,-0.9786447882652283,0.2055296152830124,-0.003489644033834338,0,0,0,-1,169153.47566175,3,1,1561841337.42216,0,0,0,0,0,0,0,0,0,169153.85094,0,-0.1638184,75.19449,0,182478453,5,1,1,-9.032998,-37.99112,0
1561841340.351173,12,0,0,1561841339.998768,4.634471861649895,-74.15112440481236,2552.805,-1,-1,4,30,-9999,1561841340.341784,-17.96006774902344,-25.04161834716797,2.88824462890625,170.9055328369141,178.3987426757812,15,169156.645181375,-1.299697875976562,0.3231964111328125,-0.2625579833984375,169156.645181375,-4.24068323020713,3.019026257057186,-4.58260994467182,169156.625222375,-88.6619873046875,-52.25932312011719,-559.6851806640625,169156.640115375,-0.7611645697963026,-1.524293528114374,-0.118217412054251,-4.401042461395264,3.004683971405029,-4.552568912506104,-0.375072717666626,0.1991506516933441,-0.2134514451026917,1,-0.2957112491130829,-0.6240785717964172,-0.2303583323955536,0.6855769753456116,-0.9919468760490417,0.117942251265049,-0.04616158828139305,0,0,0,-1,169153.47566175,3,1,1561841337.42216,0,0,0,0,0,0,0,0,0,169153.85094,0,-0.1638184,75.19449,0,182478453,5,1,1,-9.590277,-38.60312,0
1561841340.373277,13,0,0,1561841339.998768,4.634471861649895,-74.15112440481236,2552.805,-1,-1,4,30,-9999,1561841340.365611,-13.21055603027344,-27.9438591003418,-3.2449951171875,177.4633483886719,184.9565582275391,15,169156.665445375,-1.222671508789062,0.3703460693359375,-0.2865447998046875,169156.665445375,-3.775335244499916,3.004954646489425,-4.698530955336354,169156.645334375,-86.6954345703125,-53.87469482421875,-562.825927734375,169156.660379375,-0.851337799079635,-1.469953831975347,-0.03092429541128509,-3.861390590667725,3.011142015457153,-4.677157878875732,-0.2574480175971985,0.3100840449333191,-0.1743245720863342,1,-0.2873119413852692,-0.6059208512306213,-0.2968511879444122,0.679846465587616,-0.9944440722465515,0.03091936744749546,-0.1006235405802727,0,0,0,-1,169153.47566175,3,1,1561841337.42216,0,0,0,0,0,0,0,0,0,169153.85094,0,-0.1638184,75.19449,0,182478453,5,1,1,-10.14756,-39.07708,0
1561841340.397604,14,0,0,1561841339.998768,4.634471861649895,-74.15112440481236,2552.805,-1,-1,4,30,-9999,1561841340.390109,-10.46996307373047,-28.85483551025391,-5.888916015625,183.7557983398438,191.2490081787109,15,169156.685708375,-1.1173095703125,0.4798736572265625,-0.338623046875,169156.685708375,-3.698116356060851,2.932926525331033,-4.731239899844707,169156.665445375,-83.71124267578125,-54.64752197265625,-565.6748657226562,169156.680642375,-0.9390133398079372,-1.408489500799248,0.05403269552429331,-3.684466600418091,2.942995309829712,-4.747456073760986,-0.1969103813171387,0.4778650403022766,-0.1455254554748535,1,-0.2744743227958679,-0.5865016579627991,-0.3602811992168427,0.6714738011360168,-0.9854168891906738,-0.05400640890002251,-0.1613592952489853,0,0,0,-1,169153.47566175,3,1,1561841337.42216,0,0,0,0,0,0,0,0,0,169153.85094,0,-0.1638184,75.19449,0,182478453,5,1,1,-10.70483,-37.84659,0
1561841340.41199,15,0,0,1561841339.998768,4.634471861649895,-74.15112440481236,2552.805,-1,-1,4,30,-9999,1561841340.390109,-10.46996307373047,-28.85483551025391,-5.888916015625,183.7557983398438,191.2490081787109,15,169156.705972375,-0.9080810546875,0.610748291015625,-0.4500885009765625,169156.705972375,-3.858310821951297,2.778899141576883,-4.522326097604568,169156.685525375,-80.58737182617188,-55.14637756347656,-568.0701904296875,169156.700876375,-1.032271517099125,-1.340772647049445,0.1324563172857518,-3.836533069610596,2.849612236022949,-4.60734224319458,-0.06700283288955688,0.6710555553436279,-0.1571600437164307,1,-0.2608461380004883,-0.5647633075714111,-0.4216283559799194,0.6597205400466919,-0.9651321768760681,-0.1320693343877792,-0.2260033935308456,0,0,0,-1,169153.47566175,3,1,1561841337.42216,0,0,0,0,0,0,0,0,0,169153.85094,0,-0.1638184,75.19449,0,182478453,5,1,1,-11.26211,-26.02288,0
1561841340.432079,16,0,0,1561841339.998768,4.634471861649895,-74.15112440481236,2552.805,-1,-1,4,30,-9999,1561841340.416165,-7.067459106445312,-29.16519546508789,-8.37139892578125,190.6213684082031,198.1145782470703,15,169156.726215625,-0.681243896484375,0.724517822265625,-0.6267547607421875,169156.726215625,-3.456453129263791,2.188505888994416,-3.917496115068891,169156.705636375,-77.30935668945312,-55.36021423339844,-570.4530029296875,169156.721139375,-1.131459491298434,-1.270623371648381,0.1981386418164232,-3.657730579376221,2.376982450485229,-4.108826160430908,0.1584728956222534,0.8645540475845337,-0.2406020760536194,1,-0.249330997467041,-0.5411875247955322,-0.4788792431354523,0.6446896195411682,-0.9365948438644409,-0.1968447268009186,-0.2899002432823181,0,0,0,-1,169153.47566175,3,1,1561841337.42216,0,0,0,0,0,0,0,0,0,169153.85094,0,-0.1638184,75.19449,0,182478453,5,1,1,-11.81939,-18.96531,0
1561841340.452396,17,0,0,1561841339.998768,4.634471861649895,-74.15112440481236,2552.805,-1,-1,4,30,-9999,1561841340.44083,-3.936836242675781,-29.07781982421875,-10.63665771484375,197.3700714111328,204.86328125,15,169156.746479625,-0.51824951171875,0.860748291015625,-0.836212158203125,169156.746479625,-1.920780435137622,1.288137729757701,-2.927948011989239,169156.725757625,-74.682861328125,-54.73774719238281,-572.6832275390625,169156.741413625,-1.217811186151697,-1.211793041076253,0.2483976022234782,-2.404989242553711,1.502416253089905,-3.207056283950806,0.3148451447486877,1.04989767074585,-0.3959993124008179,1,-0.2397004514932632,-0.5217900276184082,-0.5244031548500061,0.628713071346283,-0.9075117707252502,-0.2458510547876358,-0.340557724237442,0,0,0,-1,169156.726002625,3,1,1561841340.672501,0,0,0,0,0,0,0,0,0,169153.85094,0,-0.1638184,75.19449,0,182478453,5,1,1,-12.37667,-19.83776,0
1561841340.478516,18,0,0,1561841339.998768,4.634471861649895,-74.15112440481236,2552.805,-1,-1,4,30,-9999,1561841340.467131,0.8829498291015625,-27.96296310424805,-13.6387939453125,201.3490142822266,208.8422241210938,15,169156.766742625,-0.5563812255859375,0.9248809814453125,-0.9604949951171875,169156.766742625,0.0379588339652264,1.01601459799286,-1.836661828946379,169156.745838625,-72.0794677734375,-54.16273498535156,-573.9088134765625,169156.761677625,-1.265913765071522,-1.17571313906287,0.2880364802311197,-0.4086703062057495,0.9690067172050476,-2.111129760742188,0.3802266120910645,1.17376434803009,-0.539097785949707,1,-0.2283616960048676,-0.513163149356842,-0.5513107776641846,0.6169042587280273,-0.884941577911377,-0.2840701341629028,-0.3690290451049805,0,0,0,-1,169156.726002625,3,1,1561841340.672501,0,0,0,0,0,0,0,0,0,169153.85094,0,-0.1638184,75.19449,0,182478453,5,1,1,-12.93395,-19.99009,0
1561841340.492938,19,0,0,1561841339.998768,4.634471861649895,-74.15112440481236,2552.805,-1,-1,4,30,-9999,1561841340.491295,2.200630187988281,-27.92325210571289,-13.64483642578125,201.5899810791016,209.0831909179688,15,169156.787006625,-0.642364501953125,0.950653076171875,-1.038726806640625,169156.787006625,1.336548938369271,1.560473115461422,-0.9576884406429256,169156.765949625,-70.75640869140625,-54.0015869140625,-574.2005615234375,169156.781940625,-1.271645676358931,-1.151083542730154,0.3211295007736312,1.083536624908447,1.400130987167358,-1.152883648872375,0.248083770275116,1.260416984558105,-0.6201387047767639,1,-0.2111529111862183,-0.5119385719299316,-0.5617765784263611,0.6146059632301331,-0.866522490978241,-0.3156385123729706,-0.3866666853427887,0,0,0,-1,169156.726002625,3,1,1561841340.672501,0,0,0,0,0,0,0,0,0,169153.85094,0,-0.1638184,75.19449,0,182478453,5,1,1,-12.93395,-19.99009,0
1561841340.513247,20,0,0,1561841339.998768,4.634471861649895,-74.15112440481236,2552.805,-1,-1,4,30,-9999,1561841340.491295,2.200630187988281,-27.92325210571289,-13.64483642578125,201.5899810791016,209.0831909179688,15,169156.807270625,-0.7144012451171875,0.9738922119140625,-1.093460083007812,169156.807270625,1.941028448905494,2.11270699804858,-0.1980020323057562,169156.786060625,-69.51065063476562,-53.95655822753906,-573.6226806640625,169156.802204625,-1.24924830385417,-1.124142311694052,0.3482783030793454,1.826483726501465,1.972623705863953,-0.4034967422485352,0.1765606999397278,1.291337966918945,-0.6570937037467957,1,-0.1880223453044891,-0.5115068554878235,-0.5622427463531494,0.6220059990882874,-0.8477490544319153,-0.3412799835205078,-0.4060166776180267,0,0,0,-1,169156.726002625,3,1,1561841340.672501,0,0,0,0,0,0,0,0,0,169153.85094,0,-0.1638184,75.19449,0,182478453,5,1,1,-13.49123,-20.94743,0
1561841340.533434,21,0,0,1561841339.998768,4.634471861649895,-74.15112440481236,2552.805,-1,-1,4,30,-9999,1561841340.517593,3.028854370117188,-28.16104888916016,-12.9576416015625,199.5477752685547,207.0409851074219,15,169156.827533625,-0.7754058837890625,1.0777587890625,-1.113723754882812,169156.827533625,2.786039609091603,2.596917887440716,0.6829847057817972,169156.806171625,-69.008056640625,-54.41654968261719,-572.4940185546875,169156.822468625,-1.208386228865305,-1.093192196955087,0.3670062977214407,2.477471351623535,2.494071483612061,0.4488524794578552,0.07463818788528442,1.380734324455261,-0.6884502172470093,1,-0.1620398312807083,-0.5091383457183838,-0.55523282289505,0.6373677849769592,-0.8289564251899719,-0.3588227033615112,-0.4290424883365631,0,0,0,-1,169156.726002625,3,1,1561841340.672501,0,0,0,0,0,0,0,0,0,169153.85094,0,-0.1638184,75.19449,0,182478453,5,1,1,-14.04851,-21.77547,0
1561841340.558278,22,0,0,1561841339.998768,4.634471861649895,-74.15112440481236,2552.805,-1,-1,4,30,-9999,1561841340.542236,3.792678833007812,-28.93515396118164,-10.091064453125,195.5361938476562,203.0294036865234,15,169156.847797625,-0.7837066650390625,1.11883544921875,-1.073226928710938,169156.847797625,4.610335049516199,2.527475429384682,1.481604931359271,169156.826252625,-68.92214965820312,-54.88587951660156,-571.3817749023438,169156.842701625,-1.137855931762459,-1.066222794805843,0.3818218389915689,4.080052852630615,2.602371692657471,1.298518300056458,0.03022241592407227,1.48015570640564,-0.6504393219947815,1,-0.1311372369527817,-0.5084217190742493,-0.5367851853370667,0.6604331731796265,-0.8123421669006348,-0.3726117312908173,-0.4486207664012909,0,0,0,-1,169156.726002625,3,1,1561841340.672501,0,0,0,0,0,0,0,0,0,169153.85094,0,-0.1638184,75.19449,0,182478453,5,1,1,-14.60579,-21.9175,0
1561841340.574573,23,0,0,1561841339.998768,4.634471861649895,-74.15112440481236,2552.805,-1,-1,4,30,-9999,1561841340.568222,3.433784484863281,-29.51186752319336,-7.5184326171875,187.8193664550781,195.3125762939453,15,169156.868030625,-0.913604736328125,1.2227783203125,-0.8647308349609375,169156.868030625,6.789606161114656,2.099298514592249,1.925927526576418,169156.846363625,-69.25422668457031,-55.67495727539062,-568.8576049804688,169156.862964625,-1.021560701031895,-1.061652493485397,0.4042880061546183,6.273025512695312,2.219692707061768,1.866766333580017,-0.03066492080688477,1.557228326797485,-0.5444954633712769,1,-0.09140069037675858,-0.5172800421714783,-0.5016679763793945,0.6873109936714172,-0.8027701377868652,-0.3933642506599426,-0.4481345415115356,0,0,0,-1,169156.726002625,3,1,1561841340.672501,0,0,0,0,0,0,0,0,0,169153.85094,0,-0.1638184,75.19449,0,182478453,5,1,1,-15.16307,-22.89997,0
1561841340.594294,24,0,0,1561841339.998768,4.634471861649895,-74.15112440481236,2552.805,-1,-1,4,30,-9999,1561841340.592789,2.398811340332031,-30.30237197875977,-3.8580322265625,175.9834594726562,183.4766693115234,15,169156.888294625,-1.098419189453125,1.31317138671875,-0.5415802001953125,169156.888294625,8.635152295457539,1.553814946420115,2.025022152841613,169156.866474625,-69.99125671386719,-56.36091613769531,-565.732421875,169156.883228625,-0.8591590763655977,-1.088749580233117,0.4399294297655288,8.201895713806152,1.659060716629028,1.992024064064026,-0.1864487528800964,1.694216728210449,-0.301160454750061,1,-0.04079941287636757,-0.5372242331504822,-0.4504336416721344,0.7119234800338745,-0.8016799688339233,-0.4258756041526794,-0.4194510579109192,0,0,0,-1,169156.726002625,3,1,1561841340.672501,0,0,0,0,0,0,0,0,0,169153.85094,0,-0.1638184,75.19449,0,182478453,5,1,1,-15.72035,-23.86819,0
1561841340.614558,25,0,0,1561841339.998768,4.634471861649895,-74.15112440481236,2552.805,-1,-1,4,30,-9999,1561841340.592789,2.398811340332031,-30.30237197875977,-3.8580322265625,175.9834594726562,183.4766693115234,15,169156.908558625,-1.374053955078125,1.375381469726562,-0.1110687255859375,169156.908558625,10.38467922196205,1.408885719898003,2.406102927968757,169156.886585625,-71.15475463867188,-56.49557495117188,-561.1890258789062,169156.903492625,-0.6540455446632593,-1.149836430523866,0.4821102330509511,9.923984527587891,1.413831830024719,2.269173622131348,-0.411151647567749,1.810176968574524,0.02732759714126587,1,0.02010991796851158,-0.5644162893295288,-0.3847214877605438,0.7300816178321838,-0.808666467666626,-0.4636498987674713,-0.3620596826076508,0,0,0,-1,169156.726002625,3,1,1561841340.672501,0,0,0,0,0,0,0,0,0,169153.85094,0,-0.1638184,75.19449,0,182478453,5,1,1,-16.27762,-24.63951,0
1561841340.641837,26,0,0,1561841339.998768,4.634471861649895,-74.15112440481236,2552.805,-1,-1,4,30,-9999,1561841340.619361,1.074134826660156,-30.22074890136719,0.60546875,160.2214965820312,167.7147064208984,15,169156.928821625,-1.653701782226562,1.211273193359375,0.4326171875,169156.928821625,12.31822578610108,1.236564549983881,2.554276683646913,169156.906666625,-72.57693481445312,-55.890625,-555.8511962890625,169156.923755625,-0.3994122522946499,-1.24408254595128,0.5157631825098705,11.83859539031982,1.31886887550354,2.620170831680298,-0.6923508644104004,1.815189838409424,0.4232121109962463,1,0.09137000888586044,-0.5933458805084229,-0.3015442490577698,0.7407180070877075,-0.8238997459411621,-0.4931989014148712,-0.2791843712329865,0,0,0,-1,169156.726002625,3,1,1561841340.672501,0,0,0,0,0,0,0,0,0,169153.85094,0,-0.1638184,75.19449,0,182478453,5,1,1,-16.8349,-25.41398,0
1561841340.657148,27,0,0,1561841339.998768,4.634471861649895,-74.15112440481236,2552.805,-1,-1,4,30,-9999,1561841340.643319,-2.210975646972656,-26.39459991455078,12.51531982421875,139.9679718017578,147.461181640625,15,169156.949085625,-1.831329345703125,0.982452392578125,1.122177124023438,169156.949085625,14.24490459042101,0.3243165617565416,1.428894581799987,169156.926777625,-74.55928039550781,-53.82113647460938,-549.886474609375,169156.944019625,-0.09519441731160974,-1.376244337375996,0.5375997984471342,13.78036499023438,0.6135945320129395,1.807619571685791,-0.9366068243980408,1.607550144195557,0.9223582148551941,1,0.1757762134075165,-0.6213489770889282,-0.2039045244455338,0.7358336448669434,-0.8427358269691467,-0.5120758414268494,-0.1660563498735428,0,0,0,-1,169156.726002625,3,1,1561841340.672501,0,0,0,0,0,0,0,0,0,169153.85094,0,-0.1638184,75.19449,0,182478453,5,1,1,-16.8349,-25.41398,0
1561841340.675386,28,0,0,1561841339.998768,4.634471861649895,-74.15112440481236,2552.805,-1,-1,4,30,-9999,1561841340.669602,-3.257301330566406,-21.57803344726562,18.4595947265625,115.8087768554688,123.3019790649414,15,169156.969349625,-1.623947143554688,0.8549346923828125,1.756240844726562,169156.969349625,14.32858963398678,-1.142981335594606,0.1734120006966186,169156.946888625,-75.90318298339844,-49.60086059570312,-543.6761474609375,169156.964252625,0.2479976859942316,-1.554211356742798,0.5479782436465325,14.7050256729126,-0.7104820013046265,0.3720618486404419,-0.9331284165382385,1.421368360519409,1.540813088417053,1,0.2749161422252655,-0.6460210084915161,-0.103385753929615,0.7045490741729736,-0.8534621596336365,-0.5209625363349915,-0.01415594294667244,0,0,0,-1,169156.726002625,3,1,1561841340.672501,0,0,0,0,0,0,0,0,0,169153.85094,0,-0.1638184,75.19449,0,182478453,5,1,1,-17.39218,-26.14447,0
1561841340.695548,29,0,0,1561841339.998768,4.634471861649895,-74.15112440481236,2552.805,-1,-1,4,30,-9999,1561841340.694431,-2.94775390625,-15.166259765625,23.025390625,93.37657928466797,100.8697814941406,15,169156.989582625,-1.119552612304688,0.8778228759765625,1.664276123046875,169156.989582625,11.26800288390615,-1.653812916927065,0.1677634360245605,169156.966999625,-75.72541809082031,-43.21485900878906,-538.16845703125,169156.984516625,0.56826838794642,-1.74836779579888,0.5239148809891683,12.16630077362061,-1.865298390388489,0.06244486570358276,-0.5066652297973633,1.360091209411621,1.544349551200867,1,0.3671806454658508,-0.6645687818527222,-0.0169442854821682,0.6505686640739441,-0.8522520065307617,-0.5002737045288086,0.1529465913772583,0,0,0,-1,169156.726002625,3,1,1561841340.672501,0,0,0,0,0,0,0,0,0,169153.85094,0,-0.1638184,75.19449,0,182478453,5,1,1,-17.94946,-26.63534,0
1561841340.725097,30,0,0,1561841339.998768,4.634471861649895,-74.15112440481236,2552.805,-1,-1,4,30,-9999,1561841340.720457,-2.216598510742188,-8.960765838623047,25.52728271484375,79.82333374023438,87.31653594970703,15,169157.009845625,-0.802032470703125,0.8675537109375,1.679824829101562,169157.009845625,6.686919463171163,0.8561205366733745,0.4834002231563158,169156.987079625,-75.078125,-36.62300109863281,-535.2780151367188,169157.004780625,0.7942891639458062,-1.878819611798979,0.4684944681860356,7.913147449493408,0.1036330536007881,0.4251511693000793,-0.1171977519989014,1.322820425033569,1.414367437362671,1,0.4300346374511719,-0.6710620522499084,0.04929169267416,0.6019271612167358,-0.8502552509307861,-0.4515434801578522,0.2705081403255463,0,0,0,-1,169156.726002625,3,1,1561841340.672501,0,0,0,0,0,0,0,0,0,169153.85094,0,-0.1638184,75.19449,0,182478453,5,1,1,-17.93723,-19.60333,0
1561841340.736064,31,0,0,1561841339.998768,4.634471861649895,-74.15112440481236,2552.805,-1,-1,4,30,-9999,1561841340.720457,-2.216598510742188,-8.960765838623047,25.52728271484375,79.82333374023438,87.31653594970703,15,169157.030109625,-0.641082763671875,0.84027099609375,1.767913818359375,169157.030109625,2.82079838869099,2.782739153552668,0.813687325760706,169157.007190625,-74.78231811523438,-31.58918762207031,-534.20166015625,169157.025043625,0.9095277721815525,-1.899058720357921,0.4217499087686728,3.549154043197632,2.524235010147095,0.7037271857261658,0.1767674684524536,1.25908899307251,1.41663670539856,1,0.4587132334709167,-0.6607997417449951,0.09710440784692764,0.5860859751701355,-0.8636570572853088,-0.4093576371669769,0.2941482663154602,0,0,0,-1,169156.726002625,3,1,1561841340.672501,0,0,0,0,0,0,0,0,0,169153.85094,0,-0.1638184,75.19449,0,182478453,5,1,1,-17.93723,-20.2605,0
1561841340.757046,32,0,0,1561841339.998768,4.634471861649895,-74.15112440481236,2552.805,-1,-1,4,30,-9999,1561841340.744546,-3.874900817871094,-2.45075798034668,26.24090576171875,74.89717102050781,82.39037322998047,15,169157.050373625,-0.5502471923828125,0.826416015625,1.86553955078125,169157.050373625,1.66500831351754,2.548897098244952,1.346466550268726,169157.027302625,-76.16812133789062,-28.88043212890625,-534.0838012695312,169157.045307625,0.9535331059599595,-1.859908574262202,0.3886306950773584,1.68532657623291,2.737948894500732,1.199352502822876,0.288479745388031,1.217864990234375,1.55209219455719,1,0.4635064005851746,-0.6458191275596619,0.1316819936037064,0.5922324657440186,-0.887021005153656,-0.3789215683937073,0.2638410627841949,0,0,0,-1,169157.040851625,3,1,1561841340.98735,0,0,0,0,0,0,0,0,0,169153.85094,0,-0.1638184,75.19449,0,182478453,5,1,1,-17.93723,-20.86276,0
1561841340.77676,33,0,0,1561841339.998768,4.634471861649895,-74.15112440481236,2552.805,-1,-1,4,30,-9999,1561841340.770855,-5.5029296875,-1.236831665039062,25.95416259765625,72.77091217041016,80.26411437988281,15,169157.070637625,-0.50262451171875,0.7530364990234375,2.034866333007812,169157.070637625,2.332045211743615,0.8838288636028859,2.115040726111817,169157.047413625,-77.82879638671875,-27.58599853515625,-534.317138671875,169157.065571625,0.9829096194276794,-1.825650083694189,0.3489945175552258,2.142379522323608,1.46193540096283,1.904855847358704,0.3956769704818726,1.144931554794312,1.719316244125366,1,0.4613218903541565,-0.6368950009346008,0.1630853861570358,0.5957766771316528,-0.9093641042709351,-0.3419530987739563,0.2369062602519989,0,0,0,-1,169157.040851625,3,1,1561841340.98735,0,0,0,0,0,0,0,0,0,169153.85094,0,-0.1638184,75.19449,0,182478453,5,1,1,-17.93723,-21.80792,0
1561841340.80186,34,0,0,1561841339.998768,4.634471861649895,-74.15112440481236,2552.805,-1,-1,4,30,-9999,1561841340.795487,-6.038246154785156,0.3519001007080078,25.76837158203125,70.09858703613281,77.59178924560547,15,169157.090900625,-0.5744476318359375,0.5834197998046875,2.065765380859375,169157.090900625,2.409918705178622,-1.65884735665175,3.059405638137185,169157.067524625,-78.38169860839844,-26.28804016113281,-534.5550537109375,169157.085834625,1.020662383358246,-1.833678791346236,0.2906229067005068,2.562294483184814,-1.149226546287537,2.816341638565063,0.4084734916687012,0.9651532173156738,1.823526740074158,1,0.4604644179344177,-0.6422277092933655,0.1937355995178223,0.5813628435134888,-0.9251513481140137,-0.2865490615367889,0.2489678263664246,0,0,0,-1,169157.040851625,3,1,1561841340.98735,0,0,0,0,0,0,0,0,0,169153.85094,0,-0.1638184,75.19449,0,182478453,5,1,1,-17.93723,-22.75119,0
1561841340.817089,35,0,0,1561841339.998768,4.634471861649895,-74.15112440481236,2552.805,-1,-1,4,30,-9999,1561841340.795487,-6.038246154785156,0.3519001007080078,25.76837158203125,70.09858703613281,77.59178924560547,15,169157.111164625,-0.66632080078125,0.3501434326171875,1.842742919921875,169157.111164625,0.365739369351634,-2.209493196280894,3.591393637485342,169157.087604625,-78.22587585449219,-24.53836059570312,-534.7659912109375,169157.106067625,1.041811975734553,-1.877564395854681,0.216492421595309,1.062561869621277,-2.267238855361938,3.552600145339966,0.3154149651527405,0.6896587610244751,1.675681471824646,1,0.4545452892780304,-0.6639680862426758,0.2166801989078522,0.5527971982955933,-0.931061327457428,-0.2148052453994751,0.2949300706386566,0,0,0,-1,169157.040851625,3,1,1561841340.98735,0,0,0,0,0,0,0,0,0,169153.85094,0,-0.1638184,75.19449,0,182478453,5,1,1,-17.93723,-22.75119,0
1561841340.83729,36,0,0,1561841339.998768,4.634471861649895,-74.15112440481236,2552.805,-1,-1,4,30,-9999,1561841340.82339,-5.25262451171875,2.101652145385742,25.92767333984375,69.64044952392578,77.13365173339844,15,169157.131397625,-0.85614013671875,0.0399932861328125,1.700119018554688,169157.131397625,-2.601408243354699,-1.302022652733048,3.243299574568246,169157.107715625,-76.65277099609375,-23.1898193359375,-534.7949829101562,169157.126331625,1.011008419870457,-1.91313827162146,0.1515312281682655,-1.886170029640198,-1.588764309883118,3.376465082168579,0.1916904449462891,0.337383896112442,1.413025617599487,1,0.4327698945999146,-0.6918337345123291,0.2241636514663696,0.5327541828155518,-0.9311771988868713,-0.1509519964456558,0.3318473994731903,0,0,0,-1,169157.040851625,3,1,1561841340.98735,0,0,0,0,0,0,0,0,0,169153.85094,0,-0.1638184,75.19449,0,182478453,5,1,1,-17.93723,-23.52572,0
1561841340.857767,37,0,0,1561841339.998768,4.634471861649895,-74.15112440481236,2552.805,-1,-1,4,30,-9999,1561841340.845798,-2.426284790039062,2.267269134521484,26.2320556640625,74.11501312255859,81.60821533203125,15,169157.151661625,-1.018585205078125,-0.20703125,1.52044677734375,169157.151661625,-5.059956003722059,-0.1692809052136877,2.784116540468457,169157.127826625,-75.43548583984375,-23.40589904785156,-534.380859375,169157.146595625,0.9269244363744511,-1.922809993676838,0.1149463784734002,-4.509275913238525,-0.4360725283622742,2.863000154495239,-0.01490187644958496,0.02611616253852844,1.282639265060425,1,0.3953818380832672,-0.7175861597061157,0.2133204489946365,0.5322007536888123,-0.9324858784675598,-0.1146934181451797,0.342513382434845,0,0,0,-1,169157.040851625,3,1,1561841340.98735,0,0,0,0,0,0,0,0,0,169153.85094,0,-0.1638184,75.19449,0,182478453,5,1,1,-17.93723,-24.43378,0
1561841340.878678,38,0,0,1561841339.998768,4.634471861649895,-74.15112440481236,2552.805,-1,-1,4,30,-9999,1561841340.873241,-1.922508239746094,-0.1041622161865234,26.4716796875,82.573974609375,90.06717681884766,15,169157.171924625,-1.213485717773438,-0.47161865234375,1.227813720703125,169157.171924625,-6.743668762839661,0.1410679092576063,2.412733133818618,169157.147907625,-74.52873229980469,-25.27066040039062,-534.1736450195312,169157.166858625,0.8022847900718343,-1.910176879392849,0.1012853206710609,-6.405850887298584,0.1841638535261154,2.54021692276001,-0.1838352680206299,-0.2240525484085083,1.054163813591003,1,0.3452722132205963,-0.7391789555549622,0.1871771067380905,0.5471436381340027,-0.9381282329559326,-0.1011122316122055,0.3311968445777893,0,0,0,-1,169157.040851625,3,1,1561841340.98735,0,0,0,0,0,0,0,0,0,169153.85094,0,-0.1638184,75.19449,0,182478453,5,1,1,-17.93723,-25.29211,0
1561841340.89812,39,0,0,1561841339.998768,4.634471861649895,-74.15112440481236,2552.805,-1,-1,4,30,-9999,1561841340.896452,-2.057106018066406,-3.625038146972656,26.28131103515625,93.4337158203125,100.9269180297852,15,169157.192188625,-1.544403076171875,-0.8268585205078125,0.8990936279296875,169157.192188625,-7.872768637568338,-1.125239622728607,1.776562272626561,169157.168018625,-74.56033325195312,-28.62547302246094,-534.25,169157.187122625,0.6519423169451048,-1.897435692560381,0.1042028075503543,-7.586447238922119,-0.7151741981506348,1.975168108940125,-0.3651553988456726,-0.5443926453590393,0.7618416547775269,1,0.2886359989643097,-0.7591113448143005,0.1462590098381042,0.5648430585861206,-0.9419887661933899,-0.1040143370628357,0.3191215395927429,0,0,0,-1,169157.040851625,3,1,1561841340.98735,0,0,0,0,0,0,0,0,0,169153.85094,0,-0.1638184,75.19449,0,182478453,5,1,1,-17.93723,-26.25221,0
1561841340.918556,40,0,0,1561841339.998768,4.634471861649895,-74.15112440481236,2552.805,-1,-1,4,30,-9999,1561841340.896452,-2.057106018066406,-3.625038146972656,26.28131103515625,93.4337158203125,100.9269180297852,15,169157.212452625,-2.091018676757812,-1.176345825195312,0.406341552734375,169157.212452625,-9.509416416005406,-2.019110467853854,0.4510931496564556,169157.188129625,-74.4884033203125,-32.76638793945312,-534.5133056640625,169157.207386625,0.4832913399551116,-1.907561149852721,0.1302275622861837,-9.009432792663574,-1.997799515724182,0.8275537490844727,-0.8943939805030823,-0.8910447359085083,0.3464959859848022,1,0.2313168197870255,-0.7812241911888123,0.08663900196552277,0.5733019113540649,-0.9358367323875427,-0.1298597753047943,0.3276374042034149,0,0,0,-1,169157.040851625,3,1,1561841340.98735,0,0,0,0,0,0,0,0,0,169154.79315,0,0.3752441,75.18942,0,182478453,5,1,1,-17.93723,-20.77159,0
1561841340.942313,41,0,0,1561841339.998768,4.634471861649895,-74.15112440481236,2552.805,-1,-1,4,30,-9999,1561841340.923426,-1.490631103515625,-8.029705047607422,25.63555908203125,106.0591354370117,113.5523376464844,15,169157.232715625,-2.427963256835938,-1.201828002929688,-0.132598876953125,169157.232715625,-12.22971615990451,-0.5134705076566185,-1.161494033596183,169157.208240625,-73.56129455566406,-37.57417297363281,-535.68505859375,169157.227619625,0.2869439071511778,-1.911427368940156,0.1982468116084996,-11.48629570007324,-1.100466012954712,-0.7698594927787781,-1.388066530227661,-1.053156018257141,-0.1987694501876831,1,0.1727189123630524,-0.7962018251419067,0.00210462068207562,0.5798501968383789,-0.9240825772285461,-0.1969507783651352,0.3275383412837982,0,0,0,-1,169157.040851625,3,1,1561841340.98735,0,0,0,0,0,0,0,0,0,169154.79315,0,0.3752441,75.18942,0,182478453,5,1,1,-17.93723,-21.29124,0
1561841340.960456,42,0,0,1561841339.998768,4.634471861649895,-74.15112440481236,2552.805,-1,-1,4,30,-9999,1561841340.947841,0.1444931030273438,-18.55743408203125,20.74871826171875,122.0603256225586,129.5535278320312,15,169157.252949625,-2.41046142578125,-0.6943359375,-0.6659393310546875,169157.252949625,-13.80411840681538,2.646033235844503,-2.660036403172248,169157.228321625,-72.630126953125,-42.78152465820312,-538.523193359375,169157.247883625,0.04168755816974756,-1.845175493404529,0.308129200735257,-13.78222465515137,1.815042614936829,-2.282191514968872,-1.543114900588989,-0.6897502541542053,-0.6703588962554932,1,0.1090482398867607,-0.7856224775314331,-0.1098686382174492,0.5990281701087952,-0.9172580242156982,-0.3032764792442322,0.258188396692276,0,0,0,-1,169157.040851625,3,1,1561841340.98735,0,0,0,0,0,0,0,0,0,169154.79315,0,0.3752441,75.18942,0,182478453,5,1,1,-17.93723,-19.6327,0
1561841340.979221,43,0,0,1561841339.998768,4.634471861649895,-74.15112440481236,2552.805,-1,-1,4,30,-9999,1561841340.973675,0.4908828735351562,-24.09987258911133,15.35662841796875,141.2696533203125,148.7628631591797,15,169157.273212625,-1.999526977539062,-0.048583984375,-1.008056640625,169157.273212625,-10.77033690573861,4.261029514619226,-4.158638427556732,169157.248432625,-72.25514221191406,-48.76741027832031,-543.0384521484375,169157.268146625,-0.2274068049617773,-1.683669846482969,0.4222343510698272,-11.93955230712891,4.179485321044922,-3.794484853744507,-1.338242769241333,0.06078532338142395,-0.9494674205780029,1,0.05593449622392654,-0.7404338717460632,-0.229185163974762,0.6293672323226929,-0.9063709378242493,-0.4097996056079865,0.1027419716119766,0,0,0,-1,169157.040851625,3,1,1561841340.98735,0,0,0,0,0,0,0,0,0,169154.79315,0,0.3752441,75.18942,0,182478453,5,1,1,-17.93723,-19.6327,0
1561841340.999453,44,0,0,1561841339.998768,4.634471861649895,-74.15112440481236,2552.805,-1,-1,4,30,-9999,1561841340.998238,1.562461853027344,-27.51171112060547,9.81390380859375,155.6795806884766,163.1727905273438,15,169157.293476625,-1.585205078125,0.3135986328125,-1.04095458984375,169157.293476625,-5.040251807448781,2.832211631858634,-5.562070526174471,169157.268543625,-71.33474731445312,-52.72744750976562,-549.2254638671875,169157.288410625,-0.4369338633710136,-1.5083936295853,0.5194860409541178,-6.423293113708496,3.350424766540527,-5.240993499755859,-0.8911837339401245,0.6677902340888977,-1.034259080886841,1,0.03931548446416855,-0.6865761280059814,-0.3243353366851807,0.6495182514190674,-0.8663846254348755,-0.4964340627193451,-0.0541350245475769,0,0,0,-1,169157.040851625,3,1,1561841340.98735,0,0,0,0,0,0,0,0,0,169154.79315,0,0.3752441,75.18942,0,182478453,5,1,1,-12.195,-15.73804,0
1561841341.019771,45,0,0,1561841339.998768,4.634471861649895,-74.15112440481236,2552.805,-1,-1,4,30,-9999,1561841340.998238,1.562461853027344,-27.51171112060547,9.81390380859375,155.6795806884766,163.1727905273438,15,169157.313740625,-1.279266357421875,0.4766998291015625,-0.8371124267578125,169157.313740625,-2.041523365271853,1.107114947297855,-6.137878977047119,169157.288624625,-70.04502868652344,-54.6934814453125,-553.595947265625,169157.308674625,-0.5513024587662073,-1.400043522795423,0.6263867904046266,-2.381833076477051,1.387185573577881,-6.13874340057373,-0.6406416296958923,0.9945160150527954,-0.786987841129303,1,0.05993235483765602,-0.6538929343223572,-0.3890339434146881,0.6461305618286133,-0.7983689904212952,-0.5862213373184204,-0.1376642882823944,0,0,0,-1,169157.040851625,3,1,1561841340.98735,0,0,0,0,0,0,0,0,0,169154.79315,0,0.3752441,75.18942,0,182478453,5,1,1,-12.195,-16.62817,0
1561841341.04052,46,0,0,1561841339.998768,4.634471861649895,-74.15112440481236,2552.805,-1,-1,4,30,-9999,1561841341.024119,3.542404174804688,-28.9339714050293,6.48004150390625,162.659912109375,170.1531219482422,15,169157.334003625,-0.9788818359375,0.548675537109375,-0.7234649658203125,169157.334003625,-2.705401221812876,1.135108498780113,-5.361993625063434,169157.308735625,-67.03248596191406,-54.73599243164062,-555.046142578125,169157.328937625,-0.6372142308165488,-1.324965877140503,0.7364049123130558,-2.319850921630859,0.961138904094696,-5.645773410797119,-0.4182577133178711,1.188596487045288,-0.5876251459121704,1,0.08976168930530548,-0.6338697671890259,-0.4406769275665283,0.6292502880096436,-0.7186136841773987,-0.6716287136077881,-0.1803039163351059,0,0,0,-1,169157.040851625,3,1,1561841340.98735,0,0,0,0,0,0,0,0,0,169154.79315,0,0.3752441,75.18942,0,182478453,5,1,1,-12.195,-17.13166,0
1561841341.060244,47,0,0,1561841340.998755,4.634448098954404,-74.1511189565753,2552.811,-1,-1,4,30,-9999,1561841341.048481,9.612377166748047,-28.39654159545898,3.993896484375,170.2339630126953,177.7271728515625,15,169157.354267625,-0.6788787841796875,0.6504669189453125,-0.747833251953125,169157.354267625,-4.632963929298603,2.323532151003068,-3.975400161386048,169157.328846625,-63.80516052246094,-54.5748291015625,-556.0203857421875,169157.349201625,-0.7664603944129179,-1.205248592068461,0.8141644322199186,-4.176319122314453,1.996698379516602,-4.336802005767822,-0.1730895638465881,1.311487555503845,-0.4780460596084595,1,0.1079078838229179,-0.6046996712684631,-0.491016685962677,0.6177352070808411,-0.6411194205284119,-0.7271522283554077,-0.245388388633728,0,0,0,-1,169157.040851625,3,1,1561841340.98735,0,0,0,0,0,0,0,0,0,169154.79315,0,0.3752441,75.18942,0,182478453,5,1,1,-12.195,-17.54464,0
1561841341.080487,48,0,0,1561841340.998755,4.634448098954404,-74.1511189565753,2552.811,-1,-1,4,30,-9999,1561841341.074709,11.81122589111328,-27.78607940673828,2.322998046875,182.5717163085938,190.0649261474609,15,169157.374531625,-0.3115997314453125,0.7969207763671875,-0.9295654296875,169157.374531625,-5.599935350553217,3.379290433523725,-2.429490276029615,169157.348926625,-61.24179077148438,-54.13645935058594,-557.618408203125,169157.369434625,-0.9462247256245855,-1.020156302388678,0.8355064881365706,-5.509612083435059,3.132572650909424,-2.841818809509277,0.05630034208297729,1.473005414009094,-0.4598816633224487,1,0.1118301898241043,-0.5585706830024719,-0.5397854447364807,0.6197776794433594,-0.5716506838798523,-0.741636335849762,-0.350985586643219,0,0,0,-1,169157.040851625,3,1,1561841340.98735,0,0,0,0,0,0,0,0,0,169154.79315,0,0.3752441,75.18942,0,182478453,5,1,1,-12.195,-18.17291,0
1561841341.100746,49,0,0,1561841340.998755,4.634448098954404,-74.1511189565753,2552.811,-1,-1,4,30,-9999,1561841341.099002,13.21928787231445,-27.38189315795898,0.025634765625,193.6693115234375,201.1625213623047,15,169157.394764625,0.14422607421875,0.95733642578125,-1.213760375976562,169157.394764625,-4.01454410203636,3.149310228112734,-0.4596389672784109,169157.369037625,-59.67724609375,-53.54664611816406,-559.7350463867188,169157.389698625,-1.109144677249478,-0.8312288311061878,0.8020570265554852,-4.767604351043701,3.402411699295044,-1.027345418930054,0.4493225812911987,1.593207836151123,-0.5980266332626343,1,0.107868529856205,-0.5040664672851562,-0.5775181651115417,0.633051335811615,-0.5136078596115112,-0.7187877297401428,-0.4685627520084381,0,0,0,-1,169157.040851625,3,1,1561841340.98735,0,0,0,0,0,0,0,0,0,169154.79315,0,0.3752441,75.18942,0,182478453,5,1,1,-12.195,-18.64268,0
1561841341.124565,50,0,0,1561841340.998755,4.634448098954404,-74.1511189565753,2552.811,-1,-1,4,30,-9999,1561841341.099002,13.21928787231445,-27.38189315795898,0.025634765625,193.6693115234375,201.1625213623047,15,169157.415027625,0.117095947265625,1.120986938476562,-1.375244140625,169157.415027625,0.6424311539665065,2.271789860500028,1.879841790228706,169157.389148625,-58.94975280761719,-53.26850891113281,-561.626708984375,169157.409961625,-1.164938347983696,-0.7337275637490202,0.7584015216182887,-0.6541813015937805,2.370748281478882,1.339117169380188,0.6977420449256897,1.711703062057495,-0.7895792722702026,1,0.1052733138203621,-0.4683450758457184,-0.5878903865814209,0.6511184573173523,-0.4861178994178772,-0.6877619028091431,-0.5391408205032349,0,0,0,-1,169157.040851625,3,1,1561841340.98735,0,0,0,0,0,0,0,0,0,169154.79315,0,0.3752441,75.18942,0,182478453,5,1,1,-12.195,-15.9883,0
1561841341.141471,51,0,0,1561841340.998755,4.634448098954404,-74.1511189565753,2552.811,-1,-1,4,30,-9999,1561841341.125278,12.97098541259766,-27.31452941894531,-1.0894775390625,194.3936920166016,201.8869018554688,15,169157.435291625,-0.2561798095703125,1.18017578125,-1.243209838867188,169157.435291625,5.411573695077439,2.614924584835178,3.279147320737367,169157.409260625,-59.36135864257812,-53.22489929199219,-562.1431884765625,169157.430225625,-1.08240438369932,-0.7432902436162425,0.7563060443622091,4.370447635650635,2.452421426773071,3.024100780487061,0.461173802614212,1.864828109741211,-0.8258311152458191,1,0.1209740042686462,-0.4664777815341949,-0.5609996318817139,0.6730847358703613,-0.4922254085540771,-0.6862392425537109,-0.5355275273323059,0,0,0,-1,169157.040851625,3,1,1561841340.98735,0,0,0,0,0,0,0,0,0,169154.79315,0,0.3752441,75.18942,0,182478453,5,1,1,-12.195,-15.9883,0
1561841341.161603,52,0,0,1561841340.998755,4.634448098954404,-74.1511189565753,2552.811,-1,-1,4,30,-9999,1561841341.149808,11.20358276367188,-28.01942443847656,1.37994384765625,183.6943054199219,191.1875152587891,15,169157.455555625,-1.00115966796875,1.136566162109375,-0.6837310791015625,169157.455555625,8.012289516548718,3.289430850970599,3.783600098626868,169157.429340625,-60.80183410644531,-54.18087768554688,-560.2698974609375,169157.450489625,-0.8894646039217249,-0.8220283558131887,0.7961824829662393,7.589982986450195,3.128335952758789,3.722580909729004,-0.11334228515625,1.885421752929688,-0.5272375345230103,1,0.1623580306768417,-0.4853581488132477,-0.5033650398254395,0.6961975693702698,-0.512359619140625,-0.714691162109375,-0.4761346876621246,0,0,0,-1,169157.040851625,3,1,1561841340.98735,0,0,0,0,0,0,0,0,0,169154.79315,0,0.3752441,75.18942,0,182478453,5,1,1,-12.195,-16.28811,0
1561841341.181785,53,0,0,1561841340.998755,4.634448098954404,-74.1511189565753,2552.811,-1,-1,4,30,-9999,1561841341.176088,8.878314971923828,-28.18267822265625,5.62762451171875,165.7195281982422,173.2127380371094,15,169157.475818625,-1.5643310546875,0.997650146484375,0.0530548095703125,169157.475818625,8.974661125968547,3.579287173485951,3.864021438276754,169157.449451625,-63.04350280761719,-54.32916259765625,-556.4622802734375,169157.470752625,-0.6274367730717395,-0.9451997528847671,0.84302376290176,8.772884368896484,3.563478708267212,3.873671770095825,-0.7580599188804626,1.830825448036194,0.06267476081848145,1,0.2183345407247543,-0.5075070261955261,-0.4278730750083923,0.7153260707855225,-0.5392270684242249,-0.7466579675674438,-0.3895332813262939,0,0,0,-1,169157.040851625,3,1,1561841340.98735,0,0,0,0,0,0,0,0,0,169154.79315,0,0.3752441,75.18942,0,182478453,5,1,1,-12.195,-16.40836,0
1561841341.202116,54,0,0,1561841340.998755,4.634448098954404,-74.1511189565753,2552.811,-1,-1,4,30,-9999,1561841341.200669,6.032691955566406,-26.9193229675293,10.39068603515625,143.5528717041016,151.0460815429688,15,169157.496082625,-1.92608642578125,0.670501708984375,0.829620361328125,169157.496082625,10.34722665492005,3.279934817471703,3.484562528253468,169157.469562625,-65.63922119140625,-53.59703063964844,-551.4395141601562,169157.490986625,-0.3206619103765125,-1.106663809599922,0.8747844319093816,9.899516105651855,3.400674819946289,3.648609161376953,-1.201156377792358,1.625101804733276,0.7289396524429321,1,0.2797503173351288,-0.5274774432182312,-0.3427820801734924,0.7252640128135681,-0.5733340382575989,-0.7674053311347961,-0.2870146036148071,0,0,0,-1,169157.040851625,3,1,1561841340.98735,0,0,0,0,0,0,0,0,0,169154.79315,0,0.3752441,75.18942,0,182478453,5,1,1,-8.711235,-12.49809,0
1561841341.225002,55,0,0,1561841340.998755,4.634448098954404,-74.1511189565753,2552.811,-1,-1,4,30,-9999,1561841341.200669,6.032691955566406,-26.9193229675293,10.39068603515625,143.5528717041016,151.0460815429688,15,169157.516315625,-2.002395629882812,0.3365936279296875,1.515823364257812,169157.516315625,12.03977738043119,1.628189312498867,2.346939739088211,169157.489673625,-68.62882995605469,-51.68829345703125,-546.8765869140625,169157.511249625,0.03990167135632167,-1.326070083631253,0.8908655446710187,11.75473594665527,2.174838304519653,2.635274171829224,-1.40784740447998,1.264585256576538,1.34983229637146,1,0.3505770564079285,-0.5485680103302002,-0.250950813293457,0.7163746953010559,-0.610005259513855,-0.7776162624359131,-0.1523377299308777,0,0,0,-1,169157.040851625,3,1,1561841340.98735,0,0,0,0,0,0,0,0,0,169154.79315,0,0.3752441,75.18942,0,182478453,5,1,1,-8.711235,-12.92337,0
1561841341.242618,56,0,0,1561841340.998755,4.634448098954404,-74.1511189565753,2552.811,-1,-1,4,30,-9999,1561841341.226727,1.411209106445312,-19.98127365112305,19.56439208984375,116.692138671875,124.1853408813477,15,169157.536579625,-1.7286376953125,0.2618255615234375,1.7547607421875,169157.536579625,11.45886418238108,0.2856650395917855,1.739175485663483,169157.509784625,-70.95585632324219,-47.66366577148438,-542.1762084960938,169157.531513625,0.4283908790493887,-1.604192615120375,0.8736257545938546,11.73755931854248,0.3199584186077118,1.802959561347961,-1.265121698379517,1.0402672290802,1.668457508087158,1,0.4258323311805725,-0.5739215016365051,-0.1632504165172577,0.6801691651344299,-0.6416928172111511,-0.7666618824005127,0.02143812924623489,0,0,0,-1,169157.040851625,3,1,1561841340.98735,0,0,0,0,0,0,0,0,0,169154.79315,0,0.3752441,75.18942,0,182478453,5,1,1,-8.711235,-13.36273,0
1561841341.262837,57,0,0,1561841340.998755,4.634448098954404,-74.1511189565753,2552.811,-1,-1,4,30,-9999,1561841341.251083,0.3112716674804688,-14.59091949462891,22.93914794921875,90.91786956787109,98.41107177734375,15,169157.556843625,-1.500198364257812,0.263763427734375,2.2030029296875,169157.556843625,10.0677417469539,1.115584864828743,1.505523580057599,169157.529865625,-72.20564270019531,-42.37413024902344,-538.3304443359375,169157.551777625,0.7564573371685127,-1.839230728368145,0.8046845507638309,10.54241371154785,0.9077976942062378,1.57595419883728,-0.9333900809288025,0.9834293723106384,1.769694089889526,1,0.4908241033554077,-0.5924829840660095,-0.08347947895526886,0.6333140730857849,-0.6685081720352173,-0.7206119894981384,0.183888778090477,0,0,0,-1,169157.040851625,3,1,1561841340.98735,0,0,0,0,0,0,0,0,0,169154.79315,0,0.3752441,75.18942,0,182478453,5,1,1,-8.711235,-14.12958,0
1561841341.283832,58,0,0,1561841340.998755,4.634448098954404,-74.1511189565753,2552.811,-1,-1,4,30,-9999,1561841341.277786,-0.6532745361328125,-8.819179534912109,24.79827880859375,72.84165954589844,80.33486175537109,15,169157.577106625,-1.146087646484375,0.307861328125,2.3060302734375,169157.577106625,7.215553743758583,1.284600785513967,1.496870969675932,169157.549976625,-72.88438415527344,-36.7283935546875,-535.8961791992188,169157.572040625,0.9908885030728523,-1.977282465331571,0.7126126952529475,8.054682731628418,1.276663899421692,1.449683785438538,-0.6162938475608826,0.9361310601234436,2.004983425140381,1,0.5408952236175537,-0.5975092649459839,-0.01134318765252829,0.5918499231338501,-0.6950006484985352,-0.6538128852844238,0.2991699278354645,0,0,0,-1,169157.040851625,3,1,1561841340.98735,0,0,0,0,0,0,0,0,0,169154.79315,0,0.3752441,75.18942,0,182478453,5,1,1,-8.711235,-14.12958,0
1561841341.303499,59,0,0,1561841340.998755,4.634448098954404,-74.1511189565753,2552.811,-1,-1,4,30,-9999,1561841341.301692,-1.633888244628906,-4.224452972412109,25.7279052734375,63.92253494262695,71.41574096679688,15,169157.597370625,-0.8709259033203125,0.3821563720703125,2.156753540039062,169157.597370625,3.812856254781934,1.613952319627413,1.822172634719694,169157.570087625,-73.82453918457031,-31.39402770996094,-534.8110961914062,169157.592304625,1.121704790328601,-2.032125133872121,0.629685047987703,4.545735836029053,1.453737139701843,1.728280901908875,-0.2516636848449707,0.9285508394241333,1.887852907180786,1,0.5680376887321472,-0.5976759195327759,0.04349048808217049,0.5641145706176758,-0.7237238883972168,-0.5888902544975281,0.3597666323184967,0,0,0,-1,169157.040851625,3,1,1561841340.98735,0,0,0,0,0,0,0,0,0,169154.79315,0,0.3752441,75.18942,0,182478453,5,1,1,-8.711235,-15.06594,0
1561841341.324783,60,0,0,1561841340.998755,4.634448098954404,-74.1511189565753,2552.811,-1,-1,4,30,-9999,1561841341.301692,-1.633888244628906,-4.224452972412109,25.7279052734375,63.92253494262695,71.41574096679688,15,169157.617634625,-0.760650634765625,0.4234771728515625,2.109039306640625,169157.617634625,1.860858511662512,1.785048701756207,2.392532524318149,169157.590168625,-74.71498107910156,-28.02072143554688,-534.4213256835938,169157.612568625,1.172343606897129,-2.025430682459156,0.564873718515375,2.224644660949707,1.910261631011963,2.216126918792725,-0.06134825944900513,0.9521487951278687,1.763848543167114,1,0.5736013650894165,-0.597025990486145,0.08438742905855179,0.5544548630714417,-0.7588574290275574,-0.5353091359138489,0.3709171116352081,0,0,0,-1,169157.040851625,3,1,1561841340.98735,0,0,0,0,0,0,0,0,0,169154.79315,0,0.3752441,75.18942,0,182478453,5,1,1,-8.711235,-16.1263,0
1561841341.345095,61,0,0,1561841340.998755,4.634448098954404,-74.1511189565753,2552.811,-1,-1,4,30,-9999,1561841341.328069,-3.490219116210938,0.59173583984375,25.61669921875,61.43213272094727,68.92533874511719,15,169157.637897625,-0.710052490234375,0.3537445068359375,1.956085205078125,169157.637897625,1.094788506192423,0.4742381500581162,3.241294746899634,169157.610279625,-75.94039916992188,-25.85783386230469,-534.8228149414062,169157.632801625,1.181223911583075,-2.000611316719053,0.5031530304902033,1.227779269218445,0.7924298048019409,3.018284797668457,0.07767796516418457,0.8821993470191956,1.675239205360413,1,0.5655887722969055,-0.602195143699646,0.1172492876648903,0.5511107444763184,-0.7963821887969971,-0.4821901917457581,0.3650592863559723,0,0,0,-1,169157.040851625,3,1,1561841340.98735,0,0,0,0,0,0,0,0,0,169154.79315,0,0.3752441,75.18942,0,182478453,5,1,1,-8.711235,-17.21538,0
1561841341.364166,62,0,0,1561841340.998755,4.634448098954404,-74.1511189565753,2552.811,-1,-1,4,30,-9999,1561841341.352469,-3.868476867675781,1.911369323730469,25.50567626953125,61.69527816772461,69.18848419189453,15,169157.658130625,-0.7542724609375,0.230743408203125,1.699539184570312,169157.658130625,0.7722735729133198,-0.2860203052812021,3.736919145775523,169157.630390625,-76.55052185058594,-24.50663757324219,-534.7381591796875,169157.653064625,1.170201694843599,-1.990706245249144,0.4320279226847891,0.8247058987617493,-0.1713971793651581,3.679044485092163,0.1246670484542847,0.7108122706413269,1.455600738525391,1,0.5498117804527283,-0.618722140789032,0.1436639875173569,0.5424487590789795,-0.8292264342308044,-0.418713241815567,0.3702201545238495,0,0,0,-1,169157.040851625,3,1,1561841340.98735,0,0,0,0,0,0,0,0,0,169154.79315,0,0.3752441,75.18942,0,182478453,5,1,1,-8.711235,-18.26599,0
1561841341.384381,63,0,0,1561841340.998755,4.634448098954404,-74.1511189565753,2552.811,-1,-1,4,30,-9999,1561841341.37867,-3.614990234375,2.719158172607422,25.5364990234375,62.97668838500977,70.46989440917969,15,169157.678394625,-0.7967987060546875,0.1070709228515625,1.475982666015625,169157.678394625,0.5293884878081311,-0.5488468743127951,3.932235912754153,169157.650501625,-76.17060852050781,-23.65370178222656,-534.8033447265625,169157.673328625,1.150993415061436,-1.990834970719099,0.3562245645891127,0.6187511086463928,-0.5186089873313904,3.862672567367554,0.0698925256729126,0.5160051584243774,1.200111508369446,1,0.5302751064300537,-0.6402386426925659,0.1667692512273788,0.530180037021637,-0.8557506799697876,-0.3487383127212524,0.3821944296360016,0,0,0,-1,169157.040851625,3,1,1561841340.98735,0,0,0,0,0,0,0,0,0,169154.79315,0,0.3752441,75.18942,0,182478453,5,1,1,-8.711235,-19.10683,0
1561841341.407228,64,0,0,1561841340.998755,4.634448098954404,-74.1511189565753,2552.811,-1,-1,4,30,-9999,1561841341.403002,-2.699455261230469,3.609230041503906,25.49798583984375,65.12413024902344,72.61733245849609,15,169157.698658625,-0.8383026123046875,-0.0714569091796875,1.342575073242188,169157.698658625,-0.4147628386978126,-0.6940623906520907,4.27225207545282,169157.670582625,-75.43490600585938,-22.95506286621094,-535.0492553710938,169157.693592625,1.122439468045503,-1.993673589290415,0.2791367824617357,-0.1043495759367943,-0.6392120718955994,4.192355632781982,0.07528465986251831,0.2986124753952026,0.9991295337677002,1,0.5065371990203857,-0.6638303995132446,0.1872610002756119,0.5173805952072144,-0.8766152858734131,-0.2755259573459625,0.3945014774799347,0,0,0,-1,169157.040851625,3,1,1561841340.98735,0,0,0,0,0,0,0,0,0,169154.79315,0,0.3752441,75.18942,0,182478453,5,1,1,-8.711235,-19.85058,0
1561841341.439229,65,0,0,1561841340.998755,4.634448098954404,-74.1511189565753,2552.811,-1,-1,4,30,-9999,1561841341.429282,-0.7731246948242188,3.561983108520508,26.0570068359375,69.47095489501953,76.96415710449219,15,169157.718921625,-1.055038452148438,-0.285675048828125,1.256256103515625,169157.718921625,-1.84562230075006,-1.080785072548568,4.489182525206314,169157.690693625,-74.68952941894531,-21.96980285644531,-534.9794921875,169157.713856625,1.070644573565433,-1.997407473867991,0.2056219549139165,-1.480230689048767,-0.9743634462356567,4.442963600158691,-0.03527235984802246,0.03382694721221924,0.9038581848144531,1,0.4744174182415009,-0.6909875273704529,0.2004991322755814,0.5072124600410461,-0.89119553565979,-0.204176053404808,0.4050712883472443,0,0,0,-1,169157.040851625,3,1,1561841340.98735,0,0,0,0,0,0,0,0,0,169154.79315,0,0.3752441,75.18942,0,182478453,5,1,1,-8.711235,-20.81578,0
1561841341.445114,66,0,0,1561841340.998755,4.634448098954404,-74.1511189565753,2552.811,-1,-1,4,30,-9999,1561841341.429282,-0.7731246948242188,3.561983108520508,26.0570068359375,69.47095489501953,76.96415710449219,15,169157.739199,-1.278045654296875,-0.54693603515625,1.092010498046875,169157.739199,-2.995155811574587,-1.411974986762495,4.395079728088365,169157.710804625,-73.881591796875,-22.07029724121094,-534.5612182617188,169157.734133,0.9915506656072405,-2.007938565748547,0.1412709496431999,-2.768285751342773,-1.357985615730286,4.463993072509766,-0.2901787161827087,-0.2686375975608826,0.7492613792419434,1,0.4336496591567993,-0.7221601605415344,0.2024306803941727,0.4994541704654694,-0.8969398140907288,-0.1408015191555023,0.419134646654129,0,0,0,-1,169157.040851625,3,1,1561841340.98735,0,0,0,0,0,0,0,0,0,169154.79315,0,0.3752441,75.18942,0,182478453,5,1,1,-8.711235,-20.81578,0
1561841341.465413,67,0,0,1561841340.998755,4.634448098954404,-74.1511189565753,2552.811,-1,-1,4,30,-9999,1561841341.453613,0.4784393310546875,2.379829406738281,26.13800048828125,75.91970825195312,83.41291046142578,15,169157.759463,-1.448379516601562,-0.8110198974609375,0.95281982421875,169157.759463,-3.917536062485242,-1.784346159860644,4.181186347241996,169157.730929,-72.54232788085938,-23.15434265136719,-534.4055786132812,169157.754366,0.8947540364946721,-2.027067690287534,0.09029854045022132,-3.645942687988281,-1.661391615867615,4.207601547241211,-0.4497058391571045,-0.5896031856536865,0.6007571220397949,1,0.3882985711097717,-0.7540746927261353,0.1940193176269531,0.492901623249054,-0.8940441012382507,-0.09017587453126907,0.4388088583946228,0,0,0,-1,169157.040851625,3,1,1561841340.98735,0,0,0,0,0,0,0,0,0,169154.79315,0,0.3752441,75.18942,0,182478453,5,1,1,-8.711235,-21.55949,0
1561841341.485899,68,0,0,1561841340.998755,4.634448098954404,-74.1511189565753,2552.811,-1,-1,4,30,-9999,1561841341.480386,1.900222778320312,0.06667709350585938,26.3760986328125,83.90982055664062,91.40302276611328,15,169157.779696,-1.76507568359375,-1.096527099609375,0.672393798828125,169157.779696,-5.543468878592485,-1.902775868272032,3.8383754632954,169157.751009,-71.2027587890625,-25.33868408203125,-533.9442138671875,169157.77463,0.7793548207367955,-2.056806464715395,0.05497412528152754,-5.036301136016846,-1.970122575759888,3.997786045074463,-0.7106989622116089,-0.8962864875793457,0.3491860628128052,1,0.338366836309433,-0.7865786552429199,0.1742459088563919,0.4862513542175293,-0.8828679323196411,-0.05494644120335579,0.4663961827754974,0,0,0,-1,169157.040851625,3,1,1561841340.98735,0,0,0,0,0,0,0,0,0,169154.79315,0,0.3752441,75.18942,0,182478453,5,1,1,-8.711235,-22.62264,0
1561841341.529412,69,0,0,1561841340.998755,4.634448098954404,-74.1511189565753,2552.811,-1,-1,4,30,-9999,1561841341.507548,3.234970092773438,-2.718887329101562,26.37469482421875,94.38452911376953,101.8777313232422,15,169157.79996,-2.080078125,-1.233963012695312,0.3553619384765625,169157.79996,-7.926861700365591,-1.188452680678836,2.661667056707704,169157.77112,-69.90861511230469,-27.76200866699219,-534.1196899414062,169157.794894,0.6354042254890253,-2.085370973993935,0.05159149905615904,-7.337393760681152,-1.441309332847595,2.993712425231934,-1.083109617233276,-1.147039771080017,0.03687155246734619,1,0.2820822894573212,-0.8162012696266174,0.1361950039863586,0.4854854345321655,-0.8693440556526184,-0.05156861618161201,0.4915098547935486,0,0,0,-1,169157.040851625,3,1,1561841340.98735,0,0,0,0,0,0,0,0,0,169154.79315,0,0.3752441,75.18942,0,182478453,5,1,1,-8.711235,-24.20887,0
1561841341.532458,70,0,0,1561841340.998755,4.634448098954404,-74.1511189565753,2552.811,-1,-1,4,30,-9999,1561841341.531153,3.709419250488281,-11.58507537841797,24.3687744140625,106.9381408691406,114.4313430786133,15,169157.820223,-2.086090087890625,-1.048370361328125,-0.020233154296875,169157.820223,-9.307327230374705,-0.3738356453815839,1.32488269489807,169157.791232,-68.63316345214844,-31.54261779785156,-534.3685302734375,169157.815157,0.4640629075275151,-2.092436542476177,0.09535967226543607,-9.19452953338623,-0.4992898404598236,1.650950908660889,-1.251941442489624,-1.096908211708069,-0.3279482126235962,1,0.2220395505428314,-0.8358935117721558,0.07489416748285294,0.4963582158088684,-0.863064169883728,-0.09521521627902985,0.4960390627384186,0,0,0,-1,169157.040851625,3,1,1561841340.98735,0,0,0,0,0,0,0,0,0,169154.79315,0,0.3752441,75.18942,0,182478453,5,1,1,-8.711235,-24.20887,0
1561841341.54632,71,0,0,1561841340.998755,4.634448098954404,-74.1511189565753,2552.811,-1,-1,4,30,-9999,1561841341.531153,3.709419250488281,-11.58507537841797,24.3687744140625,106.9381408691406,114.4313430786133,15,169157.840487,-1.919281005859375,-0.7321319580078125,-0.35284423828125,169157.840487,-8.454308211106836,-0.2199006733172598,-0.03036030274301232,169157.811312,-68.63838195800781,-36.12185668945312,-535.448486328125,169157.835421,0.2911031093741088,-2.076844024967994,0.16944343589808,-8.799713134765625,-0.267524778842926,0.3158339858055115,-1.155178070068359,-0.7092348337173462,-0.6727132797241211,1,0.1670148074626923,-0.8432064652442932,0.00121612218208611,0.5109866261482239,-0.8621406555175781,-0.1686337888240814,0.4777821898460388,0,0,0,-1,169157.040851625,3,1,1561841340.98735,0,0,0,0,0,0,0,0,0,169154.79315,0,0.3752441,75.18942,0,182478453,5,1,1,-8.711235,-15.84187,0
1561841341.566518,72,0,0,1561841340.998755,4.634448098954404,-74.1511189565753,2552.811,-1,-1,4,30,-9999,1561841341.555726,3.893630981445312,-16.23423004150391,22.0311279296875,118.2445678710938,125.7377700805664,15,169157.860751,-1.727081298828125,-0.4680328369140625,-0.507720947265625,169157.860751,-7.020326991624799,0.4744448113587064,-1.493410990787701,169157.851534,-68.61697387695312,-45.01516723632812,-539.925537109375,169157.855685,0.1474369254141147,-2.048779787559833,0.2542428636518959,-7.361987590789795,0.2283390313386917,-1.133056163787842,-0.9695069193840027,-0.3487680852413177,-0.9067658185958862,1,0.1281182467937469,-0.8403493762016296,-0.07006362080574036,0.5220054388046265,-0.8593810200691223,-0.2515126764774323,0.4452027082443237,0,0,0,-1,169157.040851625,3,1,1561841340.98735,0,0,0,0,0,0,0,0,0,169154.79315,0,0.3752441,75.18942,0,182478453,5,1,1,-8.711235,-16.0307,0
1561841341.593521,73,0,0,1561841340.998755,4.634448098954404,-74.1511189565753,2552.811,-1,-1,4,30,-9999,1561841341.581103,4.267082214355469,-19.75102996826172,19.50189208984375,126.5484237670898,134.0416259765625,15,169157.881014,-1.468856811523438,-0.235443115234375,-0.5096588134765625,169157.881014,-5.681533541088809,1.359165833926769,-2.683995798235255,169157.871645,-67.91499328613281,-47.786376953125,-543.017578125,169157.875918,0.03749146767415836,-2.002015333383275,0.3470916476366213,-5.996347427368164,1.177890419960022,-2.453991413116455,-0.7451291680335999,-0.002105563879013062,-0.9179399013519287,1,0.1086805835366249,-0.8274750113487244,-0.135410264134407,0.5339827537536621,-0.8542818427085876,-0.3401643335819244,0.393052726984024,0,0,0,-1,169157.040851625,3,1,1561841340.98735,0,0,0,0,0,0,0,0,0,169154.79315,0,0.3752441,75.18942,0,182478453,5,1,1,-8.711235,-16.65275,0
1561841341.607505,74,0,0,1561841340.998755,4.634448098954404,-74.1511189565753,2552.811,-1,-1,4,30,-9999,1561841341.581103,4.267082214355469,-19.75102996826172,19.50189208984375,126.5484237670898,134.0416259765625,15,169157.901247,-1.247650146484375,-0.053009033203125,-0.4294891357421875,169157.901247,-4.807163426729558,1.7245946786953,-3.150720371909931,169157.891726,-67.66163635253906,-49.78352355957031,-545.0275268554688,169157.896182,-0.04798595598061201,-1.939607751106092,0.4430252650000856,-4.961681365966797,1.655849575996399,-3.09697151184082,-0.5121663808822632,0.2861270010471344,-0.7975661754608154,1,0.104895792901516,-0.8073713779449463,-0.1943897753953934,0.5471389293670654,-0.8427072763442993,-0.4286746382713318,0.325703352689743,0,0,0,-1,169157.040851625,3,1,1561841340.98735,0,0,0,0,0,0,0,0,0,169154.79315,0,0.3752441,75.18942,0,182478453,5,1,1,-8.711235,-16.65275,0
1561841341.627243,75,0,0,1561841340.998755,4.634448098954404,-74.1511189565753,2552.811,-1,-1,4,30,-9999,1561841341.60668,4.826705932617188,-22.42817306518555,17.1824951171875,132.6323394775391,140.1255493164062,15,169157.921511,-1.0841064453125,0.06494140625,-0.33221435546875,169157.921511,-4.596695936309468,2.022001329217136,-3.172299433590625,169157.911837,-66.40559387207031,-51.46504211425781,-547.0047607421875,169157.916445,-0.1266665152856481,-1.866381020291266,0.5350433334708597,-4.586920261383057,1.930081367492676,-3.190712451934814,-0.3290228843688965,0.5173398852348328,-0.631845235824585,1,0.1079935804009438,-0.7833466529846191,-0.2483143955469131,0.5595046281814575,-0.8229394555091858,-0.5098783373832703,0.2505891919136047,0,0,0,-1,169157.040851625,3,1,1561841340.98735,0,0,0,0,0,0,0,0,0,169154.79315,0,0.3752441,75.18942,0,182478453,5,1,1,-8.711235,-17.54386,0
1561841341.647456,76,0,0,1561841340.998755,4.634448098954404,-74.1511189565753,2552.811,-1,-1,4,30,-9999,1561841341.632143,6.435577392578125,-25.52671432495117,13.0345458984375,138.4445037841797,145.9377136230469,15,169157.941775,-0.9640960693359375,0.115966796875,-0.295440673828125,169157.941775,-4.89928163620318,2.436583605593041,-3.050637446564208,169157.931948,-65.58004760742188,-52.22064208984375,-548.994384765625,169157.936709,-0.2169409292333751,-1.773893290285293,0.6202312196340459,-4.793681621551514,2.331936597824097,-3.087052345275879,-0.2296229004859924,0.6847999691963196,-0.467235803604126,1,0.1117541566491127,-0.7547042965888977,-0.3002929389476776,0.5725003480911255,-0.7970190048217773,-0.5812233090400696,0.1641351282596588,0,0,0,-1,169157.040851625,3,1,1561841340.98735,0,0,0,0,0,0,0,0,0,169154.79315,0,0.3752441,75.18942,0,182478453,5,1,1,-8.711235,-18.15869,0
1561841341.677156,77,0,0,1561841340.998755,4.634448098954404,-74.1511189565753,2552.811,-1,-1,4,30,-9999,1561841341.656527,7.118423461914062,-26.21672439575195,11.08270263671875,145.9098663330078,153.403076171875,15,169157.962038,-0.8353729248046875,0.1284637451171875,-0.313690185546875,169157.962038,-5.351600905225508,2.780676268972293,-2.951318848451338,169157.952029,-64.70755004882812,-52.799560546875,-550.8810424804688,169157.956973,-0.3333183324639781,-1.651200902828662,0.6954682048720107,-5.261314868927002,2.723482370376587,-2.980446815490723,-0.1417702436447144,0.7649973034858704,-0.3673285245895386,1,0.1132551953196526,-0.7197259664535522,-0.352738231420517,0.5871485471725464,-0.7652732133865356,-0.6407449841499329,0.06166441366076469,0,0,0,-1,169157.040851625,3,1,1561841340.98735,0,0,0,0,0,0,0,0,0,169154.79315,0,0.3752441,75.18942,0,182478453,5,1,1,-8.711235,-19.09107,0
1561841341.689943,78,0,0,1561841340.998755,4.634448098954404,-74.1511189565753,2552.811,-1,-1,4,30,-9999,1561841341.682487,8.238067626953125,-27.00830078125,8.8260498046875,155.9529113769531,163.4461212158203,15,169157.982302,-0.735870361328125,0.1874237060546875,-0.3903045654296875,169157.982302,-5.265904642404503,2.858138570334992,-2.640272818406661,169157.97214,-63.62576293945312,-53.44639587402344,-553.3004760742188,169157.977236,-0.4783674040291688,-1.498255086037679,0.7546454793111319,-5.360380172729492,2.821808576583862,-2.755040645599365,-0.04072034358978271,0.8302178382873535,-0.2862492799758911,1,0.1121302992105484,-0.6789891719818115,-0.4050411283969879,0.601948618888855,-0.7265984416007996,-0.685030460357666,-0.05280100181698799,0,0,0,-1,169157.040851625,3,1,1561841340.98735,0,0,0,0,0,0,0,0,0,169154.79315,0,0.3752441,75.18942,0,182478453,5,1,1,-8.711235,-20.08086,0
1561841341.708495,79,0,0,1561841340.998755,4.634448098954404,-74.1511189565753,2552.811,-1,-1,4,30,-9999,1561841341.707037,9.164737701416016,-27.70661544799805,6.6220703125,166.8400726318359,174.3332824707031,15,169158.002566,-0.65765380859375,0.3096923828125,-0.50384521484375,169158.002566,-4.631702656206341,3.000440055809523,-1.947878898177505,169157.992251,-62.96894836425781,-54.07159423828125,-555.5205078125,169157.9975,-0.6320650319910519,-1.332112443173705,0.7884354047496672,-4.807022094726562,2.975497722625732,-2.149604082107544,-0.02965986728668213,0.9649121761322021,-0.2693209052085876,1,0.1097282245755196,-0.6361017823219299,-0.4511954188346863,0.6162441372871399,-0.6849702596664429,-0.7092511653900146,-0.1666684746742249,0,0,0,-1,169157.040851625,3,1,1561841340.98735,0,0,0,0,0,0,0,0,0,169154.79315,0,0.3752441,75.18942,0,182478453,5,1,1,-8.711235,-19.77222,0
1561841341.728889,80,0,0,1561841340.998755,4.634448098954404,-74.1511189565753,2552.811,-1,-1,4,30,-9999,1561841341.707037,9.164737701416016,-27.70661544799805,6.6220703125,166.8400726318359,174.3332824707031,15,169158.022829,-0.46759033203125,0.320709228515625,-0.71807861328125,169158.022829,-4.09397634365739,3.23171003013644,-1.017561361953978,169158.012331,-62.38322448730469,-54.2415771484375,-557.144287109375,169158.017733,-0.7698777097972558,-1.172215584718089,0.7933218212966265,-4.190544605255127,3.169381380081177,-1.261612057685852,0.08014941215515137,1.044367671012878,-0.3375343084335327,1,0.1067347228527069,-0.5937014222145081,-0.4865975677967072,0.6319408416748047,-0.6464946269989014,-0.7126873731613159,-0.2722526490688324,0,0,0,-1,169157.040851625,3,1,1561841340.98735,0,0,0,0,0,0,0,0,0,169154.79315,0,0.3752441,75.18942,0,182478453,5,1,1,-8.711235,-16.96422,0
1561841341.761355,81,0,0,1561841340.998755,4.634448098954404,-74.1511189565753,2552.811,-1,-1,4,30,-9999,1561841341.757635,10.33962249755859,-28.68814849853516,1.25927734375,182.05126953125,189.5444793701172,15,169158.043063,-0.2366790771484375,0.29547119140625,-1.06475830078125,169158.043063,-3.339784302965163,2.89366460664443,0.164753265044444,169158.032443,-62.22979736328125,-54.62393188476562,-558.7379760742188,169158.037997,-0.8809323959991303,-1.029338535986387,0.7706725524735153,-3.671525478363037,3.033364057540894,-0.2157510668039322,0.2744402885437012,0.9914482235908508,-0.4981297850608826,1,0.1014652475714684,-0.5521095991134644,-0.5112759470939636,0.6507508754730225,-0.6148181557655334,-0.6966179013252258,-0.36975958943367,0,0,0,-1,169157.040851625,3,1,1561841340.98735,0,0,0,0,0,0,0,0,0,169154.79315,0,0.3752441,75.18942,0,182478453,5,1,1,-8.711235,-11.85999,0
1561841341.769254,82,0,0,1561841340.998755,4.634448098954404,-74.1511189565753,2552.811,-1,-1,4,30,-9999,1561841341.757635,10.33962249755859,-28.68814849853516,1.25927734375,182.05126953125,189.5444793701172,15,169158.063326,-0.3387451171875,0.4589385986328125,-1.47552490234375,169158.063326,-0.3454687187144959,3.360389979267433,2.409421759319214,169158.052554,-62.49348449707031,-54.8209228515625,-559.656005859375,169158.05826,-0.9331940560691641,-0.9357991674059946,0.7288047033831175,-1.350106239318848,2.916481256484985,1.766429543495178,0.3563598394393921,1.033822059631348,-0.8391093611717224,1,0.09451763331890106,-0.519442617893219,-0.5186898112297058,0.6724632382392883,-0.6005614399909973,-0.6659784317016602,-0.4424915611743927,0,0,0,-1,169157.040851625,3,1,1561841340.98735,0,0,0,0,0,0,0,0,0,169154.79315,0,0.3752441,75.18942,0,182478453,5,1,1,-8.711235,-11.85999,0
1561841341.790608,83,0,0,1561841340.998755,4.634448098954404,-74.1511189565753,2552.811,-1,-1,4,30,-9999,1561841341.784413,9.431461334228516,-28.88602828979492,0.773681640625,178.9686126708984,186.4618225097656,15,169158.08359,-0.7521820068359375,0.589752197265625,-1.390625,169158.08359,4.3233450872821,6.93940737453496,4.626641584870755,169158.072634,-64.41722106933594,-55.47904968261719,-559.0288696289062,169158.078524,-0.8670963795603396,-0.8934401610656365,0.6908199871684467,3.149906158447266,5.956404209136963,4.189146518707275,0.08593982458114624,1.180778980255127,-1.033180475234985,1,0.1063402742147446,-0.4971638917922974,-0.4892299771308899,0.7086422443389893,-0.600572943687439,-0.637169361114502,-0.4830396175384521,0,0,0,-1,169157.040851625,3,1,1561841340.98735,0,0,0,0,0,0,0,0,0,169154.79315,0,0.3752441,75.18942,0,182478453,5,1,1,-8.711235,-12.91063,0
1561841341.809889,84,0,0,1561841340.998755,4.634448098954404,-74.1511189565753,2552.811,-1,-1,4,30,-9999,1561841341.808134,7.202232360839844,-29.27276611328125,2.31756591796875,165.1654663085938,172.6586761474609,15,169158.103854,-1.5858154296875,0.449737548828125,-0.6277313232421875,169158.103854,8.13459146118508,8.540614337817471,4.808911525669085,169158.092745,-67.9755859375,-55.43980407714844,-556.03369140625,169158.098788,-0.6792999035809668,-0.8602267486907149,0.6857732157925033,7.340029239654541,8.438764572143555,4.99734354019165,-0.533989429473877,1.18704354763031,-0.5862568020820618,1,0.1572960466146469,-0.4720742702484131,-0.4173660278320312,0.7604008316993713,-0.5866312980651855,-0.6332716345787048,-0.5048076510429382,0,0,0,-1,169157.040851625,3,1,1561841340.98735,0,0,0,0,0,0,0,0,0,169154.79315,0,0.3752441,75.18942,0,182478453,5,1,1,-8.711235,-13.76752,0
1561841341.840954,85,0,0,1561841340.998755,4.634448098954404,-74.1511189565753,2552.811,-1,-1,4,30,-9999,1561841341.834544,-0.6343231201171875,-27.3160400390625,10.6826171875,146.3942260742188,153.8874359130859,15,169158.124117,-2.07147216796875,-0.075714111328125,0.39715576171875,169158.124117,9.46627640213943,7.567954937106665,4.184000243249774,169158.112826,-71.88595581054688,-54.57145690917969,-551.3619384765625,169158.119051,-0.4258994511175934,-0.8544435776111986,0.7313280232969712,9.509554862976074,7.980372428894043,4.168191909790039,-1.410455465316772,0.8856626152992249,0.4103437066078186,1,0.2363007962703705,-0.4469875693321228,-0.3244417011737823,0.7994383573532104,-0.5613463521003723,-0.6678586602210999,-0.4887281060218811,0,0,0,-1,169157.040851625,3,1,1561841340.98735,0,0,0,0,0,0,0,0,0,169154.79315,0,0.3752441,75.18942,0,182478453,5,1,1,-8.711235,-14.81758,0
1561841341.850205,86,0,0,1561841340.998755,4.634448098954404,-74.1511189565753,2552.811,-1,-1,4,30,-9999,1561841341.834544,-0.6343231201171875,-27.3160400390625,10.6826171875,146.3942260742188,153.8874359130859,15,169158.144381,-1.854904174804688,-0.3533935546875,0.7448577880859375,169158.144381,7.128747475395233,5.775477081173572,5.169889162991658,169158.132937,-76.17837524414062,-51.79960632324219,-546.9777221679688,169158.139285,-0.1562505552873904,-0.8974874335540536,0.778713117038131,7.768551349639893,6.000028610229492,4.916877269744873,-1.382629632949829,0.4404773712158203,1.104974985122681,1,0.3096428513526917,-0.4268313050270081,-0.2292337715625763,0.8181614279747009,-0.5564725995063782,-0.7023639678955078,-0.4438726902008057,0,0,0,-1,169157.040851625,3,1,1561841340.98735,0,0,0,0,0,0,0,0,0,169155.735425,0,0.9223633,75.18425,0,182478453,5,1,1,-8.711235,-15.67764,0
1561841341.870555,87,0,0,1561841340.998755,4.634448098954404,-74.1511189565753,2552.811,-1,-1,4,30,-9999,1561841341.858844,-5.000053405761719,-24.70796585083008,13.99755859375,128.0993347167969,135.5925445556641,15,169158.164614,-2.00054931640625,-0.5315093994140625,1.3128662109375,169158.164614,5.429195832010493,5.108564552570403,5.316993659492147,169158.153048,-80.36697387695312,-48.55082702636719,-544.9585571289062,169158.159548,0.08530350361804453,-0.9530904733877206,0.7740762726827254,5.726210117340088,5.30886697769165,5.433442115783691,-1.318804025650024,0.2471820712089539,1.462757349014282,1,0.353201150894165,-0.4100944995880127,-0.1378964930772781,0.8294914364814758,-0.5829293727874756,-0.6990558505058289,-0.414142906665802,0,0,0,-1,169157.040851625,3,1,1561841340.98735,0,0,0,0,0,0,0,0,0,169155.735425,0,0.9223633,75.18425,0,182478453,5,1,1,-8.711235,-16.00587,0
1561841341.891288,88,0,0,1561841340.998755,4.634448098954404,-74.1511189565753,2552.811,-1,-1,4,30,-9999,1561841341.885613,-9.217796325683594,-21.69560623168945,15.80389404296875,113.2221450805664,120.7153472900391,15,169158.184878,-1.99639892578125,-0.75958251953125,1.50347900390625,169158.184878,4.508827599303393,4.217988037713583,4.306188204591482,169158.173129,-84.64883422851562,-45.61618041992188,-544.3182373046875,169158.179812,0.2860280580370321,-0.9925282056093696,0.7488497847908077,4.797190189361572,4.466944694519043,4.559993267059326,-1.431801080703735,0.02863609790802002,1.79665207862854,1,0.3814957141876221,-0.3927921056747437,-0.05571535229682922,0.8349079489707947,-0.6133801937103271,-0.6807966828346252,-0.4003507494926453,0,0,0,-1,169157.040851625,3,1,1561841340.98735,0,0,0,0,0,0,0,0,0,169155.735425,0,0.9223633,75.18425,0,182478453,5,1,1,-8.711235,-16.99959,0
1561841341.925997,89,0,0,1561841340.998755,4.634448098954404,-74.1511189565753,2552.811,-1,-1,4,30,-9999,1561841341.910062,-15.63948059082031,-16.06308746337891,16.261474609375,102.5718765258789,110.0650787353516,15,169158.205141,-1.75091552734375,-0.8041534423828125,1.52227783203125,169158.205141,2.469345014374869,2.806771785545652,3.606158468884851,169158.19324,-87.77992248535156,-42.96926879882812,-544.3026123046875,169158.200076,0.4395791708663915,-1.017039043537303,0.7224581277243027,3.050480127334595,3.20038890838623,3.741203784942627,-1.245488882064819,-0.1408169865608215,1.937296748161316,1,0.4005796611309052,-0.377200722694397,0.01020943839102983,0.8349559307098389,-0.6380713582038879,-0.6612306833267212,-0.3945111036300659,0,0,0,-1,169157.040851625,3,1,1561841340.98735,0,0,0,0,0,0,0,0,0,169155.735425,0,0.9223633,75.18425,0,182478453,5,1,1,-8.711235,-17.43434,0
1561841341.931543,90,0,0,1561841340.998755,4.634448098954404,-74.1511189565753,2552.811,-1,-1,4,30,-9999,1561841341.910062,-15.63948059082031,-16.06308746337891,16.261474609375,102.5718765258789,110.0650787353516,15,169158.225405,-1.52239990234375,-0.6987152099609375,1.296600341796875,169158.225405,0.8025124355106245,1.409728610383013,3.06754345948014,169158.213351,-89.84031677246094,-40.83621215820312,-544.7438354492188,169158.220339,0.5325085695868128,-1.028011536752572,0.6832701621961469,1.067094564437866,1.720579266548157,3.196713447570801,-0.9654353857040405,-0.1369781494140625,1.838145852088928,1,0.4033480286598206,-0.3701696693897247,0.05695975944399834,0.8348894119262695,-0.6640506982803345,-0.6313324570655823,-0.4005695581436157,0,0,0,-1,169157.040851625,3,1,1561841340.98735,0,0,0,0,0,0,0,0,0,169155.735425,0,0.9223633,75.18425,0,182478453,5,1,1,-8.711235,-17.43434,0
1561841341.951629,91,0,0,1561841340.998755,4.634448098954404,-74.1511189565753,2552.811,-1,-1,4,30,-9999,1561841341.935821,-17.7657470703125,-14.426025390625,15.864013671875,97.02532958984375,104.5185317993164,15,169158.245669,-1.322525024414062,-0.5223388671875,1.046478271484375,169158.245669,0.6239485496852476,0.09713773549620418,2.848904325571251,169158.233431,-91.35282897949219,-39.46223449707031,-544.4647216796875,169158.240603,0.5876513201746469,-1.039570757546094,0.6389062843179534,0.5975659489631653,0.4671984910964966,2.844245672225952,-0.7210583686828613,-0.0113481879234314,1.548205137252808,1,0.3974610567092896,-0.3724142909049988,0.08934762328863144,0.8338760137557983,-0.6921190619468689,-0.5963178277015686,-0.4066646099090576,0,0,0,-1,169157.040851625,3,1,1561841340.98735,0,0,0,0,0,0,0,0,0,169155.735425,0,0.9223633,75.18425,0,182478453,5,1,1,-8.711235,-18.46609,0
1561841341.9744,92,0,0,1561841340.998755,4.634448098954404,-74.1511189565753,2552.811,-1,-1,4,30,-9999,1561841341.960233,-19.07858276367188,-12.91704940795898,15.81622314453125,93.42332458496094,100.9165267944336,15,169158.265932,-1.1558837890625,-0.40106201171875,0.973785400390625,169158.265932,0.6971894744040618,-1.875137316163081,3.055561631419764,169158.253542,-91.89356994628906,-38.16279602050781,-544.4187622070312,169158.260867,0.6370208745087962,-1.075831846669199,0.5944118885656287,0.6815844178199768,-1.353461980819702,2.985490322113037,-0.5144968032836914,0.1090023517608643,1.393786787986755,1,0.3922523558139801,-0.3864898383617401,0.1146439462900162,0.8268134593963623,-0.7290487289428711,-0.5600216388702393,-0.3935273885726929,0,0,0,-1,169157.040851625,3,1,1561841340.98735,0,0,0,0,0,0,0,0,0,169155.735425,0,0.9223633,75.18425,0,182478453,5,1,1,-8.711235,-19.55287,0
1561841341.999541,93,0,0,1561841340.998755,4.634448098954404,-74.1511189565753,2552.811,-1,-1,4,30,-9999,1561841341.987187,-19.31467437744141,-11.53715896606445,16.1861572265625,89.86869812011719,97.36190032958984,15,169158.286196,-1.10577392578125,-0.306488037109375,0.933929443359375,169158.286196,0.9724854962916238,-3.68523118375872,3.203153486399738,169158.273653,-91.93438720703125,-36.66789245605469,-543.4518432617188,169158.2811,0.6863514804168919,-1.150229567642308,0.5448328190557211,0.8844408392906189,-3.290164947509766,3.195774555206299,-0.3236357569694519,0.1688488125801086,1.297941207885742,1,0.388883501291275,-0.4173573553562164,0.1341214925050735,0.8103047609329224,-0.7806885838508606,-0.5182751417160034,-0.3491649329662323,0,0,0,-1,169157.040851625,3,1,1561841340.98735,0,0,0,0,0,0,0,0,0,169155.735425,0,0.9223633,75.18425,0,182478453,5,1,1,-8.711235,-20.59237,0
1561841342.012393,94,0,0,1561841340.998755,4.634448098954404,-74.1511189565753,2552.811,-1,-1,4,30,-9999,1561841342.010769,-17.71212768554688,-8.304378509521484,19.16357421875,86.58374786376953,94.07695007324219,15,169158.306429,-1.059112548828125,-0.3154754638671875,0.799072265625,169158.306429,0.5308415084988783,-4.584533812243293,3.008986406063696,169158.293734,-91.02699279785156,-34.990966796875,-542.0086669921875,169158.301363,0.7336578208587006,-1.254509557536871,0.4921249062004797,0.8062706589698792,-4.499983310699463,3.07018518447876,-0.2486896514892578,0.175136387348175,1.15904700756073,1,0.3882611095905304,-0.4606396555900574,0.1481817662715912,0.7842872738838196,-0.8376140594482422,-0.4724996984004974,-0.2741288244724274,0,0,0,-1,169157.040851625,3,1,1561841340.98735,0,0,0,0,0,0,0,0,0,169155.735425,0,0.9223633,75.18425,0,182478453,5,1,1,-8.711235,-20.8105,0
1561841342.032648,95,0,0,1561841340.998755,4.634448098954404,-74.1511189565753,2552.811,-1,-1,4,30,-9999,1561841342.010769,-17.71212768554688,-8.304378509521484,19.16357421875,86.58374786376953,94.07695007324219,15,169158.326693,-1.109619140625,-0.3940887451171875,0.5909271240234375,169158.326693,-1.398861581554945,-4.219357168829993,2.571543821206659,169158.313845,-89.35818481445312,-33.50172424316406,-540.5096435546875,169158.321627,0.752635097471225,-1.355083554406078,0.435782123183809,-0.8633859157562256,-4.388749599456787,2.715744256973267,-0.1941359043121338,0.06817671656608582,0.8918084502220154,1,0.3815668523311615,-0.5073333382606506,0.1535231918096542,0.7572649717330933,-0.8855302333831787,-0.4221195578575134,-0.1940392404794693,0,0,0,-1,169157.040851625,3,1,1561841340.98735,0,0,0,0,0,0,0,0,0,169155.735425,0,0.9223633,75.18425,0,182478453,5,1,1,-8.711235,-20.86903,0
1561841342.052977,96,0,0,1561841341.99874,4.634427940477276,-74.1511141788905,2552.839,-1,-1,4,50,-9999,1561841342.036901,-15.84410095214844,-7.342681884765625,20.4990234375,86.36100769042969,93.85420989990234,15,169158.346957,-1.166046142578125,-0.4809722900390625,0.4100799560546875,169158.346957,-3.569518698607541,-3.455349248991952,1.675808230686138,169158.333956,-87.33219909667969,-33.47463989257812,-539.01220703125,169158.341891,0.7199023174128886,-1.424131757394167,0.3819451237776476,-3.02177882194519,-3.658649206161499,1.934169769287109,-0.2182819247245789,-0.06251558661460876,0.6361274719238281,1,0.3604448139667511,-0.5497955679893494,0.1457182914018631,0.7393041253089905,-0.9179790616035461,-0.3727261424064636,-0.1356087327003479,0,0,0,-1,169157.040851625,3,1,1561841340.98735,0,0,0,0,0,0,0,0,0,169155.735425,0,0.9223633,75.18425,0,182478453,5,1,1,-8.711235,-16.04799,0
1561841342.07812,97,0,0,1561841341.99874,4.634427940477276,-74.1511141788905,2552.839,-1,-1,4,50,-9999,1561841342.061846,-14.20595550537109,-7.509822845458984,21.74462890625,90.84539794921875,98.33860015869141,15,169158.36722,-1.268646240234375,-0.595184326171875,0.195343017578125,169158.36722,-5.625297698878478,-2.653718852434362,0.4597066115700988,169158.354067,-85.50164794921875,-34.3602294921875,-538.3709716796875,169158.362154,0.6356341087929759,-1.460407824655622,0.3437794873095573,-5.146667003631592,-2.846796751022339,0.7910841703414917,-0.282809853553772,-0.2028538882732391,0.4036452174186707,1,0.3264211118221283,-0.5844570398330688,0.1210120618343353,0.7329497337341309,-0.935757040977478,-0.3370478451251984,-0.1037184521555901,0,0,0,-1,169157.040851625,3,1,1561841340.98735,0,0,0,0,0,0,0,0,0,169155.735425,0,0.9223633,75.18425,0,182478453,5,1,1,-8.711235,-16.39947,0
1561841342.093418,98,0,0,1561841341.99874,4.634427940477276,-74.1511141788905,2552.839,-1,-1,4,50,-9999,1561841342.087723,-12.79097747802734,-9.310749053955078,22.205322265625,99.56862640380859,107.0618286132812,15,169158.387484,-1.315719604492188,-0.6562347412109375,0.0040740966796875,169158.387484,-7.453348462756194,-2.241508121009173,-0.6829112025357109,169158.374148,-84.55587768554688,-37.12809753417969,-538.3612060546875,169158.382418,0.5062131989110876,-1.468879023832238,0.3282481308056552,-7.003742218017578,-2.25996208190918,-0.4681859910488129,-0.3481594920158386,-0.3139673471450806,0.202311635017395,1,0.2829684019088745,-0.6097331047058105,0.07735099643468857,0.7363227009773254,-0.9416964054107666,-0.3223851919174194,-0.09630884975194931,0,0,0,-1,169157.040851625,3,1,1561841340.98735,0,0,0,0,0,0,0,0,0,169155.735425,0,0.9223633,75.18425,0,182478453,5,1,1,-8.711235,-16.39947,0
1561841342.113679,99,0,0,1561841341.99874,4.634427940477276,-74.1511141788905,2552.839,-1,-1,4,50,-9999,1561841342.111936,-9.741897583007812,-15.86431121826172,20.37652587890625,111.7796325683594,119.272834777832,15,169158.407748,-1.521163940429688,-0.591552734375,-0.3872528076171875,169158.407748,-8.779414133810478,-2.207075844959429,-1.201045437893276,169158.394259,-83.04350280761719,-40.81527709960938,-539.7845458984375,169158.402651,0.337808433949455,-1.460763872999002,0.328223830665439,-8.545897483825684,-2.279913425445557,-1.095324516296387,-0.4578662514686584,-0.3211162090301514,-0.06318110227584839,1,0.230613574385643,-0.6283654570579529,0.01609408110380173,0.7427752614021301,-0.9408916831016541,-0.3223621845245361,-0.1039484664797783,0,0,0,-1,169157.040851625,3,1,1561841340.98735,0,0,0,0,0,0,0,0,0,169155.735425,0,0.9223633,75.18425,0,182478453,5,1,1,-8.711235,-17.45083,0
1561841342.133945,100,0,0,1561841341.99874,4.634427940477276,-74.1511141788905,2552.839,-1,-1,4,50,-9999,1561841342.111936,-9.741897583007812,-15.86431121826172,20.37652587890625,111.7796325683594,119.272834777832,15,169158.427981,-1.7657470703125,-0.463226318359375,-0.9570465087890625,169158.427981,-9.123337952776618,-2.124107458042992,-1.940821787604904,169158.41437,-81.41218566894531,-45.16624450683594,-541.910400390625,169158.422915,0.1446669275405186,-1.442544173100904,0.3341217550073119,-9.134358406066895,-2.171479225158691,-1.698092103004456,-0.7144579887390137,-0.1949790716171265,-0.5138158202171326,1,0.1716064661741257,-0.6404196619987488,-0.05600046738982201,0.74651038646698,-0.9369397759437561,-0.3279396295547485,-0.1208277568221092,0,0,0,-1,169157.040851625,3,1,1561841340.98735,0,0,0,0,0,0,0,0,0,169155.735425,0,0.9223633,75.18425,0,182478453,5,1,1,-9.268514,-17.96498,0
1561841342.160965,101,0,0,1561841341.99874,4.634427940477276,-74.1511141788905,2552.839,-1,-1,4,50,-9999,1561841342.141031,-8.301055908203125,-20.09606170654297,17.88916015625,125.848258972168,133.3414611816406,15,169158.448245,-1.921112060546875,-0.31610107421875,-1.48431396484375,169158.448245,-8.695174087473527,-1.123956511715407,-3.152996309377512,169158.434481,-79.56167602539062,-48.75282287597656,-544.884521484375,169158.443179,-0.05483673184295468,-1.415407202708191,0.3534008149028779,-8.864476203918457,-1.557910203933716,-2.84339427947998,-0.9235361218452454,-0.06051051616668701,-1.094835758209229,1,0.1159745007753372,-0.6433892846107483,-0.1347385197877884,0.7446111440658569,-0.9268971681594849,-0.3460904657840729,-0.1452002823352814,0,0,0,-1,169157.040851625,3,1,1561841340.98735,0,0,0,0,0,0,0,0,0,169155.735425,0,0.9223633,75.18425,0,182478453,5,1,1,-9.825792,-18.92732,0
1561841342.174477,102,0,0,1561841341.99874,4.634427940477276,-74.1511141788905,2552.839,-1,-1,4,50,-9999,1561841342.162791,-6.524986267089844,-23.83036804199219,14.608154296875,139.9840240478516,147.4772338867188,15,169158.468508,-1.821533203125,-0.0145263671875,-1.664840698242188,169158.468508,-7.375951675156312,1.255784050938765,-4.133133600113152,169158.454562,-77.83348083496094,-51.98220825195312,-548.423828125,169158.463442,-0.2487592159332951,-1.356169285987072,0.3910058710142602,-7.840404033660889,0.6229446530342102,-3.943342447280884,-1.012503504753113,0.2031247913837433,-1.423971652984619,1,0.07377608120441437,-0.6293670535087585,-0.2156921029090881,0.7429206967353821,-0.9033137559890747,-0.3811185657978058,-0.1969083994626999,0,0,0,-1,169157.040851625,3,1,1561841340.98735,0,0,0,0,0,0,0,0,0,169155.735425,0,0.9223633,75.18425,0,182478453,5,1,1,-10.38307,-19.5898,0
1561841342.194777,103,0,0,1561841341.99874,4.634427940477276,-74.1511141788905,2552.839,-1,-1,4,50,-9999,1561841342.190059,-4.49053955078125,-26.51050567626953,10.8310546875,152.5599975585938,160.0532073974609,15,169158.488772,-1.544052124023438,0.246612548828125,-1.514053344726562,169158.488772,-5.14698224919145,3.214625052795254,-4.675642683663776,169158.474673,-75.81666564941406,-54.275634765625,-552.2392578125,169158.483706,-0.4193423647813986,-1.251019932037894,0.4389799498857787,-5.710762023925781,2.828595638275146,-4.562785625457764,-0.8388832211494446,0.5517100691795349,-1.338192701339722,1,0.05369845032691956,-0.595686137676239,-0.2893746495246887,0.747353196144104,-0.8592979311943054,-0.4250163435935974,-0.2845489978790283,0,0,0,-1,169157.040851625,3,1,1561841340.98735,0,0,0,0,0,0,0,0,0,169155.735425,0,0.9223633,75.18425,0,182478453,5,1,1,-10.94035,-17.39397,0
1561841342.215004,104,0,0,1561841341.99874,4.634427940477276,-74.1511141788905,2552.839,-1,-1,4,50,-9999,1561841342.213744,-0.4560928344726562,-29.31316375732422,4.6634521484375,162.2945251464844,169.7877349853516,15,169158.509036,-1.144424438476562,0.3721466064453125,-1.187973022460938,169158.509036,-3.299216902712204,4.158840028851251,-4.879552406215655,169158.494784,-73.86123657226562,-55.1512451171875,-555.1212768554688,169158.50397,-0.5572915871741981,-1.118431714761617,0.4932924707496381,-3.658496379852295,4.014574527740479,-4.867520809173584,-0.5412182807922363,0.804293155670166,-0.9891629219055176,1,0.05747280642390251,-0.5515483617782593,-0.3506317436695099,0.7546843886375427,-0.7921863198280334,-0.4735283851623535,-0.38498255610466,0,0,0,-1,169157.040851625,3,1,1561841340.98735,0,0,0,0,0,0,0,0,0,169155.735425,0,0.9223633,75.18425,0,182478453,5,1,1,-11.49763,-18.09877,0
1561841342.243559,105,0,0,1561841341.99874,4.634427940477276,-74.1511141788905,2552.839,-1,-1,4,50,-9999,1561841342.241356,1.9573974609375,-29.75504684448242,3.10211181640625,170.7541046142578,178.247314453125,15,169158.529299,-0.8140106201171875,0.3957366943359375,-0.9016265869140625,169158.529299,-2.597415099616234,4.103597013095301,-4.817332441035917,169158.514895,-71.47114562988281,-55.92759704589844,-557.0316162109375,169158.524233,-0.6765842651593487,-0.9746847035883829,0.547740159221948,-2.683052062988281,4.162065029144287,-4.852774143218994,-0.2673855423927307,0.9145581722259521,-0.5504606962203979,1,0.07580932229757309,-0.5045849680900574,-0.401783287525177,0.7604058980941772,-0.7064609527587891,-0.5207593441009521,-0.4792939126491547,0,0,0,-1,169157.040851625,3,1,1561841340.98735,0,0,0,0,0,0,0,0,0,169155.735425,0,0.9223633,75.18425,0,182478453,5,1,1,-12.05491,-15.12979,0
1561841342.257236,106,0,0,1561841341.99874,4.634427940477276,-74.1511141788905,2552.839,-1,-1,4,50,-9999,1561841342.241356,1.9573974609375,-29.75504684448242,3.10211181640625,170.7541046142578,178.247314453125,15,169158.549563,-0.5225830078125,0.4154205322265625,-0.6922454833984375,169158.549563,-2.599721130804133,3.829236826014793,-4.568878153459154,169158.534975,-68.864501953125,-55.7481689453125,-558.5493774414062,169158.544466,-0.7962475732078949,-0.828688008917968,0.591090631690759,-2.557527303695679,3.878251314163208,-4.65803861618042,-0.04590463638305664,0.9589087963104248,-0.2237367630004883,1,0.09645054489374161,-0.4583771824836731,-0.4475850164890289,0.7617449164390564,-0.6119933128356934,-0.5572669506072998,-0.5611752867698669,0,0,0,-1,169157.040851625,3,1,1561841340.98735,0,0,0,0,0,0,0,0,0,169155.735425,0,0.9223633,75.18425,0,182478453,5,1,1,-12.05491,-15.12979,0
1561841342.275847,107,0,0,1561841341.99874,4.634427940477276,-74.1511141788905,2552.839,-1,-1,4,50,-9999,1561841342.263814,4.447433471679688,-29.59779357910156,1.6898193359375,179.540771484375,187.0339813232422,15,169158.569796,-0.3040924072265625,0.453216552734375,-0.573699951171875,169158.569796,-2.992477736782404,3.642695707460193,-3.950883899339106,169158.555087,-66.58586120605469,-55.51971435546875,-559.6290893554688,169158.56473,-0.9208419963047895,-0.6814237027636088,0.6131372564661124,-2.862891674041748,3.677074670791626,-4.148120403289795,0.1046388149261475,1.010952472686768,0.02102106809616089,1,0.1132689565420151,-0.4117873907089233,-0.4896019995212555,0.7601916193962097,-0.5151612162590027,-0.5754360556602478,-0.6352025866508484,0,0,0,-1,169157.040851625,3,1,1561841340.98735,0,0,0,0,0,0,0,0,0,169155.735425,0,0.9223633,75.18425,0,182478453,5,1,1,-12.61219,-16.09091,0
1561841342.296039,108,0,0,1561841341.99874,4.634427940477276,-74.1511141788905,2552.839,-1,-1,4,50,-9999,1561841342.290574,6.568756103515625,-29.31963348388672,0.5775146484375,188.2062072753906,195.6994171142578,15,169158.59006,-0.0569000244140625,0.43292236328125,-0.554931640625,169158.59006,-3.661402283589127,3.647663035525408,-3.004246245639464,169158.575198,-64.72154235839844,-55.17564392089844,-560.8734130859375,169158.584994,-1.040628290849999,-0.539191235472026,0.6040860227771655,-3.478751182556152,3.617224931716919,-3.254427433013916,0.2360352873802185,1.023774862289429,0.1488665342330933,1,0.1223635450005531,-0.3631800711154938,-0.526246190071106,0.7590734362602234,-0.422573983669281,-0.5680100917816162,-0.706254780292511,0,0,0,-1,169157.040851625,3,1,1561841340.98735,0,0,0,0,0,0,0,0,0,169155.735425,0,0.9223633,75.18425,0,182478453,5,1,1,-13.16947,-16.19129,0
1561841342.324813,109,0,0,1561841341.99874,4.634427940477276,-74.1511141788905,2552.839,-1,-1,4,50,-9999,1561841342.314699,10.24132919311523,-28.49551391601562,-2.15728759765625,195.35009765625,202.8433074951172,15,169158.610323,0.2022552490234375,0.3252716064453125,-0.59527587890625,169158.610323,-4.374409336971605,3.649332571212779,-1.973069738928565,169158.595309,-62.71258544921875,-54.67909240722656,-562.0516357421875,169158.605257,-1.142563187507277,-0.4086566210094895,0.5601504746627524,-4.220365524291992,3.674902439117432,-2.246191263198853,0.4187554121017456,0.9140040874481201,0.2108103632926941,1,0.1222561150789261,-0.3103964626789093,-0.5560150146484375,0.7612850069999695,-0.3366478681564331,-0.5313136577606201,-0.7774149775505066,0,0,0,-1,169157.040851625,3,1,1561841340.98735,0,0,0,0,0,0,0,0,0,169155.735425,0,0.9223633,75.18425,0,182478453,5,1,1,-13.72674,-16.99953,0
1561841342.336627,110,0,0,1561841341.99874,4.634427940477276,-74.1511141788905,2552.839,-1,-1,4,50,-9999,1561841342.314699,10.24132919311523,-28.49551391601562,-2.15728759765625,195.35009765625,202.8433074951172,15,169158.630587,0.3286285400390625,0.2210540771484375,-0.66656494140625,169158.630587,-4.462754113496695,3.354016235830546,-0.5483667063682538,169158.61542,-61.63848876953125,-54.44320678710938,-563.6168212890625,169158.625521,-1.214617185552239,-0.2996292423231932,0.487217229762004,-4.544676303863525,3.462849855422974,-0.9539616703987122,0.5466020703315735,0.7395462989807129,0.2030645608901978,1,0.1131979003548622,-0.2550520002841949,-0.5771703720092773,0.7674692869186401,-0.260820209980011,-0.4681687355041504,-0.8442694544792175,0,0,0,-1,169157.040851625,3,1,1561841340.98735,0,0,0,0,0,0,0,0,0,169155.735425,0,0.9223633,75.18425,0,182478453,5,1,1,-14.28402,-17.75583,0
1561841342.356852,111,0,0,1561841341.99874,4.634427940477276,-74.1511141788905,2552.839,-1,-1,4,50,-9999,1561841342.34143,11.10813522338867,-28.20456695556641,-3.81640625,199.5422973632812,207.0355072021484,15,169158.650851,0.3294677734375,0.08905029296875,-0.7347412109375,169158.650851,-3.386369115701156,2.433837087560842,1.143877755617526,169158.6355,-61.18783569335938,-54.06858825683594,-565.4844970703125,169158.645785,-1.241977114037397,-0.2235439931895971,0.404856718424134,-3.768440008163452,2.731498241424561,0.7170595526695251,0.5524439811706543,0.5607419013977051,0.197252631187439,1,0.09892042726278305,-0.2051112353801727,-0.5846406817436218,0.7786779999732971,-0.203765407204628,-0.39388707280159,-0.896288275718689,0,0,0,-1,169157.040851625,3,1,1561841340.98735,0,0,0,0,0,0,0,0,0,169155.735425,0,0.9223633,75.18425,0,182478453,5,1,1,-14.8413,-18.7425,0
1561841342.376947,112,0,0,1561841341.99874,4.634427940477276,-74.1511141788905,2552.839,-1,-1,4,50,-9999,1561841342.365169,11.43881225585938,-28.09019470214844,-5.458984375,199.5233917236328,207.0166015625,15,169158.671114,0.1595458984375,-0.1469573974609375,-0.762237548828125,169158.671114,-1.348805870970252,0.9330765711128493,2.818661468232311,169158.655611,-61.33631896972656,-53.97035217285156,-566.5465087890625,169158.666018,-1.221630847284254,-0.1887127095341954,0.3410585403607197,-1.90948224067688,1.340901851654053,2.404827117919922,0.4493418633937836,0.3191650211811066,0.1676746606826782,1,0.08514713495969772,-0.1729590892791748,-0.5758001208305359,0.7945371270179749,-0.1767893731594086,-0.3344848453998566,-0.9256702661514282,0,0,0,-1,169157.040851625,3,1,1561841340.98735,0,0,0,0,0,0,0,0,0,169155.735425,0,0.9223633,75.18425,0,182478453,5,1,1,-14.8413,-18.7425,0
1561841342.39758,113,0,0,1561841341.99874,4.634427940477276,-74.1511141788905,2552.839,-1,-1,4,50,-9999,1561841342.391628,9.358200073242188,-28.30891799926758,-6.7811279296875,195.5150451660156,203.0082550048828,15,169158.691348,-0.28302001953125,-0.505462646484375,-0.7858428955078125,169158.691348,0.9002749485985613,-0.6874178037323431,3.911906672573032,169158.675723,-62.76373291015625,-54.36824035644531,-567.3873901367188,169158.686282,-1.158551042430665,-0.1984183814837752,0.3134842270082638,0.3632402122020721,-0.320803314447403,3.76672101020813,0.1494417190551758,-0.004216611385345459,0.1590563654899597,1,0.07643716782331467,-0.1669042259454727,-0.550987184047699,0.8140721917152405,-0.1875123828649521,-0.3083749115467072,-0.9326006770133972,0,0,0,-1,169157.040851625,3,1,1561841340.98735,0,0,0,0,0,0,0,0,0,169155.735425,0,0.9223633,75.18425,0,182478453,5,1,1,-15.39858,-19.76935,0
1561841342.417564,114,0,0,1561841341.99874,4.634427940477276,-74.1511141788905,2552.839,-1,-1,4,50,-9999,1561841342.41583,7.131492614746094,-29.08892059326172,-6.35540771484375,189.3866271972656,196.8798370361328,15,169158.711611,-0.776336669921875,-0.926055908203125,-0.7682037353515625,169158.711611,2.473046275657861,-1.504729958052756,3.286494183236568,169158.695834,-64.88925170898438,-55.05221557617188,-567.2806396484375,169158.706545,-1.072314097453902,-0.2448722871862013,0.3233476521986028,2.210211992263794,-1.449288725852966,3.60050630569458,-0.3079729378223419,-0.3940800130367279,0.1362761855125427,1,0.07577177882194519,-0.1852376461029053,-0.5173009037971497,0.8320729732513428,-0.2298688590526581,-0.3177424967288971,-0.9198912978172302,0,0,0,-1,169157.040851625,3,1,1561841340.98735,0,0,0,0,0,0,0,0,0,169155.735425,0,0.9223633,75.18425,0,182478453,5,1,1,-15.95586,-19.85993,0
1561841342.440731,115,0,0,1561841341.99874,4.634427940477276,-74.1511141788905,2552.839,-1,-1,4,50,-9999,1561841342.41583,7.131492614746094,-29.08892059326172,-6.35540771484375,189.3866271972656,196.8798370361328,15,169158.7318615,-1.040023803710938,-1.233108520507812,-0.79296875,169158.7318615,2.111929088694168,-0.908265497133235,1.709211194974566,169158.7159315,-66.81037902832031,-55.84329223632812,-565.916259765625,169158.7267955,-0.9984484189338306,-0.29792897458222,0.3562105457394024,2.397254705429077,-1.15731680393219,2.079402446746826,-0.6746235489845276,-0.7645713090896606,0.1332874298095703,1,0.08389178663492203,-0.2121171504259109,-0.4890380501747131,0.8419087529182434,-0.2751140296459198,-0.3487251698970795,-0.8959369659423828,0,0,0,-1,169157.040851625,3,1,1561841340.98735,0,0,0,0,0,0,0,0,0,169155.735425,0,0.9223633,75.18425,0,182478453,5,1,1,-10.19565,-13.33705,0
1561841342.458088,116,0,0,1561841341.99874,4.634427940477276,-74.1511141788905,2552.839,-1,-1,4,50,-9999,1561841342.44215,5.364044189453125,-29.6296272277832,-5.239013671875,184.830078125,192.3232879638672,15,169158.7521255,-1.000213623046875,-1.276336669921875,-0.88763427734375,169158.7521255,0.408321983601456,0.2432866897975726,0.784816262699266,169158.7360425,-68.11570739746094,-55.91600036621094,-564.8153076171875,169158.7470595,-0.9576498481986535,-0.3251476381725834,0.3800624485994863,0.8542195558547974,-0.03255902230739594,0.9186509847640991,-0.756126880645752,-0.9083641767501831,0.04384815692901611,1,0.09220414608716965,-0.2269502133131027,-0.4736116230487823,0.8459811806678772,-0.2966533005237579,-0.3709784746170044,-0.8799840211868286,0,0,0,-1,169157.040851625,3,1,1561841340.98735,0,0,0,0,0,0,0,0,0,169155.735425,0,0.9223633,75.18425,0,182478453,5,1,1,-10.19565,-14.20597,0
1561841342.478277,117,0,0,1561841341.99874,4.634427940477276,-74.1511141788905,2552.839,-1,-1,4,50,-9999,1561841342.466555,4.416160583496094,-29.96488571166992,-4.4151611328125,183.0876007080078,190.580810546875,15,169158.7723885,-0.9301605224609375,-1.234085083007812,-0.9795684814453125,169158.7723885,-0.5897327886321275,1.024784121146382,0.4004811047200447,169158.7561225,-68.75814819335938,-55.882080078125,-564.5361938476562,169158.7673225,-0.942722776870618,-0.3214442649045679,0.3769537593080924,-0.5007816553115845,0.8728126287460327,0.515342652797699,-0.6524879932403564,-0.8934763669967651,-0.06584680080413818,1,0.09339667856693268,-0.2240397483110428,-0.4670232236385345,0.8502780199050903,-0.2937553226947784,-0.3680898249149323,-0.8821665048599243,0,0,0,-1,169157.040851625,3,1,1561841340.98735,0,0,0,0,0,0,0,0,0,169155.735425,0,0.9223633,75.18425,0,182478453,5,1,1,-10.19565,-15.2479,0
1561841342.499026,118,0,0,1561841341.99874,4.634427940477276,-74.1511141788905,2552.839,-1,-1,4,50,-9999,1561841342.492841,3.795791625976562,-30.05288696289062,-4.3704833984375,182.8711242675781,190.3643341064453,15,169158.7926525,-0.865234375,-1.194305419921875,-0.9864349365234375,169158.7926525,-0.246897137287393,1.056981472409331,-0.4283835760930229,169158.7762335,-69.09016418457031,-56.04154968261719,-564.9910888671875,169158.7875865,-0.9419505671651269,-0.3001083563875817,0.365204709975846,-0.4029035568237305,1.11846911907196,-0.1830864995718002,-0.6323654651641846,-0.8588018417358398,-0.0858771800994873,1,0.09329564869403839,-0.2124724388122559,-0.4653881788253784,0.854145884513855,-0.2761275470256805,-0.3571405112743378,-0.8923027515411377,0,0,0,-1,169157.040851625,3,1,1561841340.98735,0,0,0,0,0,0,0,0,0,169155.735425,0,0.9223633,75.18425,0,182478453,5,1,1,-10.19565,-16.33278,0
1561841342.518845,119,0,0,1561841341.99874,4.634427940477276,-74.1511141788905,2552.839,-1,-1,4,50,-9999,1561841342.517142,4.186836242675781,-29.96663665771484,-4.44427490234375,184.0248565673828,191.51806640625,15,169158.8129165,-0.776153564453125,-1.147994995117188,-0.95526123046875,169158.8129165,0.3971036838256062,0.7649394935873506,-1.410171760388403,169158.7963455,-68.746337890625,-56.13301086425781,-565.0673217773438,169158.8078195,-0.9567858168121431,-0.2752984266090351,0.3676996857079907,0.260478675365448,0.8048812747001648,-1.196681618690491,-0.5761548280715942,-0.8137479424476624,-0.08304595947265625,1,0.0986543670296669,-0.2031216025352478,-0.4705828130245209,0.8529716730117798,-0.2536638379096985,-0.3594698309898376,-0.8980178833007812,0,0,0,-1,169157.040851625,3,1,1561841340.98735,0,0,0,0,0,0,0,0,0,169155.735425,0,0.9223633,75.18425,0,182478453,5,1,1,-10.19565,-17.40128,0
1561841342.540564,120,0,0,1561841341.99874,4.634427940477276,-74.1511141788905,2552.839,-1,-1,4,50,-9999,1561841342.517142,4.186836242675781,-29.96663665771484,-4.44427490234375,184.0248565673828,191.51806640625,15,169158.8331495,-0.642059326171875,-1.035751342773438,-0.8745574951171875,169158.8331495,0.6101182215122481,0.9866340722148877,-1.989731806288645,169158.8164565,-67.90235900878906,-56.05645751953125,-564.7259521484375,169158.8280835,-0.987336505032732,-0.2481781528375591,0.385292224358888,0.6105552315711975,0.8680871725082397,-1.887322902679443,-0.4850620031356812,-0.723581075668335,-0.02502822875976562,1,0.1097355112433434,-0.1970023959875107,-0.4823846220970154,0.8464356660842896,-0.2276302576065063,-0.3758299648761749,-0.8982963562011719,0,0,0,-1,169157.040851625,3,1,1561841340.98735,0,0,0,0,0,0,0,0,0,169155.735425,0,0.9223633,75.18425,0,182478453,5,1,1,-10.19565,-18.50702,0
1561841342.559364,121,0,0,1561841341.99874,4.634427940477276,-74.1511141788905,2552.839,-1,-1,4,50,-9999,1561841342.543386,4.987281799316406,-29.935791015625,-4.04071044921875,186.4891357421875,193.9823455810547,15,169158.8534125,-0.466278076171875,-0.8940582275390625,-0.7685699462890625,169158.8534125,0.2373449110894968,1.409635133428752,-2.322266883169172,169158.8365675,-66.8104248046875,-55.61634826660156,-564.1192626953125,169158.8483465,-1.029109398658839,-0.2097423102234665,0.4054775824777559,0.3732933700084686,1.330318212509155,-2.25049877166748,-0.3648577034473419,-0.5720034837722778,0.08113354444503784,1,0.1238546669483185,-0.1878088116645813,-0.4977671802043915,0.8376250267028809,-0.1913251429796219,-0.3944576680660248,-0.8987757563591003,0,0,0,-1,169157.040851625,3,1,1561841340.98735,0,0,0,0,0,0,0,0,0,169155.735425,0,0.9223633,75.18425,0,182478453,5,1,1,-10.19565,-18.50702,0
1561841342.579659,122,0,0,1561841341.99874,4.634427940477276,-74.1511141788905,2552.839,-1,-1,4,50,-9999,1561841342.567883,6.313934326171875,-29.54319763183594,-3.7821044921875,189.8914489746094,197.3846588134766,15,169158.8736765,-0.2934722900390625,-0.7344512939453125,-0.7180938720703125,169158.8736765,-0.4254642189060781,1.43019553599249,-2.651836530175894,169158.8566475,-65.30830383300781,-55.38972473144531,-563.7463989257812,169158.8686105,-1.081074933538198,-0.1601564285132248,0.4158203979679641,-0.2643155753612518,1.441188335418701,-2.568785429000854,-0.2320006936788559,-0.4151970148086548,0.1686573624610901,1,0.1361427009105682,-0.172991618514061,-0.5160589218139648,0.8277814984321594,-0.1458832174539566,-0.4039405584335327,-0.9030781388282776,0,0,0,-1,169157.040851625,3,1,1561841340.98735,0,0,0,0,0,0,0,0,0,169155.735425,0,0.9223633,75.18425,0,182478453,5,1,1,-10.19565,-19.60202,0
1561841342.600029,123,0,0,1561841341.99874,4.634427940477276,-74.1511141788905,2552.839,-1,-1,4,50,-9999,1561841342.594292,9.392196655273438,-28.93978881835938,-3.37567138671875,194.1807861328125,201.6739959716797,15,169158.8939405,-0.1397552490234375,-0.5525360107421875,-0.69635009765625,169158.8939405,-0.9601433425357606,1.437421757294311,-2.930635407845238,169158.8767585,-63.92874145507812,-55.37026977539062,-563.8981323242188,169158.8888745,-1.142630785940632,-0.1064547453663685,0.4117951953698005,-0.8403930068016052,1.426141738891602,-2.879333019256592,-0.1258036643266678,-0.2416974306106567,0.2042458057403564,1,0.1435734778642654,-0.1542032063007355,-0.5377174019813538,0.8163750171661377,-0.09737137705087662,-0.4002550840377808,-0.9112160801887512,0,0,0,-1,169157.040851625,3,1,1561841340.98735,0,0,0,0,0,0,0,0,0,169155.735425,0,0.9223633,75.18425,0,182478453,5,1,1,-10.19565,-20.67467,0
1561841342.6202,124,0,0,1561841341.99874,4.634427940477276,-74.1511141788905,2552.839,-1,-1,4,50,-9999,1561841342.619097,10.85226440429688,-28.44371795654297,-3.58660888671875,198.9594116210938,206.4526214599609,15,169158.9142035,0.0326080322265625,-0.358245849609375,-0.678680419921875,169158.9142035,-1.365711084937857,1.450140482028312,-3.005250523686533,169158.8968695,-62.26591491699219,-54.8355712890625,-564.015869140625,169158.9091375,-1.209522649815533,-0.05104072999835955,0.3948939080055776,-1.280856370925903,1.443271160125732,-3.00944972038269,-0.003811269998550415,-0.07062727212905884,0.2334808111190796,1,0.1470949202775955,-0.1320811361074448,-0.5614551901817322,0.8035457134246826,-0.04709205031394958,-0.3847102522850037,-0.9218353033065796,0,0,0,-1,169157.040851625,3,1,1561841340.98735,0,0,0,0,0,0,0,0,0,169155.735425,0,0.9223633,75.18425,0,182478453,5,1,1,-10.19565,-21.68447,0
1561841342.646737,125,0,0,1561841341.99874,4.634427940477276,-74.1511141788905,2552.839,-1,-1,4,50,-9999,1561841342.645084,12.65999984741211,-27.66593170166016,-4.1622314453125,203.5282287597656,211.0214385986328,15,169158.9344675,0.167510986328125,-0.1681976318359375,-0.6479339599609375,169158.9344675,-1.616428526808968,1.412286043977816,-2.843939660667125,169158.9169815,-60.58183288574219,-54.01182556152344,-564.226318359375,169158.9293715,-1.27510240297835,0.002500005430627161,0.3674086532347442,-1.55830717086792,1.422283530235291,-2.903191804885864,0.1059889942407608,0.09688436985015869,0.2687838673591614,1,0.1475192010402679,-0.1077446341514587,-0.5850300788879395,0.7901701331138611,0.002333155833184719,-0.3591982424259186,-0.9332583546638489,0,0,0,-1,169157.040851625,3,1,1561841340.98735,0,0,0,0,0,0,0,0,0,169155.735425,0,0.9223633,75.18425,0,182478453,5,1,1,-10.19565,-22.64664,0
1561841342.660827,126,0,0,1561841341.99874,4.634427940477276,-74.1511141788905,2552.839,-1,-1,4,50,-9999,1561841342.645084,12.65999984741211,-27.66593170166016,-4.1622314453125,203.5282287597656,211.0214385986328,15,169158.9547005,0.2711334228515625,-0.0055999755859375,-0.6475830078125,169158.9547005,-1.88123648769158,1.381222134074805,-2.522572816133955,169158.9370925,-58.87139892578125,-53.14918518066406,-564.6451416015625,169158.9496345,-1.333966837500707,0.05092038487715087,0.3317965652546759,-1.815100908279419,1.372343420982361,-2.626095294952393,0.1727333962917328,0.2432225942611694,0.2984354496002197,1,0.1452379524707794,-0.08239749073982239,-0.6066245436668396,0.7772536277770996,0.04812231659889221,-0.3257421255111694,-0.9442331790924072,0,0,0,-1,169157.040851625,3,1,1561841340.98735,0,0,0,0,0,0,0,0,0,169155.735425,0,0.9223633,75.18425,0,182478453,5,1,1,-10.19565,-23.71936,0
1561841342.680969,127,0,0,1561841341.99874,4.634427940477276,-74.1511141788905,2552.839,-1,-1,4,50,-9999,1561841342.669234,14.22230529785156,-26.65621566772461,-4.63519287109375,207.3294372558594,214.8226470947266,15,169158.9749645,0.312744140625,0.1504364013671875,-0.6567535400390625,169158.9749645,-2.112723775963448,1.423619392312758,-2.044740463868668,169158.9571725,-57.70372009277344,-52.65946960449219,-565.4390258789062,169158.9698985,-1.382076301544453,0.09370770770155767,0.2888717842673137,-2.076215982437134,1.405243873596191,-2.17016339302063,0.2106146216392517,0.3567551076412201,0.3055108189582825,1,0.1403317600488663,-0.05591815337538719,-0.6248140931129456,0.7660205960273743,0.08969360589981079,-0.2848709523677826,-0.95436030626297,0,0,0,-1,169157.040851625,3,1,1561841340.98735,0,0,0,0,0,0,0,0,0,169155.735425,0,0.9223633,75.18425,0,182478453,5,1,1,-10.19565,-24.63925,0
