loggingTime,loggingSample,identifierForVendor,deviceID,locationTimestamp_since1970,locationLatitude,locationLongitude,locationAltitude,locationSpeed,locationCourse,locationVerticalAccuracy,locationHorizontalAccuracy,locationFloor,locationHeadingTimestamp_since1970,locationHeadingX,locationHeadingY,locationHeadingZ,locationTrueHeading,locationMagneticHeading,locationHeadingAccuracy,accelerometerTimestamp_sinceReboot,accelerometerAccelerationX,accelerometerAccelerationY,accelerometerAccelerationZ,gyroTimestamp_sinceReboot,gyroRotationX,gyroRotationY,gyroRotationZ,magnetometerTimestamp_sinceReboot,magnetometerX,magnetometerY,magnetometerZ,motionTimestamp_sinceReboot,motionYaw,motionRoll,motionPitch,motionRotationRateX,motionRotationRateY,motionRotationRateZ,motionUserAccelerationX,motionUserAccelerationY,motionUserAccelerationZ,motionAttitudeReferenceFrame,motionQuaternionX,motionQuaternionY,motionQuaternionZ,motionQuaternionW,motionGravityX,motionGravityY,motionGravityZ,motionMagneticFieldX,motionMagneticFieldY,motionMagneticFieldZ,motionMagneticFieldCalibrationAccuracy,activityTimestamp_sinceReboot,activity,activityActivityConfidence,activityActivityStartDate,pedometerStartDate,pedometerNumberofSteps,pedometerAverageActivePace,pedometerCurrentPace,pedometerCurrentCadence,pedometerDistance,pedometerFloorAscended,pedometerFloorDescended,pedometerEndDate,altimeterTimestamp_sinceReboot,altimeterReset,altimeterRelativeAltitude,altimeterPressure,IP_en0,IP_pdp_ip0,deviceOrientation,batteryState,batteryLevel,avAudioRecorderPeakPower,avAudioRecorderAveragePower,label
1561841348.616803,1,0,0,1561841347.998655,4.634446590211833,-74.15110881447247,2552.774,-1,-1,4,30,-9999,1561841348.594797,-13.69632720947266,-23.63108825683594,11.633056640625,142.2411499023438,149.7343597412109,15,169164.9109166667,-0.99847412109375,0.0318756103515625,-0.0514678955078125,169164.9109166667,-0.007622765988133803,0.02610350605662967,0.03755350084731635,169164.8862896667,-86.44522094726562,-49.92587280273438,-548.8153686523438,169164.9058516667,-0.2251324352510679,-1.50697230868987,-0.03681733570546931,-0.006464418955147266,0.02237479761242867,0.03447102382779121,-0.00538259744644165,0.002116143703460693,0.01309353113174438,1,-0.09018045663833618,-0.6782320737838745,-0.06939379125833511,0.7259843945503235,-0.9972877502441406,0.03680901974439621,-0.06373748183250427,0,0,0,-1,169164.8204016667,3,2,1561841348.7669,0,0,0,0,0,0,0,0,0,169162.32975,0,-0.2827148,75.19563,0,182478453,3,1,1,-37.21427,-40.84509,1
1561841348.6377,2,0,0,1561841347.998655,4.634446590211833,-74.15110881447247,2552.774,-1,-1,4,30,-9999,1561841348.620977,-13.77812194824219,-23.77045059204102,11.63372802734375,142.2521514892578,149.745361328125,15,169164.9311806667,-0.997833251953125,0.0216827392578125,-0.051422119140625,169164.9311806667,-0.02452078942079558,0.04252828576358436,0.0347622417088043,169164.9064006667,-86.63584899902344,-49.69615173339844,-548.8197021484375,169164.9261146667,-0.2253586438949838,-1.506505773824649,-0.03749293457867899,-0.02044601365923882,0.03117414750158787,0.03420790284872055,-0.0007682442665100098,-0.01113222539424896,0.01251959800720215,1,-0.09048528224229813,-0.6780205368995667,-0.06926688551902771,0.7261561751365662,-0.9972328543663025,0.03748415037989616,-0.06420113146305084,0,0,0,-1,169164.8204016667,3,2,1561841348.7669,0,0,0,0,0,0,0,0,0,169162.32975,0,-0.2827148,75.19563,0,182478453,3,1,1,-37.21427,-41.29464,1
1561841348.657371,3,0,0,1561841347.998655,4.634446590211833,-74.15110881447247,2552.774,-1,-1,4,30,-9999,1561841348.645403,-13.8748779296875,-23.47738647460938,11.5191650390625,142.2864379882812,149.7796478271484,15,169164.9514446667,-0.993927001953125,0.018890380859375,-0.048065185546875,169164.9514446667,-0.02527473032539701,0.03849386302822332,0.01951884026140875,169164.9264806667,-86.47554016113281,-49.83851623535156,-549.187744140625,169164.9463476667,-0.2258785604447679,-1.505822666371214,-0.03807024004138979,-0.02894948795437813,0.03556729853153229,0.02092991583049297,0.001332581043243408,-0.01978101581335068,0.01539665460586548,1,-0.09084665030241013,-0.6777215003967285,-0.06929008662700653,0.7263878583908081,-0.9971668720245361,0.03806104511022568,-0.06488090753555298,0,0,0,-1,169164.8204016667,3,2,1561841348.7669,0,0,0,0,0,0,0,0,0,169162.32975,0,-0.2827148,75.19563,0,182478453,3,1,1,-37.21427,-42.08701,1
1561841348.677522,4,0,0,1561841347.998655,4.634446590211833,-74.15110881447247,2552.774,-1,-1,4,30,-9999,1561841348.67292,-13.87052917480469,-23.66640090942383,11.5087890625,142.3234252929688,149.8166351318359,15,169164.9716776667,-0.9956512451171875,0.02496337890625,-0.04473876953125,169164.9716776667,-0.007940214790071249,0.01945732124022792,-0.003821902480372715,169164.9465926667,-86.41384887695312,-49.66461181640625,-548.9657592773438,169164.9666116667,-0.2262985233377666,-1.505271162315102,-0.03829125024984208,-0.01176464185118675,0.02183657325804234,-0.00365345785394311,0.001868128776550293,-0.01656863838434219,0.01986753940582275,1,-0.09104976058006287,-0.6774915456771851,-0.06939248740673065,0.7265672087669373,-0.9971226453781128,0.03828189522027969,-0.06543029099702835,0,0,0,-1,169164.8204016667,3,2,1561841348.7669,0,0,0,0,0,0,0,0,0,169162.32975,0,-0.2827148,75.19563,0,182478453,3,1,1,-37.21427,-42.71607,1
1561841348.69776,5,0,0,1561841347.998655,4.634446590211833,-74.15110881447247,2552.774,-1,-1,4,30,-9999,1561841348.696595,-13.83803558349609,-23.70909881591797,11.5958251953125,142.333740234375,149.8269500732422,15,169164.9919416667,-0.9878387451171875,0.0316619873046875,-0.0483245849609375,169164.9919416667,0.002606169442751543,0.004617921330197399,-0.002439988190730598,169164.9667036667,-86.54876708984375,-49.71672058105469,-549.0873413085938,169164.9868756667,-0.2264194366108278,-1.505116692516351,-0.03812147799721562,-0.001054207095876336,-0.0002322443760931492,-0.0106573048979044,0.00557243824005127,-0.009837709367275238,0.01858770847320557,1,-0.09102392196655273,-0.6774380207061768,-0.06950122117996216,0.726610004901886,-0.9971190094947815,0.03811224550008774,-0.06558474898338318,0,0,0,-1,169164.8204016667,3,2,1561841348.7669,0,0,0,0,0,0,0,0,0,169162.32975,0,-0.2827148,75.19563,0,182478453,3,1,1,-37.21427,-43.3615,1
1561841348.725361,6,0,0,1561841347.998655,4.634446590211833,-74.15110881447247,2552.774,-1,-1,4,30,-9999,1561841348.723304,-13.98284912109375,-23.88226318359375,11.5406494140625,142.3411712646484,149.8343811035156,15,169165.0122046667,-0.98809814453125,0.0362701416015625,-0.0520172119140625,169165.0122046667,-0.004810734193119136,0.02505874796099158,0.03148974936131493,169164.9867836667,-86.32575988769531,-49.71551513671875,-548.8872680664062,169165.0071386667,-0.2264353279818112,-1.505063356354325,-0.03815746214793128,-0.004240146838128567,0.01277436874806881,0.02003775723278522,0.009168446063995361,-0.003693863749504089,0.01565003395080566,1,-0.0910404846072197,-0.677416205406189,-0.06949717551469803,0.7266285419464111,-0.9971140027046204,0.03814820200204849,-0.06563782691955566,0,0,0,-1,169164.8204016667,3,2,1561841348.7669,0,0,0,0,0,0,0,0,0,169162.32975,0,-0.2827148,75.19563,0,182478453,3,1,1,-37.21427,-44.03603,1
1561841348.742854,7,0,0,1561841347.998655,4.634446590211833,-74.15110881447247,2552.774,-1,-1,4,30,-9999,1561841348.723304,-13.98284912109375,-23.88226318359375,11.5406494140625,142.3411712646484,149.8343811035156,15,169165.0324686667,-0.9959564208984375,0.03912353515625,-0.050567626953125,169165.0324686667,-0.002697782184250268,0.02501453948689627,0.03586079565846198,169165.0068946667,-86.42059326171875,-50.13716125488281,-549.01171875,169165.0274026667,-0.2265191766718599,-1.50467096504967,-0.03869139692011542,-0.004704335704445839,0.022405955940485,0.03118974529206753,0.005017697811126709,0.0001976490020751953,0.01440721750259399,1,-0.09124846011400223,-0.6772443056106567,-0.06936385482549667,0.7267755270004272,-0.9970678687095642,0.0386817455291748,-0.06602773815393448,0,0,0,-1,169164.8204016667,3,2,1561841348.7669,0,0,0,0,0,0,0,0,0,169162.32975,0,-0.2827148,75.19563,0,182478453,3,1,1,-37.21427,-44.8118,1
1561841348.758585,8,0,0,1561841347.998655,4.634446590211833,-74.15110881447247,2552.774,-1,-1,4,30,-9999,1561841348.746696,-13.95799255371094,-23.63142013549805,11.548583984375,142.3477325439453,149.8409423828125,15,169165.0527326667,-0.999908447265625,0.033905029296875,-0.0498199462890625,169165.0527326667,-0.009014533973809214,0.02382623700850291,0.0144082341295467,169165.0269756667,-86.39208984375,-49.93363952636719,-549.0369873046875,169165.0476666667,-0.2266094262237885,-1.504327607484807,-0.03923467692244081,-0.009260738268494606,0.01758803240954876,0.02007131278514862,-0.001434981822967529,-0.003396980464458466,0.01596885919570923,1,-0.09146375209093094,-0.6770893931388855,-0.06922751665115356,0.7269057035446167,-0.99702388048172,0.03922461345791817,-0.06636866927146912,0,0,0,-1,169164.8204016667,3,2,1561841348.7669,0,0,0,0,0,0,0,0,0,169162.32975,0,-0.2827148,75.19563,0,182478453,3,1,1,-37.21427,-44.8118,1
1561841348.778939,9,0,0,1561841347.998655,4.634446590211833,-74.15110881447247,2552.774,-1,-1,4,30,-9999,1561841348.773278,-13.74934387207031,-23.72718811035156,11.269775390625,142.3665161132812,149.8597259521484,15,169165.0729956667,-1.000244140625,0.029754638671875,-0.0486297607421875,169165.0729956667,-0.02015933050357281,0.01576697891770512,-0.002318015412804969,169165.0470556667,-86.50901794433594,-49.72500610351562,-549.239501953125,169165.0678996667,-0.2268745640325197,-1.504066262950319,-0.03934123681979917,-0.01824730820953846,0.01276984065771103,-0.005615408532321453,-0.003989517688751221,-0.007562287151813507,0.01694637537002563,1,-0.09158302843570709,-0.6769771575927734,-0.0692996010184288,0.7269883155822754,-0.9970023036003113,0.03933108970522881,-0.06662895530462265,0,0,0,-1,169164.8204016667,3,2,1561841348.7669,0,0,0,0,0,0,0,0,0,169162.32975,0,-0.2827148,75.19563,0,182478453,3,1,1,-37.21427,-44.98152,1
1561841348.802296,10,0,0,1561841347.998655,4.634446590211833,-74.15110881447247,2552.774,-1,-1,4,30,-9999,1561841348.797504,-13.77790069580078,-23.75139617919922,11.312255859375,142.4002990722656,149.8935089111328,15,169165.0932286667,-0.991668701171875,0.0312042236328125,-0.0500335693359375,169165.0932286667,-0.01685727706798356,0.01422154653713214,0.01046995150953752,169165.0671666667,-86.43638610839844,-49.74435424804688,-549.1611328125,169165.0881636667,-0.2273106249324521,-1.503930951308037,-0.03928239013140897,-0.01968621462583542,0.007518353406339884,0.001707751769572496,0.0005966424942016602,-0.007289871573448181,0.01787483692169189,1,-0.09170462936162949,-0.6769108176231384,-0.06948432326316833,0.7270171046257019,-0.9969955682754517,0.03927228972315788,-0.06676401197910309,0,0,0,-1,169164.8204016667,3,2,1561841348.7669,0,0,0,0,0,0,0,0,0,169162.32975,0,-0.2827148,75.19563,0,182478453,3,1,1,-37.21427,-45.49806,1
1561841348.819457,11,0,0,1561841347.998655,4.634446590211833,-74.15110881447247,2552.774,-1,-1,4,30,-9999,1561841348.797504,-13.77790069580078,-23.75139617919922,11.312255859375,142.4002990722656,149.8935089111328,15,169165.1134926667,-0.9883270263671875,0.0345306396484375,-0.052215576171875,169165.1134926667,-0.005622732009484295,0.01993855444920524,0.02440307770061408,169165.0872476667,-86.80996704101562,-49.92951965332031,-549.0511474609375,169165.1084266667,-0.2275781225150805,-1.503768315957805,-0.03956987212933426,-0.008544614538550377,0.01259993202984333,0.02234245650470257,0.00776141881942749,-0.008462131023406982,0.01675450801849365,1,-0.09189356863498688,-0.6768255829811096,-0.06949126720428467,0.72707200050354,-0.99697345495224,0.03955954685807228,-0.06692540645599365,0,0,0,-1,169164.8204016667,3,2,1561841348.7669,0,0,0,0,0,0,0,0,0,169162.32975,0,-0.2827148,75.19563,0,182478453,3,1,1,-37.21427,-45.98695,1
1561841348.841137,12,0,0,1561841347.998655,4.634446590211833,-74.15110881447247,2552.774,-1,-1,4,30,-9999,1561841348.823888,-13.87946319580078,-23.68075942993164,11.42340087890625,142.4206085205078,149.913818359375,15,169165.1337566667,-0.9891815185546875,0.03619384765625,-0.05010986328125,169165.1337566667,-0.007375890955083458,0.03314809977210727,0.0317041338290663,169165.1073586667,-86.48033142089844,-49.59510803222656,-548.9923095703125,169165.1286906667,-0.2277431787909508,-1.503445556316786,-0.04002089848189715,-0.01025489531457424,0.02438388578593731,0.02360639348626137,0.007523417472839355,-0.003495931625366211,0.0163273811340332,1,-0.09210149943828583,-0.6766788959503174,-0.06941276043653488,0.7271896600723267,-0.9969338178634644,0.04001021757721901,-0.0672459676861763,0,0,0,-1,169164.8204016667,3,2,1561841348.7669,0,0,0,0,0,0,0,0,0,169162.32975,0,-0.2827148,75.19563,0,182478453,3,1,1,-37.21427,-46.41619,1
1561841348.859942,13,0,0,1561841347.998655,4.634446590211833,-74.15110881447247,2552.774,-1,-1,4,30,-9999,1561841348.848102,-13.79777526855469,-23.55746459960938,11.38165283203125,142.4355010986328,149.9287109375,15,169165.1540206667,-0.9898223876953125,0.039764404296875,-0.0479278564453125,169165.1540206667,0.001365669006992633,0.0206195247399385,0.04497546448925818,169165.1274396667,-86.46414184570312,-49.64912414550781,-549.1500244140625,169165.1489546667,-0.2278797729569258,-1.502963584109354,-0.04066792138954423,-0.006181591190397739,0.0215446911752224,0.03816163167357445,0.008029401302337646,-0.003120087087154388,0.01819467544555664,1,-0.09236527234315872,-0.6764660477638245,-0.06926469504833221,0.7273682951927185,-0.9968752264976501,0.04065671190619469,-0.06772468239068985,0,0,0,-1,169164.8204016667,3,2,1561841348.7669,0,0,0,0,0,0,0,0,0,169162.32975,0,-0.2827148,75.19563,0,182478453,3,1,1,-37.21427,-44.19706,1
1561841348.883437,14,0,0,1561841347.998655,4.634446590211833,-74.15110881447247,2552.774,-1,-1,4,30,-9999,1561841348.874431,-13.93480682373047,-23.73162078857422,11.50225830078125,142.4389343261719,149.9321441650391,15,169165.1742836667,-0.993072509765625,0.0373992919921875,-0.0484619140625,169165.1742836667,-0.01210433347051915,0.01009737527303543,0.04703195748301736,169165.1475506667,-86.42329406738281,-49.71809387207031,-549.037841796875,169165.1692176667,-0.2278801350683871,-1.50276218292318,-0.04156841254130504,-0.007213832344859838,0.005791292991489172,0.0484321117401123,0.006407201290130615,-0.002356618642807007,0.02025449275970459,1,-0.09268450736999512,-0.6763491034507751,-0.06896805763244629,0.7274646759033203,-0.9968246817588806,0.04155644401907921,-0.06792294234037399,0,0,0,-1,169164.8204016667,3,2,1561841348.7669,0,0,0,0,0,0,0,0,0,169162.32975,0,-0.2827148,75.19563,0,182478453,3,1,1,-37.21427,-44.88263,1
1561841348.900428,15,0,0,1561841347.998655,4.634446590211833,-74.15110881447247,2552.774,-1,-1,4,30,-9999,1561841348.898726,-13.80985260009766,-23.62350845336914,11.447021484375,142.4667205810547,149.9599304199219,15,169165.1945476667,-1.002639770507812,0.0303192138671875,-0.0512542724609375,169165.1945476667,-0.03742700069553758,0.005244829450802051,0.01024198492022673,169165.1676306667,-86.48324584960938,-49.970947265625,-548.970703125,169165.1894506667,-0.2281908729108322,-1.502735013579552,-0.0422850446726277,-0.0290157999843359,0.001391751226037741,0.01707445830106735,-0.001025140285491943,-0.008092761039733887,0.01773130893707275,1,-0.09304815530776978,-0.6762899160385132,-0.06883876025676727,0.7274854779243469,-0.9967928528785706,0.04227244481444359,-0.06794798374176025,0,0,0,-1,169164.8204016667,3,2,1561841348.7669,0,0,0,0,0,0,0,0,0,169162.32975,0,-0.2827148,75.19563,0,182478453,3,1,1,-37.21427,-44.88263,1
1561841348.921203,16,0,0,1561841347.998655,4.634446590211833,-74.15110881447247,2552.774,-1,-1,4,30,-9999,1561841348.898726,-13.80985260009766,-23.62350845336914,11.447021484375,142.4667205810547,149.9599304199219,15,169165.2147806667,-1.00579833984375,0.0276336669921875,-0.0547943115234375,169165.2147806667,-0.0425631731738644,0.0174130787874831,-0.02038197077070343,169165.1877416667,-86.65452575683594,-49.63456726074219,-549.2611694335938,169165.2097146667,-0.2290783635830489,-1.502765701561737,-0.042300186237582,-0.0499756783246994,0.00589915132150054,-0.01891683228313923,-0.008546292781829834,-0.01486752927303314,0.0155949592590332,1,-0.09335479140281677,-0.6762589812278748,-0.06915499269962311,0.7274449467658997,-0.9967942833900452,0.04228757321834564,-0.0679173469543457,0,0,0,-1,169164.8204016667,3,2,1561841348.7669,0,0,0,0,0,0,0,0,0,169162.32975,0,-0.2827148,75.19563,0,182478453,3,1,1,-37.21427,-45.7207,1
1561841348.941227,17,0,0,1561841347.998655,4.634446590211833,-74.15110881447247,2552.774,-1,-1,4,30,-9999,1561841348.925126,-14.05115509033203,-23.64517211914062,11.40802001953125,142.5385589599609,150.0317687988281,15,169165.2350446667,-0.9914093017578125,0.0310211181640625,-0.055328369140625,169165.2350446667,-0.006282397011496923,0.02439775137843392,-0.003807255094377279,169165.2078226667,-86.38377380371094,-50.02513122558594,-549.0877075195312,169165.2299786667,-0.2298463958711619,-1.502536879379046,-0.04189573290160106,-0.02053150162100792,0.01921415887773037,-0.01483260840177536,-0.003387272357940674,-0.01357841491699219,0.01283347606658936,1,-0.09346006810665131,-0.676159679889679,-0.069582499563694,0.7274830937385559,-0.9967958331108093,0.04188347607851028,-0.06814660876989365,0,0,0,-1,169164.8204016667,3,2,1561841348.7669,0,0,0,0,0,0,0,0,0,169162.32975,0,-0.2827148,75.19563,0,182478453,3,1,1,-37.21427,-45.91568,1
1561841348.961883,18,0,0,1561841347.998655,4.634446590211833,-74.15110881447247,2552.774,-1,-1,4,30,-9999,1561841348.949981,-14.084228515625,-23.63052368164062,11.313720703125,142.5648803710938,150.0580902099609,15,169165.2553076667,-0.984588623046875,0.0392303466796875,-0.0547943115234375,169165.2553076667,0.02088663979727345,0.01635846699581172,0.0303459216731259,169165.2279336667,-86.53315734863281,-49.76841735839844,-549.1426391601562,169165.2502416667,-0.2298249325993014,-1.502269930686827,-0.04195857890827688,0.01812747679650784,0.01250778511166573,0.02111420780420303,0.01125550270080566,-0.005981311202049255,0.01293152570724487,1,-0.09346628934144974,-0.6760604977607727,-0.06956581026315689,0.7275760173797607,-0.9967749118804932,0.04194626957178116,-0.06841251254081726,0,0,0,-1,169164.8204016667,3,2,1561841348.7669,0,0,0,0,0,0,0,0,0,169162.32975,0,-0.2827148,75.19563,0,182478453,3,1,1,-37.21427,-43.10582,1
1561841348.981843,19,0,0,1561841347.998655,4.634446590211833,-74.15110881447247,2552.774,-1,-1,4,30,-9999,1561841348.975794,-13.87293243408203,-23.49789428710938,11.284423828125,142.5388336181641,150.0320434570312,15,169165.2755716667,-0.9864654541015625,0.0396728515625,-0.0525665283203125,169165.2755716667,0.0107919276853281,0.02129223923129252,0.03773113369202463,169165.2480146667,-86.44377136230469,-49.6424560546875,-549.12060546875,169165.2705056667,-0.2293971983014207,-1.502031085514501,-0.04247613978198606,0.01916797459125519,0.01513898931443691,0.03338178992271423,0.01123255491256714,-0.001340940594673157,0.0145108699798584,1,-0.09350087493658066,-0.6759682297706604,-0.06924550235271454,0.7276877760887146,-0.9967366456985474,0.04246336966753006,-0.06864907592535019,0,0,0,-1,169164.8204016667,3,2,1561841348.7669,0,0,0,0,0,0,0,0,0,169162.32975,0,-0.2827148,75.19563,0,182478453,3,1,1,-37.21427,-43.90688,1
1561841349.001718,20,0,0,1561841347.998655,4.634446590211833,-74.15110881447247,2552.774,-1,-1,4,30,-9999,1561841349.00009,-13.90565490722656,-23.54568099975586,11.4384765625,142.5325317382812,150.0257415771484,15,169165.2958356667,-0.9876251220703125,0.036834716796875,-0.04937744140625,169165.2958356667,-0.01289129757263756,0.01813719228787564,0.04130482955880196,169165.2681256667,-86.4453125,-49.51870727539062,-549.0733032226562,169165.2907696667,-0.2292348842649635,-1.501748544631035,-0.04317414114803655,-0.008074566721916199,0.01364682056009769,0.03838001191616058,0.009184360504150391,-0.004449173808097839,0.01775062084197998,1,-0.09368907660245895,-0.6758387684822083,-0.06896252185106277,0.7278106808662415,-0.9966874122619629,0.04316072911024094,-0.06892862915992737,0,0,0,-1,169164.8204016667,3,2,1561841348.7669,0,0,0,0,0,0,0,0,0,169162.32975,0,-0.2827148,75.19563,0,182478453,3,1,1,-37.21427,-41.82468,1
1561841349.026598,21,0,0,1561841347.998655,4.634446590211833,-74.15110881447247,2552.774,-1,-1,4,30,-9999,1561841349.00009,-13.90565490722656,-23.54568099975586,11.4384765625,142.5325317382812,150.0257415771484,15,169165.3160986667,-0.99676513671875,0.036163330078125,-0.0493011474609375,169165.3160986667,-0.04005953543308091,0.008553807105225505,0.02630484103503966,169165.2882056667,-86.54632568359375,-49.90626525878906,-549.198486328125,169165.3110326667,-0.229621873268354,-1.501583432602876,-0.04388290812708737,-0.03314796090126038,0.006638444494456053,0.02976308949291706,0.006105661392211914,-0.008071698248386383,0.0200188159942627,1,-0.09407088160514832,-0.6757256388664246,-0.06887032836675644,0.7278751730918884,-0.9966452121734619,0.04386882483959198,-0.0690910592675209,0,0,0,-1,169164.8204016667,3,2,1561841348.7669,0,0,0,0,0,0,0,0,0,169162.32975,0,-0.2827148,75.19563,0,182478453,3,1,1,-37.21427,-41.92502,1
1561841349.051362,22,0,0,1561841348.998641,4.634473747578109,-74.15111401125243,2552.703,-1,-1,4,50,-9999,1561841349.028603,-13.98168182373047,-23.74446105957031,11.44140625,142.5781707763672,150.0713806152344,15,169165.3363626667,-1.000762939453125,0.0322418212890625,-0.052978515625,169165.3363626667,-0.05364378752135709,0.001927329680890345,0.005429120198235535,169165.3083166667,-86.49447631835938,-49.690185546875,-548.9973754882812,169165.3312666667,-0.2305221050480775,-1.501599461206345,-0.04429986717351494,-0.05435977131128311,-0.003553206333890557,0.006817026529461145,-0.002059638500213623,-0.01111277937889099,0.01879614591598511,1,-0.09452658891677856,-0.6756684184074402,-0.06905555725097656,0.7278518080711365,-0.9966281056404114,0.04428537935018539,-0.06907382607460022,0,0,0,-1,169164.8204016667,3,2,1561841348.7669,0,0,0,0,0,0,0,0,0,169162.32975,0,-0.2827148,75.19563,0,182478453,3,1,1,-37.21427,-42.58968,1
1561841349.06244,23,0,0,1561841348.998641,4.634473747578109,-74.15111401125243,2552.703,-1,-1,4,50,-9999,1561841349.054073,-14.13532257080078,-23.77660751342773,11.4224853515625,142.6557312011719,150.1489410400391,15,169165.3565956667,-0.998443603515625,0.03179931640625,-0.061004638671875,169165.3565956667,-0.03969654657650311,0.01540345742890931,-0.002061552999830338,169165.3283976667,-86.67430114746094,-49.79655456542969,-549.1973266601562,169165.3515296667,-0.2315802831590634,-1.5017129423067,-0.04432281420601,-0.04417291656136513,0.006684783380478621,-0.006877480540424585,-0.004295766353607178,-0.01257002353668213,0.01158761978149414,1,-0.09489630907773972,-0.6756584644317627,-0.06942746788263321,0.7277776002883911,-0.9966350197792053,0.04430830478668213,-0.06896065920591354,0,0,0,-1,169164.8204016667,3,2,1561841348.7669,0,0,0,0,0,0,0,0,0,169162.32975,0,-0.2827148,75.19563,0,182478453,3,1,1,-37.21427,-42.58968,1
1561841349.082702,24,0,0,1561841348.998641,4.634473747578109,-74.15111401125243,2552.703,-1,-1,4,50,-9999,1561841349.076937,-13.88158416748047,-24.03617858886719,11.36297607421875,142.7117462158203,150.2049560546875,15,169165.3768596667,-0.989959716796875,0.0384368896484375,-0.0614013671875,169165.3768596667,-0.00703314212279026,0.02125388971159538,0.02030154330578304,169165.3485086667,-86.64326477050781,-49.660400390625,-549.1378173828125,169165.3717936667,-0.2322513573217561,-1.501535542700517,-0.04434093281803812,-0.01786274835467339,0.01440076157450676,0.009834121912717819,0.001626670360565186,-0.009521111845970154,0.007247745990753174,1,-0.09512341022491455,-0.6755611300468445,-0.06967394053936005,0.7278146147727966,-0.9966217875480652,0.04432640597224236,-0.06913739442825317,0,0,0,-1,169164.8204016667,3,2,1561841348.7669,0,0,0,0,0,0,0,0,0,169162.32975,0,-0.2827148,75.19563,0,182478453,3,1,1,-37.21427,-43.45226,1
1561841349.102929,25,0,0,1561841348.998641,4.634473747578109,-74.15111401125243,2552.703,-1,-1,4,50,-9999,1561841349.10177,-14.02227020263672,-23.86787796020508,11.22467041015625,142.7129211425781,150.2061309814453,15,169165.3971236667,-0.9919891357421875,0.0413665771484375,-0.060089111328125,169165.3971236667,0.0167579411593236,0.01862748024455923,0.0433528004370729,169165.3685896667,-86.64109802246094,-50.036865234375,-549.1549072265625,169165.3920576667,-0.2322620980282699,-1.50127627224736,-0.04483703967253837,0.009236512705683708,0.0145160760730505,0.03861064091324806,0.009109258651733398,-0.00536278635263443,0.009350895881652832,1,-0.0952976867556572,-0.6754415035247803,-0.0695216953754425,0.7279174327850342,-0.9965817928314209,0.04482201859354973,-0.06939425319433212,0,0,0,-1,169164.8204016667,3,2,1561841348.7669,0,0,0,0,0,0,0,0,0,169162.32975,0,-0.2827148,75.19563,0,182478453,3,1,1,-37.21427,-43.61142,1
1561841349.124185,26,0,0,1561841348.998641,4.634473747578109,-74.15111401125243,2552.703,-1,-1,4,50,-9999,1561841349.10177,-14.02227020263672,-23.86787796020508,11.22467041015625,142.7129211425781,150.2061309814453,15,169165.4173866667,-0.998443603515625,0.0377197265625,-0.0545654296875,169165.4173866667,0.02429708388922892,0.003471963113136303,0.02078970073359456,169165.3887006667,-86.65068054199219,-49.82777404785156,-549.0973510742188,169165.4123206667,-0.2318519120528019,-1.501057635947005,-0.04552876958006305,0.02089689858257771,0.005075169261544943,0.02633879706263542,0.001647233963012695,-0.005016215145587921,0.01232844591140747,1,-0.09540212899446487,-0.6753469109535217,-0.06914789974689484,0.7280271649360657,-0.9965354800224304,0.04551304131746292,-0.06960996985435486,0,0,0,-1,169164.8204016667,3,2,1561841348.7669,0,0,0,0,0,0,0,0,0,169162.32975,0,-0.2827148,75.19563,0,182478453,3,1,1,-37.21427,-41.45518,1
1561841349.143515,27,0,0,1561841348.998641,4.634473747578109,-74.15111401125243,2552.703,-1,-1,4,50,-9999,1561841349.127448,-14.13355255126953,-23.73186111450195,11.4085693359375,142.6853942871094,150.1786041259766,15,169165.4376506667,-0.9994964599609375,0.0316162109375,-0.052276611328125,169165.4376506667,0.01718644377871736,-0.002540123047717577,-0.004517253840992404,169165.4087806667,-86.40191650390625,-49.87631225585938,-549.0469970703125,169165.4325846667,-0.2313653468183854,-1.501218168081555,-0.04562843613847771,0.02235870808362961,-0.009686199948191643,-0.00584071222692728,-0.003671586513519287,-0.01030377298593521,0.01503682136535645,1,-0.09527947008609772,-0.6754235625267029,-0.0689292848110199,0.7279927730560303,-0.9965420365333557,0.04561260342597961,-0.06944967061281204,0,0,0,-1,169164.8204016667,3,2,1561841348.7669,0,0,0,0,0,0,0,0,0,169162.32975,0,-0.2827148,75.19563,0,182478453,3,1,1,-37.21427,-37.21427,1
1561841349.163707,28,0,0,1561841348.998641,4.634473747578109,-74.15111401125243,2552.703,-1,-1,4,50,-9999,1561841349.151837,-14.12837982177734,-23.69499588012695,11.23541259765625,142.6635284423828,150.15673828125,15,169165.4579146667,-0.995635986328125,0.0341033935546875,-0.053314208984375,169165.4579146667,-0.01242844017518179,0.02204058749760478,-0.002436792397422503,169165.4288916667,-86.85093688964844,-49.7762451171875,-549.2490844726562,169165.4528176667,-0.2312341021923543,-1.501219149493732,-0.04544901418605475,-0.007603985257446766,0.01160444132983685,-0.006912101991474628,-0.001633882522583008,-0.01187929511070251,0.01640969514846802,1,-0.09517018496990204,-0.6754391193389893,-0.06894240528345108,0.7279914617538452,-0.9965503215789795,0.04543336853384972,-0.06944926083087921,0,0,0,-1,169164.8204016667,3,2,1561841348.7669,0,0,0,0,0,0,0,0,0,169162.32975,0,-0.2827148,75.19563,0,182478453,3,1,1,-37.21427,-38.13374,1
1561841349.198002,29,0,0,1561841348.998641,4.634473747578109,-74.15111401125243,2552.703,-1,-1,4,50,-9999,1561841349.178252,-13.99205017089844,-23.78046035766602,11.1063232421875,142.6882476806641,150.1814575195312,15,169165.4781476667,-0.9891204833984375,0.0354766845703125,-0.05267333984375,169165.4781476667,-0.02615969875563034,0.02938984684178745,0.004576642333301171,169165.4489726667,-86.58297729492188,-49.93508911132812,-549.4490356445312,169165.4730816667,-0.2316125576652654,-1.500858486072417,-0.04534274629044446,-0.0258018970489502,0.02425685338675976,-0.004035887774080038,0.00429689884185791,-0.01172735542058945,0.01683050394058228,1,-0.09524703025817871,-0.6752951145172119,-0.06913343071937561,0.7280969619750977,-0.9965301752090454,0.04532720893621445,-0.06980901956558228,0,0,0,-1,169164.8204016667,3,2,1561841348.7669,0,0,0,0,0,0,0,0,0,169162.32975,0,-0.2827148,75.19563,0,182478453,3,1,1,-37.21427,-38.94042,1
1561841349.204112,30,0,0,1561841348.998641,4.634473747578109,-74.15111401125243,2552.703,-1,-1,4,50,-9999,1561841349.202626,-13.91759490966797,-23.82763671875,11.28729248046875,142.7235565185547,150.2167663574219,15,169165.4984106667,-0.9886016845703125,0.037139892578125,-0.0543060302734375,169165.4984106667,-0.01919286934398306,0.02696290814039824,0.02612374608091427,169165.4891646667,-86.53077697753906,-50.07086181640625,-548.9849853515625,169165.4933446667,-0.2320970572858453,-1.500459210118359,-0.04551396573996357,-0.02096319943666458,0.01861574500799179,0.01893920265138149,0.009647548198699951,-0.007702231407165527,0.01709049940109253,1,-0.09545881301164627,-0.675118088722229,-0.06927073001861572,0.7282203435897827,-0.996494472026825,0.04549825191497803,-0.07020635902881622,0,0,0,-1,169164.8204016667,3,2,1561841348.7669,0,0,0,0,0,0,0,0,0,169162.32975,0,-0.2827148,75.19563,0,182478453,3,1,1,-37.21427,-37.21427,1
1561841349.225129,31,0,0,1561841348.998641,4.634473747578109,-74.15111401125243,2552.703,-1,-1,4,50,-9999,1561841349.202626,-13.91759490966797,-23.82763671875,11.28729248046875,142.7235565185547,150.2167663574219,15,169165.5186746667,-0.9911956787109375,0.0400848388671875,-0.05291748046875,169165.5186746667,-0.02929317409421757,0.04337224151303047,0.01648789662478957,169165.5092756667,-86.37156677246094,-49.78999328613281,-549.1864013671875,169165.5136086667,-0.232555255906946,-1.499965992462381,-0.0459186012634225,-0.0287320539355278,0.03749172016978264,0.01633000373840332,0.007885277271270752,-0.006717890501022339,0.01663464307785034,1,-0.09574299305677414,-0.6748962998390198,-0.06932380795478821,0.728383481502533,-0.9964411854743958,0.04590246453881264,-0.07069652527570724,0,0,0,-1,169164.8204016667,3,2,1561841348.7669,0,0,0,0,0,0,0,0,0,169162.32975,0,-0.2827148,75.19563,0,182478453,3,1,1,-37.21427,-37.21427,1
1561841349.244792,32,0,0,1561841348.998641,4.634473747578109,-74.15111401125243,2552.703,-1,-1,4,50,-9999,1561841349.228991,-14.17832946777344,-23.71962356567383,11.38665771484375,142.7654418945312,150.2586517333984,15,169165.5389386667,-0.9957733154296875,0.0367431640625,-0.0494384765625,169165.5389386667,-0.0343521149009321,0.01803972059197874,0.001621598787749248,169165.5293556667,-86.82131958007812,-49.83250427246094,-549.3160400390625,169165.5338726667,-0.2331952824573774,-1.499350684245785,-0.04612738813562128,-0.03566373139619827,0.02174711227416992,0.003526323707774282,0.003361105918884277,-0.007506303489208221,0.02019202709197998,1,-0.09601324051618576,-0.6746309995651245,-0.06951557844877243,0.7285753488540649,-0.9963878393173218,0.04611103236675262,-0.07130894064903259,0,0,0,-1,169164.8204016667,3,2,1561841348.7669,0,0,0,0,0,0,0,0,0,169162.32975,0,-0.2827148,75.19563,0,182478453,3,1,1,-37.21427,-37.87883,1
1561841349.286676,33,0,0,1561841348.998641,4.634473747578109,-74.15111401125243,2552.703,-1,-1,4,50,-9999,1561841349.279977,-14.19319152832031,-23.59711837768555,11.26348876953125,142.8988647460938,150.3920745849609,15,169165.5592016667,-0.9982147216796875,0.0338592529296875,-0.047760009765625,169165.5592016667,-0.04875528902440764,0.00722169392796787,-0.004900216405745799,169165.5494666667,-86.79295349121094,-49.67326354980469,-549.3231201171875,169165.5541356667,-0.2340085009486685,-1.499257485818579,-0.04605241092778628,-0.0438646674156189,0.0007131998427212238,-0.009171894751489162,0.0001842379570007324,-0.01289404183626175,0.02437448501586914,1,-0.09625710546970367,-0.6745617389678955,-0.06984174251556396,0.7285761833190918,-0.9963847398757935,0.04603613540530205,-0.07140205800533295,0,0,0,-1,169164.8204016667,3,2,1561841348.7669,0,0,0,0,0,0,0,0,0,169162.32975,0,-0.2827148,75.19563,0,182478453,3,1,1,-37.21427,-39.27383,1
1561841349.291202,34,0,0,1561841348.998641,4.634473747578109,-74.15111401125243,2552.703,-1,-1,4,50,-9999,1561841349.279977,-14.19319152832031,-23.59711837768555,11.26348876953125,142.8988647460938,150.3920745849609,15,169165.5794656667,-0.99774169921875,0.0331268310546875,-0.0538482666015625,169165.5794656667,-0.06532574364298967,0.00676762496210936,-0.01428439713885801,169165.5695476667,-87.18626403808594,-49.72850036621094,-549.024169921875,169165.5743996667,-0.2351325060259392,-1.499314005943705,-0.04588195734164004,-0.06657770276069641,0.003553727176040411,-0.01542526297271252,-0.003374576568603516,-0.01096901297569275,0.02088552713394165,1,-0.09657640755176544,-0.6745367646217346,-0.07030628621578217,0.7285123467445374,-0.9963966012001038,0.04586585983633995,-0.07134629786014557,0,0,0,-1,169164.8204016667,3,2,1561841348.7669,0,0,0,0,0,0,0,0,0,169162.32975,0,-0.2827148,75.19563,0,182478453,3,1,1,-37.21427,-39.27383,1
1561841349.307044,35,0,0,1561841348.998641,4.634473747578109,-74.15111401125243,2552.703,-1,-1,4,50,-9999,1561841349.303803,-14.28517913818359,-23.68978500366211,11.27532958984375,142.9970397949219,150.4902496337891,15,169165.5997296667,-0.994537353515625,0.03326416015625,-0.0596923828125,169165.5997296667,-0.05052602483320132,0.02621349460964994,-0.01548974384822787,169165.5896276667,-86.81211853027344,-50.04649353027344,-549.2929077148438,169165.5946326667,-0.2364977464492408,-1.499305215449923,-0.04558522148134002,-0.06012912467122078,0.01532410085201263,-0.02063866704702377,0.0003920197486877441,-0.01325131952762604,0.01306742429733276,1,-0.09692899137735367,-0.6744825839996338,-0.07090464979410172,0.7284576892852783,-0.9964094758033752,0.04556943476200104,-0.07135602831840515,0,0,0,-1,169164.8204016667,3,2,1561841348.7669,0,0,0,0,0,0,0,0,0,169162.32975,0,-0.2827148,75.19563,0,182478453,3,1,1,-37.77155,-38.56942,1
1561841349.325946,36,0,0,1561841348.998641,4.634473747578109,-74.15111401125243,2552.703,-1,-1,4,50,-9999,1561841349.303803,-14.28517913818359,-23.68978500366211,11.27532958984375,142.9970397949219,150.4902496337891,15,169165.6199626667,-0.9920654296875,0.03961181640625,-0.0610504150390625,169165.6199626667,-0.001916943352639036,0.02727290009128346,0.002405899728777584,169165.6097386667,-86.81298828125,-49.87895202636719,-549.2119750976562,169165.6148966667,-0.2373291261509848,-1.498920384970672,-0.04534021500381714,-0.01406948734074831,0.0254297312349081,-0.00375475874170661,0.004068195819854736,-0.00935971736907959,0.01094925403594971,1,-0.09710685908794403,-0.674314558506012,-0.07130924612283707,0.7285500168800354,-0.9963930249214172,0.04532468318939209,-0.07174026966094971,0,0,0,-1,169164.8204016667,3,2,1561841348.7669,0,0,0,0,0,0,0,0,0,169162.32975,0,-0.2827148,75.19563,0,182478453,3,1,1,-38.32883,-39.16629,1
1561841349.362107,37,0,0,1561841348.998641,4.634473747578109,-74.15111401125243,2552.703,-1,-1,4,50,-9999,1561841349.356808,-14.11863708496094,-23.88020324707031,11.193603515625,142.989990234375,150.4832000732422,15,169165.6402266667,-0.995391845703125,0.039520263671875,-0.056121826171875,169165.6402266667,0.0443813132500615,-0.0009012137128828142,-0.001941178118558757,169165.6298196667,-86.68739318847656,-49.95695495605469,-549.4487915039062,169165.6351606667,-0.2370806963935221,-1.498688562191465,-0.04527397045721188,0.0382472462952137,-0.002429063897579908,-0.002851414494216442,0.003947734832763672,-0.004090286791324615,0.01299625635147095,1,-0.09699082374572754,-0.6742455363273621,-0.07125245779752731,0.7286349534988403,-0.9963793754577637,0.04525850713253021,-0.07197147607803345,0,0,0,-1,169164.8204016667,3,2,1561841348.7669,0,0,0,0,0,0,0,0,0,169162.32975,0,-0.2827148,75.19563,0,182478453,3,1,1,-38.88611,-39.73888,1
1561841349.366273,38,0,0,1561841348.998641,4.634473747578109,-74.15111401125243,2552.703,-1,-1,4,50,-9999,1561841349.356808,-14.11863708496094,-23.88020324707031,11.193603515625,142.989990234375,150.4832000732422,15,169165.6604896667,-1.0009765625,0.0382080078125,-0.0533905029296875,169165.6604896667,0.03354278024565701,-0.006596916336235281,-0.0141866591268521,169165.6499306667,-86.85845947265625,-49.95953369140625,-549.41259765625,169165.6554236667,-0.2362215047067087,-1.498902291006351,-0.04501251950338334,0.04090934246778488,-0.01446015946567059,-0.01491260528564453,-0.003318846225738525,-0.006041631102561951,0.01777374744415283,1,-0.09661397337913513,-0.6743782758712769,-0.07101776450872421,0.7285850644111633,-0.9964064955711365,0.04499731957912445,-0.07175936549901962,0,0,0,-1,169164.8204016667,3,2,1561841348.7669,0,0,0,0,0,0,0,0,0,169162.32975,0,-0.2827148,75.19563,0,182478453,3,1,1,-39.44339,-40.41216,1
1561841349.386594,39,0,0,1561841348.998641,4.634473747578109,-74.15111401125243,2552.703,-1,-1,4,50,-9999,1561841349.380906,-14.06369018554688,-23.71610260009766,11.1253662109375,142.9523162841797,150.4455261230469,15,169165.6807536667,-0.9983673095703125,0.0363616943359375,-0.0557861328125,169165.6807536667,0.004511927518812246,0.01198742069866467,-0.03177231075297234,169165.6700116667,-86.46528625488281,-49.80172729492188,-549.02978515625,169165.6756876667,-0.2357652343247172,-1.499072366729455,-0.04449889244640536,0.007883481681346893,0.0003872290253639221,-0.03104470297694206,-0.004824817180633545,-0.007893629372119904,0.01620215177536011,1,-0.09627996385097504,-0.6744882464408875,-0.0710175484418869,0.7285275459289551,-0.996441662311554,0.0444842092692852,-0.07159154862165451,0,0,0,-1,169164.8204016667,3,2,1561841348.7669,0,0,0,0,0,0,0,0,0,169163.271949,0,0.01074219,75.19284,0,182478453,3,1,1,-39.44339,-40.41216,1
1561841349.408818,40,0,0,1561841348.998641,4.634473747578109,-74.15111401125243,2552.703,-1,-1,4,50,-9999,1561841349.407355,-14.21842956542969,-23.77957916259766,11.30474853515625,142.9583892822266,150.4515991210938,15,169165.7010176667,-0.99200439453125,0.0399322509765625,-0.054656982421875,169165.7010176667,-0.004114317568063415,0.01718644377871736,-0.03463707313757057,169165.6901226667,-86.70204162597656,-49.73399353027344,-549.2236328125,169165.6959516667,-0.2358147351029577,-1.498912484758249,-0.04373053357121084,-0.005428062751889229,0.0138337966054678,-0.03855987638235092,0.0009195208549499512,-0.005554370582103729,0.01642489433288574,1,-0.09601244330406189,-0.6744664311408997,-0.0713038444519043,0.7285550236701965,-0.9964639544487,0.04371659830212593,-0.07175328582525253,0,0,0,-1,169164.8204016667,3,2,1561841348.7669,0,0,0,0,0,0,0,0,0,169163.271949,0,0.01074219,75.19284,0,182478453,3,1,1,-39.94275,-40.67941,1
1561841349.446819,41,0,0,1561841348.998641,4.634473747578109,-74.15111401125243,2552.703,-1,-1,4,50,-9999,1561841349.432248,-14.22246551513672,-23.83126449584961,11.4718017578125,142.9705810546875,150.4637908935547,15,169165.7212806667,-0.98834228515625,0.0406341552734375,-0.0522003173828125,169165.7212806667,-0.001067927597121775,0.01007660261653281,-0.01683517283093591,169165.7102026667,-86.84384155273438,-50.15496826171875,-549.1607055664062,169165.7161846667,-0.2359555069736587,-1.498726643149762,-0.04303386183365202,-0.003050658851861954,0.00586668262258172,-0.02621212974190712,0.008107900619506836,-0.003668159246444702,0.01967930793762207,1,-0.09580069780349731,-0.6744270920753479,-0.07160027325153351,0.7285902500152588,-0.9964807033538818,0.0430205799639225,-0.07194064557552338,0,0,0,-1,169164.8204016667,3,2,1561841348.7669,0,0,0,0,0,0,0,0,0,169163.271949,0,0.01074219,75.19284,0,182478453,3,1,1,-37.97385,-41.7422,1
1561841349.450442,42,0,0,1561841348.998641,4.634473747578109,-74.15111401125243,2552.703,-1,-1,4,50,-9999,1561841349.432248,-14.22246551513672,-23.83126449584961,11.4718017578125,142.9705810546875,150.4637908935547,15,169165.741503875,-0.9911041259765625,0.0452117919921875,-0.0546722412109375,169165.741503875,-0.0003597930632697051,0.003119360584809812,-0.003954527902658661,169165.730303875,-86.77117919921875,-49.88858032226562,-549.3082275390625,169165.736437875,-0.2360160407267789,-1.498686099287479,-0.04270768620668464,-0.001306288293562829,-0.0002894802019000053,-0.009202787652611732,0.008637785911560059,0.0005639567971229553,0.01836264133453369,1,-0.09570138901472092,-0.6744258403778076,-0.07173486053943634,0.72859126329422,-0.9964917898178101,0.04269470646977425,-0.07198206335306168,0,0,0,-1,169164.8204016667,3,2,1561841348.7669,0,0,0,0,0,0,0,0,0,169163.271949,0,0.01074219,75.19284,0,182478453,3,1,1,-37.97385,-41.7422,1
1561841349.46755,43,0,0,1561841348.998641,4.634473747578109,-74.15111401125243,2552.703,-1,-1,4,50,-9999,1561841349.45708,-14.13965606689453,-23.79733276367188,11.2613525390625,142.9752044677734,150.4684143066406,15,169165.761767875,-0.9940643310546875,0.0458831787109375,-0.0575103759765625,169165.761767875,-0.004006992176133222,0.01247904023589329,-0.003785683489547637,169165.750384875,-86.9163818359375,-49.75032043457031,-549.2240600585938,169165.756701875,-0.2360655042236361,-1.498750746742122,-0.04253635832553162,-0.003005118574947119,0.003144399728626013,-0.007407550700008869,0.003858447074890137,0.003603793680667877,0.01535385847091675,1,-0.09565827250480652,-0.6744556427001953,-0.07180787622928619,0.7285621166229248,-0.9965037107467651,0.04252353310585022,-0.07191815972328186,0,0,0,-1,169164.8204016667,3,2,1561841348.7669,0,0,0,0,0,0,0,0,0,169163.271949,0,0.01074219,75.19284,0,182478453,3,1,1,-37.02971,-42.09534,1
1561841349.487853,44,0,0,1561841348.998641,4.634473747578109,-74.15111401125243,2552.703,-1,-1,4,50,-9999,1561841349.482224,-14.07394409179688,-23.70756530761719,11.00787353515625,142.9871215820312,150.4803314208984,15,169165.782031875,-0.9914703369140625,0.0424652099609375,-0.0583648681640625,169165.782031875,-0.004121241786897621,0.01626285951267788,-0.01097462053610753,169165.770465875,-86.89715576171875,-49.83036804199219,-549.2445678710938,169165.776965875,-0.2362268665584882,-1.498609975568655,-0.042367049308128,-0.007615849375724792,0.0109807513654232,-0.01162306871265173,0.001902401447296143,0.003147333860397339,0.01387721300125122,1,-0.09564623236656189,-0.6744051575660706,-0.07193079590797424,0.7285983562469482,-0.9965007901191711,0.04235437512397766,-0.07205896079540253,0,0,0,-1,169164.8204016667,3,2,1561841348.7669,0,0,0,0,0,0,0,0,0,169163.271949,0,0.01074219,75.19284,0,182478453,3,1,1,-37.02971,-37.86063,1
1561841349.524709,45,0,0,1561841348.998641,4.634473747578109,-74.15111401125243,2552.703,-1,-1,4,50,-9999,1561841349.507408,-14.18002319335938,-23.71961975097656,11.00726318359375,142.9991607666016,150.4923706054688,15,169165.802294875,-0.9903106689453125,0.0377197265625,-0.0546875,169165.802294875,0.006701578567075395,-0.0008631305092946811,-0.0178905835709343,169165.790576875,-86.68328857421875,-50.0047607421875,-549.5205078125,169165.797228875,-0.2363362023892403,-1.498516988209766,-0.04202797697474564,0.0001837502932175994,-0.0005051963962614536,-0.02115345560014248,0.006929993629455566,-0.002358011901378632,0.01513057947158813,1,-0.09555681049823761,-0.6743831038475037,-0.0720900222659111,0.7286146879196167,-0.9965082406997681,0.04201560467481613,-0.07215265184640884,0,0,0,-1,169165.792773875,2,0,1561841349.739273,0,0,0,0,0,0,0,0,0,169163.271949,0,0.01074219,75.19284,0,182478453,3,1,1,-37.02971,-38.49876,1
1561841349.528385,46,0,0,1561841348.998641,4.634473747578109,-74.15111401125243,2552.703,-1,-1,4,50,-9999,1561841349.507408,-14.18002319335938,-23.71961975097656,11.00726318359375,142.9991607666016,150.4923706054688,15,169165.822558875,-0.9867401123046875,0.0366058349609375,-0.05487060546875,169165.822558875,0.01187956267451646,-0.006209426397628752,-0.01330435385770885,169165.810656875,-86.86795043945312,-50.11772155761719,-549.0950927734375,169165.817492875,-0.2362110695279045,-1.498735987234247,-0.04156692573027675,0.01029950194060802,-0.01302285213023424,-0.02086237259209156,0.007743239402770996,-0.005544207990169525,0.01907938718795776,1,-0.0953553318977356,-0.6744920015335083,-0.0721902921795845,0.7285303473472595,-0.9965432286262512,0.04155495762825012,-0.07193580269813538,0,0,0,-1,169165.792773875,2,0,1561841349.739273,0,0,0,0,0,0,0,0,0,169163.271949,0,0.01074219,75.19284,0,182478453,3,1,1,-37.02971,-38.49876,1
1561841349.548616,47,0,0,1561841348.998641,4.634473747578109,-74.15111401125243,2552.703,-1,-1,4,50,-9999,1561841349.532677,-14.2017822265625,-24.00566101074219,11.22711181640625,142.9903717041016,150.4835815429688,15,169165.842822875,-0.9870452880859375,0.041961669921875,-0.056610107421875,169165.842822875,0.01191338482036046,0.01459039434810811,0.008113852893144416,169165.830767875,-86.84335327148438,-49.96900939941406,-549.3182373046875,169165.837756875,-0.2360694861674986,-1.498897809783364,-0.04132204575425225,0.005894899368286133,0.001929732039570808,-0.003359545487910509,0.01063358783721924,-0.00339219719171524,0.01595860719680786,1,-0.09522463381290436,-0.6745699644088745,-0.0722140371799469,0.728472888469696,-0.9965649843215942,0.04131028801202774,-0.07177526503801346,0,0,0,-1,169165.792773875,2,0,1561841349.739273,0,0,0,0,0,0,0,0,0,169163.271949,0,0.01074219,75.19284,0,182478453,3,1,1,-37.02971,-39.01992,1
1561841349.568987,48,0,0,1561841348.998641,4.634473747578109,-74.15111401125243,2552.703,-1,-1,4,50,-9999,1561841349.55748,-14.09529113769531,-23.8029899597168,11.31072998046875,142.9801177978516,150.4733276367188,15,169165.863085875,-0.9859466552734375,0.04302978515625,-0.056640625,169165.863085875,0.01192270588417574,0.01106516801317023,0.02740019919138925,169165.850848875,-86.82275390625,-50.05180358886719,-549.3028564453125,169165.857989875,-0.2358225108359391,-1.49875174983707,-0.0415478276544261,0.0149126285687089,0.007738352287560701,0.02174554206430912,0.01012539863586426,0.001417621970176697,0.01465392112731934,1,-0.09521794319152832,-0.6745172142982483,-0.07205447554588318,0.7285383343696594,-0.9965450763702393,0.0415358766913414,-0.07192014157772064,0,0,0,-1,169165.792773875,2,0,1561841349.739273,0,0,0,0,0,0,0,0,0,169163.271949,0,0.01074219,75.19284,0,182478453,3,1,1,-37.02971,-39.72596,1
1561841349.609471,49,0,0,1561841348.998641,4.634473747578109,-74.15111401125243,2552.703,-1,-1,4,50,-9999,1561841349.583487,-14.17201995849609,-24.05255508422852,11.03790283203125,142.9683532714844,150.4615631103516,15,169165.883319875,-0.992889404296875,0.0383453369140625,-0.0570068359375,169165.883319875,-0.01092588468815908,0.008950618107647312,0.02810460529971521,169165.870959875,-86.79132080078125,-49.87908935546875,-549.318115234375,169165.878253875,-0.2356681473823597,-1.498692251055202,-0.04205543507557327,-0.008449951186776161,0.002892464864999056,0.02651233412325382,0.007521271705627441,-0.001347847282886505,0.01577979326248169,1,-0.09534779936075211,-0.6744774580001831,-0.07182897627353668,0.7285804748535156,-0.9965196847915649,0.04204303771257401,-0.07197791337966919,0,0,0,-1,169165.792773875,2,0,1561841349.739273,0,0,0,0,0,0,0,0,0,169163.271949,0,0.01074219,75.19284,0,182478453,3,1,1,-37.02971,-40.56773,1
1561841349.611318,50,0,0,1561841348.998641,4.634473747578109,-74.15111401125243,2552.703,-1,-1,4,50,-9999,1561841349.608398,-14.3712158203125,-23.78750991821289,11.26025390625,143.0027465820312,150.4959564208984,15,169165.903582875,-1.00164794921875,0.0352783203125,-0.05340576171875,169165.903582875,-0.03267645394305424,0.01010882686572277,0.006762032323820194,169165.891040875,-87.03250122070312,-49.87564086914062,-549.2893676757812,169165.898516875,-0.2360546353140479,-1.498661703891641,-0.04248957389782212,-0.03316675126552582,0.004927119705826044,0.01131553668528795,-0.000311732292175293,-0.00509275496006012,0.01699912548065186,1,-0.09563445299863815,-0.6744260787963867,-0.07182403653860092,0.7285909652709961,-0.9964991807937622,0.04247679188847542,-0.07200703024864197,0,0,0,-1,169165.792773875,2,0,1561841349.739273,0,0,0,0,0,0,0,0,0,169163.271949,0,0.01074219,75.19284,0,182478453,3,1,1,-37.02971,-40.56773,1
1561841349.629758,51,0,0,1561841348.998641,4.634473747578109,-74.15111401125243,2552.703,-1,-1,4,50,-9999,1561841349.608398,-14.3712158203125,-23.78750991821289,11.26025390625,143.0027465820312,150.4959564208984,15,169165.923846875,-0.999786376953125,0.0331878662109375,-0.0527801513671875,169165.923846875,-0.02378282748273462,-0.01104705851775769,-0.01126463877881716,169165.911151875,-86.82652282714844,-49.81146240234375,-549.145263671875,169165.918780875,-0.2367548365966129,-1.498684063646064,-0.04246737541812337,-0.02913765422999859,-0.007732482627034187,-0.01378448959439993,-0.006931483745574951,-0.009037867188453674,0.01905208826065063,1,-0.09586331993341446,-0.6744018197059631,-0.07208556681871414,0.7285575270652771,-0.9965017437934875,0.04245461151003838,-0.07198482006788254,0,0,0,-1,169165.792773875,2,0,1561841349.739273,0,0,0,0,0,0,0,0,0,169163.271949,0,0.01074219,75.19284,0,182478453,3,1,1,-37.02971,-41.17319,1
1561841349.649985,52,0,0,1561841348.998641,4.634473747578109,-74.15111401125243,2552.703,-1,-1,4,50,-9999,1561841349.634034,-14.19095611572266,-23.84907531738281,11.2593994140625,143.0518341064453,150.5450439453125,15,169165.944110875,-0.9944305419921875,0.0339813232421875,-0.0560455322265625,169165.944110875,0.006192115850543236,-0.02528511665364832,0.005226187323171497,169165.931231875,-86.91836547851562,-49.89445495605469,-549.23681640625,169165.939044875,-0.2371225410870681,-1.499187499226698,-0.04228954067506705,-0.001864753197878599,-0.03233396634459496,-0.002166982041671872,-0.0008453130722045898,-0.008463464677333832,0.01717764139175415,1,-0.09594102203845978,-0.6745765209197998,-0.07225565612316132,0.7283686995506287,-0.9965454339981079,0.04227693751454353,-0.07148367911577225,0,0,0,-1,169165.792773875,2,0,1561841349.739273,0,0,0,0,0,0,0,0,0,169163.271949,0,0.01074219,75.19284,0,182478453,3,1,1,-37.02971,-41.74535,1
1561841349.682489,53,0,0,1561841348.998641,4.634473747578109,-74.15111401125243,2552.703,-1,-1,4,50,-9999,1561841349.659182,-13.97019195556641,-23.96203231811523,11.20361328125,143.0572052001953,150.5504150390625,15,169165.964373875,-0.9894256591796875,0.0322723388671875,-0.05859375,169165.964373875,0.007383081490026672,0.008566590278457886,0.03249535898892885,169165.951342875,-86.85397338867188,-49.97695922851562,-549.4378662109375,169165.959307875,-0.2370062497470731,-1.499668345529894,-0.04242696618332296,0.006291178055107594,-0.005632846616208553,0.01900248602032661,0.003684461116790771,-0.009012743830680847,0.01250183582305908,1,-0.09596896171569824,-0.6747502684593201,-0.07214362919330597,0.7282151579856873,-0.9965738654136658,0.04241424053907394,-0.07100407034158707,0,0,0,-1,169165.792773875,2,0,1561841349.739273,0,0,0,0,0,0,0,0,0,169163.271949,0,0.01074219,75.19284,0,182478453,3,1,1,-37.02971,-41.90854,1
1561841349.691326,54,0,0,1561841348.998641,4.634473747578109,-74.15111401125243,2552.703,-1,-1,4,50,-9999,1561841349.684842,-14.19932556152344,-23.81584548950195,11.06048583984375,143.0521545410156,150.5453643798828,15,169165.984637875,-0.9864044189453125,0.034637451171875,-0.056427001953125,169165.984637875,-0.008998821323377745,0.02920182766882785,0.06842140209409778,169165.971423875,-86.7056884765625,-50.03901672363281,-549.1016235351562,169165.979541875,-0.2369109963292777,-1.499503469941805,-0.04321153299733321,-0.003984362818300724,0.02139930427074432,0.05679567158222198,0.009422361850738525,-0.01078841090202332,0.01234334707260132,1,-0.09621521830558777,-0.6746551990509033,-0.0718507394194603,0.7282997369766235,-0.996528685092926,0.04319808632135391,-0.07116598635911942,0,0,0,-1,169165.792773875,2,0,1561841349.739273,0,0,0,0,0,0,0,0,0,169163.271949,0,0.01074219,75.19284,0,182478453,3,1,1,-37.02971,-42.25284,1
1561841349.710852,55,0,0,1561841348.998641,4.634473747578109,-74.15111401125243,2552.703,-1,-1,4,50,-9999,1561841349.70916,-14.20360565185547,-23.79126739501953,11.37750244140625,143.0990142822266,150.5922241210938,15,169166.004870875,-0.9954681396484375,0.0272216796875,-0.0521392822265625,169166.004870875,-0.08865157268266668,0.04606096894957448,0.06666637893573556,169165.991534875,-86.60603332519531,-50.05990600585938,-549.2213134765625,169165.999804875,-0.2373682364214575,-1.499039680561492,-0.04461135562650431,-0.06339708715677261,0.03407222032546997,0.07217808812856674,0.008183538913726807,-0.01172913610935211,0.01800435781478882,1,-0.0968601331114769,-0.6743932366371155,-0.07156488299369812,0.7284849882125854,-0.9964342713356018,0.04459656029939651,-0.07162375748157501,0,0,0,-1,169165.792773875,2,0,1561841349.739273,0,0,0,0,0,0,0,0,0,169163.271949,0,0.01074219,75.19284,0,182478453,3,1,1,-37.02971,-42.25284,1
1561841349.731146,56,0,0,1561841348.998641,4.634473747578109,-74.15111401125243,2552.703,-1,-1,4,50,-9999,1561841349.70916,-14.20360565185547,-23.79126739501953,11.37750244140625,143.0990142822266,150.5922241210938,15,169166.025134875,-1.013198852539062,0.0126190185546875,-0.0447845458984375,169166.025134875,-0.1832667619943478,0.07539382414403423,-0.003040264700434458,169166.011614875,-86.83049011230469,-49.97183227539062,-549.2785034179688,169166.020068875,-0.2396707425112837,-1.49814864770227,-0.0457120616813764,-0.1690755784511566,0.07028108835220337,0.01462744455784559,-0.008394598960876465,-0.02465426921844482,0.02392399311065674,1,-0.09800323843955994,-0.6739001274108887,-0.07207392156124115,0.7287381291389465,-0.996320366859436,0.04569614306092262,-0.07250797003507614,0,0,0,-1,169165.792773875,2,0,1561841349.739273,0,0,0,0,0,0,0,0,0,169163.271949,0,0.01074219,75.19284,0,182478453,3,1,1,-36.72231,-42.54062,1
1561841349.768939,57,0,0,1561841348.998641,4.634473747578109,-74.15111401125243,2552.703,-1,-1,4,50,-9999,1561841349.760225,-14.12014770507812,-24.06257629394531,11.113525390625,143.5388946533203,151.0321044921875,15,169166.045397875,-1.016143798828125,0.01531982421875,-0.0400238037109375,169166.045397875,-0.1351730021847159,0.001752093681163131,-0.06045588727367077,169166.031726875,-86.67906188964844,-50.21223449707031,-549.3963623046875,169166.040332875,-0.2433364966467177,-1.497255733487078,-0.04543399708290136,-0.1590951234102249,0.0201734509319067,-0.05844516679644585,-0.02329385280609131,-0.03325711190700531,0.03332889080047607,1,-0.09910464286804199,-0.6734085083007812,-0.07354797422885895,0.7288963794708252,-0.9962679147720337,0.04541836678981781,-0.07339850068092346,0,0,0,-1,169165.792773875,2,0,1561841349.739273,0,0,0,0,0,0,0,0,0,169163.271949,0,0.01074219,75.19284,0,182478453,3,1,1,-36.72231,-39.74083,1
1561841349.774294,58,0,0,1561841348.998641,4.634473747578109,-74.15111401125243,2552.703,-1,-1,4,50,-9999,1561841349.760225,-14.12014770507812,-24.06257629394531,11.113525390625,143.5388946533203,151.0321044921875,15,169166.065661875,-0.9998931884765625,0.024688720703125,-0.0519256591796875,169166.065661875,-0.07279244839124482,-0.0248811151162833,-0.05203204242964113,169166.051806875,-86.83978271484375,-50.03388977050781,-549.4864501953125,169166.060595875,-0.2458163045728535,-1.497659523943697,-0.04427196785975215,-0.08192337304353714,-0.02898424118757248,-0.06196559965610504,-0.01001358032226562,-0.02567229419946671,0.02795606851577759,1,-0.09953338652849197,-0.6734932065010071,-0.07482513040304184,0.7286295890808105,-0.9963493347167969,0.0442575067281723,-0.07300001382827759,0,0,0,-1,169165.792773875,2,0,1561841349.739273,0,0,0,0,0,0,0,0,0,169163.271949,0,0.01074219,75.19284,0,182478453,3,1,1,-36.72231,-39.74083,1
1561841349.791935,59,0,0,1561841348.998641,4.634473747578109,-74.15111401125243,2552.703,-1,-1,4,50,-9999,1561841349.786085,-14.29738616943359,-24.05645370483398,10.92230224609375,143.6514282226562,151.1446380615234,15,169166.085925875,-0.991943359375,0.0315093994140625,-0.0632171630859375,169166.085925875,-0.0393098555862236,0.003051183660903783,-0.02752856355593107,169166.071917875,-86.86334228515625,-50.10211181640625,-549.4132690429688,169166.080859875,-0.2471984841612284,-1.498238026471775,-0.04332609217797339,-0.04751080274581909,-0.01276425924152136,-0.04089147225022316,-0.0009579062461853027,-0.01290176808834076,0.01227647066116333,1,-0.09967784583568573,-0.6736846566200256,-0.07562020421028137,0.728350818157196,-0.9964328408241272,0.04331253841519356,-0.07242662459611893,0,0,0,-1,169165.792773875,2,0,1561841349.739273,0,0,0,0,0,0,0,0,0,169163.271949,0,0.01074219,75.19284,0,182478453,3,1,1,-36.72231,-40.50368,1
1561841349.812063,60,0,0,1561841348.998641,4.634473747578109,-74.15111401125243,2552.703,-1,-1,4,50,-9999,1561841349.810428,-14.19331359863281,-23.89266967773438,11.00860595703125,143.700927734375,151.1941375732422,15,169166.106188875,-0.9900970458984375,0.0360565185546875,-0.0622406005859375,169166.106188875,-0.003086870019510845,0.02942979425813864,0.008062453884105886,169166.091998875,-86.69012451171875,-50.03819274902344,-549.5278930664062,169166.101123875,-0.2478884885654265,-1.498184568151675,-0.04290381267844454,-0.0150306224822998,0.02273274958133698,-0.001073754392564297,0.007189273834228516,-0.009534947574138641,0.008699417114257812,1,-0.09975522756576538,-0.6736529469490051,-0.07601720839738846,0.7283281683921814,-0.9964470863342285,0.04289065301418304,-0.07248120009899139,0,0,0,-1,169165.792773875,2,0,1561841349.739273,0,0,0,0,0,0,0,0,0,169163.271949,0,0.01074219,75.19284,0,182478453,3,1,1,-36.72231,-40.6899,1
1561841349.846143,61,0,0,1561841348.998641,4.634473747578109,-74.15111401125243,2552.703,-1,-1,4,50,-9999,1561841349.836902,-13.82798004150391,-24.10810089111328,11.064453125,143.6721496582031,151.1653594970703,15,169166.126452875,-0.99676513671875,0.035858154296875,-0.052276611328125,169166.126452875,0.04511128570485222,0.002437058713531511,-0.01915931351424805,169166.112109875,-86.6065673828125,-50.15463256835938,-549.3832397460938,169166.121356875,-0.2477422702371578,-1.497878604260331,-0.0428116322220348,0.03057308122515678,0.004383035469800234,-0.01192586962133646,0.003203690052032471,-0.005078829824924469,0.01497077941894531,1,-0.09966094791889191,-0.6735536456108093,-0.07601043581962585,0.7284336090087891,-0.9964287877082825,0.04279855638742447,-0.0727863609790802,0,0,0,-1,169165.792773875,2,0,1561841349.739273,0,0,0,0,0,0,0,0,0,169163.271949,0,0.01074219,75.19284,0,182478453,3,1,1,-36.72231,-41.27784,1
1561841349.852532,62,0,0,1561841348.998641,4.634473747578109,-74.15111401125243,2552.703,-1,-1,4,50,-9999,1561841349.836902,-13.82798004150391,-24.10810089111328,11.064453125,143.6721496582031,151.1653594970703,15,169166.146685875,-1.002090454101562,0.0353851318359375,-0.0431365966796875,169166.146685875,0.06678036223039095,-0.02624092516887776,-0.04839949070277305,169166.132189875,-86.86131286621094,-50.353271484375,-549.4832763671875,169166.141619875,-0.2467488962301198,-1.498102972708853,-0.04205605158941496,0.06661444157361984,-0.02607420459389687,-0.04600793868303299,-0.004331409931182861,-0.00746724009513855,0.02512562274932861,1,-0.099061019718647,-0.6737242341041565,-0.07589344680309296,0.7283700704574585,-0.9964773058891296,0.04204365611076355,-0.07256513833999634,0,0,0,-1,169165.792773875,2,0,1561841349.739273,0,0,0,0,0,0,0,0,0,169163.271949,0,0.01074219,75.19284,0,182478453,3,1,1,-36.72231,-41.27784,1
1561841349.873764,63,0,0,1561841348.998641,4.634473747578109,-74.15111401125243,2552.703,-1,-1,4,50,-9999,1561841349.861039,-13.92125701904297,-24.18330001831055,11.11279296875,143.5916595458984,151.0848693847656,15,169166.166949875,-0.9975738525390625,0.0370025634765625,-0.0411376953125,169166.166949875,0.02190982628808189,-0.04080708475106615,-0.04574991173425322,169166.152301875,-86.85493469238281,-49.96043395996094,-549.4423828125,169166.161883875,-0.2456878029490397,-1.498865892176879,-0.04086635590459884,0.03710182011127472,-0.04631476476788521,-0.05413271114230156,-0.003769576549530029,-0.005759775638580322,0.03167784214019775,1,-0.09830130636692047,-0.6741161942481995,-0.07587253302335739,0.7281123399734497,-0.9965813755989075,0.04085498303174973,-0.07180842012166977,0,0,0,-1,169165.792773875,2,0,1561841349.739273,0,0,0,0,0,0,0,0,0,169163.271949,0,0.01074219,75.19284,0,182478453,3,1,1,-36.72231,-40.24478,1
1561841349.89315,64,0,0,1561841348.998641,4.634473747578109,-74.15111401125243,2552.703,-1,-1,4,50,-9999,1561841349.887375,-14.16211700439453,-24.05526351928711,10.935302734375,143.5800628662109,151.0732727050781,15,169166.187213875,-0.9917449951171875,0.0437469482421875,-0.048675537109375,169166.187213875,-0.040230510375064,-0.0211170032315653,-0.03588023673441956,169166.172381875,-86.58509826660156,-50.14370727539062,-549.6717529296875,169166.182147875,-0.2457039788413955,-1.499713880050725,-0.03990753121635628,-0.03234782814979553,-0.02920768037438393,-0.03987015038728714,0.001471817493438721,0.002034209668636322,0.02694439888000488,1,-0.09799161553382874,-0.6744735836982727,-0.07616180926561356,0.7277928590774536,-0.9966805577278137,0.03989693894982338,-0.07096605747938156,0,0,0,-1,169165.792773875,2,0,1561841349.739273,0,0,0,0,0,0,0,0,0,169163.271949,0,0.01074219,75.19284,0,182478453,3,1,1,-36.72231,-40.9552,1
1561841349.924999,65,0,0,1561841348.998641,4.634473747578109,-74.15111401125243,2552.703,-1,-1,4,50,-9999,1561841349.911847,-14.11777496337891,-24.31859588623047,11.0443115234375,143.6578826904297,151.1510925292969,15,169166.207476875,-0.985504150390625,0.0486297607421875,-0.0519866943359375,169166.207476875,-0.0509151126684619,-0.01773505496327368,-0.0116792929605425,169166.192492875,-86.45353698730469,-50.44468688964844,-549.3901977539062,169166.202410875,-0.2467086302954,-1.500239464062277,-0.03927104292072398,-0.05396710336208344,-0.01993535272777081,-0.02467921376228333,0.008293688297271729,0.007934488356113434,0.01993739604949951,1,-0.09812003374099731,-0.6746484041213989,-0.07671737670898438,0.7275550961494446,-0.9967427849769592,0.03926094993948936,-0.07044398039579391,0,0,0,-1,169165.792773875,2,0,1561841349.739273,0,0,0,0,0,0,0,0,0,169163.271949,0,0.01074219,75.19284,0,182478453,3,1,1,-36.72231,-41.83944,1
1561841349.933564,66,0,0,1561841348.998641,4.634473747578109,-74.15111401125243,2552.703,-1,-1,4,50,-9999,1561841349.911847,-14.11777496337891,-24.31859588623047,11.0443115234375,143.6578826904297,151.1510925292969,15,169166.227740875,-0.987579345703125,0.053924560546875,-0.055450439453125,169166.227740875,-0.02074282909840917,-0.02328002266892766,0.0100896521058742,169166.212573875,-86.81658935546875,-50.15855407714844,-549.8133544921875,169166.222674875,-0.2476733598304923,-1.500811692107637,-0.03916677279305716,-0.03399366140365601,-0.0258190743625164,0.00405229814350605,0.01100820302963257,0.01304356753826141,0.01631557941436768,1,-0.09842974692583084,-0.6748145222663879,-0.07707551121711731,0.7273213267326355,-0.9967870116233826,0.03915676102042198,-0.06987389177083969,0,0,0,-1,169165.792773875,2,0,1561841349.739273,0,0,0,0,0,0,0,0,0,169163.271949,0,0.01074219,75.19284,0,182478453,3,1,1,-36.72231,-41.83944,1
1561841349.953851,67,0,0,1561841348.998641,4.634473747578109,-74.15111401125243,2552.703,-1,-1,4,50,-9999,1561841349.937856,-13.90438842773438,-24.12091445922852,10.909912109375,143.715576171875,151.2087860107422,15,169166.248004875,-0.9919586181640625,0.048553466796875,-0.0570831298828125,169166.248004875,0.005767341656675598,-0.03509966421891734,0.01025317019680507,169166.232684875,-86.77362060546875,-50.37820434570312,-549.5044555664062,169166.242907875,-0.247925292483224,-1.501576996865148,-0.03932235029652008,0.002782462863251567,-0.0419306680560112,0.00558547955006361,0.006370842456817627,0.0130712017416954,0.01333969831466675,1,-0.09860057383775711,-0.6750723123550415,-0.07707663625478745,0.7270587682723999,-0.9968340992927551,0.0393122173845768,-0.06911060214042664,0,0,0,-1,169165.792773875,2,0,1561841349.739273,0,0,0,0,0,0,0,0,0,169163.271949,0,0.01074219,75.19284,0,182478453,3,1,1,-36.72231,-39.86903,1
1561841349.97454,68,0,0,1561841348.998641,4.634473747578109,-74.15111401125243,2552.703,-1,-1,4,50,-9999,1561841349.962365,-13.65195465087891,-24.41974258422852,10.97216796875,143.7180328369141,151.2112426757812,15,169166.268237875,-0.993194580078125,0.046295166015625,-0.0586395263671875,169166.268237875,0.004507932777177127,-0.0138100881487149,0.002400839722706433,169166.252795875,-86.72097778320312,-50.30699157714844,-549.4307861328125,169166.263171875,-0.2478427282328954,-1.502330168903176,-0.03942824591259046,0.002574203768745065,-0.02329386584460735,0.002581700449809432,0.005213141441345215,0.006892390549182892,0.009307980537414551,1,-0.09864000976085663,-0.6753446459770203,-0.07697355002164841,0.7268114686012268,-0.9968817830085754,0.03941803053021431,-0.06835951656103134,0,0,0,-1,169165.792773875,2,0,1561841349.739273,0,0,0,0,0,0,0,0,0,169163.271949,0,0.01074219,75.19284,0,182478453,3,1,1,-36.72231,-40.55928,1
1561841350.003637,69,0,0,1561841348.998641,4.634473747578109,-74.15111401125243,2552.703,-1,-1,4,50,-9999,1561841349.989933,-14.05657196044922,-24.03435516357422,11.1448974609375,143.7218170166016,151.2150268554688,15,169166.288500875,-0.9847869873046875,0.045013427734375,-0.05657958984375,169166.288500875,0.0004410194765171218,-0.0249956310431567,0.007270163459807313,169166.272875875,-86.51910400390625,-50.11521911621094,-549.4861450195312,169166.283435875,-0.2478221950238524,-1.502803191830843,-0.03943705114778213,-0.002845595357939601,-0.02634584717452526,0.0009462533053010702,0.005885899066925049,0.005891777575016022,0.01098793745040894,1,-0.09865445643663406,-0.6755170822143555,-0.07693976908922195,0.7266528606414795,-0.996913731098175,0.03942682966589928,-0.06788793951272964,0,0,0,-1,169165.792773875,2,0,1561841349.739273,0,0,0,0,0,0,0,0,0,169163.271949,0,0.01074219,75.19284,0,182478453,3,1,1,-36.72231,-40.84943,1
1561841350.014662,70,0,0,1561841348.998641,4.634473747578109,-74.15111401125243,2552.703,-1,-1,4,50,-9999,1561841350.013002,-14.07723236083984,-23.8891716003418,11.03515625,143.7220764160156,151.2152862548828,15,169166.308764875,-0.9820709228515625,0.0478973388671875,-0.0581512451171875,169166.308764875,0.005270129481157805,-0.009053948757942387,0.04110802195424511,169166.292987875,-86.86141967773438,-50.02171325683594,-549.3218994140625,169166.303698875,-0.2478174930406524,-1.503400634938936,-0.03973388603003753,0.003022946184501052,-0.0215191338211298,0.03042052313685417,0.01464253664016724,0.006037674844264984,0.01037627458572388,1,-0.09878317266702652,-0.6757189631462097,-0.07680776715278625,0.7264615893363953,-0.996942400932312,0.03972342982888222,-0.06729153543710709,0,0,0,-1,169165.792773875,2,0,1561841349.739273,0,0,0,0,0,0,0,0,0,169163.271949,0,0.01074219,75.19284,0,182478453,3,1,1,-36.72231,-40.84943,1
1561841350.034855,71,0,0,1561841348.998641,4.634473747578109,-74.15111401125243,2552.703,-1,-1,4,50,-9999,1561841350.013002,-14.07723236083984,-23.8891716003418,11.03515625,143.7220764160156,151.2152862548828,15,169166.329028875,-0.9846343994140625,0.04656982421875,-0.0592498779296875,169166.329028875,0.001812281121798922,-0.001516403924691118,0.04708122596318383,169166.313067875,-86.46530151367188,-50.14614868164062,-549.289306640625,169166.323962875,-0.247701206113171,-1.503604299065776,-0.04059205114381021,0.00314944633282721,-0.002368077402934432,0.04432062432169914,0.01454555988311768,0.007881008088588715,0.006447732448577881,1,-0.09906194359064102,-0.6757541298866272,-0.07646395266056061,0.7264271378517151,-0.9969215989112854,0.04058090597391129,-0.06708617508411407,0,0,0,-1,169165.792773875,2,0,1561841349.739273,0,0,0,0,0,0,0,0,0,169163.271949,0,0.01074219,75.19284,0,182478453,3,1,1,-36.72231,-41.3046,1
1561841350.058539,72,0,0,1561841349.998626,4.634498474192465,-74.15110822773924,2552.692,-1,-1,4,30,-9999,1561841350.042859,-13.88961791992188,-24.19447708129883,11.044189453125,143.7167663574219,151.2099761962891,15,169166.349291875,-0.9927215576171875,0.040985107421875,-0.058197021484375,169166.349291875,0.0002071939328081647,-0.01016821535803154,0.03080185485174746,169166.333178875,-86.64959716796875,-50.19136047363281,-549.4899291992188,169166.344226875,-0.2476458137508438,-1.503803974555508,-0.04140611638713707,-0.001639183377847075,-0.01332911662757397,0.032311100512743,0.007781028747558594,0.00297827273607254,0.007131457328796387,1,-0.0993451252579689,-0.6757870316505432,-0.07615736126899719,0.7263899445533752,-0.9969015121459961,0.04139428585767746,-0.06688486784696579,0,0,0,-1,169165.792773875,2,0,1561841349.739273,0,0,0,0,0,0,0,0,0,169163.271949,0,0.01074219,75.19284,0,182478453,3,1,1,-36.11449,-38.19268,1
1561841350.081107,73,0,0,1561841349.998626,4.634498474192465,-74.15110822773924,2552.692,-1,-1,4,30,-9999,1561841350.063991,-14.11322021484375,-24.02206802368164,10.9669189453125,143.71875,151.2119598388672,15,169166.369555875,-0.9913177490234375,0.04010009765625,-0.0540008544921875,169166.369555875,-0.01030004183199046,-0.002771019114227447,0.03641393421687144,169166.353289875,-86.411376953125,-50.13592529296875,-549.5653076171875,169166.364489875,-0.2476889715111124,-1.504076783373193,-0.04194462331780748,-0.007986561395227909,-0.008314116857945919,0.02659702301025391,0.003840208053588867,-0.002167917788028717,0.01044386625289917,1,-0.09956470131874084,-0.6758558750152588,-0.07597649097442627,0.7263148427009583,-0.9968974590301514,0.04193232581019402,-0.06661141663789749,0,0,0,-1,169165.792773875,2,0,1561841349.739273,0,0,0,0,0,0,0,0,0,169163.271949,0,0.01074219,75.19284,0,182478453,3,1,1,-34.13151,-38.85456,1
1561841350.095667,74,0,0,1561841349.998626,4.634498474192465,-74.15110822773924,2552.692,-1,-1,4,30,-9999,1561841350.090171,-14.28267669677734,-24.18631362915039,11.11199951171875,143.7422485351562,151.2354583740234,15,169166.389819875,-0.991729736328125,0.0445404052734375,-0.05438232421875,169166.389819875,-0.03119333953198911,-0.01150245906416124,0.04437572061177233,169166.373370875,-86.75642395019531,-50.15469360351562,-549.2908935546875,169166.384722875,-0.2480188343418038,-1.504300140457321,-0.04272959507288588,-0.02876374684274197,-0.01350328698754311,0.04340396448969841,0.007270395755767822,-0.00051078200340271,0.01128703355789185,1,-0.09996830672025681,-0.6758794784545898,-0.07581836730241776,0.7262539267539978,-0.9968791007995605,0.04271659255027771,-0.06638653576374054,0,0,0,-1,169165.792773875,2,0,1561841349.739273,0,0,0,0,0,0,0,0,0,169163.271949,0,0.01074219,75.19284,0,182478453,3,1,1,-34.13151,-37.9472,1
1561841350.115874,75,0,0,1561841349.998626,4.634498474192465,-74.15110822773924,2552.692,-1,-1,4,30,-9999,1561841350.114209,-13.99807739257812,-24.21684265136719,11.19818115234375,143.7852478027344,151.2784576416016,15,169166.410052875,-0.9920654296875,0.037078857421875,-0.0592498779296875,169166.410052875,-0.02851206894649733,-0.009406551286268878,0.0426806185779369,169166.393481875,-86.55101013183594,-50.23893737792969,-549.3359985351562,169166.404986875,-0.2485898372864092,-1.504726579102529,-0.0436133254039154,-0.03093075938522816,-0.01916543394327164,0.03967873752117157,0.004697084426879883,-0.002690687775611877,0.009791314601898193,1,-0.10049669444561,-0.6759592890739441,-0.0757039338350296,0.7261186838150024,-0.9968693256378174,0.04359950125217438,-0.0659589096903801,0,0,0,-1,169165.792773875,2,0,1561841349.739273,0,0,0,0,0,0,0,0,0,169163.271949,0,0.01074219,75.19284,0,182478453,3,1,1,-34.13151,-38.34006,1
1561841350.13624,76,0,0,1561841349.998626,4.634498474192465,-74.15110822773924,2552.692,-1,-1,4,30,-9999,1561841350.114209,-13.99807739257812,-24.21684265136719,11.19818115234375,143.7852478027344,151.2784576416016,15,169166.430316875,-0.9899444580078125,0.0349273681640625,-0.0610504150390625,169166.430316875,-0.01417041384420262,0.01440051096238546,0.05615328421653875,169166.413562875,-86.52247619628906,-50.22285461425781,-549.4257202148438,169166.425250875,-0.2490629686453558,-1.504933490405815,-0.04450637780258535,-0.01828953437507153,0.002396317664533854,0.04813187569379807,0.004930973052978516,-0.007107645273208618,0.005096375942230225,1,-0.1009869650006294,-0.6759634613990784,-0.07556166499853134,0.7260617017745972,-0.9968438744544983,0.04449168592691422,-0.06575006246566772,0,0,0,-1,169165.792773875,2,0,1561841349.739273,0,0,0,0,0,0,0,0,0,169163.271949,0,0.01074219,75.19284,0,182478453,3,1,1,-34.13151,-39.29074,1
1561841350.165817,77,0,0,1561841349.998626,4.634498474192465,-74.15110822773924,2552.692,-1,-1,4,30,-9999,1561841350.141885,-13.82653045654297,-24.05376434326172,11.0833740234375,143.8155670166016,151.3087768554688,15,169166.450579875,-0.990570068359375,0.03375244140625,-0.0581207275390625,169166.450579875,-0.01135811573307894,0.01301540087943525,0.06495982530921278,169166.433673875,-86.77471923828125,-50.21553039550781,-549.508056640625,169166.445513875,-0.2492959250725808,-1.504757548654926,-0.04564418775524331,-0.01486843544989824,0.01052428595721722,0.06064952909946442,0.007446944713592529,-0.01155546307563782,0.005512475967407227,1,-0.1014699712395668,-0.6758275032043457,-0.07526829838752747,0.7261513471603394,-0.996781051158905,0.04562833905220032,-0.06592205911874771,0,0,0,-1,169165.792773875,2,0,1561841349.739273,0,0,0,0,0,0,0,0,0,169163.271949,0,0.01074219,75.19284,0,182478453,3,1,1,-34.13151,-39.47037,1
1561841350.176799,78,0,0,1561841349.998626,4.634498474192465,-74.15110822773924,2552.692,-1,-1,4,30,-9999,1561841350.165098,-13.8089599609375,-24.15996551513672,10.9315185546875,143.8303527832031,151.3235626220703,15,169166.470843875,-0.999176025390625,0.0293426513671875,-0.0531158447265625,169166.470843875,0.00859428715379471,-0.008704009390705975,0.03675401988807456,169166.453753875,-86.85748291015625,-50.11685180664062,-549.4877319335938,169166.465777875,-0.2493910337686045,-1.504741282475891,-0.04675515460417936,0.0006703098770231009,-0.008516783826053143,0.04112749546766281,0.002755999565124512,-0.01504561305046082,0.009889304637908936,1,-0.1019026935100555,-0.6757576465606689,-0.07492593675851822,0.7261911630630493,-0.996728777885437,0.04673812165856361,-0.06593488901853561,0,0,0,-1,169165.792773875,2,0,1561841349.739273,0,0,0,0,0,0,0,0,0,169163.271949,0,0.01074219,75.19284,0,182478453,3,1,1,-34.13151,-39.47037,1
1561841350.197072,79,0,0,1561841349.998626,4.634498474192465,-74.15110822773924,2552.692,-1,-1,4,30,-9999,1561841350.191395,-14.29668426513672,-24.21632385253906,11.01531982421875,143.8204803466797,151.3136901855469,15,169166.491107875,-0.9963531494140625,0.02593994140625,-0.05572509765625,169166.491107875,0.0212512265505053,-0.01360023105481665,0.02297136229858748,169166.473864875,-86.78376770019531,-50.23397827148438,-549.334228515625,169166.486041875,-0.2491198734338436,-1.505077822684193,-0.04726468795359689,0.01857101172208786,-0.02007596753537655,0.01772709749639034,-0.002494692802429199,-0.01929298788309097,0.01181066036224365,1,-0.102007620036602,-0.6758664846420288,-0.07463707029819489,0.7261049747467041,-0.9967271089553833,0.04724709317088127,-0.06559788435697556,0,0,0,-1,169165.792773875,2,0,1561841349.739273,0,0,0,0,0,0,0,0,0,169163.271949,0,0.01074219,75.19284,0,182478453,3,1,1,-34.13151,-40.3939,1
1561841350.217813,80,0,0,1561841349.998626,4.634498474192465,-74.15110822773924,2552.692,-1,-1,4,30,-9999,1561841350.215608,-13.90657043457031,-24.22414779663086,11.15283203125,143.7961120605469,151.2893218994141,15,169166.511370875,-0.9954376220703125,0.029510498046875,-0.0565948486328125,169166.511370875,0.01039245352181621,-0.006812632384531699,0.0280268409958849,169166.493945875,-86.54801940917969,-50.42221069335938,-549.2459716796875,169166.506274875,-0.2487274622602422,-1.505431684784781,-0.04764474892422411,0.015392797999084,-0.01385322585701942,0.02431203052401543,0.002377808094024658,-0.01987099647521973,0.008740723133087158,1,-0.1020254120230675,-0.6759946942329407,-0.07434729486703873,0.726012647151947,-0.9967319965362549,0.04762672632932663,-0.06524397432804108,0,0,0,-1,169165.792773875,2,0,1561841349.739273,0,0,0,0,0,0,0,0,0,169163.271949,0,0.01074219,75.19284,0,182478453,3,1,1,-34.13151,-41.1227,1
1561841350.248428,81,0,0,1561841349.998626,4.634498474192465,-74.15110822773924,2552.692,-1,-1,4,30,-9999,1561841350.241997,-14.13058471679688,-24.1163444519043,11.09967041015625,143.7897033691406,151.2829132080078,15,169166.531603875,-0.995452880859375,0.028961181640625,-0.055328369140625,169166.531603875,0.003661047550531929,0.01684635810751424,0.03215873542714284,169166.514056875,-86.69332885742188,-50.12821960449219,-549.5658569335938,169166.526538875,-0.2485497150111933,-1.505533048737919,-0.04808995772347433,0.004731825552880764,0.007426836993545294,0.02576411888003349,0.0004558563232421875,-0.01839308440685272,0.009019732475280762,1,-0.1021297946572304,-0.6760168075561523,-0.07412615418434143,0.7260000705718994,-0.9967174530029297,0.04807142540812492,-0.06514155864715576,0,0,0,-1,169165.792773875,2,0,1561841349.739273,0,0,0,0,0,0,0,0,0,169163.271949,0,0.01074219,75.19284,0,182478453,3,1,1,-34.13151,-42.44568,1
1561841350.257882,82,0,0,1561841349.998626,4.634498474192465,-74.15110822773924,2552.692,-1,-1,4,30,-9999,1561841350.241997,-14.13058471679688,-24.1163444519043,11.09967041015625,143.7897033691406,151.2829132080078,15,169166.551867875,-0.99383544921875,0.027801513671875,-0.0529022216796875,169166.551867875,0.002041579291654744,0.01797660367414387,0.04034369472139236,169166.534167875,-86.82778930664062,-50.09947204589844,-549.5761108398438,169166.546801875,-0.2484648589400449,-1.505267174939412,-0.04868850239458877,0.0003120433539152145,0.01649143919348717,0.03602207824587822,0.00199657678604126,-0.02144759148359299,0.01160216331481934,1,-0.1023073345422745,-0.6758926510810852,-0.0739053338766098,0.7261132001876831,-0.9966712594032288,0.04866926744580269,-0.06540466845035553,0,0,0,-1,169165.792773875,2,0,1561841349.739273,0,0,0,0,0,0,0,0,0,169163.271949,0,0.01074219,75.19284,0,182478453,3,1,1,-34.13151,-42.44568,1
1561841350.278494,83,0,0,1561841349.998626,4.634498474192465,-74.15110822773924,2552.692,-1,-1,4,30,-9999,1561841350.266155,-14.09799194335938,-24.04132843017578,10.90325927734375,143.7899017333984,151.2831115722656,15,169166.572131875,-0.9957122802734375,0.031494140625,-0.0524444580078125,169166.572131875,-0.01847994112016884,0.02378389274717065,0.04576349385581262,169166.554248875,-86.75967407226562,-50.32670593261719,-549.372802734375,169166.567065875,-0.2485002900044377,-1.504993429829194,-0.04944342913596913,-0.01499873585999012,0.01490632444620132,0.04369837418198586,0.00168222188949585,-0.01977545768022537,0.01289486885070801,1,-0.1025817468762398,-0.6757510304450989,-0.07367544621229172,0.7262296080589294,-0.9966163039207458,0.04942328482866287,-0.06567505747079849,0,0,0,-1,169165.792773875,2,0,1561841349.739273,0,0,0,0,0,0,0,0,0,169163.271949,0,0.01074219,75.19284,0,182478453,3,1,1,-34.13151,-43.16726,1
1561841350.298307,84,0,0,1561841349.998626,4.634498474192465,-74.15110822773924,2552.692,-1,-1,4,30,-9999,1561841350.293122,-14.24300384521484,-23.99441528320312,11.04010009765625,143.8157958984375,151.3090057373047,15,169166.592395875,-0.992706298828125,0.0262908935546875,-0.050811767578125,169166.592395875,-0.01933295161732122,0.02136627510959672,0.03820517636605873,169166.574359875,-86.72611999511719,-50.39134216308594,-549.461181640625,169166.587329875,-0.2488225507596756,-1.504635068755984,-0.05022018153918625,-0.01630874536931515,0.02126115933060646,0.03553525358438492,0.0003688931465148926,-0.01984933763742447,0.01384454965591431,1,-0.1029578521847725,-0.6755626201629639,-0.07354672998189926,0.72636479139328,-0.9965542554855347,0.05019907280802727,-0.06602965295314789,0,0,0,-1,169165.792773875,2,0,1561841349.739273,0,0,0,0,0,0,0,0,0,169163.271949,0,0.01074219,75.19284,0,182478453,3,1,1,-34.13151,-42.79659,1
1561841350.325405,85,0,0,1561841349.998626,4.634498474192465,-74.15110822773924,2552.692,-1,-1,4,30,-9999,1561841350.317033,-14.30738067626953,-23.99208450317383,10.8782958984375,143.8760681152344,151.3692779541016,15,169166.612658875,-0.9898834228515625,0.0176544189453125,-0.052581787109375,169166.612658875,-0.09987839457400473,0.05219689210111704,0.04283801139836058,169166.594470875,-86.83740234375,-50.27523803710938,-549.6336669921875,169166.607592875,-0.2494980494061074,-1.504272824303605,-0.05095505909425303,-0.07177493721246719,0.03279770910739899,0.0384327732026577,0.007662475109100342,-0.02839578688144684,0.01485925912857056,1,-0.1034380123019218,-0.6753565669059753,-0.07356089353561401,0.7264866828918457,-0.9964931011199951,0.05093301087617874,-0.06638816744089127,0,0,0,-1,169165.792773875,2,0,1561841349.739273,0,0,0,0,0,0,0,0,0,169163.271949,0,0.01074219,75.19284,0,182478453,3,1,1,-34.13151,-42.81793,1
1561841350.341358,86,0,0,1561841349.998626,4.634498474192465,-74.15110822773924,2552.692,-1,-1,4,30,-9999,1561841350.317033,-14.30738067626953,-23.99208450317383,10.8782958984375,143.8760681152344,151.3692779541016,15,169166.632922875,-1.000274658203125,0.0162353515625,-0.0504608154296875,169166.632922875,-0.204951817486427,0.09727914935008738,0.01584101479600932,169166.614550875,-86.91801452636719,-49.957275390625,-549.4884643554688,169166.627856875,-0.2522044674125905,-1.503105751023512,-0.05180053287343022,-0.1982753574848175,0.09379634261131287,0.02523574605584145,0.006030559539794922,-0.03934146463871002,0.01508849859237671,1,-0.1046136617660522,-0.6747457981109619,-0.07431755214929581,0.7268089056015015,-0.9963717460632324,0.05177737027406693,-0.06754817813634872,0,0,0,-1,169165.792773875,2,0,1561841349.739273,0,0,0,0,0,0,0,0,0,169164.2142,0,0.01074219,75.19284,0,182478453,3,1,1,-34.13151,-43.11882,1
1561841350.359165,87,0,0,1561841349.998626,4.634498474192465,-74.15110822773924,2552.692,-1,-1,4,30,-9999,1561841350.343146,-14.27226257324219,-23.98859024047852,10.681640625,144.1198272705078,151.613037109375,15,169166.653186875,-1.013687133789062,0.0233154296875,-0.04241943359375,169166.653186875,-0.1264245180038056,0.02366857787197022,-0.02042058660650958,169166.634661875,-86.93936157226562,-50.13894653320312,-549.5995483398438,169166.648089875,-0.2560681631822063,-1.50182355757837,-0.0520436006423895,-0.1582131534814835,0.04062660411000252,-0.0173290241509676,-0.01448589563369751,-0.0306883230805397,0.02436071634292603,1,-0.1059562414884567,-0.674062967300415,-0.07570686936378479,0.7271044254302979,-0.996271550655365,0.0520201101899147,-0.06882478296756744,0,0,0,-1,169165.792773875,2,0,1561841349.739273,0,0,0,0,0,0,0,0,0,169164.2142,0,0.01074219,75.19284,0,182478453,3,1,1,-34.13151,-43.11882,1
1561841350.379283,88,0,0,1561841349.998626,4.634498474192465,-74.15110822773924,2552.692,-1,-1,4,30,-9999,1561841350.368092,-14.30336761474609,-23.98078155517578,10.78680419921875,144.33837890625,151.8315887451172,15,169166.673419875,-1.003662109375,0.0326385498046875,-0.0513763427734375,169166.673419875,-0.07128137078873387,-0.01558268817027164,-0.01948848022498185,169166.654742875,-87.08673095703125,-50.02395629882812,-549.7222900390625,169166.668353875,-0.2583445578173936,-1.501915626022648,-0.05164312337987725,-0.07899289578199387,-0.02125407569110394,-0.0278296023607254,-0.01545065641403198,-0.02261321991682053,0.02364474534988403,1,-0.1065822541713715,-0.6739977598190308,-0.07666543126106262,0.7269729375839233,-0.996298611164093,0.05162017047405243,-0.06873448938131332,0,0,0,-1,169165.792773875,2,0,1561841349.739273,0,0,0,0,0,0,0,0,0,169164.2142,0,0.01074219,75.19284,0,182478453,3,1,1,-34.13151,-43.71565,1
1561841350.399635,89,0,0,1561841349.998626,4.634498474192465,-74.15110822773924,2552.692,-1,-1,4,30,-9999,1561841350.393943,-14.37860107421875,-24.07547378540039,10.6961669921875,144.4605102539062,151.9537200927734,15,169166.693682875,-0.9947052001953125,0.0313568115234375,-0.0625152587890625,169166.693682875,-0.08909152689474778,0.01210140399332006,-0.00724992343552271,169166.674853875,-86.8494873046875,-50.38841247558594,-549.8325805664062,169166.688616875,-0.2599358640847227,-1.502387309645915,-0.05129067919700723,-0.08584973961114883,-0.004656989593058825,-0.01245757006108761,-0.001041591167449951,-0.01951465010643005,0.01014506816864014,1,-0.1070094257593155,-0.6741039156913757,-0.07733821123838425,0.7267405390739441,-0.9963490962982178,0.05126819387078285,-0.06826578825712204,0,0,0,-1,169165.792773875,2,0,1561841349.739273,0,0,0,0,0,0,0,0,0,169164.2142,0,0.01074219,75.19284,0,182478453,3,1,1,-34.13151,-44.01845,1
1561841350.419771,90,0,0,1561841349.998626,4.634498474192465,-74.15110822773924,2552.692,-1,-1,4,30,-9999,1561841350.418159,-14.30632781982422,-24.21305084228516,10.7803955078125,144.5779266357422,152.0711364746094,15,169166.713946875,-0.993743896484375,0.028778076171875,-0.061614990234375,169166.713946875,-0.05147384386516052,0.02495648257513254,-0.008905877001333981,169166.694934875,-86.99681091308594,-50.37985229492188,-549.6448974609375,169166.708880875,-0.2616136605186221,-1.502220736220677,-0.05105940253280938,-0.06585472822189331,0.0222673024982214,-0.01305145584046841,0.003795742988586426,-0.02132835984230042,0.00568842887878418,1,-0.1074848994612694,-0.6739664077758789,-0.07803530246019363,0.726723313331604,-0.9963494539260864,0.05103721842169762,-0.06843255460262299,0,0,0,-1,169165.792773875,2,0,1561841349.739273,0,0,0,0,0,0,0,0,0,169164.2142,0,0.01074219,75.19284,0,182478453,3,1,1,-34.13151,-37.52525,1
1561841350.441457,91,0,0,1561841349.998626,4.634498474192465,-74.15110822773924,2552.692,-1,-1,4,30,-9999,1561841350.418159,-14.30632781982422,-24.21305084228516,10.7803955078125,144.5779266357422,152.0711364746094,15,169166.73422075,-0.9957427978515625,0.027191162109375,-0.0584869384765625,169166.73422075,0.006336459181625531,0.005939648179203725,-0.02063710160313302,169166.715045875,-86.85578918457031,-50.09794616699219,-549.83740234375,169166.729144875,-0.2623936079021956,-1.502053935015273,-0.05074350438162129,-0.008347224444150925,0.0004091416485607624,-0.01962520182132721,0.002350747585296631,-0.02214202284812927,0.009929835796356201,1,-0.1076271161437035,-0.6738816499710083,-0.07843489199876785,0.7267378568649292,-0.9963540434837341,0.05072173103690147,-0.06859984993934631,0,0,0,-1,169165.792773875,2,0,1561841349.739273,0,0,0,0,0,0,0,0,0,169164.2142,0,0.01074219,75.19284,0,182478453,3,1,1,-34.13151,-38.36356,1
1561841350.460394,92,0,0,1561841349.998626,4.634498474192465,-74.15110822773924,2552.692,-1,-1,4,30,-9999,1561841350.44442,-14.21099090576172,-24.19794082641602,10.67193603515625,144.6096343994141,152.1028442382812,15,169166.75448375,-0.9975738525390625,0.033233642578125,-0.0540313720703125,169166.75448375,0.03053287558164946,0.004315119914255389,-0.04345453319071392,169166.73513575,-86.89363098144531,-50.21502685546875,-549.6997680664062,169166.74941775,-0.2621774281323527,-1.502077293453645,-0.05007052199223381,0.02589143812656403,0.002802257891744375,-0.04085405915975571,-0.0005739927291870117,-0.02073746174573898,0.01105332374572754,1,-0.1073121652007103,-0.6739396452903748,-0.07858347147703171,0.7267146110534668,-0.9963895082473755,0.05004960298538208,-0.06857890635728836,0,0,0,-1,169165.792773875,2,0,1561841349.739273,0,0,0,0,0,0,0,0,0,169164.2142,0,0.01074219,75.19284,0,182478453,3,1,1,-34.13151,-39.15482,1
1561841350.48058,93,0,0,1561841349.998626,4.634498474192465,-74.15110822773924,2552.692,-1,-1,4,30,-9999,1561841350.468893,-14.13324737548828,-24.24971389770508,10.658935546875,144.5796661376953,152.0728759765625,15,169166.77474775,-0.999786376953125,0.0407867431640625,-0.0505828857421875,169166.77474775,0.04086407639839384,-0.02353408823692122,-0.06587435482754599,169166.75524675,-87.07463073730469,-50.16473388671875,-549.92529296875,169166.76965175,-0.2616139136879601,-1.502211277226146,-0.04893605278104829,0.03647777065634727,-0.01844790205359459,-0.06278492510318756,-0.00322490930557251,-0.0122038796544075,0.01637101173400879,1,-0.1067178323864937,-0.6740821003913879,-0.07875655591487885,0.7266512513160706,-0.996454656124115,0.0489165224134922,-0.06844925135374069,0,0,0,-1,169165.792773875,2,0,1561841349.739273,0,0,0,0,0,0,0,0,0,169164.2142,0,0.01074219,75.19284,0,182478453,3,1,1,-34.13151,-39.15482,1
1561841350.500825,94,0,0,1561841349.998626,4.634498474192465,-74.15110822773924,2552.692,-1,-1,4,30,-9999,1561841350.495039,-14.40689086914062,-24.22618865966797,10.75579833984375,144.5342254638672,152.0274353027344,15,169166.79498075,-0.998260498046875,0.046539306640625,-0.0520172119140625,169166.79498075,0.03556864688688029,-0.01720055853249478,-0.08278462880122213,169166.77535775,-87.12725830078125,-50.3958740234375,-549.64453125,169166.78991475,-0.2608897420134231,-1.502746653427112,-0.04729820028722523,0.04110820963978767,-0.02694258838891983,-0.08513364195823669,-0.002667367458343506,-0.004723809659481049,0.01842164993286133,1,-0.105903334915638,-0.6744063496589661,-0.07902093231678009,0.7264407873153687,-0.9965696930885315,0.04728056862950325,-0.06792111694812775,0,0,0,-1,169165.792773875,2,0,1561841349.739273,0,0,0,0,0,0,0,0,0,169164.2142,0,0.01074219,75.19284,0,182478453,3,1,1,-34.13151,-39.18483,1
1561841350.521058,95,0,0,1561841349.998626,4.634498474192465,-74.15110822773924,2552.692,-1,-1,4,30,-9999,1561841350.519426,-14.04473114013672,-24.26058578491211,10.875732421875,144.5041656494141,151.9973754882812,15,169166.81524475,-0.9903717041015625,0.0542449951171875,-0.056793212890625,169166.81524475,0.01680348121396396,0.01301513456332624,-0.06087506882924924,169166.79543875,-86.64425659179688,-50.24942016601562,-549.83056640625,169166.81017875,-0.2604112920233456,-1.503031399819235,-0.04555983348071807,0.01881834864616394,-0.0009637176990509033,-0.07353184372186661,0.002513706684112549,0.005130365490913391,0.01188719272613525,1,-0.1051254719495773,-0.6746311783790588,-0.07942225784063339,0.7263013124465942,-0.9966696500778198,0.04554407298564911,-0.06764281541109085,0,0,0,-1,169165.792773875,2,0,1561841349.739273,0,0,0,0,0,0,0,0,0,169164.2142,0,0.01074219,75.19284,0,182478453,3,1,1,-34.13151,-39.74908,1
1561841350.541654,96,0,0,1561841349.998626,4.634498474192465,-74.15110822773924,2552.692,-1,-1,4,30,-9999,1561841350.519426,-14.04473114013672,-24.26058578491211,10.875732421875,144.5041656494141,151.9973754882812,15,169166.83550875,-0.987518310546875,0.0587158203125,-0.0576171875,169166.83550875,0.02395966137911588,0.01264229201071515,-0.03589355253986996,169166.81554975,-86.66262817382812,-50.61421203613281,-549.5115966796875,169166.83044275,-0.2602052569553108,-1.502881387506623,-0.04436830881935284,0.01461907755583525,0.01074513606727123,-0.04212199151515961,0.009927093982696533,0.01439258456230164,0.01118588447570801,1,-0.1046196594834328,-0.6746530532836914,-0.07975976914167404,0.7263171076774597,-0.9967129826545715,0.04435375332832336,-0.06779596954584122,0,0,0,-1,169165.792773875,2,0,1561841349.739273,0,0,0,0,0,0,0,0,0,169164.2142,0,0.01074219,75.19284,0,182478453,3,1,1,-34.13151,-40.60747,1
1561841350.56226,97,0,0,1561841349.998626,4.634498474192465,-74.15110822773924,2552.692,-1,-1,4,30,-9999,1561841350.545807,-14.11502838134766,-24.39328765869141,10.81005859375,144.4891510009766,151.9823608398438,15,169166.85577175,-0.9883880615234375,0.05804443359375,-0.05194091796875,169166.85577175,0.04801599550580164,0.001071922338756893,-0.02860368168799606,169166.83563075,-86.86054992675781,-50.55528259277344,-549.799560546875,169166.85070575,-0.2597041812463969,-1.502813417918921,-0.04353557658162763,0.04148451238870621,-0.004046592861413956,-0.03514903411269188,0.009470522403717041,0.01415640115737915,0.01362121105194092,1,-0.1041471362113953,-0.674700140953064,-0.07986398786306381,0.7263296842575073,-0.996744692325592,0.04352182522416115,-0.06786619126796722,0,0,0,-1,169165.792773875,2,0,1561841349.739273,0,0,0,0,0,0,0,0,0,169164.2142,0,0.01074219,75.19284,0,182478453,3,1,1,-34.13151,-41.48018,1
1561841350.58191,98,0,0,1561841349.998626,4.634498474192465,-74.15110822773924,2552.692,-1,-1,4,30,-9999,1561841350.570153,-14.07169342041016,-24.30554962158203,10.614013671875,144.4360198974609,151.9292297363281,15,169166.87603575,-0.981201171875,0.054595947265625,-0.0509185791015625,169166.87603575,0.04366678712959324,-0.0002055960361541172,-0.02311570562966977,169166.85574175,-86.83750915527344,-50.47915649414062,-549.71484375,169166.87096975,-0.2587753322621549,-1.502940815780309,-0.04282110453512443,0.04849235340952873,-0.006743842735886574,-0.02978063374757767,0.01131057739257812,0.01386313140392303,0.01682275533676147,1,-0.1035807281732559,-0.6748335957527161,-0.07976256310939789,0.726297914981842,-0.9967842102050781,0.04280801862478256,-0.06774130463600159,0,0,0,-1,169165.792773875,2,0,1561841349.739273,0,0,0,0,0,0,0,0,0,169164.2142,0,0.01074219,75.19284,0,182478453,3,1,1,-34.13151,-42.30767,1
1561841350.602193,99,0,0,1561841349.998626,4.634498474192465,-74.15110822773924,2552.692,-1,-1,4,30,-9999,1561841350.596393,-13.97208404541016,-24.20314788818359,10.94586181640625,144.3889007568359,151.8821105957031,15,169166.89629975,-0.9822845458984375,0.0594635009765625,-0.0532989501953125,169166.89629975,0.009608418896896884,0.007148190681881684,-0.003442668341145431,169166.87585275,-86.41816711425781,-50.16603088378906,-549.6344604492188,169166.89120275,-0.2581693902901421,-1.503008260957674,-0.04239344134698091,0.0150443846359849,0.003504800144582987,-0.007442038971930742,0.01754361391067505,0.01314598321914673,0.01558178663253784,1,-0.1032244488596916,-0.6749126315116882,-0.07968419790267944,0.7262837886810303,-0.9968069195747375,0.04238074272871017,-0.06767530739307404,0,0,0,-1,169165.792773875,2,0,1561841349.739273,0,0,0,0,0,0,0,0,0,169164.2142,0,0.01074219,75.19284,0,182478453,3,1,1,-34.13151,-43.13662,1
1561841350.626442,100,0,0,1561841349.998626,4.634498474192465,-74.15110822773924,2552.692,-1,-1,4,30,-9999,1561841350.620899,-13.86928558349609,-24.35319900512695,10.7957763671875,144.3787689208984,151.8719787597656,15,169166.91653275,-0.9875030517578125,0.0605621337890625,-0.051727294921875,169166.91653275,0.01455444167339204,0.01253070556104083,0.004758269919644575,169166.89593275,-86.58470153808594,-50.37690734863281,-549.7000732421875,169166.91146675,-0.2580079528210871,-1.502975886938394,-0.04229606340334515,0.009466659277677536,0.004722397308796644,-0.003719205968081951,0.01028227806091309,0.01701220870018005,0.01501929759979248,1,-0.1031335070729256,-0.6749144792556763,-0.07966029644012451,0.7262975573539734,-0.9968087673187256,0.04228345304727554,-0.0677078515291214,0,0,0,-1,169165.792773875,2,0,1561841349.739273,0,0,0,0,0,0,0,0,0,169164.2142,0,0.01074219,75.19284,0,182478453,3,1,1,-34.13151,-43.9664,1
1561841350.645391,101,0,0,1561841349.998626,4.634498474192465,-74.15110822773924,2552.692,-1,-1,4,30,-9999,1561841350.620899,-13.86928558349609,-24.35319900512695,10.7957763671875,144.3787689208984,151.8719787597656,15,169166.93679575,-0.9877777099609375,0.0584716796875,-0.0537261962890625,169166.93679575,0.002836532877043397,0.008887767505921441,0.02570722768642588,169166.91604375,-86.65306091308594,-50.37789916992188,-549.4521484375,169166.93172975,-0.2578019671059944,-1.502882397253455,-0.04249266030109787,0.003429007017984986,0.003011849243193865,0.0194268599152565,0.00945889949798584,0.01727353781461716,0.01595109701156616,1,-0.1031313091516495,-0.6748805046081543,-0.07952357828617096,0.7263444066047668,-0.9967941045761108,0.04247987270355225,-0.06780047714710236,0,0,0,-1,169165.792773875,2,0,1561841349.739273,0,0,0,0,0,0,0,0,0,169164.2142,0,0.01074219,75.19284,0,182478453,3,1,1,-34.13151,-44.66667,1
1561841350.662942,102,0,0,1561841349.998626,4.634498474192465,-74.15110822773924,2552.692,-1,-1,4,30,-9999,1561841350.647024,-13.87031555175781,-24.25529098510742,10.75567626953125,144.3702087402344,151.8634185791016,15,169166.95705975,-0.9888763427734375,0.055206298828125,-0.0538787841796875,169166.95705975,-0.01046782098066545,0.002102831996726567,0.02789501452192597,169166.93612475,-86.85067749023438,-50.26011657714844,-549.6592407226562,169166.95199375,-0.2578354722627586,-1.50288317950648,-0.04301701206173345,-0.008906488306820393,-0.001068646553903818,0.02282052673399448,0.009451925754547119,0.01398782432079315,0.0124240517616272,1,-0.1033320873975754,-0.6748506426811218,-0.07935772091150284,0.7263618111610413,-0.9967718720436096,0.04300374537706375,-0.0677981823682785,0,0,0,-1,169165.792773875,2,0,1561841349.739273,0,0,0,0,0,0,0,0,0,169164.2142,0,0.01074219,75.19284,0,182478453,3,1,1,-34.13151,-44.66667,1
1561841350.683693,103,0,0,1561841349.998626,4.634498474192465,-74.15110822773924,2552.692,-1,-1,4,30,-9999,1561841350.673513,-14.09856414794922,-24.16192245483398,10.86041259765625,144.3825378417969,151.8757476806641,15,169166.97732375,-0.9929962158203125,0.04852294921875,-0.0558624267578125,169166.97732375,-0.002268214300420487,-0.009604690471370773,0.02647341913204167,169166.95623575,-86.68478393554688,-50.353515625,-549.48193359375,169166.97225775,-0.2579773715290427,-1.503058734513351,-0.04359384443990696,-0.00306431227363646,-0.01280865911394358,0.02725149318575859,0.004754483699798584,0.008620284497737885,0.01328492164611816,1,-0.1035953164100647,-0.6748757362365723,-0.07920435816049576,0.7263177633285522,-0.9967588782310486,0.04358003661036491,-0.06762149930000305,0,0,0,-1,169165.792773875,2,0,1561841349.739273,0,0,0,0,0,0,0,0,0,169164.2142,0,0.01074219,75.19284,0,182478453,3,1,1,-34.13151,-45.03261,1
1561841350.703467,104,0,0,1561841349.998626,4.634498474192465,-74.15110822773924,2552.692,-1,-1,4,30,-9999,1561841350.698236,-14.09911346435547,-24.2578239440918,10.823974609375,144.3876953125,151.8809051513672,15,169166.99758675,-0.9957122802734375,0.043060302734375,-0.0567626953125,169166.99758675,0.0008791094758351565,-0.005258677888470464,0.003587277988336734,169166.97631675,-86.58604431152344,-50.38922119140625,-549.6038818359375,169166.99252075,-0.2579657483303777,-1.503370749854116,-0.04397637357952895,0.003439925843849778,-0.01192395761609077,0.004233525600284338,0.002027392387390137,0.001463219523429871,0.01111119985580444,1,-0.1037419214844704,-0.6749688386917114,-0.0790540874004364,0.7262266278266907,-0.9967631101608276,0.04396219924092293,-0.06730936467647552,0,0,0,-1,169165.792773875,2,0,1561841349.739273,0,0,0,0,0,0,0,0,0,169164.2142,0,0.01074219,75.19284,0,182478453,3,1,1,-34.13151,-40.97083,1
1561841350.725467,105,0,0,1561841349.998626,4.634498474192465,-74.15110822773924,2552.692,-1,-1,4,30,-9999,1561841350.723157,-14.02152252197266,-24.27184295654297,10.7330322265625,144.3902130126953,151.8834228515625,15,169167.01785075,-0.993560791015625,0.039215087890625,-0.0552825927734375,169167.01785075,0.003885019398207593,-0.0151275539399771,0.006588660536856035,169166.99642775,-86.79225158691406,-50.2379150390625,-549.6397094726562,169167.01278475,-0.2579825818832917,-1.503692181930534,-0.04404687254755624,-0.001640586415305734,-0.02023142203688622,0.00230513047426939,0.001511931419372559,-0.003795206546783447,0.01022607088088989,1,-0.1037857607007027,-0.6750808358192444,-0.07901958376169205,0.7261200547218323,-0.9967817068099976,0.04403262957930565,-0.0669887587428093,0,0,0,-1,169165.792773875,2,0,1561841349.739273,0,0,0,0,0,0,0,0,0,169164.2142,0,0.01074219,75.19284,0,182478453,3,1,1,-34.13151,-40.86557,1
1561841350.744449,106,0,0,1561841349.998626,4.634498474192465,-74.15110822773924,2552.692,-1,-1,4,30,-9999,1561841350.723157,-14.02152252197266,-24.27184295654297,10.7330322265625,144.3902130126953,151.8834228515625,15,169167.03811475,-0.9883880615234375,0.0380096435546875,-0.0510711669921875,169167.03811475,0.0184716853207896,-0.03292545950497665,0.03007640977080988,169167.01653875,-86.73770141601562,-49.94412231445312,-549.6378784179688,169167.03301775,-0.2577841545045247,-1.504215263653211,-0.04426548048455875,0.020261250436306,-0.03613608703017235,0.01993072964251041,0.005992710590362549,-0.003342211246490479,0.01509034633636475,1,-0.1038183569908142,-0.6752691268920898,-0.07884614914655685,0.7259591221809387,-0.9968069195747375,0.04425102472305298,-0.06646671146154404,0,0,0,-1,169165.792773875,2,0,1561841349.739273,0,0,0,0,0,0,0,0,0,169164.2142,0,0.01074219,75.19284,0,182478453,3,1,1,-34.13151,-41.26422,1
1561841350.764153,107,0,0,1561841349.998626,4.634498474192465,-74.15110822773924,2552.692,-1,-1,4,30,-9999,1561841350.748178,-13.92303466796875,-24.17506408691406,10.849365234375,144.3717193603516,151.8649291992188,15,169167.05834775,-0.991455078125,0.042877197265625,-0.0516204833984375,169167.05834775,-0.003055711034756918,-0.01859765284035034,0.03578862399292083,169167.03661875,-86.95872497558594,-50.38229370117188,-549.5451049804688,169167.05328175,-0.257506888836858,-1.505060169800309,-0.04487869166423428,0.002319267718121409,-0.035051379352808,0.03522526100277901,0.01014125347137451,-0.008685044944286346,0.01482617855072021,1,-0.1039792895317078,-0.6755567789077759,-0.07849326729774475,0.7257067561149597,-0.9968355894088745,0.04486362636089325,-0.06562269479036331,0,0,0,-1,169165.792773875,2,0,1561841349.739273,0,0,0,0,0,0,0,0,0,169164.2142,0,0.01074219,75.19284,0,182478453,3,1,1,-34.13151,-41.55286,1
1561841350.798853,108,0,0,1561841349.998626,4.634498474192465,-74.15110822773924,2552.692,-1,-1,4,30,-9999,1561841350.77334,-14.13179779052734,-24.29218292236328,10.8172607421875,144.3750152587891,151.8682250976562,15,169167.07861175,-0.9964447021484375,0.0437774658203125,-0.0521240234375,169167.07861175,-0.04387344843018338,0.03394731441524005,0.03678544518893749,169167.05672975,-86.64494323730469,-50.19923400878906,-549.5205078125,169167.07354575,-0.2577689987459383,-1.505242951295533,-0.04556909707259384,-0.03648219257593155,0.02023877203464508,0.03262122347950935,0.001516044139862061,0.0008181259036064148,0.01386368274688721,1,-0.1043241396546364,-0.6755717992782593,-0.07834418118000031,0.7256593108177185,-0.9968163371086121,0.04555332660675049,-0.06543843448162079,0,0,0,-1,169165.792773875,2,0,1561841349.739273,0,0,0,0,0,0,0,0,0,169164.2142,0,0.01074219,75.19284,0,182478453,3,1,1,-33.0516,-41.96551,1
1561841350.804701,109,0,0,1561841349.998626,4.634498474192465,-74.15110822773924,2552.692,-1,-1,4,30,-9999,1561841350.798793,-14.21980285644531,-24.27673721313477,10.8994140625,144.438720703125,151.9319305419922,15,169167.09887475,-0.9923248291015625,0.0343017578125,-0.051544189453125,169167.09887475,-0.0577242829435765,0.03511084949549567,0.04981895556378529,169167.07684175,-86.84637451171875,-50.50386047363281,-549.6326904296875,169167.09380875,-0.258744952575181,-1.50466150607874,-0.04636193596050849,-0.06169167160987854,0.03137185424566269,0.04385710135102272,0.003242015838623047,-0.006992906332015991,0.01393735408782959,1,-0.1049170345067978,-0.6752663254737854,-0.07845928519964218,0.7258456945419312,-0.9967417120933533,0.04634533077478409,-0.06601560860872269,0,0,0,-1,169165.792773875,2,0,1561841349.739273,0,0,0,0,0,0,0,0,0,169164.2142,0,0.01074219,75.19284,0,182478453,3,1,1,-33.0516,-41.96551,1
1561841350.82497,110,0,0,1561841349.998626,4.634498474192465,-74.15110822773924,2552.692,-1,-1,4,30,-9999,1561841350.823483,-13.95188903808594,-24.3112678527832,10.83392333984375,144.5103302001953,152.0035400390625,15,169167.11913875,-1.000076293945312,0.0330352783203125,-0.050445556640625,169167.11913875,-0.02342942600608111,0.003419232523552734,0.02783322918463613,169167.09692175,-86.60185241699219,-50.51446533203125,-549.731201171875,169167.11407275,-0.2597790511969337,-1.504333051965651,-0.04724777366276713,-0.03759432584047318,0.005069140810519457,0.02947629801928997,-0.001047790050506592,-0.01340147107839584,0.01482653617858887,1,-0.1055729165673256,-0.6750438809394836,-0.07855089753866196,0.7259475588798523,-0.9966785907745361,0.04723019525408745,-0.06634023785591125,0,0,0,-1,169165.792773875,2,0,1561841349.739273,0,0,0,0,0,0,0,0,0,169164.2142,0,0.01074219,75.19284,0,182478453,3,1,1,-33.0516,-35.53786,1
1561841350.845274,111,0,0,1561841349.998626,4.634498474192465,-74.15110822773924,2552.692,-1,-1,4,30,-9999,1561841350.823483,-13.95188903808594,-24.3112678527832,10.83392333984375,144.5103302001953,152.0035400390625,15,169167.13940275,-1.001113891601562,0.0285491943359375,-0.0545196533203125,169167.13940275,0.0109836752838138,-0.001845038003206896,0.01286892701948089,169167.11703275,-86.94551086425781,-50.3365478515625,-549.8467407226562,169167.13433675,-0.2600470682438523,-1.504513109068403,-0.04765580247754179,0.003524348372593522,-0.01182169187813997,0.01396631449460983,-0.00367969274520874,-0.01893597841262817,0.01450848579406738,1,-0.1058176830410957,-0.6750724911689758,-0.07850002497434616,0.7258908748626709,-0.9966713190078735,0.04763776436448097,-0.06615950167179108,0,0,0,-1,169165.792773875,2,0,1561841349.739273,0,0,0,0,0,0,0,0,0,169164.2142,0,0.01074219,75.19284,0,182478453,3,1,1,-33.0516,-35.59354,1
1561841350.880012,112,0,0,1561841349.998626,4.634498474192465,-74.15110822773924,2552.692,-1,-1,4,30,-9999,1561841350.874005,-14.15547180175781,-24.25243759155273,10.95953369140625,144.5003967285156,151.9936065673828,15,169167.15966575,-0.9965362548828125,0.0296173095703125,-0.055419921875,169167.15966575,0.01373525332208367,0.009536247231355736,0.01411102535189385,169167.13711375,-86.74078369140625,-50.34713745117188,-549.4869384765625,169167.15456975,-0.2598135188883043,-1.504632268799264,-0.04779880362522086,0.0125471381470561,0.0009665414690971375,0.008670618757605553,-0.002915680408477783,-0.0190788209438324,0.0105135440826416,1,-0.1057951226830482,-0.6751201748847961,-0.07836036384105682,0.7258648872375488,-0.9966723322868347,0.0477806031703949,-0.0660402849316597,0,0,0,-1,169165.792773875,2,0,1561841349.739273,0,0,0,0,0,0,0,0,0,169164.2142,0,0.01074219,75.19284,0,182478453,3,1,1,-33.0516,-37.07048,1
1561841350.885734,113,0,0,1561841349.998626,4.634498474192465,-74.15110822773924,2552.692,-1,-1,4,30,-9999,1561841350.874005,-14.15547180175781,-24.25243759155273,10.95953369140625,144.5003967285156,151.9936065673828,15,169167.17989875,-0.9916839599609375,0.0329132080078125,-0.051422119140625,169167.17989875,0.01776301815471951,0.01662291889205659,0.02622494620233728,169167.15722475,-86.7451171875,-50.3358154296875,-549.5535278320312,169167.17483275,-0.2595165678557162,-1.504536257136302,-0.04804412615585594,0.01721858792006969,0.009111819788813591,0.02072248794138432,0.001735448837280273,-0.01660780608654022,0.01170706748962402,1,-0.1057796478271484,-0.6750874519348145,-0.07817430049180984,0.725917637348175,-0.9966542720794678,0.04802564531564713,-0.06613519787788391,0,0,0,-1,169165.792773875,2,0,1561841349.739273,0,0,0,0,0,0,0,0,0,169164.2142,0,0.01074219,75.19284,0,182478453,3,1,1,-33.0516,-37.07048,1
1561841350.907109,114,0,0,1561841349.998626,4.634498474192465,-74.15110822773924,2552.692,-1,-1,4,30,-9999,1561841350.900231,-14.12285614013672,-24.01310348510742,10.8360595703125,144.4776611328125,151.9708709716797,15,169167.20016275,-0.991668701171875,0.03564453125,-0.047454833984375,169167.20016275,0.003926032078994813,0.02312982038344719,0.04162813731513758,169167.17733575,-86.70468139648438,-50.36392211914062,-549.7275390625,169167.19509675,-0.2591973834466866,-1.504291106869506,-0.04853640532143485,0.008028286509215832,0.01722647063434124,0.03313468024134636,0.005861163139343262,-0.01342213153839111,0.01700049638748169,1,-0.1058399900794029,-0.6749880909919739,-0.07790413498878479,0.7260302901268005,-0.9966143369674683,0.04851735010743141,-0.06637794524431229,0,0,0,-1,169165.792773875,2,0,1561841349.739273,0,0,0,0,0,0,0,0,0,169164.2142,0,0.01074219,75.19284,0,182478453,3,1,1,-33.0516,-37.49228,1
1561841350.926271,115,0,0,1561841349.998626,4.634498474192465,-74.15110822773924,2552.692,-1,-1,4,30,-9999,1561841350.925041,-14.13222503662109,-24.24406433105469,10.820556640625,144.4827117919922,151.9759216308594,15,169167.22042675,-0.996429443359375,0.035003662109375,-0.0467681884765625,169167.22042675,-0.0138337902824166,0.007665110249466063,0.02207920333341093,169167.19741575,-86.75959777832031,-50.4364013671875,-549.7299194335938,169167.21536075,-0.2592127178990192,-1.504037504591486,-0.04921650467059432,-0.01375557202845812,0.005514421034604311,0.02853247337043285,0.004422545433044434,-0.01347582042217255,0.02066898345947266,1,-0.1060807406902313,-0.674857497215271,-0.07769206166267395,0.72613924741745,-0.9965642690658569,0.04919663816690445,-0.06662847101688385,0,0,0,-1,169165.792773875,2,0,1561841349.739273,0,0,0,0,0,0,0,0,0,169164.2142,0,0.01074219,75.19284,0,182478453,3,1,1,-33.0516,-37.5273,1
1561841350.958615,116,0,0,1561841349.998626,4.634498474192465,-74.15110822773924,2552.692,-1,-1,4,30,-9999,1561841350.950966,-14.18888092041016,-24.32289505004883,10.73614501953125,144.5155639648438,152.0087738037109,15,169167.24068975,-1.004180908203125,0.0313873291015625,-0.04815673828125,169167.24068975,-0.02063497107426096,-0.007731689276718044,-0.02054255938443521,169167.21752775,-87.05616760253906,-50.19538879394531,-549.4921264648438,169167.23562475,-0.2595828990684955,-1.504143261575601,-0.04934149716613424,-0.02288169413805008,-0.01222649216651917,-0.01566295139491558,-0.004258871078491211,-0.01607257872819901,0.02074629068374634,1,-0.1062548756599426,-0.6748692989349365,-0.07777837663888931,0.7260935306549072,-0.9965651035308838,0.04932148009538651,-0.06652265787124634,0,0,0,-1,169165.792773875,2,0,1561841349.739273,0,0,0,0,0,0,0,0,0,169164.2142,0,0.01074219,75.19284,0,182478453,3,1,1,-33.0516,-37.98946,1
1561841350.966716,117,0,0,1561841349.998626,4.634498474192465,-74.15110822773924,2552.692,-1,-1,4,30,-9999,1561841350.950966,-14.18888092041016,-24.32289505004883,10.73614501953125,144.5155639648438,152.0087738037109,15,169167.26095375,-0.996978759765625,0.031158447265625,-0.0505218505859375,169167.26095375,-0.0207236543385606,-0.004519384369864468,-0.02135162772360128,169167.23760775,-86.81488037109375,-50.3475341796875,-549.6533813476562,169167.25588775,-0.2600662653686716,-1.504375912388987,-0.04876700060583337,-0.02025341987609863,-0.006288175936788321,-0.02967490628361702,-0.0050240159034729,-0.02027477324008942,0.01728147268295288,1,-0.1062197536230087,-0.6749600172042847,-0.07813668996095657,0.7259758710861206,-0.9966086745262146,0.04874767363071442,-0.06629268079996109,0,0,0,-1,169165.792773875,2,0,1561841349.739273,0,0,0,0,0,0,0,0,0,169164.2142,0,0.01074219,75.19284,0,182478453,3,1,1,-33.0516,-37.98946,1
1561841350.986976,118,0,0,1561841349.998626,4.634498474192465,-74.15110822773924,2552.692,-1,-1,4,30,-9999,1561841350.975216,-14.47221374511719,-24.06767272949219,10.95281982421875,144.5540161132812,152.0472259521484,15,169167.28121775,-0.99090576171875,0.0369720458984375,-0.0566253662109375,169167.28121775,-0.01339436870255353,0.0004812332089773183,0.001177916150142047,169167.25771875,-86.81634521484375,-50.11750793457031,-549.6210327148438,169167.27615175,-0.2605161337054701,-1.504619534289767,-0.04838596687306266,-0.01851996779441833,-0.008022425696253777,-0.004222010727971792,0.005188286304473877,-0.01289040595293045,0.01212650537490845,1,-0.1062436327338219,-0.6750457286834717,-0.07841651141643524,0.7258625626564026,-0.9966433644294739,0.04836709052324295,-0.06605111062526703,0,0,0,-1,169165.792773875,2,0,1561841349.739273,0,0,0,0,0,0,0,0,0,169164.2142,0,0.01074219,75.19284,0,182478453,3,1,1,-33.0516,-38.84072,1
1561841351.007406,119,0,0,1561841349.998626,4.634498474192465,-74.15110822773924,2552.692,-1,-1,4,30,-9999,1561841351.001594,-13.98326110839844,-24.27077865600586,10.62420654296875,144.5736999511719,152.0669097900391,15,169167.30148075,-0.9895782470703125,0.0425262451171875,-0.056396484375,169167.30148075,0.01025210493236904,0.004556402309016569,0.0130910346543935,169167.27779975,-86.83746337890625,-50.45603942871094,-549.8560791015625,169167.29638475,-0.2606942336359004,-1.504739294222492,-0.04836820791599517,0.005001337267458439,-0.0003751590847969055,0.005867640953511,0.007913053035736084,-0.007440537214279175,0.009016513824462891,1,-0.1063020452857018,-0.6750807166099548,-0.07848081737756729,0.7258144617080688,-0.9966520071029663,0.04834935069084167,-0.06593180447816849,0,0,0,-1,169165.792773875,2,0,1561841349.739273,0,0,0,0,0,0,0,0,0,169164.2142,0,0.01074219,75.19284,0,182478453,3,1,1,-33.0516,-39.09164,1
1561841351.036794,120,0,0,1561841349.998626,4.634498474192465,-74.15110822773924,2552.692,-1,-1,4,30,-9999,1561841351.0267,-14.20868682861328,-24.23822021484375,10.7578125,144.5545959472656,152.0478057861328,15,169167.32171475,-0.9934234619140625,0.044403076171875,-0.052947998046875,169167.32171475,0.02025387272227062,-0.01041695460384494,0.008651278801122405,169167.29791075,-86.97402954101562,-50.46580505371094,-549.6142578125,169167.31664875,-0.2604187280701988,-1.504876468657102,-0.0485041194086389,0.01892327703535557,-0.01299801003187895,0.007882056757807732,0.00387197732925415,-0.003914184868335724,0.01052731275558472,1,-0.1062634512782097,-0.6751375794410706,-0.07832735776901245,0.7257838249206543,-0.9966545104980469,0.04848510399460793,-0.06579465419054031,0,0,0,-1,169165.792773875,2,0,1561841349.739273,0,0,0,0,0,0,0,0,0,169164.2142,0,0.01074219,75.19284,0,182478453,3,1,1,-33.0516,-39.89991,1
1561841351.047766,121,0,0,1561841350.998611,4.634539964613164,-74.15105567320636,2552.699,0.79,277.03125,4,30,-9999,1561841351.0267,-14.20868682861328,-24.23822021484375,10.7578125,144.5545959472656,152.0478057861328,15,169167.34197775,-0.99566650390625,0.0397186279296875,-0.0509490966796875,169167.34197775,-0.008779110533446209,-0.01148355062042167,-0.002052764568233077,169167.31802175,-86.81919860839844,-50.19978332519531,-549.5020141601562,169167.33691175,-0.2601345373527276,-1.505225367169925,-0.0484915382945117,0.0007509321440011263,-0.0167504046112299,-0.00264994683675468,0.003575026988983154,-0.006480351090431213,0.01484882831573486,1,-0.1061766222119331,-0.675279974937439,-0.07820998132228851,0.7256767153739929,-0.9966780543327332,0.04847253486514091,-0.06544695794582367,0,0,0,-1,169165.792773875,2,0,1561841349.739273,0,0,0,0,0,0,0,0,0,169164.2142,0,0.01074219,75.19284,0,182478453,3,1,1,-33.0516,-39.96635,1
1561841351.068075,122,0,0,1561841350.998611,4.634539964613164,-74.15105567320636,2552.699,0.79,277.03125,4,30,-9999,1561841351.052442,-14.34457397460938,-24.18206024169922,10.6925048828125,144.5501403808594,152.0433502197266,15,169167.36224175,-0.9925079345703125,0.0381011962890625,-0.0536651611328125,169167.36224175,-0.03895538884513405,0.006266418044956448,-0.009400958647979711,169167.33810275,-86.68649291992188,-50.368896484375,-549.4696655273438,169167.35717575,-0.2605465622472166,-1.505544755404469,-0.04832733446154474,-0.03513649478554726,-0.006338776089251041,-0.01265917159616947,0.001330196857452393,-0.01089397817850113,0.01356971263885498,1,-0.1062690392136574,-0.6753830909729004,-0.07839832454919815,0.7255468368530273,-0.9967067837715149,0.04830852523446083,-0.06512914597988129,0,0,0,-1,169165.792773875,2,0,1561841349.739273,0,0,0,0,0,0,0,0,0,169164.2142,0,0.01074219,75.19284,0,182478453,3,1,1,-33.0516,-39.38966,1
1561841351.090831,123,0,0,1561841350.998611,4.634539964613164,-74.15105567320636,2552.699,0.79,277.03125,4,30,-9999,1561841351.076598,-14.44847106933594,-24.23397064208984,10.6029052734375,144.6084747314453,152.1016845703125,15,169167.38250575,-0.98651123046875,0.0420684814453125,-0.0561065673828125,169167.38250575,-0.0484450307574134,0.03282106359024554,0.01145612006119386,169167.35821375,-86.79771423339844,-50.32997131347656,-549.8536376953125,169167.37743975,-0.2614557901532171,-1.505420637621702,-0.04820530793989769,-0.05216901004314423,0.02238314971327782,0.0008270763792097569,0.005600333213806152,-0.009063102304935455,0.008337974548339844,1,-0.106527179479599,-0.6752964854240417,-0.07877625524997711,0.7255486249923706,-0.9967045187950134,0.04818664118647575,-0.06525323539972305,0,0,0,-1,169165.792773875,2,0,1561841349.739273,0,0,0,0,0,0,0,0,0,169164.2142,0,0.01074219,75.19284,0,182478453,3,1,1,-33.0516,-39.86515,1
1561841351.121444,124,0,0,1561841350.998611,4.634539964613164,-74.15105567320636,2552.699,0.79,277.03125,4,30,-9999,1561841351.102871,-14.25258636474609,-24.25439453125,10.7579345703125,144.6767730712891,152.1699829101562,15,169167.40276875,-0.98876953125,0.0520782470703125,-0.055267333984375,169167.40276875,-0.03939321252834308,0.007580155410692535,0.02723641478434938,169167.37829375,-86.69215393066406,-50.44236755371094,-549.83544921875,169167.39770275,-0.2623667182401512,-1.505040627907009,-0.04855473148393889,-0.03842603042721748,0.0103808157145977,0.02525225840508938,0.01155531406402588,9.410828351974487e-05,0.01114177703857422,1,-0.1069457307457924,-0.675090491771698,-0.07900825142860413,0.7256535291671753,-0.9966627955436707,0.04853565618395805,-0.06563087552785873,0,0,0,-1,169165.792773875,2,0,1561841349.739273,0,0,0,0,0,0,0,0,0,169164.2142,0,0.01074219,75.19284,0,182478453,3,1,1,-33.0516,-40.32165,1
1561841351.128824,125,0,0,1561841350.998611,4.634539964613164,-74.15105567320636,2552.699,0.79,277.03125,4,30,-9999,1561841351.127495,-14.16568756103516,-24.08023452758789,10.770263671875,144.7301788330078,152.223388671875,15,169167.42303275,-0.9932708740234375,0.046478271484375,-0.0582427978515625,169167.42303275,-0.0267634373747513,0.008261658333643812,0.008797752661076763,169167.39840475,-86.88644409179688,-50.12969970703125,-549.695556640625,169167.41793675,-0.2631076503753778,-1.505145314973914,-0.04893998544110345,-0.03184456005692482,-0.002940848702564836,0.007007739972323179,0.003456413745880127,0.002852626144886017,0.009418725967407227,1,-0.1073388904333115,-0.6750671863555908,-0.07914052903652191,0.7256028056144714,-0.9966509938240051,0.04892045259475708,-0.06552531570196152,0,0,0,-1,169167.41357275,3,2,1561841351.360071,0,0,0,0,0,0,0,0,0,169164.2142,0,0.01074219,75.19284,0,182478453,3,1,1,-33.0516,-40.32165,1
1561841351.149189,126,0,0,1561841350.998611,4.634539964613164,-74.15105567320636,2552.699,0.79,277.03125,4,30,-9999,1561841351.127495,-14.16568756103516,-24.08023452758789,10.770263671875,144.7301788330078,152.223388671875,15,169167.44326575,-0.991180419921875,0.0441436767578125,-0.0622100830078125,169167.44326575,-0.005061870283913608,0.02044562032075633,0.008239554096596154,169167.41851575,-86.90731811523438,-50.5067138671875,-549.608154296875,169167.43819975,-0.2635968793510287,-1.505062585175594,-0.04906883049474119,-0.01540326979011297,0.01441257447004318,0.006065780762583017,0.003276824951171875,-0.005286939442157745,0.003870308399200439,1,-0.1075472012162209,-0.6750036478042603,-0.07927867770195007,0.7256159782409668,-0.9966392517089844,0.04904914274811745,-0.06560734659433365,0,0,0,-1,169167.41357275,3,2,1561841351.360071,0,0,0,0,0,0,0,0,0,169164.2142,0,0.01074219,75.19284,0,182478453,3,1,1,-33.0516,-41.09666,1
1561841351.169387,127,0,0,1561841350.998611,4.634539964613164,-74.15105567320636,2552.699,0.79,277.03125,4,30,-9999,1561841351.153504,-14.04351043701172,-24.31001663208008,10.77581787109375,144.7563629150391,152.2495727539062,15,169167.46352975,-0.9888916015625,0.0422821044921875,-0.0559234619140625,169167.46352975,0.03414438833590591,0.01441036465841876,0.009845972866131952,169167.43859675,-87.02993774414062,-50.17100524902344,-549.6895751953125,169167.45846375,-0.2635362294506037,-1.504783400244748,-0.04914004845896933,0.02261362038552761,0.01382108591496944,0.005339003633707762,0.009205937385559082,-0.008348792791366577,0.006574451923370361,1,-0.1075413525104523,-0.6749016046524048,-0.07924748212099075,0.725715160369873,-0.9966174364089966,0.04912027344107628,-0.06588536500930786,0,0,0,-1,169167.41357275,3,2,1561841351.360071,0,0,0,0,0,0,0,0,0,169164.2142,0,0.01074219,75.19284,0,182478453,3,1,1,-33.0516,-39.54626,1
