loggingTime,loggingSample,identifierForVendor,deviceID,locationTimestamp_since1970,locationLatitude,locationLongitude,locationAltitude,locationSpeed,locationCourse,locationVerticalAccuracy,locationHorizontalAccuracy,locationFloor,locationHeadingTimestamp_since1970,locationHeadingX,locationHeadingY,locationHeadingZ,locationTrueHeading,locationMagneticHeading,locationHeadingAccuracy,accelerometerTimestamp_sinceReboot,accelerometerAccelerationX,accelerometerAccelerationY,accelerometerAccelerationZ,gyroTimestamp_sinceReboot,gyroRotationX,gyroRotationY,gyroRotationZ,magnetometerTimestamp_sinceReboot,magnetometerX,magnetometerY,magnetometerZ,motionTimestamp_sinceReboot,motionYaw,motionRoll,motionPitch,motionRotationRateX,motionRotationRateY,motionRotationRateZ,motionUserAccelerationX,motionUserAccelerationY,motionUserAccelerationZ,motionAttitudeReferenceFrame,motionQuaternionX,motionQuaternionY,motionQuaternionZ,motionQuaternionW,motionGravityX,motionGravityY,motionGravityZ,motionMagneticFieldX,motionMagneticFieldY,motionMagneticFieldZ,motionMagneticFieldCalibrationAccuracy,activityTimestamp_sinceReboot,activity,activityActivityConfidence,activityActivityStartDate,pedometerStartDate,pedometerNumberofSteps,pedometerAverageActivePace,pedometerCurrentPace,pedometerCurrentCadence,pedometerDistance,pedometerFloorAscended,pedometerFloorDescended,pedometerEndDate,altimeterTimestamp_sinceReboot,altimeterReset,altimeterRelativeAltitude,altimeterPressure,IP_en0,IP_pdp_ip0,deviceOrientation,batteryState,batteryLevel,avAudioRecorderPeakPower,avAudioRecorderAveragePower,label
1561841357.942461,1,0,0,1561841356.998526,4.634542395365084,-74.15101175203374,2552.614,-1,-1,4,30,-9999,1561841357.930227,-16.58744049072266,-21.51029586791992,12.8311767578125,138.5051116943359,145.9983215332031,15,169174.230092375,-0.99298095703125,0.1201171875,-0.0718536376953125,169174.230092375,-0.00684459031761265,0.03163941901457738,-0.001584580848597147,169174.212117375,-89.29817199707031,-47.52595520019531,-547.58935546875,169174.225026375,-0.1456403266855729,-1.478182500382228,-0.1260898934486317,0.001738045131787658,0.0253918431699276,0.003198137739673257,-0.0005784034729003906,-0.0004051029682159424,0.01935958862304688,1,-0.09535321593284607,-0.6671087741851807,-0.01133810169994831,0.7387456297874451,-0.9878096580505371,0.1257560551166534,-0.09174729883670807,0,0,0,-1,169173.57229625,2,0,1561841357.518795,0,0,0,0,0,0,0,0,0,169171.75064,0,-0.3962402,75.19669,0,182478453,3,1,1,-32.84015,-42.90129,2
1561841357.957701,2,0,0,1561841356.998526,4.634542395365084,-74.15101175203374,2552.614,-1,-1,4,30,-9999,1561841357.930227,-16.58744049072266,-21.51029586791992,12.8311767578125,138.5051116943359,145.9983215332031,15,169174.250355375,-0.9853057861328125,0.1179351806640625,-0.072296142578125,169174.250355375,-0.02367070840084229,0.02326937002456734,-0.003745203440978432,169174.232198375,-89.29397583007812,-47.66171264648438,-547.6903686523438,169174.245259375,-0.1458868919693647,-1.477701354419904,-0.1259641255591469,-0.02093397825956345,0.02461393550038338,-0.01092274114489555,-0.000576317310333252,-0.009054124355316162,0.02003467082977295,1,-0.09538662433624268,-0.666925311088562,-0.01149450428783894,0.738904595375061,-0.9877812266349792,0.1256312727928162,-0.09222403913736343,0,0,0,-1,169173.57229625,2,0,1561841357.518795,0,0,0,0,0,0,0,0,0,169171.75064,0,-0.3962402,75.19669,0,182478453,3,1,1,-32.84015,-42.99054,2
1561841357.976376,3,0,0,1561841356.998526,4.634542395365084,-74.15101175203374,2552.614,-1,-1,4,30,-9999,1561841357.96444,-16.75679779052734,-21.41488647460938,12.79571533203125,138.5369110107422,146.0301208496094,15,169174.270589375,-0.98724365234375,0.1223602294921875,-0.0704345703125,169174.270589375,-0.004553472831817481,0.01074585499846973,-0.004785167846654375,169174.252309375,-89.35801696777344,-47.22039794921875,-547.6090698242188,169174.265523375,-0.1463344640700694,-1.477476942595995,-0.1258557873798948,-0.01373705081641674,0.009261343628168106,-0.008489943109452724,0.00201040506362915,-0.005238771438598633,0.02012032270431519,1,-0.09549487382173538,-0.6668262481689453,-0.0117070646956563,0.7389765977859497,-0.9877738952636719,0.1255237907171249,-0.09244696795940399,0,0,0,-1,169173.57229625,2,0,1561841357.518795,0,0,0,0,0,0,0,0,0,169171.75064,0,-0.3962402,75.19669,0,182478453,3,1,1,-32.84015,-42.99054,2
1561841357.996556,4,0,0,1561841356.998526,4.634542395365084,-74.15101175203374,2552.614,-1,-1,4,30,-9999,1561841357.991123,-16.60661315917969,-21.28179168701172,12.79437255859375,138.5435333251953,146.0367431640625,15,169174.290852375,-0.9860382080078125,0.1215667724609375,-0.074066162109375,169174.290852375,0.02817464643638429,-0.01287718281886014,-0.006738063874009481,169174.272420375,-89.17916870117188,-47.25343322753906,-547.7314453125,169174.285786375,-0.1462679639702369,-1.477526309781972,-0.1256540453288558,0.02049548923969269,-0.01505278423428535,-0.01068199146538973,-0.0002488493919372559,-0.003848433494567871,0.02163028717041016,1,-0.09539908170700073,-0.6668573617935181,-0.01174808200448751,0.7389601469039917,-0.9878035187721252,0.1253236532211304,-0.09240055084228516,0,0,0,-1,169173.57229625,2,0,1561841357.518795,0,0,0,0,0,0,0,0,0,169171.75064,0,-0.3962402,75.19669,0,182478453,3,1,1,-32.84015,-43.53107,2
1561841358.016812,5,0,0,1561841356.998526,4.634542395365084,-74.15101175203374,2552.614,-1,-1,4,30,-9999,1561841358.015168,-16.76895141601562,-21.30321502685547,12.89752197265625,138.5104064941406,146.0036163330078,15,169174.311116375,-0.9879302978515625,0.119384765625,-0.076690673828125,169174.311116375,0.01909140290645104,-0.006696252244895237,-0.01077674766711464,169174.292500375,-89.17601013183594,-47.36407470703125,-547.441650390625,169174.306050375,-0.1457610816139481,-1.477902187190537,-0.1253742899814158,0.02418290078639984,-0.01958388648927212,-0.01364555675536394,0.0025215744972229,-0.004181221127510071,0.01644045114517212,1,-0.09512975066900253,-0.6670337915420532,-0.01163715030997992,0.7388374209403992,-0.9878731369972229,0.1250460892915726,-0.09203249961137772,0,0,0,-1,169173.57229625,2,0,1561841357.518795,0,0,0,0,0,0,0,0,0,169171.75064,0,-0.3962402,75.19669,0,182478453,3,1,1,-32.84015,-42.49314,2
1561841358.037167,6,0,0,1561841356.998526,4.634542395365084,-74.15101175203374,2552.614,-1,-1,4,30,-9999,1561841358.015168,-16.76895141601562,-21.30321502685547,12.89752197265625,138.5104064941406,146.0036163330078,15,169174.331380375,-0.988372802734375,0.116424560546875,-0.07879638671875,169174.331380375,-0.01149766537419909,0.02649818653017941,-0.004027498516526832,169174.312611375,-89.03814697265625,-47.66375732421875,-547.6530151367188,169174.326314375,-0.1456137858567795,-1.478004013137012,-0.1251072346568787,-0.008903147652745247,0.01176604721695185,-0.007566891610622406,-0.0004723668098449707,-0.007761478424072266,0.01474076509475708,1,-0.09498338401317596,-0.6670911908149719,-0.01166786719113588,0.7388039231300354,-0.9879156947135925,0.1247811317443848,-0.09193500131368637,0,0,0,-1,169173.57229625,2,0,1561841357.518795,0,0,0,0,0,0,0,0,0,169171.75064,0,-0.3962402,75.19669,0,182478453,3,1,1,-32.84015,-37.72036,2
1561841358.058106,7,0,0,1561841357.998511,4.634542395365084,-74.15101175203374,2552.586,0,190.8984375,4,30,-9999,1561841358.043934,-16.52208709716797,-21.38967895507812,12.82281494140625,138.5160827636719,146.0092926025391,15,169174.351643375,-0.9874114990234375,0.12158203125,-0.0722198486328125,169174.351643375,-0.01274642160933725,0.03540725932482149,-0.00929336693994051,169174.332722375,-89.209716796875,-47.65704345703125,-547.8917846679688,169174.346577375,-0.1459260900561171,-1.477552999917048,-0.1249410116812568,-0.014154102653265,0.0354095883667469,-0.01231424231082201,-0.002400517463684082,-0.005902819335460663,0.01544767618179321,1,-0.09502397477626801,-0.6669176816940308,-0.01186067145317793,0.7389523983001709,-0.9878949522972107,0.1246162056922913,-0.09238249808549881,0,0,0,-1,169173.57229625,2,0,1561841357.518795,0,0,0,0,0,0,0,0,0,169171.75064,0,-0.3962402,75.19669,0,182478453,3,1,1,-32.84015,-38.50455,2
1561841358.077693,8,0,0,1561841357.998511,4.634542395365084,-74.15101175203374,2552.586,0,190.8984375,4,30,-9999,1561841358.065837,-16.53037261962891,-21.30674362182617,12.771240234375,138.5412292480469,146.0344390869141,15,169174.371907375,-0.982574462890625,0.124969482421875,-0.067291259765625,169174.371907375,0.000940362180906979,-0.02195643160715828,-0.005516471881990134,169174.352803375,-89.33943176269531,-47.44467163085938,-547.5933227539062,169174.366841375,-0.1461589809505901,-1.477314682549676,-0.1247704198966482,-0.002163752214983106,-0.0143648898229003,-0.006763149984180927,0.003198564052581787,-0.0003014355897903442,0.02430629730224609,1,-0.09503769874572754,-0.6668267250061035,-0.01201550103724003,0.7390301823616028,-0.9878939986228943,0.1244469434022903,-0.09261991083621979,0,0,0,-1,169173.57229625,2,0,1561841357.518795,0,0,0,0,0,0,0,0,0,169171.75064,0,-0.3962402,75.19669,0,182478453,3,1,1,-32.84015,-39.30719,2
1561841358.097966,9,0,0,1561841357.998511,4.634542395365084,-74.15101175203374,2552.586,0,190.8984375,4,30,-9999,1561841358.09243,-16.67835998535156,-21.38337326049805,12.8431396484375,138.544189453125,146.0373992919922,15,169174.392171375,-0.985137939453125,0.1179656982421875,-0.075592041015625,169174.392171375,0.00411245335530036,-0.01075810553948409,-0.01562370085105886,169174.372914375,-89.17987060546875,-47.4903564453125,-547.6051025390625,169174.387074375,-0.1461148285463046,-1.477943535899459,-0.1245077324586466,0.004705072846263647,-0.02789454534649849,-0.01613880880177021,0.006768167018890381,-0.003306165337562561,0.02054476737976074,1,-0.0949305072426796,-0.6670737266540527,-0.01205780822783709,0.7388203740119934,-0.9879846572875977,0.1241862922906876,-0.09200168401002884,0,0,0,-1,169173.57229625,2,0,1561841357.518795,0,0,0,0,0,0,0,0,0,169171.75064,0,-0.3962402,75.19669,0,182478453,3,1,1,-32.84015,-39.31923,2
1561841358.118219,10,0,0,1561841357.998511,4.634542395365084,-74.15101175203374,2552.586,0,190.8984375,4,30,-9999,1561841358.117007,-16.68172454833984,-21.22898483276367,12.8731689453125,138.5583648681641,146.0515747070312,15,169174.412404375,-0.9873046875,0.1158599853515625,-0.079925537109375,169174.412404375,-0.01979181427314188,0.03398140287719306,-0.008184959294249531,169174.393025375,-89.16224670410156,-47.48497009277344,-547.8794555664062,169174.407338375,-0.1462666257638495,-1.478031344457579,-0.124127916819534,-0.01713844016194344,0.02399714663624763,-0.01854311116039753,-0.002088010311126709,-0.004821367561817169,0.01345854997634888,1,-0.09484253078699112,-0.6671171188354492,-0.01223767455667257,0.7387894988059998,-0.9880395531654358,0.1238094046711922,-0.09191928803920746,0,0,0,-1,169173.57229625,2,0,1561841357.518795,0,0,0,0,0,0,0,0,0,169171.75064,0,-0.3962402,75.19669,0,182478453,3,1,1,-32.84015,-39.31923,2
1561841358.142042,11,0,0,1561841357.998511,4.634542395365084,-74.15101175203374,2552.586,0,190.8984375,4,30,-9999,1561841358.117007,-16.68172454833984,-21.22898483276367,12.8731689453125,138.5583648681641,146.0515747070312,15,169174.432667375,-0.9825286865234375,0.12066650390625,-0.0760040283203125,169174.432667375,-0.001851163273714078,0.01059059270691811,-0.001412540642178028,169174.413106375,-89.13951110839844,-47.41423034667969,-547.6912841796875,169174.427602375,-0.1466665027986622,-1.477651798577036,-0.1239400812351946,-0.01157349906861782,0.01298444252461195,-0.006436113733798265,0.005270183086395264,-0.006176114082336426,0.01249295473098755,1,-0.09490473568439484,-0.6669669151306152,-0.01246668118983507,0.7389132976531982,-0.9880277514457703,0.1236230134963989,-0.09229645133018494,0,0,0,-1,169173.57229625,2,0,1561841357.518795,0,0,0,0,0,0,0,0,0,169171.75064,0,-0.3962402,75.19669,0,182478453,3,1,1,-32.84015,-40.41833,2
1561841358.16536,12,0,0,1561841357.998511,4.634542395365084,-74.15101175203374,2552.586,0,190.8984375,4,30,-9999,1561841358.143335,-16.743896484375,-21.34814071655273,12.7872314453125,138.5807342529297,146.0739440917969,15,169174.452931375,-0.98333740234375,0.1172943115234375,-0.0750274658203125,169174.452931375,0.01805250376521112,-0.01727565967523501,0.002235457419012512,169174.433217375,-89.29241943359375,-47.16336059570312,-547.9815673828125,169174.447865375,-0.1466069301511469,-1.477732169357178,-0.123885956811092,0.01607038080692291,-0.01737958751618862,0.0002484205178916454,0.002659738063812256,-0.005466274917125702,0.01944851875305176,1,-0.09486553817987442,-0.6670020222663879,-0.01245909091085196,0.7388867735862732,-0.9880418181419373,0.1235693022608757,-0.09221766144037247,0,0,0,-1,169173.57229625,2,0,1561841357.518795,0,0,0,0,0,0,0,0,0,169171.75064,0,-0.3962402,75.19669,0,182478453,3,1,1,-32.84015,-40.41833,2
1561841358.179042,13,0,0,1561841357.998511,4.634542395365084,-74.15101175203374,2552.586,0,190.8984375,4,30,-9999,1561841358.167284,-16.74636077880859,-21.30906295776367,12.71221923828125,138.5635681152344,146.0567779541016,15,169174.473195375,-0.9896240234375,0.117828369140625,-0.0783233642578125,169174.473195375,0.01326067801583155,0.004758536235753583,0.00333001662703508,169174.453328375,-89.30850219726562,-47.22499084472656,-547.5177001953125,169174.468129375,-0.1462934713596565,-1.478094792184531,-0.1238382507665296,0.01371294911950827,-0.004362056497484446,0.001265748171135783,0.002393722534179688,-0.004533931612968445,0.01327717304229736,1,-0.09474576264619827,-0.6671531200408936,-0.0123421736061573,0.7387676239013672,-0.9880809783935547,0.1235219612717628,-0.09185990691184998,0,0,0,-1,169173.57229625,2,0,1561841357.518795,0,0,0,0,0,0,0,0,0,169171.75064,0,-0.3962402,75.19669,0,182478453,3,1,1,-32.84015,-39.45119,2
1561841358.199374,14,0,0,1561841357.998511,4.634542395365084,-74.15101175203374,2552.586,0,190.8984375,4,30,-9999,1561841358.193715,-16.62432861328125,-21.49216079711914,12.790771484375,138.5543975830078,146.047607421875,15,169174.493458375,-0.9881134033203125,0.118072509765625,-0.0800933837890625,169174.493458375,0.008008125397868269,0.007068562165288314,-0.003210440694090522,169174.473408375,-89.25933837890625,-47.43960571289062,-547.6700439453125,169174.488393375,-0.1461382164454867,-1.478057269540484,-0.1238030472133182,0.00619511166587472,0.006412027403712273,-0.003592123975977302,-0.0005961060523986816,-0.003736048936843872,0.01276534795761108,1,-0.09468084573745728,-0.6671482920646667,-0.01229846198111773,0.7387810349464417,-0.9880818724632263,0.1234870329499245,-0.0918973907828331,0,0,0,-1,169173.57229625,2,0,1561841357.518795,0,0,0,0,0,0,0,0,0,169171.75064,0,-0.3962402,75.19669,0,182478453,3,1,1,-32.84015,-40.29377,2
1561841358.219616,15,0,0,1561841357.998511,4.634542395365084,-74.15101175203374,2552.586,0,190.8984375,4,30,-9999,1561841358.217972,-16.65488433837891,-21.27004623413086,12.93255615234375,138.5417938232422,146.0350036621094,15,169174.513722375,-0.9928436279296875,0.1172027587890625,-0.076446533203125,169174.513722375,0.0173494292374302,0.004998487049969722,-0.03369511306000954,169174.493520375,-89.23333740234375,-47.62889099121094,-547.6608276367188,169174.508626375,-0.1459485408359343,-1.478094702248359,-0.1234609820979472,0.01741287857294083,-0.005273124203085899,-0.03278223425149918,-0.002335906028747559,-0.006585687398910522,0.01355618238449097,1,-0.09449248760938644,-0.6671873927116394,-0.01234187465161085,0.7387691140174866,-0.9881272912025452,0.123147577047348,-0.09186430275440216,0,0,0,-1,169173.57229625,2,0,1561841357.518795,0,0,0,0,0,0,0,0,0,169171.75064,0,-0.3962402,75.19669,0,182478453,3,1,1,-32.84015,-41.05848,2
1561841358.247511,16,0,0,1561841357.998511,4.634542395365084,-74.15101175203374,2552.586,0,190.8984375,4,30,-9999,1561841358.244061,-16.57550811767578,-21.31768417358398,12.958251953125,138.5433654785156,146.0365753173828,15,169174.533955375,-0.98663330078125,0.117218017578125,-0.0777587890625,169174.533955375,-0.006272010683245613,0.02056466362148287,-0.02193805579563673,169174.513631375,-89.29829406738281,-47.4693603515625,-547.61572265625,169174.528889375,-0.1457911714342094,-1.478033228947721,-0.1227269088679525,0.0001313600223511457,0.01044671703130007,-0.03048871830105782,-0.004418551921844482,-0.006971061229705811,0.01800453662872314,1,-0.09417065978050232,-0.6672070026397705,-0.01253396458923817,0.7387893199920654,-0.988211452960968,0.1224190592765808,-0.09193340688943863,0,0,0,-1,169173.57229625,2,0,1561841357.518795,0,0,0,0,0,0,0,0,0,169171.75064,0,-0.3962402,75.19669,0,182478453,3,1,1,-32.84015,-41.73914,2
1561841358.260001,17,0,0,1561841357.998511,4.634542395365084,-74.15101175203374,2552.586,0,190.8984375,4,30,-9999,1561841358.244061,-16.57550811767578,-21.31768417358398,12.958251953125,138.5433654785156,146.0365753173828,15,169174.554219375,-0.982513427734375,0.1175689697265625,-0.0809783935546875,169174.554219375,-0.02107705581521412,0.02788729135476474,-0.006462959333404295,169174.533711375,-89.45294189453125,-47.6484375,-547.6619873046875,169174.549153375,-0.1461103395804634,-1.477757322489528,-0.1223387105600741,-0.02443020790815353,0.0201449878513813,-0.01033890061080456,0.005429983139038086,-0.003991782665252686,0.01277321577072144,1,-0.09413313865661621,-0.6671084761619568,-0.01279563643038273,0.738878607749939,-0.9882333278656006,0.1220337674021721,-0.09221046417951584,0,0,0,-1,169174.545003375,3,2,1561841358.491502,0,0,0,0,0,0,0,0,0,169171.75064,0,-0.3962402,75.19669,0,182478453,3,1,1,-32.84015,-42.01612,2
1561841358.280265,18,0,0,1561841357.998511,4.634542395365084,-74.15101175203374,2552.586,0,190.8984375,4,30,-9999,1561841358.268788,-16.54801177978516,-21.45310592651367,12.89739990234375,138.5753021240234,146.0685119628906,15,169174.574483375,-0.984130859375,0.121368408203125,-0.0745697021484375,169174.574483375,0.01704769308592423,0.012939767104477,-0.002735066439511378,169174.553822375,-89.29475402832031,-47.51313781738281,-547.6490478515625,169174.569417375,-0.1464215288398402,-1.477289454977817,-0.1222144347467745,0.002735899062827229,0.02184328623116016,-0.005441879853606224,0.004333674907684326,-0.003456443548202515,0.01403045654296875,1,-0.09418836981058121,-0.6669268608093262,-0.01297449506819248,0.7390323281288147,-0.9882051348686218,0.12191042304039,-0.09267422556877136,0,0,0,-1,169174.545003375,3,2,1561841358.491502,0,0,0,0,0,0,0,0,0,169171.75064,0,-0.3962402,75.19669,0,182478453,3,1,1,-32.84015,-42.01612,2
1561841358.300643,19,0,0,1561841357.998511,4.634542395365084,-74.15101175203374,2552.586,0,190.8984375,4,30,-9999,1561841358.294814,-16.59110260009766,-21.44579315185547,12.73895263671875,138.5531005859375,146.0463104248047,15,169174.594746375,-0.9842071533203125,0.1219482421875,-0.0788726806640625,169174.594746375,0.05394232787955497,-0.04166488893818068,-0.005175853578568999,169174.573903375,-89.3682861328125,-47.45350646972656,-547.6906127929688,169174.589680375,-0.1459118975637498,-1.47752170992686,-0.1220610651107078,0.0463707260787487,-0.04898960888385773,-0.004649323411285877,0.006098031997680664,0.002494119107723236,0.01654922962188721,1,-0.09396369755268097,-0.667043924331665,-0.01282691769301891,0.7389578819274902,-0.9882452487945557,0.1217581927776337,-0.0924464538693428,0,0,0,-1,169174.545003375,3,2,1561841358.491502,0,0,0,0,0,0,0,0,0,169171.75064,0,-0.3962402,75.19669,0,182478453,3,1,1,-32.84015,-38.2704,2
1561841358.326761,20,0,0,1561841357.998511,4.634542395365084,-74.15101175203374,2552.586,0,190.8984375,4,30,-9999,1561841358.319328,-16.75695037841797,-21.22092056274414,12.7340087890625,138.4926147460938,145.9858245849609,15,169174.615010375,-0.995269775390625,0.115631103515625,-0.07879638671875,169174.615010375,0.02158944800894536,0.01078953084034702,-0.0220344622270976,169174.594014375,-89.14239501953125,-47.44375610351562,-547.7035522460938,169174.609944375,-0.1449717366562891,-1.478086688422886,-0.1216903357937911,0.0349673368036747,-0.005463435780256987,-0.02070125937461853,-0.002029478549957275,-0.002432703971862793,0.01189041137695312,1,-0.09351780265569687,-0.6673142313957214,-0.01257799472659826,0.7387746572494507,-0.9883422255516052,0.1213902160525322,-0.09189227223396301,0,0,0,-1,169174.545003375,3,2,1561841358.491502,0,0,0,0,0,0,0,0,0,169171.75064,0,-0.3962402,75.19669,0,182478453,3,1,1,-32.84015,-38.97052,2
1561841358.341087,21,0,0,1561841357.998511,4.634542395365084,-74.15101175203374,2552.586,0,190.8984375,4,30,-9999,1561841358.319328,-16.75695037841797,-21.22092056274414,12.7340087890625,138.4926147460938,145.9858245849609,15,169174.635274375,-0.98199462890625,0.103546142578125,-0.0818328857421875,169174.635274375,-0.00215875837961823,0.01733025447758163,-0.03168762223030781,169174.614125375,-89.21260070800781,-47.50357055664062,-547.3653564453125,169174.630208375,-0.144788612820491,-1.477919512855572,-0.1211312711254109,-0.002988565713167191,0.01080182008445263,-0.03109451197087765,0.0002501606941223145,-0.01136871427297592,0.01171094179153442,1,-0.09325078874826431,-0.6672873497009277,-0.01270649489015341,0.7388303875923157,-0.9883941411972046,0.1208352670073509,-0.09206376969814301,0,0,0,-1,169174.545003375,3,2,1561841358.491502,0,0,0,0,0,0,0,0,0,169171.75064,0,-0.3962402,75.19669,0,182478453,3,1,1,-32.84015,-39.18818,2
1561841358.361348,22,0,0,1561841357.998511,4.634542395365084,-74.15101175203374,2552.586,0,190.8984375,4,30,-9999,1561841358.345243,-16.51971435546875,-21.18496322631836,12.94378662109375,138.4929351806641,145.9861450195312,15,169174.655537375,-0.9866485595703125,0.1094818115234375,-0.07904052734375,169174.655537375,0.01634674908701537,0.01990925967721437,-0.036399020514767,169174.634206375,-89.40281677246094,-47.45344543457031,-547.959228515625,169174.650441375,-0.1448582919616455,-1.477690583822279,-0.1203856893947951,0.009186607785522938,0.01079596020281315,-0.03907680511474609,0.004591047763824463,-0.01548084616661072,0.01415812969207764,1,-0.09299930930137634,-0.6672345399856567,-0.01299405470490456,0.7389048337936401,-0.988462507724762,0.1200951114296913,-0.09229839593172073,0,0,0,-1,169174.545003375,3,2,1561841358.491502,0,0,0,0,0,0,0,0,0,169171.75064,0,-0.3962402,75.19669,0,182478453,3,1,1,-32.84015,-39.90836,2
1561841358.381582,23,0,0,1561841357.998511,4.634542395365084,-74.15101175203374,2552.586,0,190.8984375,4,30,-9999,1561841358.369668,-16.40734100341797,-21.12707901000977,12.61065673828125,138.4860687255859,145.9792785644531,15,169174.675771375,-0.9800567626953125,0.12908935546875,-0.0723724365234375,169174.675771375,0.02736957283885334,-0.01081270034183071,-0.002120142543812082,169174.654317375,-89.27679443359375,-47.17337036132812,-547.6492309570312,169174.670705375,-0.1445304166720707,-1.477515680545421,-0.1196754038383435,0.02754457667469978,-0.006118573248386383,-0.01784182339906693,0.004354357719421387,-0.0004781931638717651,0.0164598822593689,1,-0.09262843430042267,-0.6672183871269226,-0.01312026660889387,0.7389637231826782,-0.9885309934616089,0.1193899363279343,-0.09247919172048569,0,0,0,-1,169174.545003375,3,2,1561841358.491502,0,0,0,0,0,0,0,0,0,169171.75064,0,-0.3962402,75.19669,0,182478453,3,1,1,-32.84015,-39.00496,2
1561841358.40194,24,0,0,1561841357.998511,4.634542395365084,-74.15101175203374,2552.586,0,190.8984375,4,30,-9999,1561841358.396126,-16.36141204833984,-21.10511779785156,12.89459228515625,138.4500732421875,145.9432830810547,15,169174.696034375,-0.98834228515625,0.129180908203125,-0.0750579833984375,169174.696034375,0.02095055566343535,-0.01808392906607406,0.01897768592790465,169174.674428375,-89.07295227050781,-47.19233703613281,-547.4280395507812,169174.690968375,-0.1439981300568355,-1.477871821943546,-0.1197132908235514,0.02327792532742023,-0.0261657852679491,0.01802562922239304,0.006213903427124023,0.01422417908906937,0.01897609233856201,1,-0.09246703237295151,-0.6673728227615356,-0.01289437711238861,0.7388485670089722,-0.9885595440864563,0.1194275543093681,-0.09212672710418701,0,0,0,-1,169174.545003375,3,2,1561841358.491502,0,0,0,0,0,0,0,0,0,169171.75064,0,-0.3962402,75.19669,0,182478453,3,1,1,-32.84015,-39.66868,2
1561841358.425398,25,0,0,1561841357.998511,4.634542395365084,-74.15101175203374,2552.586,0,190.8984375,4,30,-9999,1561841358.420605,-16.59501647949219,-21.24967193603516,12.883544921875,138.4273071289062,145.9205169677734,15,169174.716298375,-1.000534057617188,0.1134490966796875,-0.0840911865234375,169174.716298375,0.005295695827622566,-0.0007062703210890139,0.006870689296295427,169174.694508375,-89.28285217285156,-47.22108459472656,-547.7012939453125,169174.711232375,-0.1436452475089773,-1.478230603974255,-0.1198912994492544,0.00757752638310194,-0.006990225985646248,0.004167071543633938,-0.008407533168792725,0.001962482929229736,0.01166141033172607,1,-0.09241680800914764,-0.667513370513916,-0.01268746517598629,0.7387313842773438,-0.9885712265968323,0.1196042895317078,-0.09177006781101227,0,0,0,-1,169174.545003375,3,2,1561841358.491502,0,0,0,0,0,0,0,0,0,169171.75064,0,-0.3962402,75.19669,0,182478453,3,1,1,-32.84015,-37.96238,2
1561841358.443122,26,0,0,1561841357.998511,4.634542395365084,-74.15101175203374,2552.586,0,190.8984375,4,30,-9999,1561841358.420605,-16.59501647949219,-21.24967193603516,12.883544921875,138.4273071289062,145.9205169677734,15,169174.736562375,-0.9989013671875,0.1080474853515625,-0.09307861328125,169174.736562375,0.02641882432969505,0.0004503405403323992,0.005959089255161303,169174.714619375,-89.04847717285156,-47.44052124023438,-547.6334228515625,169174.731496375,-0.1435284449486072,-1.478418210076096,-0.119901629501145,0.01173099223524332,-0.007985449396073818,0.003073045052587986,-0.00831526517868042,-0.01023954153060913,0.001725494861602783,1,-0.09238279610872269,-0.6675875782966614,-0.01263217534869909,0.7386695146560669,-0.9885872006416321,0.1196145415306091,-0.09158448874950409,0,0,0,-1,169174.545003375,3,2,1561841358.491502,0,0,0,0,0,0,0,0,0,169171.75064,0,-0.3962402,75.19669,0,182478453,3,1,1,-32.84015,-37.96238,2
1561841358.462739,27,0,0,1561841357.998511,4.634542395365084,-74.15101175203374,2552.586,0,190.8984375,4,30,-9999,1561841358.446816,-16.50839996337891,-21.29518890380859,12.882568359375,138.4108428955078,145.904052734375,15,169174.7568325417,-1.025222778320312,0.11944580078125,-0.0901336669921875,169174.7568325417,0.1394843936734451,-0.008115450789798462,0.01447934053065181,169174.7347375417,-89.193115234375,-47.29429626464844,-547.7410888671875,169174.7517665417,-0.1425609398195981,-1.478432831247186,-0.1199171186339091,0.1002563312649727,-0.006841355469077826,0.01106598973274231,-0.0233304500579834,-0.006821699440479279,-0.0006085038185119629,1,-0.09206560254096985,-0.6676368713378906,-0.01226894930005074,0.7386707067489624,-0.9885867238044739,0.1196299195289612,-0.09156986325979233,0,0,0,-1,169174.545003375,3,2,1561841358.491502,0,0,0,0,0,0,0,0,0,169171.75064,0,-0.3962402,75.19669,0,182478453,3,1,1,-32.84015,-38.53352,2
1561841358.484454,28,0,0,1561841357.998511,4.634542395365084,-74.15101175203374,2552.586,0,190.8984375,4,30,-9999,1561841358.471209,-16.62187957763672,-21.49849700927734,12.888916015625,138.2400360107422,145.7332458496094,15,169174.7770965417,-1.058059692382812,0.1230316162109375,-0.0804901123046875,169174.7770965417,0.3652133950363434,-0.03790716864007887,0.04220204853004966,169174.7548185417,-89.22528076171875,-47.18415832519531,-547.5248413085938,169174.7719995417,-0.1385909102656299,-1.47842483342485,-0.1199398422017523,0.3046081364154816,-0.03510947898030281,0.03105621226131916,-0.05174565315246582,0.002158425748348236,0.007410049438476562,1,-0.09074843674898148,-0.667814314365387,-0.01079536136239767,0.7386963367462158,-0.9885833263397217,0.1196524798870087,-0.09157752245664597,0,0,0,-1,169174.545003375,3,2,1561841358.491502,0,0,0,0,0,0,0,0,0,169171.75064,0,-0.3962402,75.19669,0,182478453,3,1,1,-33.39743,-39.29285,2
1561841358.503094,29,0,0,1561841357.998511,4.634542395365084,-74.15101175203374,2552.586,0,190.8984375,4,30,-9999,1561841358.497364,-16.55491638183594,-21.3582878112793,13.03619384765625,137.6986541748047,145.1918640136719,15,169174.7973295417,-1.111160278320312,0.1210479736328125,-0.1029815673828125,169174.7973295417,0.4899358867874793,-0.04493098969905385,0.1509226705553355,169174.7749295417,-89.23464965820312,-47.26805114746094,-547.3662719726562,169174.7922635417,-0.1302896264368603,-1.478398509261634,-0.1204748166378345,0.4713664948940277,-0.04991159588098526,0.1188763380050659,-0.09085923433303833,0.007822386920452118,0.006712973117828369,1,-0.08817189931869507,-0.66815185546875,-0.007550099398940802,0.7387434244155884,-0.9885169863700867,0.1201835945248604,-0.09159763157367706,0,0,0,-1,169174.545003375,3,2,1561841358.491502,0,0,0,0,0,0,0,0,0,169171.75064,0,-0.3962402,75.19669,0,182478453,3,1,1,-33.95471,-39.88892,2
1561841358.524407,30,0,0,1561841357.998511,4.634542395365084,-74.15101175203374,2552.586,0,190.8984375,4,30,-9999,1561841358.497364,-16.55491638183594,-21.3582878112793,13.03619384765625,137.6986541748047,145.1918640136719,15,169174.8175935417,-1.174560546875,0.074798583984375,-0.1422119140625,169174.8175935417,0.4541898733719997,0.06664906838865003,0.1679333457021076,169174.7950405417,-89.07901000976562,-47.44331359863281,-547.032470703125,169174.8125275417,-0.1201113723330418,-1.4778891041664,-0.1227581973832096,0.4769783020019531,0.01094003766775131,0.1706508547067642,-0.15284264087677,-0.01978898048400879,-0.03503024578094482,1,-0.08560752868652344,-0.6683065295219421,-0.003042836440727115,0.7389373779296875,-0.9881943464279175,0.1224501132965088,-0.09207546710968018,0,0,0,-1,169174.545003375,3,2,1561841358.491502,0,0,0,0,0,0,0,0,0,169171.75064,0,-0.3962402,75.19669,0,182478453,3,1,1,-34.51199,-40.14731,2
1561841358.544813,31,0,0,1561841357.998511,4.634542395365084,-74.15101175203374,2552.586,0,190.8984375,4,30,-9999,1561841358.522616,-16.73829650878906,-20.95934677124023,13.36468505859375,136.9761047363281,144.4693145751953,15,169174.8378565417,-1.232040405273438,0.029510498046875,-0.1624755859375,169174.8378565417,0.1805780345578038,0.2587716399558384,0.1709602945970917,169174.8151215417,-89.247802734375,-47.11119079589844,-547.1272583007812,169174.8327905417,-0.111897430328162,-1.474472194740712,-0.1252632718426836,0.2527657151222229,0.2199675589799881,0.1627186238765717,-0.2162155508995056,-0.08500369638204575,-0.05091011524200439,1,-0.0837831050157547,-0.6672852039337158,0.0006926986388862133,0.7400745749473572,-0.9875655770301819,0.1249359473586082,-0.0954216942191124,0,0,0,-1,169174.545003375,3,2,1561841358.491502,0,0,0,0,0,0,0,0,0,169171.75064,0,-0.3962402,75.19669,0,182478453,3,1,1,-35.06927,-40.34542,2
1561841358.563987,32,0,0,1561841357.998511,4.634542395365084,-74.15101175203374,2552.586,0,190.8984375,4,30,-9999,1561841358.547948,-16.61132049560547,-20.77301025390625,13.27752685546875,136.5111083984375,144.0043182373047,15,169174.8581205417,-1.30596923828125,0.1147918701171875,-0.164337158203125,169174.8581205417,0.3125565750149696,0.1537919603137868,0.1014248922190137,169174.8352325417,-89.26396179199219,-46.990966796875,-547.1597290039062,169174.8530545417,-0.1081473589939442,-1.469031637177111,-0.1280467284784216,0.1959820538759232,0.2064352333545685,0.1215022206306458,-0.2841309309005737,-0.06281673908233643,-0.06309139728546143,1,-0.08356323838233948,-0.665310800075531,0.002788922050967813,0.7418699264526367,-0.9866820573806763,0.1276971101760864,-0.1007574498653412,0,0,0,-1,169174.545003375,3,2,1561841358.491502,0,0,0,0,0,0,0,0,0,169171.75064,0,-0.3962402,75.19669,0,182478453,3,1,1,-35.62654,-41.02906,2
1561841358.584705,33,0,0,1561841357.998511,4.634542395365084,-74.15101175203374,2552.586,0,190.8984375,4,30,-9999,1561841358.572611,-16.77576446533203,-20.37239074707031,13.29345703125,136.0829620361328,143.576171875,15,169174.8783845417,-1.359527587890625,0.1158599853515625,-0.1748046875,169174.8783845417,1.094956551657207,-0.1455340304056691,0.07591740161434381,169174.8553435417,-89.60517883300781,-46.62728881835938,-547.249267578125,169174.8733185417,-0.09778800173805455,-1.466233562427242,-0.1287555267345837,0.8860588073730469,-0.08134834468364716,0.06563735753297806,-0.3408882617950439,-0.007153734564781189,-0.06562000513076782,1,-0.08038698881864548,-0.6646681427955627,0.006756639573723078,0.7427708506584167,-0.9863059520721436,0.1284000724554062,-0.1035083830356598,0,0,0,-1,169174.545003375,3,2,1561841358.491502,0,0,0,0,0,0,0,0,0,169171.75064,0,-0.3962402,75.19669,0,182478453,3,1,1,-36.18382,-41.54297,2
1561841358.604546,34,0,0,1561841357.998511,4.634542395365084,-74.15101175203374,2552.586,0,190.8984375,4,30,-9999,1561841358.599372,-16.93472290039062,-20.26528930664062,13.781005859375,134.4322967529297,141.9255065917969,15,169174.8986475417,-1.4384765625,0.111297607421875,-0.163818359375,169174.8986475417,1.654608403144671,-0.2066887311493767,0.02109623057506269,169174.8754235417,-89.61264038085938,-46.33819580078125,-546.9585571289062,169174.8935815417,-0.07205594033038869,-1.466748649472508,-0.1275590911617509,1.566049575805664,-0.237275093793869,0.05497245863080025,-0.4295502901077271,-0.01352021098136902,-0.0747029185295105,1,-0.07138242572546005,-0.6658802032470703,0.01593045331537724,0.7424649596214294,-0.9865111112594604,0.1272134482860565,-0.1030162051320076,0,0,0,-1,169174.545003375,3,2,1561841358.491502,0,0,0,0,0,0,0,0,0,169171.75064,0,-0.3962402,75.19669,0,182478453,3,1,1,-36.18382,-41.54297,2
1561841358.62614,35,0,0,1561841357.998511,4.634542395365084,-74.15101175203374,2552.586,0,190.8984375,4,30,-9999,1561841358.623209,-16.85838317871094,-19.7653923034668,14.549072265625,132.0565338134766,139.5497436523438,15,169174.9189115417,-1.465713500976562,0.0872802734375,-0.164154052734375,169174.9189115417,1.511819292874547,-0.09733587468130608,-0.1315393851934117,169174.8955355417,-89.29811096191406,-45.97956848144531,-546.105712890625,169174.9138155417,-0.03848225053754199,-1.466143761416864,-0.1235679154531301,1.621276617050171,-0.1237402781844139,-0.104537308216095,-0.4602588415145874,-0.01619803160429001,-0.04095768928527832,1,-0.05872529000043869,-0.6668723821640015,0.02703879028558731,0.7423620223999023,-0.9869457483291626,0.12325369566679,-0.1036651358008385,0,0,0,-1,169174.545003375,3,2,1561841358.491502,0,0,0,0,0,0,0,0,0,169171.75064,0,-0.3962402,75.19669,0,182478453,3,1,1,-36.7411,-41.54382,2
1561841358.645363,36,0,0,1561841357.998511,4.634542395365084,-74.15101175203374,2552.586,0,190.8984375,4,30,-9999,1561841358.623209,-16.85838317871094,-19.7653923034668,14.549072265625,132.0565338134766,139.5497436523438,15,169174.9391445417,-1.536819458007812,0.0789947509765625,-0.1865386962890625,169174.9391445417,0.7842575315025674,0.1295278996220749,-0.2050058796565556,169174.9156465417,-89.60069274902344,-45.472900390625,-545.7337646484375,169174.9340785417,-0.01158646606909377,-1.464207255422609,-0.1177185642535476,0.9912469983100891,0.03732051327824593,-0.1808693557977676,-0.4999529719352722,-0.04586789011955261,-0.08175736665725708,1,-0.04761743173003197,-0.6670135259628296,0.0350189246237278,0.7426972985267639,-0.9874432682991028,0.1174468696117401,-0.1056510731577873,0,0,0,-1,169174.545003375,3,2,1561841358.491502,0,0,0,0,0,0,0,0,0,169171.75064,0,-0.3962402,75.19669,0,182478453,3,1,1,-37.29838,-42.04478,2
1561841358.665022,37,0,0,1561841357.998511,4.634542395365084,-74.15101175203374,2552.586,0,190.8984375,4,30,-9999,1561841358.649218,-16.88802337646484,-19.11458969116211,14.98199462890625,130.4732360839844,137.9664459228516,15,169174.9594085417,-1.584152221679688,0.111572265625,-0.1755828857421875,169174.9594085417,0.076293706276372,0.4450730740123315,-0.4052654736183721,169174.9357265417,-89.16725158691406,-44.91496276855469,-545.1571044921875,169174.9543425417,-0.0002413586677175395,-1.45858342039896,-0.1113053734794539,0.21396504342556,0.3834768533706665,-0.3485339879989624,-0.5919366478919983,-0.01227503269910812,-0.07078319787979126,1,-0.04155610501766205,-0.6653050184249878,0.0369747169315815,0.7444966435432434,-0.9875616431236267,0.1110756918787956,-0.1112846434116364,0,0,0,-1,169174.545003375,3,2,1561841358.491502,0,0,0,0,0,0,0,0,0,169171.75064,0,-0.3962402,75.19669,0,182478453,3,1,1,-37.85566,-42.21269,2
1561841358.685287,38,0,0,1561841357.998511,4.634542395365084,-74.15101175203374,2552.586,0,190.8984375,4,30,-9999,1561841358.674223,-16.63418579101562,-18.80885696411133,15.44500732421875,130.2427520751953,137.7359619140625,15,169174.9796725417,-1.552932739257812,0.1289520263671875,-0.1846771240234375,169174.9796725417,-0.1301335024539589,0.4083315709813803,-0.5494905603482673,169174.9558375417,-89.22195434570312,-44.98466491699219,-545.1661376953125,169174.9746065417,-0.001403266489086901,-1.4495875696185,-0.1021474926450695,-0.133861631155014,0.4512761533260345,-0.5392810106277466,-0.582732081413269,0.01454616338014603,-0.0508759617805481,1,-0.03868358582258224,-0.6620895862579346,0.03332161903381348,0.7476834654808044,-0.987488865852356,0.101969949901104,-0.120281919836998,0,0,0,-1,169174.545003375,3,2,1561841358.491502,0,0,0,0,0,0,0,0,0,169171.75064,0,-0.3962402,75.19669,0,182478453,3,1,1,-38.41294,-43.07924,2
1561841358.714186,39,0,0,1561841357.998511,4.634542395365084,-74.15101175203374,2552.586,0,190.8984375,4,30,-9999,1561841358.699812,-16.68653869628906,-18.72153091430664,15.245361328125,130.4837799072266,137.9769897460938,15,169174.9999355417,-1.436004638671875,0.156646728515625,-0.2091217041015625,169174.9999355417,0.08063891991094528,0.03054938718040795,-0.483878260571985,169174.9759485417,-89.26969909667969,-45.11569213867188,-545.438720703125,169174.9948695417,-0.004534663037779774,-1.443449498987999,-0.09153258145809956,0.009094462729990482,0.1363104730844498,-0.5067718029022217,-0.5138826966285706,0.05253133177757263,-0.07796603441238403,1,-0.03583959117531776,-0.6599090099334717,0.02852603048086166,0.7499479055404663,-0.9877500534057617,0.09140482544898987,-0.1264712512493134,0,0,0,-1,169174.545003375,3,2,1561841358.491502,0,0,0,0,0,0,0,0,0,169171.75064,0,-0.3962402,75.19669,0,182478453,3,1,1,-38.97022,-43.73162,2
1561841358.725869,40,0,0,1561841357.998511,4.634542395365084,-74.15101175203374,2552.586,0,190.8984375,4,30,-9999,1561841358.724735,-16.65059661865234,-19.22271347045898,15.184814453125,130.3350219726562,137.8282318115234,15,169175.0201995417,-1.327743530273438,0.184906005859375,-0.171783447265625,169175.0201995417,0.3179774394138259,-0.07694644705955042,-0.5213976729573484,169174.9960295417,-89.1334228515625,-45.28059387207031,-545.61083984375,169175.0151335417,-0.002738902983597055,-1.443854646624714,-0.08129213377669191,0.2817246615886688,-0.1052851006388664,-0.5040370225906372,-0.397369384765625,0.08954322338104248,-0.0717846155166626,1,-0.03140203654766083,-0.6602442264556885,0.02582584694027901,0.7499496936798096,-0.9886779189109802,0.08120262622833252,-0.1261829435825348,0,0,0,-1,169174.545003375,3,2,1561841358.491502,0,0,0,0,0,0,0,0,0,169171.75064,0,-0.3962402,75.19669,0,182478453,3,1,1,-39.5275,-40.74158,2
1561841358.74616,41,0,0,1561841357.998511,4.634542395365084,-74.15101175203374,2552.586,0,190.8984375,4,30,-9999,1561841358.724735,-16.65059661865234,-19.22271347045898,15.184814453125,130.3350219726562,137.8282318115234,15,169175.0404635417,-1.249618530273438,0.2872772216796875,-0.1962432861328125,169175.0404635417,-0.04519331106642666,-0.3735552145187985,-0.4220822706377864,169175.0161405417,-88.74247741699219,-45.29759216308594,-545.6416015625,169175.0353665417,0.001470490616421217,-1.445556811778482,-0.07004203769660082,0.1206865012645721,-0.2250610291957855,-0.4984164237976074,-0.2734332084655762,0.1339336782693863,-0.03907489776611328,1,-0.02577332034707069,-0.6610844731330872,0.02371171675622463,0.7494937777519226,-0.9897351264953613,0.06998477876186371,-0.1246061101555824,0,0,0,-1,169174.545003375,3,2,1561841358.491502,0,0,0,0,0,0,0,0,0,169171.75064,0,-0.3962402,75.19669,0,182478453,3,1,1,-39.5275,-40.74158,2
1561841358.766283,42,0,0,1561841357.998511,4.634542395365084,-74.15101175203374,2552.586,0,190.8984375,4,30,-9999,1561841358.750329,-16.03479766845703,-19.2235221862793,15.03192138671875,130.1929626464844,137.6861724853516,15,169175.0606965417,-1.007614135742188,0.3129425048828125,-0.2572021484375,169175.0606965417,-0.3876497282719339,-0.4657112408799005,-0.07684684483478146,169175.0362515417,-88.48294067382812,-45.46612548828125,-545.2784423828125,169175.0556305417,-0.002832725197934902,-1.455149743704765,-0.06347966664329328,-0.3687340617179871,-0.5205398201942444,-0.1846150904893875,-0.1702861189842224,0.2710050940513611,-0.1522690057754517,1,-0.02464046142995358,-0.6646913290023804,0.02004815265536308,0.7464424967765808,-0.9913197159767151,0.06343704462051392,-0.1151565685868263,0,0,0,-1,169174.545003375,3,2,1561841358.491502,0,0,0,0,0,0,0,0,0,169171.75064,0,-0.3962402,75.19669,0,182478453,3,1,1,-37.63781,-40.89738,2
1561841358.79449,43,0,0,1561841357.998511,4.634542395365084,-74.15101175203374,2552.586,0,190.8984375,4,30,-9999,1561841358.774825,-15.7830810546875,-19.74515151977539,15.2989501953125,130.7102355957031,138.2034454345703,15,169175.0809595417,-0.9085845947265625,0.3763275146484375,-0.2587127685546875,169175.0809595417,-0.3287488607587604,-0.4218361945530631,0.4260639627835638,169175.0563325417,-88.41267395019531,-45.66226196289062,-545.3600463867188,169175.0758935417,-0.01017445987172688,-1.465100695163555,-0.06537159264090896,-0.3332540988922119,-0.4614767730236053,0.3167284429073334,0.03248703479766846,0.2658059298992157,-0.1213651895523071,1,-0.02769665233790874,-0.6682784557342529,0.01807486452162266,0.7431756854057312,-0.9922953844070435,0.0653250440955162,-0.1052736043930054,0,0,0,-1,169174.545003375,3,2,1561841358.491502,0,0,0,0,0,0,0,0,0,169171.75064,0,-0.3962402,75.19669,0,182478453,3,1,1,-37.63781,-40.40684,2
1561841358.807433,44,0,0,1561841357.998511,4.634542395365084,-74.15101175203374,2552.586,0,190.8984375,4,30,-9999,1561841358.801197,-15.89241027832031,-19.50735855102539,15.26336669921875,131.1499481201172,138.6431579589844,15,169175.1012235417,-0.7912750244140625,0.3664093017578125,-0.25494384765625,169175.1012235417,-0.3810845035526706,0.1686814276523108,0.5853068812165249,169175.0764435417,-88.19377136230469,-45.63674926757812,-545.5155029296875,169175.0961575417,-0.01620512746732177,-1.471719429451704,-0.07571280063722638,-0.3809635639190674,-0.0474308617413044,0.5720667839050293,0.135540246963501,0.3223544955253601,-0.1593030691146851,1,-0.03348826989531517,-0.6704944372177124,0.01940156333148479,0.7409042716026306,-0.9922449588775635,0.0756404846906662,-0.09863149374723434,0,0,0,-1,169174.545003375,3,2,1561841358.491502,0,0,0,0,0,0,0,0,0,169172.692633,0,-0.3408203,75.19618,0,182478453,3,1,1,-37.63781,-40.40684,2
1561841358.827768,45,0,0,1561841357.998511,4.634542395365084,-74.15101175203374,2552.586,0,190.8984375,4,30,-9999,1561841358.825896,-16.07704925537109,-19.53433609008789,14.91119384765625,131.5199127197266,139.0131225585938,15,169175.1214875417,-0.718902587890625,0.31732177734375,-0.2677001953125,169175.1214875417,-0.1884245060775043,1.000298485451975,0.7423963675920479,169175.0965545417,-88.17665100097656,-45.69947814941406,-545.5025634765625,169175.1164215417,-0.02175117161196016,-1.463930507306151,-0.08872346151205281,-0.2442307472229004,0.8518936038017273,0.6844979524612427,0.2420781254768372,0.2380225360393524,-0.1652871370315552,1,-0.04024746641516685,-0.6672770380973816,0.02155510149896145,0.7434089779853821,-0.9903843998908997,0.08860710263252258,-0.1062429919838905,0,0,0,-1,169174.545003375,3,2,1561841358.491502,0,0,0,0,0,0,0,0,0,169172.692633,0,-0.3408203,75.19618,0,182478453,3,1,1,-37.63781,-40.89758,2
1561841358.847426,46,0,0,1561841357.998511,4.634542395365084,-74.15101175203374,2552.586,0,190.8984375,4,30,-9999,1561841358.825896,-16.07704925537109,-19.53433609008789,14.91119384765625,131.5199127197266,139.0131225585938,15,169175.1417505417,-0.5581512451171875,0.3094940185546875,-0.1995086669921875,169175.1417505417,0.02355858931894995,1.041726885685357,0.7096911515092208,169175.1166345417,-88.96502685546875,-45.63818359375,-545.7996826171875,169175.1366845417,-0.02277162044202776,-1.443404681060695,-0.1043196569442187,-0.03538379073143005,1.06097137928009,0.763070285320282,0.3298881053924561,0.2303421050310135,-0.1253217458724976,1,-0.04664696007966995,-0.6592766642570496,0.02590692602097988,0.750004768371582,-0.9865043163299561,0.1041305512189865,-0.1263566762208939,0,0,0,-1,169174.545003375,3,2,1561841358.491502,0,0,0,0,0,0,0,0,0,169172.692633,0,-0.3408203,75.19618,0,182478453,3,1,1,-37.63781,-40.96127,2
1561841358.87167,47,0,0,1561841357.998511,4.634542395365084,-74.15101175203374,2552.586,0,190.8984375,4,30,-9999,1561841358.851693,-16.38266754150391,-19.20214080810547,14.63446044921875,131.4859466552734,138.9791564941406,15,169175.1620145417,-0.389678955078125,0.2038726806640625,-0.1324462890625,169175.1620145417,0.3107746539295976,0.8103660975652682,0.4916882467847514,169175.1367465417,-89.57524108886719,-45.00811767578125,-545.8948364257812,169175.1569485417,-0.01918163557229158,-1.423046228663787,-0.116912670861638,0.2270443737506866,0.8779776692390442,0.5202410817146301,0.5288765430450439,0.1422951370477676,-0.00978243350982666,1,-0.0504976212978363,-0.6514183878898621,0.03089654445648193,0.7564055323600769,-0.9823525547981262,0.1166465133428574,-0.1462081521749496,0,0,0,-1,169174.545003375,3,2,1561841358.491502,0,0,0,0,0,0,0,0,0,169172.692633,0,-0.3408203,75.19618,0,182478453,3,1,1,-36.22245,-41.5673,2
1561841358.88777,48,0,0,1561841357.998511,4.634542395365084,-74.15101175203374,2552.586,0,190.8984375,4,30,-9999,1561841358.876213,-17.50977325439453,-18.88080978393555,13.955078125,131.0069732666016,138.5001831054688,15,169175.1822785417,-0.405029296875,0.1392059326171875,-0.076263427734375,169175.1822785417,0.5471262059324948,0.7222333086629489,0.4707105268781973,169175.1568575417,-89.95707702636719,-45.04580688476562,-546.4249877929688,169175.1771815417,-0.01001688339318998,-1.406618583795353,-0.1252406345422777,0.5096542835235596,0.6967626214027405,0.4587140679359436,0.5824331641197205,0.04064437747001648,0.06345194578170776,1,-0.05096191540360451,-0.6452304720878601,0.03665995970368385,0.761404275894165,-0.9788259863853455,0.1249134838581085,-0.1621610373258591,0,0,0,-1,169174.545003375,3,2,1561841358.491502,0,0,0,0,0,0,0,0,0,169172.692633,0,-0.3408203,75.19618,0,182478453,3,1,1,-36.22245,-41.77756,2
1561841358.908225,49,0,0,1561841357.998511,4.634542395365084,-74.15101175203374,2552.586,0,190.8984375,4,30,-9999,1561841358.902422,-18.05139923095703,-18.39203262329102,13.88079833984375,130.1138610839844,137.6070709228516,15,169175.2025115417,-0.327850341796875,0.0700225830078125,-0.015899658203125,169175.2025115417,0.5793512540707807,0.6437081397091995,0.4985618655582459,169175.1769375417,-90.43815612792969,-44.642822265625,-546.5910034179688,169175.1974455417,0.002903244681156054,-1.390530959950595,-0.1328592311028444,0.5787054896354675,0.6838158965110779,0.4952875375747681,0.6050698757171631,-0.02831222116947174,0.1327123641967773,1,-0.05004481226205826,-0.6392497420310974,0.04363499209284782,0.766127347946167,-0.9751260280609131,0.1324687153100967,-0.1777105629444122,0,0,0,-1,169174.545003375,3,2,1561841358.491502,0,0,0,0,0,0,0,0,0,169172.692633,0,-0.3408203,75.19618,0,182478453,3,1,1,-36.22245,-41.77756,2
1561841358.928431,50,0,0,1561841357.998511,4.634542395365084,-74.15101175203374,2552.586,0,190.8984375,4,30,-9999,1561841358.926832,-18.40594482421875,-17.96777725219727,13.62249755859375,129.1274566650391,136.6206665039062,15,169175.2227755417,-0.3074951171875,0.0119781494140625,0.0887908935546875,169175.2227755417,0.6276958836550981,0.3107682623429814,0.5733002857580116,169175.1970485417,-90.86723327636719,-44.41441345214844,-546.7201538085938,169175.2177095417,0.01656723874909664,-1.377184423531888,-0.1406459385630846,0.6078716516494751,0.4082083106040955,0.528536319732666,0.6700053811073303,-0.1049349009990692,0.2245470881462097,1,-0.04900190606713295,-0.634307861328125,0.05102867260575294,0.7698366641998291,-0.9716258645057678,0.1401827037334442,-0.1905046999454498,0,0,0,-1,169174.545003375,3,2,1561841358.491502,0,0,0,0,0,0,0,0,0,169172.692633,0,-0.3408203,75.19618,0,182478453,3,1,1,-36.22245,-41.93369,2
1561841358.951118,51,0,0,1561841357.998511,4.634542395365084,-74.15101175203374,2552.586,0,190.8984375,4,30,-9999,1561841358.926832,-18.40594482421875,-17.96777725219727,13.62249755859375,129.1274566650391,136.6206665039062,15,169175.2430385417,-0.40802001953125,-0.0147552490234375,0.1392822265625,169175.2430385417,0.6147904713286831,0.135949313642474,0.7729926264076412,169175.2171295417,-91.60018920898438,-44.09934997558594,-546.8189697265625,169175.2379725417,0.0319712112833034,-1.370352664758139,-0.1505284360866352,0.6579872965812683,0.1050881147384644,0.7321797013282776,0.6253908276557922,-0.1451998651027679,0.3151845335960388,1,-0.04812842607498169,-0.6318681240081787,0.0599190890789032,0.771256148815155,-0.968896746635437,0.1499606072902679,-0.1968526542186737,0,0,0,-1,169174.545003375,3,2,1561841358.491502,0,0,0,0,0,0,0,0,0,169172.692633,0,-0.3408203,75.19618,0,182478453,3,1,1,-36.22245,-42.61828,2
1561841358.968907,52,0,0,1561841357.998511,4.634542395365084,-74.15101175203374,2552.586,0,190.8984375,4,30,-9999,1561841358.952969,-19.04238891601562,-17.29111862182617,13.8587646484375,128.0177001953125,135.5109100341797,15,169175.2633025417,-0.5984649658203125,-0.070556640625,0.1099853515625,169175.2633025417,-0.0625102497385579,0.7053121157288035,0.7764395558065308,169175.2372405417,-91.66116333007812,-43.30764770507812,-546.5902099609375,169175.2582365417,0.04465906093053625,-1.363213258975089,-0.1641184678309028,0.1544599086046219,0.5261149406433105,0.7941453456878662,0.4678244590759277,-0.2092964053153992,0.3404110670089722,1,-0.04961665347218513,-0.6291860938072205,0.06891031563282013,0.7726023197174072,-0.9653830528259277,0.1633827090263367,-0.203326091170311,0,0,0,-1,169174.545003375,3,2,1561841358.491502,0,0,0,0,0,0,0,0,0,169172.692633,0,-0.3408203,75.19618,0,182478453,3,1,1,-36.22245,-43.31646,2
1561841358.990321,53,0,0,1561841357.998511,4.634542395365084,-74.15101175203374,2552.586,0,190.8984375,4,30,-9999,1561841358.977878,-19.44023895263672,-16.83202362060547,13.7196044921875,127.6718826293945,135.1650848388672,15,169175.2835665417,-0.6916046142578125,-0.074493408203125,0.0816497802734375,169175.2835665417,-0.6727805377490496,0.857076345188604,0.594349644697889,169175.2573515417,-91.88719177246094,-43.1363525390625,-546.6002807617188,169175.2785005417,0.04266800638444041,-1.347359841047912,-0.1796350808555702,-0.5995701551437378,0.9301846623420715,0.6352633237838745,0.2934198975563049,-0.2571312189102173,0.311217188835144,1,-0.05683000758290291,-0.6227054595947266,0.07255079597234726,0.7770101428031921,-0.9594507813453674,0.1786705404520035,-0.2180165201425552,0,0,0,-1,169174.545003375,3,2,1561841358.491502,0,0,0,0,0,0,0,0,0,169172.692633,0,-0.3408203,75.19618,0,182478453,3,1,1,-36.22245,-43.5793,2
1561841359.009553,54,0,0,1561841357.998511,4.634542395365084,-74.15101175203374,2552.586,0,190.8984375,4,30,-9999,1561841359.003652,-19.92494201660156,-16.69414520263672,13.45166015625,128.3607635498047,135.8539733886719,15,169175.3038295417,-0.701171875,-0.0665740966796875,0.0699920654296875,169175.3038295417,-0.365873326354465,0.1496787080101595,0.3773227885129337,169175.2774325417,-92.24400329589844,-42.8558349609375,-547.0125732421875,169175.2987335417,0.03243959266726841,-1.33548215959129,-0.1932715938936357,-0.5216833353042603,0.3373154997825623,0.4407326579093933,0.2506000995635986,-0.2625662088394165,0.2991658449172974,1,-0.06575635820627213,-0.6174725294113159,0.07241343706846237,0.7804871201515198,-0.9543354511260986,0.1920706033706665,-0.2288075536489487,0,0,0,-1,169174.545003375,3,2,1561841358.491502,0,0,0,0,0,0,0,0,0,169172.692633,0,-0.3408203,75.19618,0,182478453,3,1,1,-36.22245,-44.09736,2
1561841359.032672,55,0,0,1561841357.998511,4.634542395365084,-74.15101175203374,2552.586,0,190.8984375,4,30,-9999,1561841359.028079,-20.16960144042969,-16.69687652587891,12.8394775390625,128.450927734375,135.9441375732422,15,169175.3240625417,-0.7242279052734375,-0.050506591796875,0.0831298828125,169175.3240625417,0.2947493483861548,-0.4008587409626179,0.09969943014875141,169175.2975435417,-92.59774780273438,-42.919189453125,-547.7034912109375,169175.3189965417,0.03026743104434132,-1.336085641539,-0.2001419417674144,0.1714194566011429,-0.2984659969806671,0.167811393737793,0.2563594579696655,-0.2610185146331787,0.3093554973602295,1,-0.06909190118312836,-0.6174679398536682,0.07369915395975113,0.780082106590271,-0.9531673789024353,0.1988084465265274,-0.2279193103313446,0,0,0,-1,169174.545003375,3,2,1561841358.491502,0,0,0,0,0,0,0,0,0,169172.692633,0,-0.3408203,75.19618,0,182478453,3,1,1,-36.22245,-44.60156,2
1561841359.050014,56,0,0,1561841358.998497,4.634544951845551,-74.15100865072957,2552.586,-1,-1,4,30,-9999,1561841359.028079,-20.16960144042969,-16.69687652587891,12.8394775390625,128.450927734375,135.9441375732422,15,169175.3443265417,-0.89520263671875,-0.023040771484375,0.0181427001953125,169175.3443265417,0.08133080916214787,-0.5328761635716989,-0.0722305214012381,169175.3176545417,-92.73548889160156,-42.81802368164062,-547.7910766601562,169175.3392605417,0.03641954803755718,-1.344459091799023,-0.1996908972838891,0.2364573031663895,-0.5664865374565125,-0.04638452082872391,0.1602384448051453,-0.2358419597148895,0.2763161659240723,1,-0.06669721752405167,-0.6209479570388794,0.07623962312936783,0.7772790789604187,-0.9551297426223755,0.1983663737773895,-0.2199502289295197,0,0,0,-1,169174.545003375,3,2,1561841358.491502,0,0,0,0,0,0,0,0,0,169172.692633,0,-0.3408203,75.19618,0,182478453,3,1,1,-36.22245,-44.96703,2
1561841359.07017,57,0,0,1561841358.998497,4.634544951845551,-74.15100865072957,2552.586,-1,-1,4,30,-9999,1561841359.054275,-19.97978973388672,-16.4552116394043,13.421630859375,128.1240539550781,135.6172637939453,15,169175.3645905417,-1.00830078125,0.0481719970703125,-0.08135986328125,169175.3645905417,-0.6259749489586889,-0.2318635929338957,-0.2143439877028095,169175.3377345417,-92.92799377441406,-42.37626647949219,-547.2701416015625,169175.3595245417,0.03363819991300952,-1.354504810253705,-0.1981543735093107,-0.4844252467155457,-0.3188450634479523,-0.1696563810110092,-0.01499241590499878,-0.1802738606929779,0.1803038716316223,1,-0.06658586114645004,-0.6247892379760742,0.07501903176307678,0.7743234634399414,-0.9575875401496887,0.1968601495027542,-0.2104094624519348,0,0,0,-1,169174.545003375,3,2,1561841358.491502,0,0,0,0,0,0,0,0,0,169172.692633,0,-0.3408203,75.19618,0,182478453,3,1,1,-36.22245,-44.96703,2
1561841359.090464,58,0,0,1561841358.998497,4.634544951845551,-74.15100865072957,2552.586,-1,-1,4,30,-9999,1561841359.078655,-19.74507141113281,-16.9063835144043,13.21142578125,128.8924713134766,136.3856811523438,15,169175.3848535417,-1.006622314453125,0.091583251953125,-0.1332855224609375,169175.3848535417,-0.7149381114888949,-0.009730924307040529,-0.3873264205155983,169175.3578455417,-92.31843566894531,-42.78352355957031,-547.3348999023438,169175.3797885417,0.01871188031026659,-1.360799183834246,-0.1957433662309012,-0.7517924904823303,-0.03968372568488121,-0.3627334237098694,-0.05660635232925415,-0.1283946931362152,0.09394162893295288,1,-0.07009542733430862,-0.6267762780189514,0.06870816648006439,0.7729923725128174,-0.9593542814254761,0.194495752453804,-0.2044762521982193,0,0,0,-1,169174.545003375,3,2,1561841358.491502,0,0,0,0,0,0,0,0,0,169172.692633,0,-0.3408203,75.19618,0,182478453,3,1,1,-36.22245,-45.47902,2
1561841359.112612,59,0,0,1561841358.998497,4.634544951845551,-74.15100865072957,2552.586,-1,-1,4,30,-9999,1561841359.104989,-19.67876434326172,-17.213623046875,13.09051513671875,129.9873199462891,137.4805297851562,15,169175.4051175417,-1.00799560546875,0.1313018798828125,-0.179412841796875,169175.4051175417,-0.3874553175123581,0.09396031799963064,-0.3853506213028685,169175.3779565417,-92.0633544921875,-43.14128112792969,-547.19580078125,169175.4000515417,0.004094650121811272,-1.363450874211316,-0.1905584555776828,-0.4815402328968048,0.06285330653190613,-0.4029290676116943,-0.04128438234329224,-0.08322134613990784,0.03358793258666992,1,-0.07258676737546921,-0.6274256110191345,0.06153024360537529,0.7728403806686401,-0.9608671069145203,0.1894072741270065,-0.2021365314722061,0,0,0,-1,169174.545003375,3,2,1561841358.491502,0,0,0,0,0,0,0,0,0,169172.692633,0,-0.3408203,75.19618,0,182478453,3,1,1,-36.22245,-46.12155,2
1561841359.131001,60,0,0,1561841358.998497,4.634544951845551,-74.15100865072957,2552.586,-1,-1,4,30,-9999,1561841359.129319,-19.57989501953125,-17.34538269042969,13.17437744140625,130.51220703125,138.0054168701172,15,169175.4253815417,-1.008285522460938,0.1874542236328125,-0.197113037109375,169175.4253815417,-0.08914026274269624,0.0678778509156126,-0.327055889253797,169175.3980375417,-92.18745422363281,-43.40447998046875,-547.4990844726562,169175.4203155417,-0.003638032572297074,-1.362970329534153,-0.1844943959090551,-0.1476032733917236,0.09157256782054901,-0.3375812172889709,-0.05167371034622192,-0.01415327191352844,0.01884102821350098,1,-0.07268200814723969,-0.6271376013755798,0.05662167444825172,0.7734401822090149,-0.9618760943412781,0.1834495365619659,-0.202831506729126,0,0,0,-1,169174.545003375,3,2,1561841358.491502,0,0,0,0,0,0,0,0,0,169172.692633,0,-0.3408203,75.19618,0,182478453,3,1,1,-36.22245,-46.46818,2
1561841359.15129,61,0,0,1561841358.998497,4.634544951845551,-74.15100865072957,2552.586,-1,-1,4,30,-9999,1561841359.129319,-19.57989501953125,-17.34538269042969,13.17437744140625,130.51220703125,138.0054168701172,15,169175.4456445417,-0.983489990234375,0.20367431640625,-0.1900177001953125,169175.4456445417,0.03087136335619853,-0.1329660405893672,-0.2837962994548769,169175.4181485417,-92.30790710449219,-43.81538391113281,-547.6113891601562,169175.4405485417,-0.006109234667697593,-1.36297384460964,-0.1782379098709713,0.01722456142306328,-0.07207388430833817,-0.313146710395813,-0.02801620960235596,0.01429367065429688,0.00631415843963623,1,-0.07103777676820755,-0.6272345185279846,0.05370289459824562,0.7737225294113159,-0.962981104850769,0.1772956699132919,-0.2030609846115112,0,0,0,-1,169174.545003375,3,2,1561841358.491502,0,0,0,0,0,0,0,0,0,169172.692633,0,-0.3408203,75.19618,0,182478453,3,1,1,-36.22245,-45.71658,2
1561841359.171483,62,0,0,1561841358.998497,4.634544951845551,-74.15100865072957,2552.586,-1,-1,4,30,-9999,1561841359.156138,-19.41762542724609,-17.82939910888672,12.83660888671875,130.6326599121094,138.1258697509766,15,169175.4658785417,-1.037948608398438,0.215179443359375,-0.2425384521484375,169175.4658785417,-0.0715612690193012,-0.1418636617913219,-0.1254615189536329,169175.4382295417,-91.86070251464844,-43.8629150390625,-547.5355224609375,169175.4608125417,-0.006776856860080664,-1.36663864208392,-0.1732737474774786,-0.0200668852776289,-0.2107065916061401,-0.1634435057640076,-0.0360109806060791,0.04354965686798096,-0.01358085870742798,1,-0.06923219561576843,-0.6287715435028076,0.05201344192028046,0.7727535367012024,-0.9645688533782959,0.1724079996347427,-0.199706494808197,0,0,0,-1,169174.545003375,3,2,1561841358.491502,0,0,0,0,0,0,0,0,0,169172.692633,0,-0.3408203,75.19618,0,182478453,3,1,1,-36.22245,-46.05964,2
1561841359.191947,63,0,0,1561841358.998497,4.634544951845551,-74.15100865072957,2552.586,-1,-1,4,30,-9999,1561841359.179945,-19.37390899658203,-17.70087051391602,13.22613525390625,130.7631072998047,138.2563171386719,15,169175.4861415417,-1.04931640625,0.1819000244140625,-0.2733001708984375,169175.4861415417,-0.3542286544880935,0.3314514366329728,-0.1235397819110317,169175.4583405417,-91.64601135253906,-43.91065979003906,-547.3958129882812,169175.4810755417,-0.01030586602420362,-1.367743483244239,-0.1715286377774691,-0.3005898892879486,0.2130960673093796,-0.1102215573191643,-0.10140061378479,0.02833163738250732,-0.05712783336639404,1,-0.06963998824357986,-0.6291261911392212,0.0501391738653183,0.772551953792572,-0.9650819301605225,0.1706887483596802,-0.1987010091543198,0,0,0,-1,169174.545003375,3,2,1561841358.491502,0,0,0,0,0,0,0,0,0,169172.692633,0,-0.3408203,75.19618,0,182478453,3,1,1,-36.22245,-45.86279,2
1561841359.212109,64,0,0,1561841358.998497,4.634544951845551,-74.15100865072957,2552.586,-1,-1,4,30,-9999,1561841359.206429,-19.45729064941406,-17.89777755737305,13.1429443359375,131.2865295410156,138.7797393798828,15,169175.5064055417,-0.9855804443359375,0.18359375,-0.2530364990234375,169175.5064055417,-0.2551215113657758,0.4104117661088412,-0.1992542506503115,169175.4784515417,-91.75241088867188,-43.91426086425781,-547.5303955078125,169175.5013395417,-0.01808600358680696,-1.361506160046547,-0.1699590726197153,-0.3279480040073395,0.4349970519542694,-0.1931539922952652,-0.05353927612304688,0.004594564437866211,-0.06507968902587891,1,-0.071626216173172,-0.6264851689338684,0.04641590639948845,0.7747460603713989,-0.9640846252441406,0.1691420078277588,-0.2047720402479172,0,0,0,-1,169174.545003375,3,2,1561841358.491502,0,0,0,0,0,0,0,0,0,169172.692633,0,-0.3408203,75.19618,0,182478453,3,1,1,-36.22245,-43.70387,2
1561841359.232175,65,0,0,1561841358.998497,4.634544951845551,-74.15100865072957,2552.586,-1,-1,4,30,-9999,1561841359.230643,-19.37437438964844,-18.23294448852539,12.70355224609375,131.5116119384766,139.0048217773438,15,169175.5266695417,-0.93463134765625,0.202728271484375,-0.2246246337890625,169175.5266695417,0.1897773919112645,0.06605358556890832,-0.1797947988812115,169175.4985315417,-91.89033508300781,-44.31272888183594,-547.6827392578125,169175.5216035417,-0.02189250668480509,-1.355685634875859,-0.1666384401026107,0.07265239953994751,0.1461295485496521,-0.1923286765813828,0.003916740417480469,0.03345726430416107,-0.02643966674804688,1,-0.07166127115488052,-0.6241917014122009,0.0436905175447464,0.7767499685287476,-0.9634199142456055,0.1658682972192764,-0.2104987651109695,0,0,0,-1,169174.545003375,3,2,1561841358.491502,0,0,0,0,0,0,0,0,0,169172.692633,0,-0.3408203,75.19618,0,182478453,3,1,1,-36.22245,-43.70387,2
1561841359.252537,66,0,0,1561841358.998497,4.634544951845551,-74.15100865072957,2552.586,-1,-1,4,30,-9999,1561841359.230643,-19.37437438964844,-18.23294448852539,12.70355224609375,131.5116119384766,139.0048217773438,15,169175.5469325417,-0.9249267578125,0.1818695068359375,-0.2166290283203125,169175.5469325417,0.4309735002531249,-0.0216480375529271,-0.05896504969544442,169175.5186425417,-91.95671081542969,-44.29264831542969,-547.6426391601562,169175.5418665417,-0.01721505453134499,-1.354501305796746,-0.1624453419252573,0.4046275317668915,-0.03759480267763138,-0.09842712432146072,0.04372042417526245,0.03001010417938232,-0.007573366165161133,1,-0.06860087811946869,-0.6240195631980896,0.04415495693683624,0.7771381735801697,-0.9638407230377197,0.1617318391799927,-0.2117870151996613,0,0,0,-1,169174.545003375,3,2,1561841358.491502,0,0,0,0,0,0,0,0,0,169172.692633,0,-0.3408203,75.19618,0,182478453,3,1,1,-36.22245,-44.39174,2
1561841359.272895,67,0,0,1561841358.998497,4.634544951845551,-74.15100865072957,2552.586,-1,-1,4,30,-9999,1561841359.256941,-19.25473785400391,-18.16255187988281,12.74456787109375,131.0542755126953,138.5474853515625,15,169175.5671965417,-0.95391845703125,0.154571533203125,-0.191497802734375,169175.5671965417,0.2801650793085539,0.1406495266503548,-0.01031202605689582,169175.5387235417,-92.07240295410156,-44.272216796875,-547.8970947265625,169175.5621305417,-0.009189955627853698,-1.352982460958204,-0.15989740190201,0.3498860001564026,0.0882965475320816,-0.005957909859716892,0.02356386184692383,0.01435181498527527,0.004431009292602539,1,-0.065142422914505,-0.6237683296203613,0.04642732813954353,0.7775050401687622,-0.9639172554016113,0.1592169255018234,-0.2133390754461288,0,0,0,-1,169174.545003375,3,2,1561841358.491502,0,0,0,0,0,0,0,0,0,169172.692633,0,-0.3408203,75.19618,0,182478453,3,1,1,-36.22245,-44.45887,2
1561841359.293119,68,0,0,1561841358.998497,4.634544951845551,-74.15100865072957,2552.586,-1,-1,4,30,-9999,1561841359.281246,-19.27861022949219,-18.35748291015625,12.7388916015625,130.6210327148438,138.1142425537109,15,169175.5874605417,-0.9756622314453125,0.1401519775390625,-0.1734466552734375,169175.5874605417,-0.1027516790740912,0.2838825858741955,-0.07495520151249818,169175.5588345417,-92.036865234375,-44.34687805175781,-547.832275390625,169175.5823635417,-0.005696071988603695,-1.348766408137166,-0.1585184409024615,-0.01352974958717823,0.2578839659690857,-0.06259135901927948,-0.0007361769676208496,-0.01442277431488037,0.03890615701675415,1,-0.06361648440361023,-0.6222767233848572,0.0472210980951786,0.7787778377532959,-0.9632225632667542,0.1578553915023804,-0.2174492478370667,0,0,0,-1,169174.545003375,3,2,1561841358.491502,0,0,0,0,0,0,0,0,0,169172.692633,0,-0.3408203,75.19618,0,182478453,3,1,1,-36.22245,-45.32009,2
1561841359.313317,69,0,0,1561841358.998497,4.634544951845551,-74.15100865072957,2552.586,-1,-1,4,30,-9999,1561841359.308096,-19.22309875488281,-17.99256896972656,12.77685546875,130.8117218017578,138.304931640625,15,169175.6076935417,-0.97705078125,0.1413726806640625,-0.1800079345703125,169175.6076935417,-0.2754110704466534,0.2748789708608556,-0.1189988259363376,169175.5789455417,-91.65774536132812,-44.43626403808594,-547.6455078125,169175.6026275417,-0.009481253279006195,-1.343609546240806,-0.157520850782268,-0.2767888307571411,0.2839313149452209,-0.115945927798748,-0.01895993947982788,-0.01880870759487152,0.04878860712051392,1,-0.06452275812625885,-0.6201712489128113,0.04527027159929276,0.7804966568946838,-0.9622412323951721,0.1568702310323715,-0.2224488705396652,0,0,0,-1,169174.545003375,3,2,1561841358.491502,0,0,0,0,0,0,0,0,0,169172.692633,0,-0.3408203,75.19618,0,182478453,3,1,1,-36.22245,-46.20162,2
1561841359.333405,70,0,0,1561841358.998497,4.634544951845551,-74.15100865072957,2552.586,-1,-1,4,30,-9999,1561841359.331866,-19.35519409179688,-18.18975448608398,12.49713134765625,131.162109375,138.6553192138672,15,169175.6279565417,-0.9444427490234375,0.1509552001953125,-0.1900787353515625,169175.6279565417,-0.05330743027568008,0.1306189967206804,-0.1225932944596176,169175.5990565417,-91.82809448242188,-44.39109802246094,-548.0883178710938,169175.6228915417,-0.01472694948654784,-1.339618807072706,-0.1562674158445757,-0.134555771946907,0.1690819412469864,-0.1240464672446251,-0.0036887526512146,-0.008491694927215576,0.04093772172927856,1,-0.06574570387601852,-0.6184751391410828,0.04270275309681892,0.7818838953971863,-0.9615364670753479,0.1556321978569031,-0.2263320088386536,0,0,0,-1,169174.545003375,3,2,1561841358.491502,0,0,0,0,0,0,0,0,0,169172.692633,0,-0.3408203,75.19618,0,182478453,3,1,1,-36.22245,-39.106,2
1561841359.353933,71,0,0,1561841358.998497,4.634544951845551,-74.15100865072957,2552.586,-1,-1,4,30,-9999,1561841359.331866,-19.35519409179688,-18.18975448608398,12.49713134765625,131.162109375,138.6553192138672,15,169175.6482205417,-0.9329376220703125,0.157440185546875,-0.1947479248046875,169175.6482205417,0.2054080169811576,0.02256230075515131,-0.1004419194606655,169175.6191375417,-92.3458251953125,-44.25552368164062,-548.3941650390625,169175.6431545417,-0.01487705747018194,-1.337809064381477,-0.153829836077626,0.1632519364356995,0.03150837123394012,-0.1117871403694153,0.03104108572006226,0.001576557755470276,0.03632521629333496,1,-0.06487787514925003,-0.6178280711174011,0.04183045774698257,0.7825148105621338,-0.9614914655685425,0.1532238572835922,-0.2281586676836014,0,0,0,-1,169174.545003375,3,2,1561841358.491502,0,0,0,0,0,0,0,0,0,169172.692633,0,-0.3408203,75.19618,0,182478453,3,1,1,-36.22245,-38.7061,2
1561841359.374038,72,0,0,1561841358.998497,4.634544951845551,-74.15100865072957,2552.586,-1,-1,4,30,-9999,1561841359.358176,-19.49305725097656,-18.20648956298828,12.238037109375,131.0569152832031,138.5501251220703,15,169175.6684845417,-0.954803466796875,0.1564178466796875,-0.206298828125,169175.6684845417,0.196110921615691,0.02871793129876046,-0.01017966695071888,169175.6392485417,-92.1695556640625,-44.36140441894531,-548.12744140625,169175.6634185417,-0.01102745155872693,-1.337037569131401,-0.1511607783069391,0.221382349729538,0.01214426010847092,-0.04257397726178169,0.02303475141525269,0.006228804588317871,0.02846330404281616,1,-0.06266141682863235,-0.6177186965942383,0.04248679429292679,0.782746434211731,-0.9617096781730652,0.1505857706069946,-0.2289943248033524,0,0,0,-1,169174.545003375,3,2,1561841358.491502,0,0,0,0,0,0,0,0,0,169172.692633,0,-0.3408203,75.19618,0,182478453,3,1,1,-36.22245,-38.83858,2
1561841359.39534,73,0,0,1561841358.998497,4.634544951845551,-74.15100865072957,2552.586,-1,-1,4,30,-9999,1561841359.382997,-19.35673522949219,-18.29605484008789,12.51092529296875,130.7857818603516,138.2789916992188,15,169175.6887475417,-0.993316650390625,0.153564453125,-0.209930419921875,169175.6887475417,0.00118776984617534,0.1171870774467567,0.05115985717264018,169175.6794405417,-92.03343200683594,-44.326904296875,-547.9450073242188,169175.6836825417,-0.007957058439584096,-1.335791289356255,-0.1505939984770055,0.05869890749454498,0.08699080348014832,0.04517345130443573,-0.01511728763580322,0.006453454494476318,0.0223115086555481,1,-0.06151842698454857,-0.6173404455184937,0.04347487539052963,0.7830811142921448,-0.9615062475204468,0.1500254273414612,-0.2302125096321106,0,0,0,-1,169174.545003375,3,2,1561841358.491502,0,0,0,0,0,0,0,0,0,169172.692633,0,-0.3408203,75.19618,0,182478453,3,1,1,-36.22245,-36.22245,2
1561841359.415254,74,0,0,1561841358.998497,4.634544951845551,-74.15100865072957,2552.586,-1,-1,4,30,-9999,1561841359.410201,-19.38178253173828,-18.28553771972656,12.46136474609375,130.7921447753906,138.2853546142578,15,169175.7090115417,-0.988250732421875,0.145843505859375,-0.2258758544921875,169175.7090115417,-0.1349045555468359,0.1463473598025793,-0.01617657309335931,169175.6995515417,-91.97088623046875,-44.39871215820312,-548.1289672851562,169175.7039155417,-0.0087633636927555,-1.333506557939189,-0.1514972070913709,-0.1302409321069717,0.1430213153362274,0.006563208531588316,-0.03361529111862183,-0.003869414329528809,0.01695317029953003,1,-0.06217034533619881,-0.6163979768753052,0.0433671846985817,0.7837777733802795,-0.9608457684516907,0.1509183645248413,-0.2323767691850662,0,0,0,-1,169174.545003375,3,2,1561841358.491502,0,0,0,0,0,0,0,0,0,169172.692633,0,-0.3408203,75.19618,0,182478453,3,1,1,-36.22245,-36.22245,2
1561841359.465966,75,0,0,1561841358.998497,4.634544951845551,-74.15100865072957,2552.586,-1,-1,4,30,-9999,1561841359.433967,-19.53543853759766,-18.32380294799805,12.39141845703125,130.94677734375,138.4399871826172,15,169175.7292445417,-0.968902587890625,0.1431121826171875,-0.22918701171875,169175.7292445417,0.009383648100894195,0.07657626766802941,-0.07878509347614113,169175.7196625417,-92.30413818359375,-44.39381408691406,-547.9849243164062,169175.7241785417,-0.01113133328973355,-1.331368792994148,-0.1512860534866351,-0.04427327960729599,0.09267398715019226,-0.07207248359918594,-0.01873296499252319,-0.005781650543212891,0.004960894584655762,1,-0.06286266446113586,-0.6154911518096924,0.04230686277151108,0.7844928503036499,-0.9603777527809143,0.1507096141576767,-0.2344378530979156,0,0,0,-1,169174.545003375,3,2,1561841358.491502,0,0,0,0,0,0,0,0,0,169172.692633,0,-0.3408203,75.19618,0,182478453,3,1,1,-36.22245,-37.48659,2
1561841359.469138,76,0,0,1561841358.998497,4.634544951845551,-74.15100865072957,2552.586,-1,-1,4,30,-9999,1561841359.464804,-19.47038269042969,-18.37668609619141,12.29339599609375,130.79345703125,138.2866668701172,15,169175.7495305,-0.97015380859375,0.143218994140625,-0.228851318359375,169175.7495305,0.2241944879427946,0.02219451820861136,-0.08250686109952686,169175.7397645,-92.13189697265625,-44.49443054199219,-548.3253173828125,169175.7444645,-0.01027656590067013,-1.330250486608765,-0.1493096277773838,0.1760023534297943,0.01974944770336151,-0.09091407805681229,-0.004242956638336182,-0.006314679980278015,0.005006670951843262,1,-0.06184831634163857,-0.6151289939880371,0.04199867323040962,0.7848740220069885,-0.9604024291038513,0.1487554758787155,-0.2355822175741196,0,0,0,-1,169174.545003375,3,2,1561841358.491502,0,0,0,0,0,0,0,0,0,169172.692633,0,-0.3408203,75.19618,0,182478453,3,1,1,-36.22245,-37.98528,2
1561841359.475653,77,0,0,1561841358.998497,4.634544951845551,-74.15100865072957,2552.586,-1,-1,4,30,-9999,1561841359.464804,-19.47038269042969,-18.37668609619141,12.29339599609375,130.79345703125,138.2866668701172,15,169175.7697945,-0.9741973876953125,0.1358642578125,-0.2253570556640625,169175.7697945,0.265380007884761,0.0189862080433929,-0.05745024366740734,169175.7598755,-91.99502563476562,-44.27023315429688,-548.17333984375,169175.7647285,-0.005822398220605478,-1.329362531440203,-0.1466047492099458,0.2749515771865845,0.01346385478973389,-0.06550565361976624,-0.01463967561721802,-0.006599560379981995,0.01076126098632812,1,-0.05943620949983597,-0.614981472492218,0.04288755357265472,0.7851278781890869,-0.960580050945282,0.1460801512002945,-0.2365302443504333,0,0,0,-1,169174.545003375,3,2,1561841358.491502,0,0,0,0,0,0,0,0,0,169172.692633,0,-0.3408203,75.19618,0,182478453,3,1,1,-36.22245,-37.98528,2
1561841359.495901,78,0,0,1561841358.998497,4.634544951845551,-74.15100865072957,2552.586,-1,-1,4,30,-9999,1561841359.464804,-19.47038269042969,-18.37668609619141,12.29339599609375,130.79345703125,138.2866668701172,15,169175.7900575,-0.9730224609375,0.1375274658203125,-0.2235565185546875,169175.7900575,0.1435403880136358,0.07050639091152081,-0.04163932259171591,169175.7799875,-92.02604675292969,-44.39115905761719,-547.889404296875,169175.7849915,-0.001384482024553524,-1.328308846081288,-0.1443808794530947,0.1791110634803772,0.04421404376626015,-0.04421981051564217,-0.008045732975006104,-0.005482569336891174,0.01313239336013794,1,-0.05722172185778618,-0.6147485971450806,0.04391539469361305,0.7854178547859192,-0.9606432318687439,0.143879771232605,-0.2376196682453156,0,0,0,-1,169174.545003375,3,2,1561841358.491502,0,0,0,0,0,0,0,0,0,169172.692633,0,-0.3408203,75.19618,0,182478453,3,1,1,-36.22245,-38.54487,2
1561841359.53542,79,0,0,1561841358.998497,4.634544951845551,-74.15100865072957,2552.586,-1,-1,4,30,-9999,1561841359.511073,-19.28266906738281,-18.21236801147461,12.5274658203125,130.2804565429688,137.7736663818359,15,169175.8103215,-0.976654052734375,0.1263427734375,-0.2176666259765625,169175.8103215,0.01739337139541651,0.1444141711672908,-0.06230252317353172,169175.8000675,-92.00813293457031,-44.22825622558594,-548.1609497070312,169175.8052555,0.0005428006522395285,-1.326280934053102,-0.1429237970833395,0.04056970402598381,0.1288506388664246,-0.05590549483895302,-0.02349436283111572,-0.01188349723815918,0.01815176010131836,1,-0.05610189959406853,-0.6140388250350952,0.04416747018694878,0.7860395312309265,-0.9603618383407593,0.1424377113580704,-0.239617794752121,0,0,0,-1,169174.545003375,3,2,1561841358.491502,0,0,0,0,0,0,0,0,0,169172.692633,0,-0.3408203,75.19618,0,182478453,3,1,1,-36.22245,-38.55824,2
1561841359.53888,80,0,0,1561841358.998497,4.634544951845551,-74.15100865072957,2552.586,-1,-1,4,30,-9999,1561841359.535761,-19.40776062011719,-18.19244384765625,12.32666015625,130.3150482177734,137.8082580566406,15,169175.8305855,-0.9588165283203125,0.1351165771484375,-0.210113525390625,169175.8305855,-0.02408110152482349,0.06963899934448201,-0.09464395145145399,169175.8201785,-92.07260131835938,-44.34300231933594,-547.8896484375,169175.8255195,0.0001483849669129334,-1.323796534690187,-0.1414733344893091,-0.02895770967006683,0.09366761147975922,-0.09039982408285141,-0.004056870937347412,-0.01220244169235229,0.02899479866027832,1,-0.05570698156952858,-0.6130824685096741,0.0434979721903801,0.7868510484695435,-0.9599629044532776,0.1410018801689148,-0.2420532405376434,0,0,0,-1,169174.545003375,3,2,1561841358.491502,0,0,0,0,0,0,0,0,0,169172.692633,0,-0.3408203,75.19618,0,182478453,3,1,1,-36.22245,-39.34336,2
1561841359.556763,81,0,0,1561841358.998497,4.634544951845551,-74.15100865072957,2552.586,-1,-1,4,30,-9999,1561841359.535761,-19.40776062011719,-18.19244384765625,12.32666015625,130.3150482177734,137.8082580566406,15,169175.8508485,-0.9544677734375,0.1350555419921875,-0.2080535888671875,169175.8508485,0.07504814583454195,0.01889086687636807,-0.1136115173672163,169175.8402895,-92.02189636230469,-44.51947021484375,-547.9716796875,169175.8457525,-0.000408311400523924,-1.322976971121316,-0.1394539442851394,0.04693945497274399,0.01536934822797775,-0.1155059784650803,0.003052711486816406,-0.001291811466217041,0.03462678194046021,1,-0.05510060489177704,-0.6127881407737732,0.04263732582330704,0.7871699929237366,-0.9600381851196289,0.1390023827552795,-0.242909237742424,0,0,0,-1,169174.545003375,3,2,1561841358.491502,0,0,0,0,0,0,0,0,0,169172.692633,0,-0.3408203,75.19618,0,182478453,3,1,1,-36.22245,-39.34336,2
1561841359.57692,82,0,0,1561841358.998497,4.634544951845551,-74.15100865072957,2552.586,-1,-1,4,30,-9999,1561841359.56108,-19.38591766357422,-18.36912536621094,12.34063720703125,130.3204956054688,137.8137054443359,15,169175.8710815,-0.9553070068359375,0.1320953369140625,-0.2209320068359375,169175.8710815,0.1086455208825456,0.04613740167285975,-0.1053093789850033,169175.8604005,-91.88674926757812,-44.43446350097656,-548.1785278320312,169175.8660165,0.0006976866009537363,-1.32239689715365,-0.136722876526817,0.1061452552676201,0.03717530891299248,-0.114278256893158,0.005824387073516846,-0.004400342702865601,0.02966082096099854,1,-0.05369900539517403,-0.6126476526260376,0.04222023114562035,0.7873987555503845,-0.9602616429328918,0.1362973153591156,-0.2435585409402847,0,0,0,-1,169174.545003375,3,2,1561841358.491502,0,0,0,0,0,0,0,0,0,169172.692633,0,-0.3408203,75.19618,0,182478453,3,1,1,-36.22245,-37.4382,2
1561841359.612656,83,0,0,1561841358.998497,4.634544951845551,-74.15100865072957,2552.586,-1,-1,4,30,-9999,1561841359.585605,-19.27066802978516,-18.19997024536133,12.346923828125,130.2188415527344,137.7120513916016,15,169175.8913455,-0.952545166015625,0.1317138671875,-0.2178192138671875,169175.8913455,0.0932431287180723,0.04597681305912797,-0.06478006193563243,169175.8804815,-91.84892272949219,-44.12950134277344,-548.2926635742188,169175.8862795,0.002235378534078962,-1.321370224242313,-0.1342431203336825,0.09802793711423874,0.04464121535420418,-0.08122922480106354,0.007347941398620605,-0.001317694783210754,0.02309983968734741,1,-0.05227315053343773,-0.6123349070549011,0.04203923791646957,0.7877475619316101,-0.9603356122970581,0.1338402777910233,-0.2446269541978836,0,0,0,-1,169174.545003375,3,2,1561841358.491502,0,0,0,0,0,0,0,0,0,169172.692633,0,-0.3408203,75.19618,0,182478453,3,1,1,-36.22245,-38.29238,2
1561841359.617466,84,0,0,1561841358.998497,4.634544951845551,-74.15100865072957,2552.586,-1,-1,4,30,-9999,1561841359.612761,-19.21587371826172,-18.16938018798828,12.37603759765625,130.1161041259766,137.6093139648438,15,169175.9116095,-0.945953369140625,0.1278839111328125,-0.21673583984375,169175.9116095,0.06126096087120173,0.05357134953970693,-0.02950010171091673,169175.9005925,-92.2733154296875,-44.47842407226562,-548.2473754882812,169175.9065435,0.00365798216018996,-1.320345922581442,-0.1326556070573363,0.07251991331577301,0.04651980847120285,-0.03723247721791267,0.008674681186676025,-0.002811312675476074,0.02936947345733643,1,-0.05123375356197357,-0.6119997501373291,0.04208739474415779,0.7880735397338867,-0.9602890014648438,0.1322668790817261,-0.2456628233194351,0,0,0,-1,169174.545003375,3,2,1561841358.491502,0,0,0,0,0,0,0,0,0,169172.692633,0,-0.3408203,75.19618,0,182478453,3,1,1,-36.22245,-38.29238,2
1561841359.638072,85,0,0,1561841358.998497,4.634544951845551,-74.15100865072957,2552.586,-1,-1,4,30,-9999,1561841359.636195,-19.57658386230469,-18.25969696044922,12.39910888671875,130.0797271728516,137.5729370117188,15,169175.9318725,-0.9502410888671875,0.1220550537109375,-0.216644287109375,169175.9318725,-0.01187476898455432,0.07616534191183018,-0.02708061986057974,169175.9207035,-92.29942321777344,-44.25851440429688,-548.08837890625,169175.9268075,0.004335909925462704,-1.319263739872724,-0.1318321725124487,0.01003736164420843,0.061685711145401,-0.03009653650224209,0.01510530710220337,-0.005779251456260681,0.03022193908691406,1,-0.05072454363107681,-0.6116065382957458,0.04207518696784973,0.7884123921394348,-0.9601278305053711,0.1314506381750107,-0.246728926897049,0,0,0,-1,169174.545003375,3,2,1561841358.491502,0,0,0,0,0,0,0,0,0,169172.692633,0,-0.3408203,75.19618,0,182478453,3,1,1,-36.22245,-39.27071,2
1561841359.658225,86,0,0,1561841358.998497,4.634544951845551,-74.15100865072957,2552.586,-1,-1,4,30,-9999,1561841359.636195,-19.57658386230469,-18.25969696044922,12.39910888671875,130.0797271728516,137.5729370117188,15,169175.9521365,-0.9552154541015625,0.11376953125,-0.2186737060546875,169175.9521365,-0.07928070775500487,0.08897994044507346,-0.04484949696969743,169175.9407845,-92.42295837402344,-44.48905944824219,-548.0603637695312,169175.9470705,0.003450958472905337,-1.317926628876708,-0.131334530656556,-0.07343356311321259,0.08206608891487122,-0.04444697871804237,0.008657991886138916,-0.01608914136886597,0.03208649158477783,1,-0.05082672834396362,-0.611066460609436,0.04154022410511971,0.788852870464325,-0.9598603844642639,0.1309572905302048,-0.2480288445949554,0,0,0,-1,169174.545003375,3,2,1561841358.491502,0,0,0,0,0,0,0,0,0,169172.692633,0,-0.3408203,75.19618,0,182478453,3,1,1,-36.22245,-39.7477,2
1561841359.694851,87,0,0,1561841358.998497,4.634544951845551,-74.15100865072957,2552.586,-1,-1,4,30,-9999,1561841359.687003,-19.52898406982422,-18.22235488891602,12.2747802734375,130.2429046630859,137.7361145019531,15,169175.9724005,-0.9564208984375,0.12109375,-0.2238922119140625,169175.9724005,-0.02261769450582496,0.0772311389800799,-0.02510482064784995,169175.9608955,-92.10372924804688,-44.25759887695312,-547.903564453125,169175.9673035,0.001793675184234235,-1.316501057477822,-0.1308085958735562,-0.04775908961892128,0.07745162397623062,-0.03936007618904114,0.003197193145751953,-0.01440803706645966,0.02913832664489746,1,-0.05115460976958275,-0.6104720234870911,0.04068942740559578,0.789336085319519,-0.9595723152160645,0.1304358690977097,-0.2494142353534698,0,0,0,-1,169174.545003375,3,2,1561841358.491502,0,0,0,0,0,0,0,0,0,169172.692633,0,-0.3408203,75.19618,0,182478453,3,1,1,-36.22245,-39.95119,2
1561841359.699022,88,0,0,1561841358.998497,4.634544951845551,-74.15100865072957,2552.586,-1,-1,4,30,-9999,1561841359.687003,-19.52898406982422,-18.22235488891602,12.2747802734375,130.2429046630859,137.7361145019531,15,169175.9926335,-0.9494476318359375,0.127655029296875,-0.23199462890625,169175.9926335,0.06576463259063473,0.05129541207212521,0.005907690246122774,169175.9810065,-91.89852905273438,-44.25148010253906,-548.1890869140625,169175.9875675,0.001737620517480319,-1.315201063670802,-0.1303882575448511,0.05187269300222397,0.05782146751880646,-0.004550429061055183,0.006282150745391846,-0.005263254046440125,0.01950466632843018,1,-0.05103214830160141,-0.6099656224250793,0.04050585255026817,0.7897449135780334,-0.9593002796173096,0.1300191134214401,-0.2506753206253052,0,0,0,-1,169174.545003375,3,2,1561841358.491502,0,0,0,0,0,0,0,0,0,169172.692633,0,-0.3408203,75.19618,0,182478453,3,1,1,-36.22245,-40.07064,2
1561841359.718595,89,0,0,1561841358.998497,4.634544951845551,-74.15100865072957,2552.586,-1,-1,4,30,-9999,1561841359.713262,-19.43281555175781,-18.298095703125,12.30560302734375,130.1580810546875,137.6512908935547,15,169176.0128975,-0.9640045166015625,0.131805419921875,-0.23590087890625,169176.0128975,0.06379602391284815,0.03608024013228451,0.01902668809196211,169176.0011175,-92.04318237304688,-44.18946838378906,-548.275146484375,169176.0078315,0.003105097956967825,-1.314256251374123,-0.1302115433989776,0.07107355445623398,0.02973363921046257,0.01673035696148872,0.001062154769897461,0.003487393260002136,0.0154881477355957,1,-0.05056465044617653,-0.6096306443214417,0.04096805676817894,0.7900097370147705,-0.95908522605896,0.1298438906669617,-0.2515873908996582,0,0,0,-1,169174.545003375,3,2,1561841358.491502,0,0,0,0,0,0,0,0,0,169172.692633,0,-0.3408203,75.19618,0,182478453,3,1,1,-36.22245,-40.07064,2
1561841359.739679,90,0,0,1561841358.998497,4.634544951845551,-74.15100865072957,2552.586,-1,-1,4,30,-9999,1561841359.737472,-19.45615386962891,-18.31979751586914,12.25494384765625,130.0967407226562,137.5899505615234,15,169176.0331605,-0.9672088623046875,0.127197265625,-0.2407684326171875,169176.0331605,0.01241485805362239,0.03698891069621955,-0.01070963600764465,169176.0211975,-91.95899963378906,-44.2236328125,-548.2000122070312,169176.0280945,0.004127177656148616,-1.313552691381374,-0.1300998793589052,0.02388979494571686,0.03109424933791161,-0.006415707059204578,-0.005738794803619385,-0.002963155508041382,0.01477795839309692,1,-0.05022352188825607,-0.6093806028366089,0.04132009297609329,0.7902059555053711,-0.9589219093322754,0.1297331750392914,-0.2522657513618469,0,0,0,-1,169174.545003375,3,2,1561841358.491502,0,0,0,0,0,0,0,0,0,169172.692633,0,-0.3408203,75.19618,0,182478453,3,1,1,-36.22245,-40.72988,2
1561841359.774445,91,0,0,1561841358.998497,4.634544951845551,-74.15100865072957,2552.586,-1,-1,4,30,-9999,1561841359.763959,-19.36992645263672,-18.31830215454102,12.26898193359375,130.1321716308594,137.6253814697266,15,169176.0534245,-0.9655609130859375,0.126068115234375,-0.2387847900390625,169176.0534245,-0.03129986597559228,0.04040494742646419,-0.04470968101246826,169176.0413095,-92.03562927246094,-44.548828125,-548.140869140625,169176.0483585,0.003995771784055542,-1.312984855121353,-0.1296146882072515,-0.02083080634474754,0.03187934681773186,-0.04094625264406204,-0.008552789688110352,-0.001520752906799316,0.0132480263710022,1,-0.05008349195122719,-0.6091621518135071,0.04110617563128471,0.7903943657875061,-0.9588391780853271,0.1292520761489868,-0.2528262436389923,0,0,0,-1,169174.545003375,3,2,1561841358.491502,0,0,0,0,0,0,0,0,0,169173.634611,0,-0.02905273,75.19324,0,182478453,3,1,1,-36.22245,-41.15756,2
1561841359.779683,92,0,0,1561841358.998497,4.634544951845551,-74.15100865072957,2552.586,-1,-1,4,30,-9999,1561841359.763959,-19.36992645263672,-18.31830215454102,12.26898193359375,130.1321716308594,137.6253814697266,15,169176.0736885,-0.964080810546875,0.1253662109375,-0.2407073974609375,169176.0736885,-0.03881184446237879,0.03609861594380605,-0.03153156099042917,169176.0614205,-92.15074157714844,-44.54269409179688,-548.3370361328125,169176.0686225,0.002975058650449832,-1.312433522381627,-0.1288333987604093,-0.04601125791668892,0.03676678240299225,-0.04592449963092804,-0.005497276782989502,-0.003736704587936401,0.01261216402053833,1,-0.05009670555591583,-0.6089335083961487,0.04045106843113899,0.7906036376953125,-0.9587971568107605,0.1284772902727127,-0.2533805966377258,0,0,0,-1,169174.545003375,3,2,1561841358.491502,0,0,0,0,0,0,0,0,0,169173.634611,0,-0.02905273,75.19324,0,182478453,3,1,1,-36.22245,-41.15756,2
1561841359.799826,93,0,0,1561841358.998497,4.634544951845551,-74.15100865072957,2552.586,-1,-1,4,30,-9999,1561841359.78908,-19.49396514892578,-18.23354339599609,12.1663818359375,130.2046508789062,137.6978607177734,15,169176.0939515,-0.9537200927734375,0.12738037109375,-0.2467041015625,169176.0939515,0.04056287287910589,-0.01072188654865901,0.02393089923934303,169176.0815315,-92.09957885742188,-44.60600280761719,-548.25537109375,169176.0888855,0.002375458952357972,-1.312122584975928,-0.1285792848066701,0.01189651433378458,-0.002010175492614508,0.008108640089631081,-0.002004563808441162,-0.001485779881477356,0.008417248725891113,1,-0.05018503591418266,-0.6088004112243652,0.04012889415025711,0.7907168865203857,-0.9587497711181641,0.1282252818346024,-0.2536870539188385,0,0,0,-1,169174.545003375,3,2,1561841358.491502,0,0,0,0,0,0,0,0,0,169173.634611,0,-0.02905273,75.19324,0,182478453,3,1,1,-36.77974,-41.64798,2
1561841359.820265,94,0,0,1561841358.998497,4.634544951845551,-74.15100865072957,2552.586,-1,-1,4,30,-9999,1561841359.814546,-19.68440246582031,-18.4166145324707,12.2337646484375,130.133056640625,137.6262664794922,15,169176.1142155,-0.947021484375,0.1241455078125,-0.244873046875,169176.1142155,0.1262514125329504,-0.04405747286150786,0.06837453045891238,169176.1016115,-92.23660278320312,-44.21070861816406,-548.2264404296875,169176.1091195,0.003783609746960335,-1.312520295159307,-0.1288762564866317,0.1096222773194313,-0.04603781923651695,0.05501462891697884,0.01264673471450806,-0.003474026918411255,0.007171690464019775,1,-0.04986570030450821,-0.6089872121810913,0.04078590124845505,0.7905595898628235,-0.9588137269020081,0.1285198032855988,-0.2532959878444672,0,0,0,-1,169174.545003375,3,2,1561841358.491502,0,0,0,0,0,0,0,0,0,169173.634611,0,-0.02905273,75.19324,0,182478453,3,1,1,-37.33701,-42.30998,2
1561841359.857392,95,0,0,1561841358.998497,4.634544951845551,-74.15100865072957,2552.586,-1,-1,4,30,-9999,1561841359.844502,-19.33735656738281,-18.40204620361328,12.496337890625,129.9496765136719,137.4428863525391,15,169176.1344485,-0.963104248046875,0.12744140625,-0.2394866943359375,169176.1344485,0.08005968237385305,0.01286013858788363,0.04998833260911432,169176.1217225,-92.00910949707031,-44.57914733886719,-548.1409301757812,169176.1293825,0.006519410367353055,-1.312990202451914,-0.1295250643833434,0.1054075583815575,-0.01150034926831722,0.06151141226291656,0.003331303596496582,-0.002011716365814209,0.008820831775665283,1,-0.04927925765514374,-0.6092286109924316,0.04207631200551987,0.7903428077697754,-0.9588519334793091,0.1291632056236267,-0.2528240978717804,0,0,0,-1,169174.545003375,3,2,1561841358.491502,0,0,0,0,0,0,0,0,0,169173.634611,0,-0.02905273,75.19324,0,182478453,3,1,1,-37.89429,-42.85213,2
1561841359.860684,96,0,0,1561841358.998497,4.634544951845551,-74.15100865072957,2552.586,-1,-1,4,30,-9999,1561841359.844502,-19.33735656738281,-18.40204620361328,12.496337890625,129.9496765136719,137.4428863525391,15,169176.1547125,-0.9693603515625,0.1219482421875,-0.227813720703125,169176.1547125,-0.03852395674854122,0.05076863880850754,-0.01726314281811164,169176.1418335,-92.01075744628906,-44.28422546386719,-547.9911499023438,169176.1496465,0.007560242863058769,-1.312416890336228,-0.129863331287765,-0.01807017251849174,0.04730251431465149,-0.006373895332217216,-0.01142829656600952,-0.00404086709022522,0.02004045248031616,1,-0.04910812526941299,-0.6090214252471924,0.04257652163505554,0.7904862761497498,-0.9586644768714905,0.1294986307621002,-0.2533625960350037,0,0,0,-1,169174.545003375,3,2,1561841358.491502,0,0,0,0,0,0,0,0,0,169173.634611,0,-0.02905273,75.19324,0,182478453,3,1,1,-37.89429,-42.85213,2
1561841359.880854,97,0,0,1561841358.998497,4.634544951845551,-74.15100865072957,2552.586,-1,-1,4,30,-9999,1561841359.864995,-19.54032897949219,-18.20059204101562,12.3670654296875,129.9376831054688,137.4308929443359,15,169176.1749765,-0.9649505615234375,0.1275634765625,-0.2329559326171875,169176.1749765,-0.07189682731665117,0.004230964023808886,-0.03905152896048592,169176.1619145,-92.18623352050781,-44.26924133300781,-547.9962158203125,169176.1699105,0.006369298861915259,-1.311953069192962,-0.1295789973974478,-0.07369561493396759,0.006214997731149197,-0.04315933957695961,-0.006581902503967285,-0.007848262786865234,0.02818489074707031,1,-0.04936809465289116,-0.608814001083374,0.04200782626867294,0.7906602025032043,-0.9585822820663452,0.1292166858911514,-0.2538166046142578,0,0,0,-1,169174.545003375,3,2,1561841358.491502,0,0,0,0,0,0,0,0,0,169173.634611,0,-0.02905273,75.19324,0,182478453,3,1,1,-38.45157,-43.63618,2
1561841359.901079,98,0,0,1561841358.998497,4.634544951845551,-74.15100865072957,2552.586,-1,-1,4,30,-9999,1561841359.889864,-19.5299072265625,-18.20263290405273,12.28143310546875,130.0499572753906,137.5431671142578,15,169176.1952395,-0.9582977294921875,0.13311767578125,-0.2461395263671875,169176.1952395,-0.02754134672916345,-0.001216531985948196,-0.02101100942018015,169176.1820255,-92.27719116210938,-44.372314453125,-548.1160888671875,169176.1901735,0.004898156571711026,-1.312257988016748,-0.1291061158003634,-0.04480431601405144,-0.009616696275770664,-0.03428329154849052,-0.003592133522033691,0.003606989979743958,0.01661664247512817,1,-0.04962261393666267,-0.6089069247245789,0.04128991067409515,0.7906105518341064,-0.9587186574935913,0.128747746348381,-0.2535399198532104,0,0,0,-1,169174.545003375,3,2,1561841358.491502,0,0,0,0,0,0,0,0,0,169173.634611,0,-0.02905273,75.19324,0,182478453,3,1,1,-39.00885,-39.01426,2
1561841359.929786,99,0,0,1561841358.998497,4.634544951845551,-74.15100865072957,2552.586,-1,-1,4,30,-9999,1561841359.916058,-19.49402618408203,-18.19889450073242,12.346923828125,130.0918884277344,137.5850982666016,15,169176.2155035,-0.95440673828125,0.136322021484375,-0.2440643310546875,169176.2155035,0.0417498437769542,0.00383788144691319,0.0188346741773674,169176.2021365,-92.44110107421875,-44.03395080566406,-548.1467895507812,169176.2104375,0.004575211031823439,-1.312360946717384,-0.1288815423653211,0.02405331283807755,0.001172834541648626,0.0071581588126719,0.001237869262695312,0.004134863615036011,0.005416989326477051,1,-0.04963002353906631,-0.6089438199996948,0.04109646007418633,0.7905917167663574,-0.9587726593017578,0.128525048494339,-0.2534485757350922,0,0,0,-1,169174.545003375,3,2,1561841358.491502,0,0,0,0,0,0,0,0,0,169173.634611,0,-0.02905273,75.19324,0,182478453,3,1,1,-35.80217,-39.6695,2
1561841359.941641,100,0,0,1561841358.998497,4.634544951845551,-74.15100865072957,2552.586,-1,-1,4,30,-9999,1561841359.940226,-19.57158660888672,-18.26713562011719,12.35028076171875,130.0068664550781,137.5000762939453,15,169176.2357675,-0.9482574462890625,0.135894775390625,-0.2315521240234375,169176.2357675,0.08487334604417128,-0.01186997529459217,0.04265159012205503,169176.2222475,-92.12284851074219,-44.0113525390625,-548.3130493164062,169176.2306705,0.005745912389377166,-1.312370760969801,-0.1290699940790332,0.07940950989723206,-0.0169619619846344,0.03878612443804741,0.01150143146514893,0.009105458855628967,0.0138394832611084,1,-0.04934787750244141,-0.6089731454849243,0.04161681607365608,0.7905596494674683,-0.9587517976760864,0.128711923956871,-0.2534329891204834,0,0,0,-1,169174.545003375,3,2,1561841358.491502,0,0,0,0,0,0,0,0,0,169173.634611,0,-0.02905273,75.19324,0,182478453,3,1,1,-35.80217,-36.8457,2
1561841359.96192,101,0,0,1561841358.998497,4.634544951845551,-74.15100865072957,2552.586,-1,-1,4,30,-9999,1561841359.940226,-19.57158660888672,-18.26713562011719,12.35028076171875,130.0068664550781,137.5000762939453,15,169176.2560005,-0.949920654296875,0.12847900390625,-0.221527099609375,169176.2560005,0.07072210695981723,-0.01461995543620799,0.01866529713203836,169176.2423285,-92.07868957519531,-44.2708740234375,-548.1282958984375,169176.2509345,0.007558033536937694,-1.312559420242497,-0.1293227312179659,0.07769017666578293,-0.02175644971430302,0.02534808032214642,0.009793400764465332,0.00496383011341095,0.02929049730300903,1,-0.04889202490448952,-0.6090875864028931,0.04241462424397469,0.7904573082923889,-0.9587680101394653,0.1289625614881516,-0.2532437741756439,0,0,0,-1,169174.545003375,3,2,1561841358.491502,0,0,0,0,0,0,0,0,0,169173.634611,0,-0.02905273,75.19324,0,182478453,3,1,1,-35.80217,-37.35593,2
1561841359.982152,102,0,0,1561841358.998497,4.634544951845551,-74.15100865072957,2552.586,-1,-1,4,30,-9999,1561841359.966359,-19.59368133544922,-18.12055587768555,12.49591064453125,129.8879852294922,137.3811950683594,15,169176.2762635,-0.9671630859375,0.1192626953125,-0.22198486328125,169176.2762635,-0.04152613824538755,0.03819212687671734,-0.007871771550056212,169176.2624395,-92.08242797851562,-44.31948852539062,-548.3273315429688,169176.2711975,0.008449280184179253,-1.312674795461143,-0.1292643548305407,-0.01112305093556643,0.01549078710377216,-0.006038869731128216,0.002475261688232422,-0.006254523992538452,0.032859206199646,1,-0.04859504848718643,-0.6091559529304504,0.04275189712643623,0.7904048562049866,-0.9588046073913574,0.1289046704769135,-0.253135085105896,0,0,0,-1,169174.545003375,3,2,1561841358.491502,0,0,0,0,0,0,0,0,0,169173.634611,0,-0.02905273,75.19324,0,182478453,3,1,1,-35.80217,-38.24506,2
1561841360.012871,103,0,0,1561841358.998497,4.634544951845551,-74.15100865072957,2552.586,-1,-1,4,30,-9999,1561841359.991551,-19.48202514648438,-18.24326324462891,12.30523681640625,129.9235687255859,137.4167785644531,15,169176.2965275,-0.967529296875,0.1218414306640625,-0.2322235107421875,169176.2965275,-0.1408711016530494,0.07576640038053631,-0.001054079159453362,169176.2825505,-92.05378723144531,-44.2867431640625,-548.1299438476562,169176.2914615,0.00691463651924872,-1.311997249302974,-0.1294209682522988,-0.1280952095985413,0.06487378478050232,-0.01171246729791164,-0.01176935434341431,-0.01089590787887573,0.02759844064712524,1,-0.04913866147398949,-0.6088477969169617,0.04217641428112984,0.7906395792961121,-0.9586133360862732,0.1290599703788757,-0.2537795007228851,0,0,0,-1,169174.545003375,3,2,1561841358.491502,0,0,0,0,0,0,0,0,0,169173.634611,0,-0.02905273,75.19324,0,182478453,3,1,1,-35.80217,-39.09688,2
1561841360.023825,104,0,0,1561841358.998497,4.634544951845551,-74.15100865072957,2552.586,-1,-1,4,30,-9999,1561841360.01712,-19.44395446777344,-18.07250213623047,12.3170166015625,130.1127624511719,137.6059722900391,15,169176.3167915,-0.9568634033203125,0.131927490234375,-0.2441558837890625,169176.3167915,-0.09074961098943111,0.05482303525204418,0.007088003241245893,169176.3026615,-92.26197814941406,-44.06321716308594,-548.2898559570312,169176.3117255,0.004242912405503951,-1.310907136838957,-0.1301415261192289,-0.1156039163470268,0.06678646802902222,0.00592458201572299,-0.00705564022064209,-0.004972830414772034,0.01403188705444336,1,-0.05025940760970116,-0.6083369255065918,0.04131206125020981,0.7910078167915344,-0.9582458734512329,0.1297744661569595,-0.2548003494739532,0,0,0,-1,169174.545003375,3,2,1561841358.491502,0,0,0,0,0,0,0,0,0,169173.634611,0,-0.02905273,75.19324,0,182478453,3,1,1,-35.80217,-39.61828,2
1561841360.043466,105,0,0,1561841358.998497,4.634544951845551,-74.15100865072957,2552.586,-1,-1,4,30,-9999,1561841360.041593,-19.44406890869141,-18.10427093505859,12.05474853515625,130.1923828125,137.6855926513672,15,169176.3370545,-0.9523162841796875,0.14117431640625,-0.250213623046875,169176.3370545,0.02132259926771942,0.01057807584979473,0.009820672835776199,169176.3227425,-92.12026977539062,-43.94793701171875,-548.234130859375,169176.3319885,0.003015055018014992,-1.31034497406184,-0.1305452579710052,-0.005542662926018238,0.01292802765965462,0.001562057994306087,0.005903542041778564,0.009092181921005249,0.008102655410766602,1,-0.05080408602952957,-0.6080757975578308,0.04093490540981293,0.7911935448646545,-0.9580519795417786,0.1301747858524323,-0.2553255259990692,0,0,0,-1,169174.545003375,3,2,1561841358.491502,0,0,0,0,0,0,0,0,0,169173.634611,0,-0.02905273,75.19324,0,182478453,3,1,1,-35.80217,-39.61828,2
1561841360.063139,106,0,0,1561841359.998483,4.63454809505924,-74.15101049474826,2552.597,-1,-1,4,30,-9999,1561841360.041593,-19.44406890869141,-18.10427093505859,12.05474853515625,130.1923828125,137.6855926513672,15,169176.3573185,-0.957977294921875,0.1365814208984375,-0.25286865234375,169176.3573185,0.05981726124426977,0.001311873152973033,0.01499812431099925,169176.3428535,-92.15571594238281,-44.57839965820312,-548.1675415039062,169176.3522525,0.003729227394008721,-1.310320388884872,-0.1305375162478336,0.05842193961143494,-0.007857944816350937,0.01376013457775116,0.003533124923706055,0.01007643342018127,0.001916170120239258,1,-0.05058439075946808,-0.6080843210220337,0.04121445119380951,0.7911865711212158,-0.9580466747283936,0.1301671117544174,-0.2553493678569794,0,0,0,-1,169174.545003375,3,2,1561841358.491502,0,0,0,0,0,0,0,0,0,169173.634611,0,-0.02905273,75.19324,0,182478453,3,1,1,-35.80217,-39.95848,2
1561841360.087341,107,0,0,1561841359.998483,4.63454809505924,-74.15101049474826,2552.597,-1,-1,4,30,-9999,1561841360.07149,-19.64138793945312,-18.16862487792969,12.37017822265625,130.1239929199219,137.6172027587891,15,169176.3775825,-0.9655914306640625,0.1287078857421875,-0.2398834228515625,169176.3775825,0.02099449782142166,0.01866689502869241,-0.01025849651898523,169176.3629645,-92.10249328613281,-44.45835876464844,-548.15283203125,169176.3724855,0.004744491470807963,-1.310180782442547,-0.1303484684096858,0.03449822962284088,0.01422791741788387,-0.007268983870744705,-0.004459142684936523,0.0004677176475524902,0.008571743965148926,1,-0.05020380020141602,-0.6080582737922668,0.04155511781573296,0.7912129759788513,-0.9580347537994385,0.12997967004776,-0.2554894387722015,0,0,0,-1,169174.545003375,3,2,1561841358.491502,0,0,0,0,0,0,0,0,0,169173.634611,0,-0.02905273,75.19324,0,182478453,3,1,1,-35.80217,-40.50749,2
1561841360.104077,108,0,0,1561841359.998483,4.63454809505924,-74.15101049474826,2552.597,-1,-1,4,30,-9999,1561841360.091855,-19.42971038818359,-18.30900955200195,12.28289794921875,130.0900573730469,137.5832672119141,15,169176.3978155,-0.9583740234375,0.1226348876953125,-0.2400360107421875,169176.3978155,-0.01508920442027996,0.02248293855466695,-0.01438612989249904,169176.3830445,-91.9822998046875,-44.50257873535156,-548.3904418945312,169176.3927495,0.004804434398278287,-1.309946151567735,-0.1299653566714745,-0.01247114315629005,0.01395600847899914,-0.02111529186367989,-0.004471063613891602,-0.003791078925132751,0.01797986030578613,1,-0.05003884062170982,-0.6079741716384888,0.04145652800798416,0.7912932634353638,-0.9580228328704834,0.1295997947454453,-0.2557270526885986,0,0,0,-1,169174.545003375,3,2,1561841358.491502,0,0,0,0,0,0,0,0,0,169173.634611,0,-0.02905273,75.19324,0,182478453,3,1,1,-35.80217,-40.64774,2
1561841360.123884,109,0,0,1561841359.998483,4.63454809505924,-74.15101049474826,2552.597,-1,-1,4,30,-9999,1561841360.118704,-19.55012512207031,-18.3905143737793,12.3592529296875,130.1181793212891,137.6113891601562,15,169176.4180795,-0.945404052734375,0.1177215576171875,-0.2400665283203125,169176.4180795,-0.006574013150860599,0.02778795544610479,0.005269596848939789,169176.4031555,-92.111083984375,-44.57803344726562,-548.294677734375,169176.4130135,0.004426478196812376,-1.309607728738772,-0.1297626953658235,-0.01228978205472231,0.02456151321530342,-0.005284662824124098,0.005355298519134521,-0.01016665995121002,0.01617461442947388,1,-0.05008051171898842,-0.6078346371650696,0.04123694077134132,0.7914091944694519,-0.9579614996910095,0.129398837685585,-0.2560579776763916,0,0,0,-1,169174.545003375,3,2,1561841358.491502,0,0,0,0,0,0,0,0,0,169173.634611,0,-0.02905273,75.19324,0,182478453,3,1,1,-35.80217,-41.61331,2
1561841360.166059,110,0,0,1561841359.998483,4.63454809505924,-74.15101049474826,2552.597,-1,-1,4,30,-9999,1561841360.142829,-19.53093719482422,-18.22845077514648,12.23443603515625,130.1340484619141,137.6272583007812,15,169176.4383425,-0.94329833984375,0.118621826171875,-0.23577880859375,169176.4383425,-0.02567473712112691,0.04248114781228996,0.01470810606828962,169176.4232675,-92.27169799804688,-44.52705383300781,-548.0767211914062,169176.4332765,0.004284947088304045,-1.309129190291986,-0.1299904695791072,-0.01475666742771864,0.03424396738409996,0.01512580364942551,0.01565647125244141,-0.01098760962486267,0.01740354299545288,1,-0.05022354423999786,-0.6076374053955078,0.04123811796307564,0.7915515303611755,-0.9578104019165039,0.1296246945858002,-0.2565087676048279,0,0,0,-1,169174.545003375,3,2,1561841358.491502,0,0,0,0,0,0,0,0,0,169173.634611,0,-0.02905273,75.19324,0,182478453,3,1,1,-35.80217,-42.82546,2
1561841360.16914,111,0,0,1561841359.998483,4.63454809505924,-74.15101049474826,2552.597,-1,-1,4,30,-9999,1561841360.142829,-19.53093719482422,-18.22845077514648,12.23443603515625,130.1340484619141,137.6272583007812,15,169176.4586065,-0.9435577392578125,0.128570556640625,-0.2362213134765625,169176.4586065,-0.05377241820200791,0.03664722712836238,-0.01479119669430009,169176.4433785,-92.06538391113281,-44.43246459960938,-548.2257080078125,169176.4535405,0.003542128256572766,-1.308518951185527,-0.1302585952000257,-0.05557733401656151,0.03420402109622955,-0.01106079295277596,0.01581704616546631,-0.008522152900695801,0.022053062915802,1,-0.050567876547575,-0.6073720455169678,0.04101013392210007,0.7917450666427612,-0.9576200246810913,0.1298905462026596,-0.2570841908454895,0,0,0,-1,169174.545003375,3,2,1561841358.491502,0,0,0,0,0,0,0,0,0,169173.634611,0,-0.02905273,75.19324,0,182478453,3,1,1,-35.80217,-42.82546,2
1561841360.184696,112,0,0,1561841359.998483,4.63454809505924,-74.15101049474826,2552.597,-1,-1,4,30,-9999,1561841360.168869,-19.60923004150391,-18.29955673217773,12.21917724609375,130.2044677734375,137.6976776123047,15,169176.4788705,-0.94683837890625,0.1305084228515625,-0.2393035888671875,169176.4788705,-0.01507881809202865,0.01667991053938429,-0.005899700762852536,169176.4634585,-92.07341003417969,-44.61445617675781,-548.1720581054688,169176.4738045,0.002523939108455914,-1.308169215665064,-0.1301281765619795,-0.02848765999078751,0.01268008723855019,-0.01649470627307892,0.0122644305229187,-9.204447269439697e-05,0.02135473489761353,1,-0.05083253607153893,-0.6072102785110474,0.04055857285857201,0.791875422000885,-0.9575464129447937,0.1297612339258194,-0.257423460483551,0,0,0,-1,169174.545003375,3,2,1561841358.491502,0,0,0,0,0,0,0,0,0,169173.634611,0,-0.02905273,75.19324,0,182478453,3,1,1,-35.80217,-42.82546,2
1561841360.204956,113,0,0,1561841359.998483,4.63454809505924,-74.15101049474826,2552.597,-1,-1,4,30,-9999,1561841360.193269,-19.60541534423828,-18.3321533203125,12.31927490234375,130.24560546875,137.7388153076172,15,169176.4991335,-0.9485015869140625,0.130279541015625,-0.245025634765625,169176.4991335,0.01536723843808423,0.02093590827743991,0.007935687416218114,169176.4835695,-92.0994873046875,-44.28463745117188,-548.5667114257812,169176.4940375,0.002373009978499607,-1.307963664292014,-0.1300444798583799,0.01074416469782591,0.01489077694714069,0.003339185379445553,0.007293462753295898,0.0003724098205566406,0.01528304815292358,1,-0.05084937438368797,-0.6071266531944275,0.04046817496418953,0.7919431924819946,-0.9575040936470032,0.1296782493591309,-0.2576231360435486,0,0,0,-1,169174.545003375,3,2,1561841358.491502,0,0,0,0,0,0,0,0,0,169173.634611,0,-0.02905273,75.19324,0,182478453,3,1,1,-35.80217,-43.46463,2
1561841360.250058,114,0,0,1561841359.998483,4.63454809505924,-74.15101049474826,2552.597,-1,-1,4,30,-9999,1561841360.245572,-19.82650756835938,-18.48120498657227,12.0439453125,130.2356719970703,137.7288818359375,15,169176.5193665,-0.9550628662109375,0.1297607421875,-0.2430877685546875,169176.5193665,0.002746518032198718,0.0386342116176705,0.02132632769324553,169176.5036805,-92.06533813476562,-44.3214111328125,-548.5072631835938,169176.5143005,0.002652252324801761,-1.307548218079007,-0.130075154175479,0.009390479885041714,0.03057572990655899,0.01261630654335022,0.007060468196868896,0.001440629363059998,0.01125472784042358,1,-0.05078518390655518,-0.6069686412811279,0.04057750850915909,0.7920628190040588,-0.9573931097984314,0.1297086626291275,-0.2580198645591736,0,0,0,-1,169174.545003375,3,2,1561841358.491502,0,0,0,0,0,0,0,0,0,169173.634611,0,-0.02905273,75.19324,0,182478453,3,1,1,-35.80217,-41.48637,2
1561841360.252462,115,0,0,1561841359.998483,4.63454809505924,-74.15101049474826,2552.597,-1,-1,4,30,-9999,1561841360.245572,-19.82650756835938,-18.48120498657227,12.0439453125,130.2356719970703,137.7288818359375,15,169176.5396305,-0.96075439453125,0.1311187744140625,-0.233917236328125,169176.5396305,-0.02417830690461139,0.02805080944569561,0.02369334527010796,169176.5237915,-92.36099243164062,-44.68092346191406,-548.397705078125,169176.5345645,0.002681985624841609,-1.306934419103726,-0.1304834116411462,-0.01706403121352196,0.02404752373695374,0.02313392795622349,-0.001694202423095703,0.000791698694229126,0.01956474781036377,1,-0.05095035582780838,-0.6067184209823608,0.04069751873612404,0.7922377586364746,-0.9571833610534668,0.1301134526729584,-0.2585936486721039,0,0,0,-1,169174.545003375,3,2,1561841358.491502,0,0,0,0,0,0,0,0,0,169173.634611,0,-0.02905273,75.19324,0,182478453,3,1,1,-35.80217,-41.48637,2
1561841360.265757,116,0,0,1561841359.998483,4.63454809505924,-74.15101049474826,2552.597,-1,-1,4,30,-9999,1561841360.245572,-19.82650756835938,-18.48120498657227,12.0439453125,130.2356719970703,137.7288818359375,15,169176.5598945,-0.960906982421875,0.131195068359375,-0.2330169677734375,169176.5598945,-0.06237975484514401,0.02444542196194634,-0.007355384614689848,169176.5438725,-92.41398620605469,-44.28030395507812,-548.5028076171875,169176.5548285,0.002020593870414041,-1.306645757931016,-0.130929529118572,-0.05905144661664963,0.01755431853234768,-0.00238893274217844,-0.005197346210479736,-0.0003372728824615479,0.02731782197952271,1,-0.05133358389139175,-0.606578528881073,0.0405634343624115,0.7923268675804138,-0.9570524096488953,0.1305557787418365,-0.2588547170162201,0,0,0,-1,169174.545003375,3,2,1561841358.491502,0,0,0,0,0,0,0,0,0,169173.634611,0,-0.02905273,75.19324,0,182478453,3,1,1,-35.80217,-39.10326,2
1561841360.285998,117,0,0,1561841359.998483,4.63454809505924,-74.15101049474826,2552.597,-1,-1,4,30,-9999,1561841360.270679,-19.87489318847656,-18.35182571411133,12.1004638671875,130.3049621582031,137.7981719970703,15,169176.5801575,-0.9563140869140625,0.1316986083984375,-0.2449951171875,169176.5801575,-0.06788504145055581,0.02839888460016897,-0.01232351162823267,169176.5639835,-92.37518310546875,-44.28665161132812,-548.2095947265625,169176.5750915,0.0006766104550920528,-1.306468896443768,-0.1309966094800907,-0.06589975953102112,0.02079165726900101,-0.01866191253066063,-0.001314759254455566,0.00130520761013031,0.02046579122543335,1,-0.05177130550146103,-0.6064724922180176,0.04004674777388573,0.792405903339386,-0.9569982290267944,0.1306222826242447,-0.2590216994285583,0,0,0,-1,169174.545003375,3,2,1561841358.491502,0,0,0,0,0,0,0,0,0,169173.634611,0,-0.02905273,75.19324,0,182478453,3,1,1,-35.80217,-39.61818,2
1561841360.332949,118,0,0,1561841359.998483,4.63454809505924,-74.15101049474826,2552.597,-1,-1,4,30,-9999,1561841360.320926,-19.67930603027344,-18.41193008422852,12.071044921875,130.5002136230469,137.9934234619141,15,169176.6004215,-0.9639739990234375,0.1360015869140625,-0.25726318359375,169176.6004215,-0.07311522351536243,0.04625245023195117,0.008433964856171939,169176.5840945,-92.44837951660156,-44.69998168945312,-548.277099609375,169176.5953555,-0.0008562428539313487,-1.306097513009589,-0.1311904374740639,-0.07931970059871674,0.04046415910124779,0.001246814848855138,-0.002976536750793457,0.003066182136535645,0.007432639598846436,1,-0.05232023447751999,-0.606281578540802,0.03948847204446793,0.7925440073013306,-0.956877589225769,0.1308144479990005,-0.2593704760074615,0,0,0,-1,169174.545003375,3,2,1561841358.491502,0,0,0,0,0,0,0,0,0,169173.634611,0,-0.02905273,75.19324,0,182478453,3,1,1,-35.80217,-41.21698,2
1561841360.336752,119,0,0,1561841359.998483,4.63454809505924,-74.15101049474826,2552.597,-1,-1,4,30,-9999,1561841360.320926,-19.67930603027344,-18.41193008422852,12.071044921875,130.5002136230469,137.9934234619141,15,169176.6206855,-0.95782470703125,0.1372528076171875,-0.2611846923828125,169176.6206855,0.01676087063652269,0.01175146462608365,0.01867168871865455,169176.6041755,-92.27720642089844,-44.56932067871094,-548.4039306640625,169176.6156195,-0.001892111937641439,-1.305585490945476,-0.1316182263564981,-0.01261630281805992,0.01769466698169708,0.01061075553297997,-0.005650877952575684,0.005159765481948853,-0.0008812546730041504,1,-0.05281378701329231,-0.6060428023338318,0.03919416666030884,0.7927083373069763,-0.9566903710365295,0.1312385499477386,-0.259845644235611,0,0,0,-1,169174.545003375,3,2,1561841358.491502,0,0,0,0,0,0,0,0,0,169173.634611,0,-0.02905273,75.19324,0,182478453,3,1,1,-35.80217,-41.21698,2
1561841360.346757,120,0,0,1561841359.998483,4.63454809505924,-74.15101049474826,2552.597,-1,-1,4,30,-9999,1561841360.320926,-19.67930603027344,-18.41193008422852,12.071044921875,130.5002136230469,137.9934234619141,15,169176.6409485,-0.9571685791015625,0.13336181640625,-0.2506103515625,169176.6409485,0.08899991415324905,-0.02955229966828228,0.01046888624510149,169176.6242865,-92.25395202636719,-44.46270751953125,-548.4876708984375,169176.6358525,-0.001023147893332122,-1.305633805679131,-0.1317046458289629,0.08293632417917252,-0.02941478788852692,0.0135154640302062,-0.0001409053802490234,0.003075197339057922,0.004364311695098877,1,-0.05258376151323318,-0.6060830950737,0.0395660400390625,0.7926743626594543,-0.9566919803619385,0.1313242167234421,-0.2597964704036713,0,0,0,-1,169174.545003375,3,2,1561841358.491502,0,0,0,0,0,0,0,0,0,169173.634611,0,-0.02905273,75.19324,0,182478453,3,1,1,-35.80217,-41.21698,2
1561841360.367058,121,0,0,1561841359.998483,4.63454809505924,-74.15101049474826,2552.597,-1,-1,4,30,-9999,1561841360.345727,-19.90464019775391,-18.33457946777344,11.95684814453125,130.4328002929688,137.9260101318359,15,169176.6611825,-0.960357666015625,0.125640869140625,-0.2401123046875,169176.6611825,0.02625344202600113,0.002573412561343568,-0.03587597567667544,169176.6443665,-92.25531005859375,-44.63130187988281,-548.5667114257812,169176.6561165,0.0004725724882281783,-1.30608039921786,-0.1311970352863454,0.05085987225174904,-0.01363875530660152,-0.02985517680644989,-0.002157866954803467,7.867813110351562e-06,0.01343023777008057,1,-0.05192036181688309,-0.6063092947006226,0.04001659154891968,0.7925226092338562,-0.956872284412384,0.1308209896087646,-0.2593866288661957,0,0,0,-1,169174.545003375,3,2,1561841358.491502,0,0,0,0,0,0,0,0,0,169173.634611,0,-0.02905273,75.19324,0,182478453,3,1,1,-35.80217,-41.70662,2
1561841360.413051,122,0,0,1561841359.998483,4.63454809505924,-74.15101049474826,2552.597,-1,-1,4,30,-9999,1561841360.395961,-19.61777496337891,-18.29856109619141,11.98638916015625,130.4232177734375,137.9164276123047,15,169176.6814455,-0.9560699462890625,0.122314453125,-0.2381744384765625,169176.6814455,-0.0396826981388347,0.03045883970334526,-0.04132320537032351,169176.6644775,-92.23088073730469,-44.45323181152344,-548.3770751953125,169176.6763795,0.0003571239311603952,-1.306048703328788,-0.1303470667059616,-0.03102167509496212,0.01497877575457096,-0.04599340260028839,-0.001265645027160645,-0.007450193166732788,0.02153092622756958,1,-0.05161916837096214,-0.6063105463981628,0.03971235826611519,0.7925566434860229,-0.9569710493087769,0.1299782693386078,-0.2594459652900696,0,0,0,-1,169174.545003375,3,2,1561841358.491502,0,0,0,0,0,0,0,0,0,169173.634611,0,-0.02905273,75.19324,0,182478453,3,1,1,-35.80217,-43.18804,2
1561841360.416452,123,0,0,1561841359.998483,4.63454809505924,-74.15101049474826,2552.597,-1,-1,4,30,-9999,1561841360.395961,-19.61777496337891,-18.29856109619141,11.98638916015625,130.4232177734375,137.9164276123047,15,169176.7017095,-0.9510040283203125,0.1184844970703125,-0.239501953125,169176.7017095,-0.06280852378064677,0.07716935364279005,-0.02880102192477093,169176.6845895,-92.57452392578125,-44.48387145996094,-548.508056640625,169176.6966435,-0.0008492019179179959,-1.305384168035813,-0.1298149282655622,-0.06321849673986435,0.06664117425680161,-0.03554502129554749,1.430511474609375e-06,-0.006205394864082336,0.02084213495254517,1,-0.05178697034716606,-0.6060265302658081,0.03905579075217247,0.7927953600883484,-0.9568648934364319,0.1294506341218948,-0.2600999176502228,0,0,0,-1,169174.545003375,3,2,1561841358.491502,0,0,0,0,0,0,0,0,0,169173.634611,0,-0.02905273,75.19324,0,182478453,3,1,1,-35.80217,-43.18804,2
1561841360.42786,124,0,0,1561841359.998483,4.63454809505924,-74.15101049474826,2552.597,-1,-1,4,30,-9999,1561841360.423399,-19.59841156005859,-18.39019775390625,12.01080322265625,130.5185852050781,138.0117950439453,15,169176.7219735,-0.941497802734375,0.124420166015625,-0.2409820556640625,169176.7219735,-0.01258716457615051,0.05295988775342474,-0.01437840672533781,169176.7046695,-92.30503845214844,-44.33145141601562,-548.29150390625,169176.7169075,-0.002059094736160361,-1.304217771875339,-0.1295846153541076,-0.0294733140617609,0.05458210781216621,-0.01796522922813892,0.01419150829315186,-0.009028762578964233,0.01889884471893311,1,-0.05208473280072212,-0.6055372357368469,0.03847601637244225,0.7931780219078064,-0.9565896391868591,0.1292222589254379,-0.2612236738204956,0,0,0,-1,169174.545003375,3,2,1561841358.491502,0,0,0,0,0,0,0,0,0,169173.634611,0,-0.02905273,75.19324,0,182478453,3,1,1,-35.80217,-43.38618,2
1561841360.448112,125,0,0,1561841359.998483,4.63454809505924,-74.15101049474826,2552.597,-1,-1,4,30,-9999,1561841360.446524,-19.61801147460938,-18.37472915649414,11.93389892578125,130.5390625,138.0322723388672,15,169176.742228125,-0.93865966796875,0.1216583251953125,-0.2455902099609375,169176.742228125,-0.00267700952774765,0.05166905357306333,-0.01486842836591239,169176.7247805,-92.39906311035156,-44.408935546875,-548.4613647460938,169176.7371705,-0.002306769483047788,-1.303317764611779,-0.129294348496281,-0.0005007842555642128,0.04606159031391144,-0.01957004889845848,0.01565539836883545,-0.005811244249343872,0.02195161581039429,1,-0.05206184089183807,-0.6051796078681946,0.03826646506786346,0.7934625744819641,-0.9563903212547302,0.1289344131946564,-0.2620944082736969,0,0,0,-1,169174.545003375,3,2,1561841358.491502,0,0,0,0,0,0,0,0,0,169173.634611,0,-0.02905273,75.19324,0,182478453,3,1,1,-35.80217,-43.79084,2
1561841360.489895,126,0,0,1561841359.998483,4.63454809505924,-74.15101049474826,2552.597,-1,-1,4,30,-9999,1561841360.474274,-19.63529968261719,-18.3420524597168,11.89215087890625,130.5734252929688,138.0666351318359,15,169176.762492125,-0.940582275390625,0.127960205078125,-0.2498931884765625,169176.762492125,-0.03071530211631988,0.0517888958221169,0.004399009488592886,169176.744883125,-92.32157897949219,-44.44573974609375,-548.55810546875,169176.757396125,-0.002607199700333581,-1.302460964250637,-0.1290645419440095,-0.02537577413022518,0.04855164885520935,-0.005841454491019249,0.01758015155792236,-0.002165377140045166,0.01543933153152466,1,-0.05207789316773415,-0.6048364043235779,0.0380554087460041,0.7937334179878235,-0.9561940431594849,0.1287065148353577,-0.2629216313362122,0,0,0,-1,169174.545003375,3,2,1561841358.491502,0,0,0,0,0,0,0,0,0,169173.634611,0,-0.02905273,75.19324,0,182478453,3,1,1,-35.80217,-45.1538,2
1561841360.492318,127,0,0,1561841359.998483,4.63454809505924,-74.15101049474826,2552.597,-1,-1,4,30,-9999,1561841360.474274,-19.63529968261719,-18.3420524597168,11.89215087890625,130.5734252929688,138.0666351318359,15,169176.782725125,-0.95220947265625,0.1304931640625,-0.25567626953125,169176.782725125,-0.07548064319557081,0.0614417895092181,0.01734277133470501,169176.764994125,-92.19627380371094,-44.48936462402344,-548.5686645507812,169176.777659125,-0.003423836037888929,-1.301648556311247,-0.1294066344929063,-0.06642307341098785,0.0521402582526207,0.01477780286222696,0.01312756538391113,-0.0007956326007843018,0.0113062858581543,1,-0.05247596278786659,-0.6044856905937195,0.03781347721815109,0.793985903263092,-0.9559376239776611,0.1290457546710968,-0.2636866569519043,0,0,0,-1,169174.545003375,3,2,1561841358.491502,0,0,0,0,0,0,0,0,0,169173.634611,0,-0.02905273,75.19324,0,182478453,3,1,1,-35.80217,-45.1538,2
1561841360.509229,128,0,0,1561841359.998483,4.63454809505924,-74.15101049474826,2552.597,-1,-1,4,30,-9999,1561841360.497717,-19.65733337402344,-18.5379524230957,11.7109375,130.6666107177734,138.1598205566406,15,169176.802989125,-0.95831298828125,0.1305999755859375,-0.2563018798828125,169176.802989125,-0.08100803403803027,0.05919567944584528,-0.01550332596978728,169176.785075125,-92.44044494628906,-44.28736877441406,-548.7779541015625,169176.797923125,-0.005006193906303005,-1.30070859880839,-0.1299697536536991,-0.0900743380188942,0.05991189554333687,-0.008306209929287434,-0.0007866621017456055,-0.000438496470451355,0.007760167121887207,1,-0.05319526046514511,-0.6040591597557068,0.03733055293560028,0.7942852973937988,-0.9556189775466919,0.1296041458845139,-0.2645655870437622,0,0,0,-1,169174.545003375,3,2,1561841358.491502,0,0,0,0,0,0,0,0,0,169173.634611,0,-0.02905273,75.19324,0,182478453,3,1,1,-35.80217,-45.1538,2
