loggingTime,loggingSample,identifierForVendor,deviceID,locationTimestamp_since1970,locationLatitude,locationLongitude,locationAltitude,locationSpeed,locationCourse,locationVerticalAccuracy,locationHorizontalAccuracy,locationFloor,locationHeadingTimestamp_since1970,locationHeadingX,locationHeadingY,locationHeadingZ,locationTrueHeading,locationMagneticHeading,locationHeadingAccuracy,accelerometerTimestamp_sinceReboot,accelerometerAccelerationX,accelerometerAccelerationY,accelerometerAccelerationZ,gyroTimestamp_sinceReboot,gyroRotationX,gyroRotationY,gyroRotationZ,magnetometerTimestamp_sinceReboot,magnetometerX,magnetometerY,magnetometerZ,motionTimestamp_sinceReboot,motionYaw,motionRoll,motionPitch,motionRotationRateX,motionRotationRateY,motionRotationRateZ,motionUserAccelerationX,motionUserAccelerationY,motionUserAccelerationZ,motionAttitudeReferenceFrame,motionQuaternionX,motionQuaternionY,motionQuaternionZ,motionQuaternionW,motionGravityX,motionGravityY,motionGravityZ,motionMagneticFieldX,motionMagneticFieldY,motionMagneticFieldZ,motionMagneticFieldCalibrationAccuracy,activityTimestamp_sinceReboot,activity,activityActivityConfidence,activityActivityStartDate,pedometerStartDate,pedometerNumberofSteps,pedometerAverageActivePace,pedometerCurrentPace,pedometerCurrentCadence,pedometerDistance,pedometerFloorAscended,pedometerFloorDescended,pedometerEndDate,altimeterTimestamp_sinceReboot,altimeterReset,altimeterRelativeAltitude,altimeterPressure,IP_en0,IP_pdp_ip0,deviceOrientation,batteryState,batteryLevel,avAudioRecorderPeakPower,avAudioRecorderAveragePower,label
1561841365.378331,1,0,0,1561841364.998411,4.634470646273935,-74.15097135126045,2552.495,0.67,182.8125,4,30,-9999,1561841365.358958,-21.51303100585938,-17.77989959716797,9.8963623046875,131.0612182617188,138.5544281005859,15,169181.665207125,-0.9156646728515625,0.1467742919921875,-0.3476104736328125,169181.665207125,-0.009789247534913264,0.01517655610403455,0.0105567705610741,169181.648850125,-93.96908569335938,-44.019287109375,-550.7325439453125,169181.660141125,-0.007303579737283641,-1.19863733455688,-0.1521716340266477,-0.01626162230968475,0.01113093923777342,0.007213670760393143,0.006198465824127197,-0.005161687731742859,0.01277631521224976,1,-0.06481850892305374,-0.5622150897979736,0.03987017273902893,0.8234823942184448,-0.920779824256897,0.1515850275754929,-0.3594255149364471,0,0,0,-1,169180.3792747917,3,2,1561841364.325773,0,0,0,0,0,0,0,0,0,169178.344264,0,-0.4516602,75.19723,0,182478453,3,1,1,-34.73772,-40.1324,3
1561841365.391079,2,0,0,1561841364.998411,4.634470646273935,-74.15097135126045,2552.495,0.67,182.8125,4,30,-9999,1561841365.385229,-21.46736145019531,-18.14408111572266,9.77850341796875,131.0723419189453,138.5655517578125,15,169181.685471125,-0.921783447265625,0.152435302734375,-0.345306396484375,169181.685471125,0.01795343417266018,0.002559564123675156,0.003563309538526021,169181.668931125,-94.12159729003906,-43.89744567871094,-550.547119140625,169181.680375125,-0.007321969095662168,-1.198527063508536,-0.1523569231298941,0.009494873695075512,0.001929185353219509,0.004353702068328857,0.001554965972900391,-0.00159117579460144,0.01414936780929565,1,-0.06490214169025421,-0.562164843082428,0.03991115465760231,0.823508083820343,-0.9207139611244202,0.1517681777477264,-0.3595167994499207,0,0,0,-1,169180.3792747917,3,2,1561841364.325773,0,0,0,0,0,0,0,0,0,169178.344264,0,-0.4516602,75.19723,0,182478453,3,1,1,-34.73772,-40.39415,3
1561841365.411334,3,0,0,1561841364.998411,4.634470646273935,-74.15097135126045,2552.495,0.67,182.8125,4,30,-9999,1561841365.409577,-21.37284851074219,-18.04288101196289,9.67425537109375,131.051025390625,138.5442352294922,15,169181.705735125,-0.9197998046875,0.152313232421875,-0.345001220703125,169181.705735125,0.02403875726349124,-0.003431483064567099,-0.0005651227833148143,169181.689042125,-94.15135192871094,-44.30857849121094,-550.7772216796875,169181.700638125,-0.006987585199611841,-1.198586386437429,-0.1521584290058658,0.02289829589426517,-0.005421405658125877,-0.008415888994932175,0.002825021743774414,0.0004666000604629517,0.01485335826873779,1,-0.06472526490688324,-0.5622046589851379,0.03999492153525352,0.8234907388687134,-0.9207633137702942,0.151571974158287,-0.3594731092453003,0,0,0,-1,169180.3792747917,3,2,1561841364.325773,0,0,0,0,0,0,0,0,0,169179.286433,0,-0.4438477,75.19716,0,182478453,3,1,1,-34.73772,-40.63344,3
1561841365.43162,4,0,0,1561841364.998411,4.634470646273935,-74.15097135126045,2552.495,0.67,182.8125,4,30,-9999,1561841365.409577,-21.37284851074219,-18.04288101196289,9.67425537109375,131.051025390625,138.5442352294922,15,169181.725968125,-0.91845703125,0.1479949951171875,-0.3436737060546875,169181.725968125,0.02134923087862021,0.009939183504284724,0.01539919637116518,169181.709122125,-93.855712890625,-43.97816467285156,-550.8074340820312,169181.720902125,-0.00657149777284315,-1.198635925387945,-0.1519961141848507,0.01993792690336704,0.002431724220514297,0.009342068806290627,-0.0002775192260742188,-0.002150058746337891,0.01417583227157593,1,-0.06454049795866013,-0.5622422099113464,0.04012218117713928,0.8234733939170837,-0.920803964138031,0.1514115333557129,-0.3594364523887634,0,0,0,-1,169180.3792747917,3,2,1561841364.325773,0,0,0,0,0,0,0,0,0,169179.286433,0,-0.4438477,75.19716,0,182478453,3,1,1,-34.73772,-40.63344,3
1561841365.451718,5,0,0,1561841364.998411,4.634470646273935,-74.15097135126045,2552.495,0.67,182.8125,4,30,-9999,1561841365.43579,-21.41496276855469,-17.85943603515625,9.784423828125,131.0213928222656,138.5146026611328,15,169181.746244,-0.916778564453125,0.1463470458984375,-0.3369293212890625,169181.746244,0.01496483479737326,0.005480519207274064,0.03271054240500725,169181.729233125,-94.17851257324219,-44.17941284179688,-550.777587890625,169181.741166125,-0.006142525150094984,-1.198460982612537,-0.152160517454748,0.01396818552166224,0.004552931524813175,0.02411409094929695,0.003008544445037842,-0.003197580575942993,0.01791369915008545,1,-0.06449110060930252,-0.5621802806854248,0.04033941403031349,0.8235089182853699,-0.9207178950309753,0.151574045419693,-0.3595884740352631,0,0,0,-1,169180.3792747917,3,2,1561841364.325773,0,0,0,0,0,0,0,0,0,169179.286433,0,-0.4438477,75.19716,0,182478453,3,1,1,-34.73772,-41.01122,3
1561841365.471996,6,0,0,1561841364.998411,4.634470646273935,-74.15097135126045,2552.495,0.67,182.8125,4,30,-9999,1561841365.46022,-21.43440246582031,-17.94453430175781,9.70220947265625,130.9940948486328,138.4873046875,15,169181.766507,-0.922515869140625,0.1562042236328125,-0.3364410400390625,169181.766507,-0.02294020331383355,0.03007587713859186,0.02339959860187222,169181.749326,-93.93685913085938,-44.03079223632812,-550.7276000976562,169181.761441,-0.005820212090456417,-1.198362142590484,-0.1526769212522909,-0.01290470827370882,0.01209021080285311,0.02683184668421745,0.00410538911819458,-0.002716168761253357,0.02531564235687256,1,-0.06461507081985474,-0.5621382594108582,0.04061418399214745,0.8235144019126892,-0.9206093549728394,0.1520844548940659,-0.3596509397029877,0,0,0,-1,169180.3792747917,3,2,1561841364.325773,0,0,0,0,0,0,0,0,0,169179.286433,0,-0.4438477,75.19716,0,182478453,3,1,1,-34.73772,-34.73772,3
1561841365.49232,7,0,0,1561841364.998411,4.634470646273935,-74.15097135126045,2552.495,0.67,182.8125,4,30,-9999,1561841365.486529,-21.41817474365234,-18.03103256225586,9.831298828125,131.0235137939453,138.5167236328125,15,169181.786771,-0.9200592041015625,0.1552276611328125,-0.3412933349609375,169181.786771,-0.04709107965921712,0.02694080390335058,0.01827088297459762,169181.769437,-94.36448669433594,-43.8436279296875,-550.7725830078125,169181.781705,-0.006356295263657978,-1.197924975180129,-0.1532223860819289,-0.04647465422749519,0.02918317914009094,0.01139483321458101,-0.003102660179138184,0.002497300505638123,0.02111005783081055,1,-0.06499913334846497,-0.5619284510612488,0.0405326634645462,0.8236312866210938,-0.9203745126724243,0.1526235491037369,-0.3600230515003204,0,0,0,-1,169180.3792747917,3,2,1561841364.325773,0,0,0,0,0,0,0,0,0,169179.286433,0,-0.4438477,75.19716,0,182478453,3,1,1,-34.73772,-34.84463,3
1561841365.512867,8,0,0,1561841364.998411,4.634470646273935,-74.15097135126045,2552.495,0.67,182.8125,4,30,-9999,1561841365.510972,-21.38616180419922,-17.95306396484375,9.72967529296875,131.0747222900391,138.5679321289062,15,169181.807035,-0.9217071533203125,0.1616363525390625,-0.3479461669921875,169181.807035,-0.0249852447149054,0.0188045804570495,0.01636991858849906,169181.789517,-94.12200927734375,-43.86808776855469,-550.7625122070312,169181.801969,-0.00708343686510616,-1.19769729728377,-0.1538842868444711,-0.03340865299105644,0.01570678129792213,0.01702635362744331,-0.0008831024169921875,0.008511275053024292,0.01478254795074463,1,-0.06548050791025162,-0.561795711517334,0.04041185230016708,0.8236898183822632,-0.9201984405517578,0.1532776653766632,-0.3601957559585571,0,0,0,-1,169180.3792747917,3,2,1561841364.325773,0,0,0,0,0,0,0,0,0,169179.286433,0,-0.4438477,75.19716,0,182478453,3,1,1,-34.73772,-35.66409,3
1561841365.532833,9,0,0,1561841364.998411,4.634470646273935,-74.15097135126045,2552.495,0.67,182.8125,4,30,-9999,1561841365.510972,-21.38616180419922,-17.95306396484375,9.72967529296875,131.0747222900391,138.5679321289062,15,169181.827298,-0.9157562255859375,0.15032958984375,-0.3447418212890625,169181.827298,-0.01501490222586675,0.03132037231598589,-0.01509213389747904,169181.809629,-93.80308532714844,-43.95866394042969,-550.364501953125,169181.822202,-0.007432188592056416,-1.197430921192622,-0.1541094366201076,-0.01211241725832224,0.02286003530025482,-0.01020047347992659,0.001201272010803223,-0.0006986409425735474,0.01390117406845093,1,-0.06567653268575668,-0.5616693496704102,0.04032276943325996,0.8237647414207458,-0.9200702905654907,0.1535001546144485,-0.3604282736778259,0,0,0,-1,169180.3792747917,3,2,1561841364.325773,0,0,0,0,0,0,0,0,0,169179.286433,0,-0.4438477,75.19716,0,182478453,3,1,1,-34.73772,-36.25219,3
1561841365.553041,10,0,0,1561841364.998411,4.634470646273935,-74.15097135126045,2552.495,0.67,182.8125,4,30,-9999,1561841365.537087,-21.48313903808594,-17.87762069702148,9.94183349609375,131.1004791259766,138.5936889648438,15,169181.847531,-0.9151611328125,0.14862060546875,-0.3468170166015625,169181.847531,-0.01529852888196018,0.02608592919343515,-0.01542156692432184,169181.829709,-94.24571228027344,-43.85108947753906,-550.7356567382812,169181.842465,-0.007908503496613718,-1.197018053663246,-0.1538233338768615,-0.01682008802890778,0.02537725493311882,-0.02449978329241276,0.003595650196075439,-0.001819729804992676,0.0151362419128418,1,-0.06570076942443848,-0.5614902973175049,0.04003260657191277,0.82389897108078,-0.9199622273445129,0.1532174348831177,-0.3608241081237793,0,0,0,-1,169180.3792747917,3,2,1561841364.325773,0,0,0,0,0,0,0,0,0,169179.286433,0,-0.4438477,75.19716,0,182478453,3,1,1,-34.73772,-36.40201,3
1561841365.573805,11,0,0,1561841364.998411,4.634470646273935,-74.15097135126045,2552.495,0.67,182.8125,4,30,-9999,1561841365.56155,-21.68180847167969,-17.86706161499023,9.56622314453125,131.1368408203125,138.6300506591797,15,169181.867795,-0.91998291015625,0.149261474609375,-0.3480377197265625,169181.867795,-0.01342845716450654,0.005629656228318502,0.01668683475821849,169181.84982,-94.33338928222656,-44.06221008300781,-550.7255859375,169181.862729,-0.008322963839980801,-1.19682043673351,-0.1537634883482545,-0.01608878374099731,0.001640232279896736,0.006670119240880013,0.004555165767669678,-0.005285367369651794,0.01536715030670166,1,-0.06579641997814178,-0.5613966584205627,0.03983855247497559,0.823964536190033,-0.9198994040489197,0.1531582921743393,-0.3610092401504517,0,0,0,-1,169180.3792747917,3,2,1561841364.325773,0,0,0,0,0,0,0,0,0,169179.286433,0,-0.4438477,75.19716,0,182478453,3,1,1,-34.73772,-37.17117,3
1561841365.593704,12,0,0,1561841364.998411,4.634470646273935,-74.15097135126045,2552.495,0.67,182.8125,4,30,-9999,1561841365.588016,-21.36195373535156,-17.96010208129883,9.67681884765625,131.1511383056641,138.6443481445312,15,169181.888059,-0.923797607421875,0.1519775390625,-0.346954345703125,169181.888059,0.005723133182580283,-0.007470965805999287,0.02686596907671936,169181.869931,-94.13592529296875,-44.00959777832031,-550.86767578125,169181.882993,-0.008418989656005656,-1.196928267653832,-0.1541487592033016,-0.002403863938525319,-0.00889736320823431,0.01928950846195221,-0.004524588584899902,-0.004231750965118408,0.01330852508544922,1,-0.06597987562417984,-0.5614289045333862,0.03991079330444336,0.8239244222640991,-0.9198833703994751,0.1535390019416809,-0.3608884811401367,0,0,0,-1,169180.3792747917,3,2,1561841364.325773,0,0,0,0,0,0,0,0,0,169179.286433,0,-0.4438477,75.19716,0,182478453,3,1,1,-34.73772,-37.17117,3
1561841365.613847,13,0,0,1561841364.998411,4.634470646273935,-74.15097135126045,2552.495,0.67,182.8125,4,30,-9999,1561841365.612169,-21.43363952636719,-17.94840240478516,9.504638671875,131.1286926269531,138.6219024658203,15,169181.908322,-0.920745849609375,0.15313720703125,-0.3506317138671875,169181.908322,0.01788898567428026,-0.0191539871920679,0.01754810105475012,169181.890012,-94.11817932128906,-44.07676696777344,-550.8359375,169181.903256,-0.008078480405242418,-1.197278787421161,-0.1545695284548113,0.01534796971827745,-0.02820022031664848,0.02223283424973488,-0.002261221408843994,-0.001794129610061646,0.01242834329605103,1,-0.06605051457881927,-0.5615746974945068,0.04018088057637215,0.8238061666488647,-0.919949471950531,0.1539547741413116,-0.3605423867702484,0,0,0,-1,169180.3792747917,3,2,1561841364.325773,0,0,0,0,0,0,0,0,0,169179.286433,0,-0.4438477,75.19716,0,182478453,3,1,1,-34.73772,-37.63912,3
1561841365.634127,14,0,0,1561841364.998411,4.634470646273935,-74.15097135126045,2552.495,0.67,182.8125,4,30,-9999,1561841365.612169,-21.43363952636719,-17.94840240478516,9.504638671875,131.1286926269531,138.6219024658203,15,169181.928586,-0.91748046875,0.15167236328125,-0.3507080078125,169181.928586,0.005729791085305481,0.003296993429518097,-0.02566035605124048,169181.910123,-93.92512512207031,-44.013427734375,-550.8356323242188,169181.92352,-0.007792048815142069,-1.197653677036837,-0.154523144795517,0.008204305544495583,-0.009249166585505009,-0.01869222894310951,0.00180208683013916,0.0001437962055206299,0.01063650846481323,1,-0.06594343483448029,-0.5617396235466003,0.04029817879199982,0.8236966729164124,-0.9200913310050964,0.1539089381694794,-0.3602001070976257,0,0,0,-1,169180.3792747917,3,2,1561841364.325773,0,0,0,0,0,0,0,0,0,169179.286433,0,-0.4438477,75.19716,0,182478453,3,1,1,-34.73772,-38.50397,3
1561841365.654325,15,0,0,1561841364.998411,4.634470646273935,-74.15097135126045,2552.495,0.67,182.8125,4,30,-9999,1561841365.638461,-21.56430816650391,-17.97196578979492,9.83154296875,131.1211853027344,138.6143951416016,15,169181.94885,-0.9161834716796875,0.153289794921875,-0.34295654296875,169181.94885,0.01568255671114961,0.02367709998745848,-0.03944807364679872,169181.930204,-94.1221923828125,-44.281982421875,-550.820556640625,169181.943784,-0.007938696050921555,-1.197566786729209,-0.1538142570749141,0.009162777103483677,0.01848392561078072,-0.0438804067671299,0.00243675708770752,-0.0003001391887664795,0.01214474439620972,1,-0.06569452583789825,-0.5617155432701111,0.04003564268350601,0.8237457871437073,-0.9201613664627075,0.153208464384079,-0.3603197634220123,0,0,0,-1,169180.3792747917,3,2,1561841364.325773,0,0,0,0,0,0,0,0,0,169179.286433,0,-0.4438477,75.19716,0,182478453,3,1,1,-34.73772,-39.18901,3
1561841365.67472,16,0,0,1561841364.998411,4.634470646273935,-74.15097135126045,2552.495,0.67,182.8125,4,30,-9999,1561841365.662791,-21.48094177246094,-18.16218948364258,9.58807373046875,131.1290588378906,138.6222686767578,15,169181.969113,-0.912261962890625,0.153717041015625,-0.34259033203125,169181.969113,0.02040380869164208,0.01402633682922933,-0.01454325639681371,169181.950315,-94.00625610351562,-44.12162780761719,-550.8168334960938,169181.964017,-0.007901814631008801,-1.197288686414737,-0.1529818071802727,0.02156831324100494,0.00987525936216116,-0.02604894526302814,0.007307171821594238,-0.0007134228944778442,0.01891672611236572,1,-0.06534697860479355,-0.5616215467453003,0.03980774059891701,0.8238484859466553,-0.9201794862747192,0.1523857861757278,-0.3606220185756683,0,0,0,-1,169180.3792747917,3,2,1561841364.325773,0,0,0,0,0,0,0,0,0,169179.286433,0,-0.4438477,75.19716,0,182478453,3,1,1,-34.73772,-39.6024,3
1561841365.694905,17,0,0,1561841364.998411,4.634470646273935,-74.15097135126045,2552.495,0.67,182.8125,4,30,-9999,1561841365.68943,-21.36899566650391,-17.90497970581055,9.6171875,131.1181945800781,138.6114044189453,15,169181.989347,-0.9119720458984375,0.1523284912109375,-0.339874267578125,169181.989347,0.003310309234968493,-0.002984072001433786,0.01804717744303097,169181.970395,-94.34030151367188,-43.92582702636719,-550.6913452148438,169181.984281,-0.007702618125154431,-1.197167507508625,-0.1526994793749371,0.004919828847050667,-0.00351298414170742,0.006967594847083092,0.008417427539825439,0.001411929726600647,0.02131748199462891,1,-0.06517720222473145,-0.5615846514701843,0.03980649262666702,0.8238871693611145,-0.9201758503913879,0.1521067470312119,-0.360749214887619,0,0,0,-1,169180.3792747917,3,2,1561841364.325773,0,0,0,0,0,0,0,0,0,169179.286433,0,-0.4438477,75.19716,0,182478453,3,1,1,-34.73772,-40.05295,3
1561841365.715565,18,0,0,1561841364.998411,4.634470646273935,-74.15097135126045,2552.495,0.67,182.8125,4,30,-9999,1561841365.713454,-21.37712860107422,-18.14840698242188,9.69189453125,131.1221008300781,138.6153106689453,15,169182.00961,-0.916717529296875,0.1522674560546875,-0.3407440185546875,169182.00961,-0.02034495283155133,0.008607602959245106,0.01374723754698903,169181.990506,-93.92634582519531,-44.25981140136719,-550.740234375,169182.004544,-0.00770535774869577,-1.197337515207727,-0.1530353596414696,-0.01758041977882385,-0.0007094745524227619,0.01585216633975506,0.005181074142456055,0.0001949518918991089,0.01931130886077881,1,-0.06531288474798203,-0.5616468191146851,0.03990530222654343,0.8238293528556824,-0.9201896190643311,0.1524387151002884,-0.3605741560459137,0,0,0,-1,169180.3792747917,3,2,1561841364.325773,0,0,0,0,0,0,0,0,0,169179.286433,0,-0.4438477,75.19716,0,182478453,3,1,1,-34.73772,-40.77167,3
1561841365.735396,19,0,0,1561841364.998411,4.634470646273935,-74.15097135126045,2552.495,0.67,182.8125,4,30,-9999,1561841365.713454,-21.37712860107422,-18.14840698242188,9.69189453125,131.1221008300781,138.6153106689453,15,169182.029874,-0.914337158203125,0.153411865234375,-0.3394775390625,169182.029874,-0.01850657273106963,0.01204521129431939,-0.01212856823643887,169182.010587,-94.03448486328125,-44.03634643554688,-550.852294921875,169182.024808,-0.008083444222179033,-1.197355112951703,-0.1532495598154089,-0.01847737282514572,0.004937492311000824,-0.008794857189059258,0.007003247737884521,-0.001222193241119385,0.0200919508934021,1,-0.06550690531730652,-0.561636745929718,0.03981034830212593,0.8238253593444824,-0.920165479183197,0.1526504158973694,-0.3605460226535797,0,0,0,-1,169180.3792747917,3,2,1561841364.325773,0,0,0,0,0,0,0,0,0,169179.286433,0,-0.4438477,75.19716,0,182478453,3,1,1,-34.73772,-40.77167,3
1561841365.757141,20,0,0,1561841364.998411,4.634470646273935,-74.15097135126045,2552.495,0.67,182.8125,4,30,-9999,1561841365.739721,-21.4569091796875,-17.8787956237793,9.795166015625,131.1547241210938,138.6479339599609,15,169182.050138,-0.91522216796875,0.15472412109375,-0.339508056640625,169182.050138,-0.01339623291531658,0.0008394283755929759,-0.0193726327175634,169182.030698,-94.03419494628906,-44.12672424316406,-550.84423828125,169182.045072,-0.008583233166965954,-1.197349176231776,-0.1530355758324907,-0.01773514971137047,0.002913489937782288,-0.02324729971587658,0.002469062805175781,0.003383830189704895,0.02184873819351196,1,-0.0655592679977417,-0.5616229176521301,0.03954414278268814,0.8238433599472046,-0.9201936721801758,0.1524389237165451,-0.3605633676052094,0,0,0,-1,169180.3792747917,3,2,1561841364.325773,0,0,0,0,0,0,0,0,0,169179.286433,0,-0.4438477,75.19716,0,182478453,3,1,1,-34.73772,-38.19326,3
1561841365.776555,21,0,0,1561841364.998411,4.634470646273935,-74.15097135126045,2552.495,0.67,182.8125,4,30,-9999,1561841365.7641,-21.34169769287109,-17.94888687133789,9.6512451171875,131.1919860839844,138.6851959228516,15,169182.070401,-0.91278076171875,0.1538543701171875,-0.34600830078125,169182.070401,-0.008855010624513467,-0.01427640765558777,0.008126369750267787,169182.050809,-94.12808227539062,-44.14385986328125,-550.813720703125,169182.065335,-0.009021814378671009,-1.197610918559082,-0.152870794726631,-0.01487305015325546,-0.01608949527144432,-0.003550826571881771,0.007957875728607178,0.0007238090038299561,0.01674950122833252,1,-0.06560943275690079,-0.5617201924324036,0.03932574763894081,0.8237835168838501,-0.9203113913536072,0.1522760689258575,-0.360331654548645,0,0,0,-1,169180.3792747917,3,2,1561841364.325773,0,0,0,0,0,0,0,0,0,169179.286433,0,-0.4438477,75.19716,0,182478453,3,1,1,-34.73772,-39.14346,3
1561841365.796204,22,0,0,1561841364.998411,4.634470646273935,-74.15097135126045,2552.495,0.67,182.8125,4,30,-9999,1561841365.791191,-21.43308258056641,-17.94065093994141,9.66424560546875,131.2059326171875,138.6991424560547,15,169182.090665,-0.91448974609375,0.1511077880859375,-0.35040283203125,169182.090665,-0.002090048823494186,-0.02626382835425244,0.02856266900720884,169182.07089,-94.11463928222656,-44.09895324707031,-550.6776733398438,169182.085599,-0.009120532295476007,-1.198059987447389,-0.153147217915657,-0.005463835783302784,-0.02537247538566589,0.02389411441981792,0.007561564445495605,0.001030445098876953,0.01241457462310791,1,-0.0657421201467514,-0.5618954300880432,0.03937756270170212,0.8236509561538696,-0.9204338788986206,0.1525492668151855,-0.3599030077457428,0,0,0,-1,169180.3792747917,3,2,1561841364.325773,0,0,0,0,0,0,0,0,0,169179.286433,0,-0.4438477,75.19716,0,182478453,3,1,1,-34.73772,-39.64651,3
1561841365.816444,23,0,0,1561841364.998411,4.634470646273935,-74.15097135126045,2552.495,0.67,182.8125,4,30,-9999,1561841365.814589,-21.29138946533203,-17.99253082275391,9.49169921875,131.1882476806641,138.6814575195312,15,169182.110929,-0.91748046875,0.1501007080078125,-0.3519744873046875,169182.110929,0.0228342095024484,-0.05259237152299381,0.01533501418889427,169182.091001,-93.9136962890625,-44.14195251464844,-551.0294189453125,169182.105832,-0.00887823757783545,-1.198854987465695,-0.1535779182590696,0.01604465022683144,-0.05419906228780746,0.02065970376133919,0.003956258296966553,-0.001333057880401611,0.006577670574188232,1,-0.06583558768033981,-0.5622206330299377,0.03962463513016701,0.8234097957611084,-0.9206585288047791,0.1529749035835266,-0.3591472804546356,0,0,0,-1,169180.3792747917,3,2,1561841364.325773,0,0,0,0,0,0,0,0,0,169179.286433,0,-0.4438477,75.19716,0,182478453,3,1,1,-34.73772,-40.08519,3
1561841365.836725,24,0,0,1561841364.998411,4.634470646273935,-74.15097135126045,2552.495,0.67,182.8125,4,30,-9999,1561841365.814589,-21.29138946533203,-17.99253082275391,9.49169921875,131.1882476806641,138.6814575195312,15,169182.131162,-0.91876220703125,0.1524200439453125,-0.35260009765625,169182.131162,0.03937483671682154,-0.04492140231912957,-0.01775795814864836,169182.111081,-94.20509338378906,-43.95291137695312,-550.8115844726562,169182.126096,-0.00838895329677956,-1.199939411027043,-0.1534715134175698,0.03014449030160904,-0.05173883587121964,-0.01402983255684376,0.005123138427734375,-0.002738535404205322,0.006103694438934326,1,-0.06563267111778259,-0.5626856088638306,0.0398317389190197,0.8230981826782227,-0.9210624694824219,0.1528697609901428,-0.3581545054912567,0,0,0,-1,169180.3792747917,3,2,1561841364.325773,0,0,0,0,0,0,0,0,0,169179.286433,0,-0.4438477,75.19716,0,182478453,3,1,1,-34.73772,-40.51273,3
1561841365.857212,25,0,0,1561841364.998411,4.634470646273935,-74.15097135126045,2552.495,0.67,182.8125,4,30,-9999,1561841365.84113,-21.46162414550781,-17.94446563720703,9.80145263671875,131.15185546875,138.6450653076172,15,169182.151425,-0.916900634765625,0.1535186767578125,-0.3383941650390625,169182.151425,0.07457756526992494,-0.0674645283144323,-0.01453553322965248,169182.131192,-93.92121887207031,-44.0406494140625,-550.924560546875,169182.14636,-0.007652136125430622,-1.200963155845106,-0.152700567093375,0.06501379609107971,-0.06425622850656509,-0.02415756694972515,0.001967370510101318,0.001517653465270996,0.01170331239700317,1,-0.06508777290582657,-0.5631488561630249,0.03995119407773018,0.8228188157081604,-0.9215382933616638,0.1521078199148178,-0.3572539091110229,0,0,0,-1,169180.3792747917,3,2,1561841364.325773,0,0,0,0,0,0,0,0,0,169179.286433,0,-0.4438477,75.19716,0,182478453,3,1,1,-34.73772,-40.73239,3
1561841365.877256,26,0,0,1561841364.998411,4.634470646273935,-74.15097135126045,2552.495,0.67,182.8125,4,30,-9999,1561841365.86539,-21.28324127197266,-17.83584976196289,9.88958740234375,131.0762786865234,138.5694885253906,15,169182.171689,-0.917694091796875,0.1512908935546875,-0.3367462158203125,169182.171689,0.05781616200118423,-0.08839830606300016,0.02013749258263416,169182.151273,-94.10238647460938,-44.02947998046875,-550.9940795898438,169182.166623,-0.006399567194516989,-1.202418413433743,-0.1520087849111784,0.06490833312273026,-0.08908087760210037,0.005628556944429874,0.005544424057006836,0.001316413283348083,0.01854789257049561,1,-0.06442124396562576,-0.5638038516044617,0.04031844809651375,0.822404682636261,-0.9221551418304443,0.1514240652322769,-0.3559502363204956,0,0,0,-1,169180.3792747917,3,2,1561841364.325773,0,0,0,0,0,0,0,0,0,169179.286433,0,-0.4438477,75.19716,0,182478453,3,1,1,-34.73772,-41.38876,3
1561841365.897469,27,0,0,1561841364.998411,4.634470646273935,-74.15097135126045,2552.495,0.67,182.8125,4,30,-9999,1561841365.891993,-21.18334197998047,-17.91114044189453,9.78009033203125,130.9947204589844,138.4879302978516,15,169182.191953,-0.9147491455078125,0.1483306884765625,-0.3358154296875,169182.191953,0.03129826807893823,-0.1227482904350602,0.03461896364215803,169182.171384,-93.78640747070312,-44.07640075683594,-550.5172119140625,169182.186887,-0.005280978694696535,-1.204327480593294,-0.152073962670858,0.03589292243123055,-0.1191724687814713,0.03186389058828354,0.006655573844909668,-0.00491255521774292,0.01830911636352539,1,-0.06409372389316559,-0.5646230578422546,0.04085799306631088,0.8218414187431335,-0.9228237271308899,0.1514884829521179,-0.3541855812072754,0,0,0,-1,169180.3792747917,3,2,1561841364.325773,0,0,0,0,0,0,0,0,0,169179.286433,0,-0.4438477,75.19716,0,182478453,3,1,1,-34.73772,-41.38876,3
1561841365.917756,28,0,0,1561841364.998411,4.634470646273935,-74.15097135126045,2552.495,0.67,182.8125,4,30,-9999,1561841365.916052,-21.32799530029297,-17.97969055175781,9.69366455078125,130.9380950927734,138.4313049316406,15,169182.212216,-0.9150848388671875,0.1552886962890625,-0.3357086181640625,169182.212216,0.03740542909070794,-0.1545474991150423,0.0323526135545006,169182.191465,-93.96963500976562,-44.24943542480469,-550.8549194335938,169182.207151,-0.004489896162509363,-1.206929268236609,-0.1524321767848569,0.03208833187818527,-0.1459894329309464,0.02987450733780861,0.007553637027740479,8.921325206756592e-05,0.01588761806488037,1,-0.06396378576755524,-0.5657089352607727,0.04136748984456062,0.8210789561271667,-0.9236913323402405,0.1518425494432449,-0.3517640829086304,0,0,0,-1,169180.3792747917,3,2,1561841364.325773,0,0,0,0,0,0,0,0,0,169179.286433,0,-0.4438477,75.19716,0,182478453,3,1,1,-34.73772,-41.79164,3
1561841365.937981,29,0,0,1561841364.998411,4.634470646273935,-74.15097135126045,2552.495,0.67,182.8125,4,30,-9999,1561841365.916052,-21.32799530029297,-17.97969055175781,9.69366455078125,130.9380950927734,138.4313049316406,15,169182.23248,-0.9097442626953125,0.1616363525390625,-0.336029052734375,169182.23248,0.1264841728122233,-0.2380059076720545,0.01860803916860165,169182.211576,-93.73260498046875,-44.17495727539062,-550.7551879882812,169182.227414,-0.003259582314923806,-1.21042201700425,-0.1525418585631511,0.09544653445482254,-0.2237883657217026,0.02138195373117924,0.01294201612472534,0.00819002091884613,0.01251602172851562,1,-0.06358751654624939,-0.5671787261962891,0.0420147217810154,0.8200607299804688,-0.9248988032341003,0.1519509702920914,-0.3485298454761505,0,0,0,-1,169180.3792747917,3,2,1561841364.325773,0,0,0,0,0,0,0,0,0,169179.286433,0,-0.4438477,75.19716,0,182478453,3,1,1,-34.73772,-41.83652,3
1561841365.958328,30,0,0,1561841364.998411,4.634470646273935,-74.15097135126045,2552.495,0.67,182.8125,4,30,-9999,1561841365.94277,-21.33441925048828,-17.77643966674805,10.04205322265625,130.8160247802734,138.3092346191406,15,169182.252744,-0.91644287109375,0.15679931640625,-0.3270721435546875,169182.252744,0.2776595773550073,-0.2782771644117967,-0.04397598013215143,169182.231656,-93.91799926757812,-43.71109008789062,-550.5492553710938,169182.247647,-0.0001145678420252703,-1.215214626443853,-0.1513924057628646,0.2390143573284149,-0.2846900820732117,-0.0304985549300909,0.01340693235397339,0.009616151452064514,0.010276198387146,1,-0.06212109699845314,-0.5692662596702576,0.0431271567940712,0.8186678290367126,-0.9267217516899109,0.1508147567510605,-0.3441537916660309,0,0,0,-1,169180.3792747917,3,2,1561841364.325773,0,0,0,0,0,0,0,0,0,169179.286433,0,-0.4438477,75.19716,0,182478453,3,1,1,-34.73772,-41.88865,3
1561841365.978546,31,0,0,1561841364.998411,4.634470646273935,-74.15097135126045,2552.495,0.67,182.8125,4,30,-9999,1561841365.966694,-21.25382995605469,-17.74871063232422,10.16064453125,130.4945068359375,137.9877166748047,15,169182.272977,-0.9201507568359375,0.149932861328125,-0.307952880859375,169182.272977,0.373269191017724,-0.1869957201526768,-0.1361040433018076,169182.251767,-94.0279541015625,-44.08439636230469,-550.4151611328125,169182.267911,0.005297623722821563,-1.219750001658926,-0.1479743092090939,0.3616446554660797,-0.2183581739664078,-0.1109353378415108,0.009241759777069092,0.004344284534454346,0.02432656288146973,1,-0.05908019840717316,-0.5713565349578857,0.04450379684567451,0.8173619508743286,-0.9287515878677368,0.147434875369072,-0.3401224911212921,0,0,0,-1,169180.3792747917,3,2,1561841364.325773,0,0,0,0,0,0,0,0,0,169179.286433,0,-0.4438477,75.19716,0,182478453,3,1,1,-34.73772,-42.68517,3
1561841365.998849,32,0,0,1561841364.998411,4.634470646273935,-74.15097135126045,2552.495,0.67,182.8125,4,30,-9999,1561841365.993059,-21.03262329101562,-17.74772644042969,10.45574951171875,130.0687103271484,137.5619201660156,15,169182.293241,-0.930938720703125,0.1458587646484375,-0.346282958984375,169182.293241,0.3675271493914042,-0.1876857451911163,-0.2038199740231433,169182.271878,-93.66473388671875,-43.88374328613281,-549.9935302734375,169182.288175,0.01129894861984111,-1.22271314148309,-0.1423300427069922,0.3716317713260651,-0.1839951425790787,-0.2018463313579559,0.0077018141746521,0.006923213601112366,0.01281833648681641,1,-0.05499035120010376,-0.5728458166122437,0.04542654752731323,0.8165538311004639,-0.9305228590965271,0.1418499797582626,-0.3376474678516388,0,0,0,-1,169180.3792747917,3,2,1561841364.325773,0,0,0,0,0,0,0,0,0,169179.286433,0,-0.4438477,75.19716,0,182478453,3,1,1,-34.73772,-43.30825,3
1561841366.019034,33,0,0,1561841364.998411,4.634470646273935,-74.15097135126045,2552.495,0.67,182.8125,4,30,-9999,1561841366.017872,-20.83446502685547,-17.81742858886719,10.72100830078125,129.6768188476562,137.1700286865234,15,169182.313504,-0.930999755859375,0.149749755859375,-0.339630126953125,169182.313504,0.3522581815975439,-0.2432078602293063,-0.1821831217467946,169182.291959,-93.37367248535156,-44.03750610351562,-549.8463745117188,169182.308438,0.01682102012418057,-1.226064126002975,-0.1360172218299171,0.3496865332126617,-0.2348380833864212,-0.1955431699752808,0.000817418098449707,0.01399895548820496,-0.0119326114654541,1,-0.05075215920805931,-0.5744671821594238,0.04596025496721268,0.8156588077545166,-0.9324732422828674,0.135598212480545,-0.334823340177536,0,0,0,-1,169180.3792747917,3,2,1561841364.325773,0,0,0,0,0,0,0,0,0,169179.286433,0,-0.4438477,75.19716,0,182478453,3,1,1,-34.73772,-38.82301,3
1561841366.040787,34,0,0,1561841364.998411,4.634470646273935,-74.15097135126045,2552.495,0.67,182.8125,4,30,-9999,1561841366.017872,-20.83446502685547,-17.81742858886719,10.72100830078125,129.6768188476562,137.1700286865234,15,169182.333768,-0.926849365234375,0.127197265625,-0.3224945068359375,169182.333768,0.3626389172105637,-0.2576909291854842,-0.1401142312712489,169182.31207,-93.34561157226562,-43.81901550292969,-549.3955078125,169182.328702,0.02246949589731211,-1.23060109146451,-0.1303537736390595,0.3609708845615387,-0.2787155508995056,-0.1511725038290024,0.004332900047302246,0.01157085597515106,-0.0003212094306945801,1,-0.04671157896518707,-0.5765395760536194,0.04674597457051277,0.8143924474716187,-0.9346917867660522,0.1299849301576614,-0.3308402895927429,0,0,0,-1,169182.32443,2,0,1561841366.270929,0,0,0,0,0,0,0,0,0,169179.286433,0,-0.4438477,75.19716,0,182478453,3,1,1,-34.73772,-39.26038,3
1561841366.059605,35,0,0,1561841365.998397,4.63444793131634,-74.15095877840569,2552.501,0.67,169.453125,4,30,-9999,1561841366.04537,-20.76781463623047,-17.56061935424805,11.03826904296875,129.2642517089844,136.7574615478516,15,169182.354032,-0.9461669921875,0.1152191162109375,-0.3129119873046875,169182.354032,0.2839515617464285,-0.1835099086018721,-0.1658691295411872,169182.332151,-93.34010314941406,-43.68608093261719,-549.539794921875,169182.348966,0.02814685013666998,-1.234760366103465,-0.1253169427499543,0.3131021559238434,-0.1996481418609619,-0.1545834839344025,0.004109740257263184,-0.00677935779094696,0.01273894309997559,1,-0.0429222397506237,-0.5784262418746948,0.04769827052950859,0.8132070302963257,-0.936665952205658,0.1249891966581345,-0.3271615207195282,0,0,0,-1,169182.32443,2,0,1561841366.270929,0,0,0,0,0,0,0,0,0,169179.286433,0,-0.4438477,75.19716,0,182478453,3,1,1,-34.73772,-39.26038,3
1561841366.07985,36,0,0,1561841365.998397,4.63444793131634,-74.15095877840569,2552.501,0.67,169.453125,4,30,-9999,1561841366.068049,-20.64279937744141,-17.71596527099609,11.30126953125,128.9336395263672,136.4268493652344,15,169182.374295,-0.956787109375,0.1058502197265625,-0.3143157958984375,169182.374295,0.1965663221620945,-0.2476169897300415,-0.2254712073693785,169182.352262,-93.60641479492188,-43.86215209960938,-549.3744506835938,169182.369199,0.03184655309412018,-1.238440025367807,-0.1201033949605172,0.2074649482965469,-0.234127014875412,-0.2190900444984436,-0.01793897151947021,-0.007708534598350525,0.009467780590057373,1,-0.03964157775044441,-0.5800586938858032,0.04777155816555023,0.8122058510780334,-0.9384666681289673,0.119814857840538,-0.3239209055900574,0,0,0,-1,169182.32443,2,0,1561841366.270929,0,0,0,0,0,0,0,0,0,169179.286433,0,-0.4438477,75.19716,0,182478453,3,1,1,-34.73772,-39.98919,3
1561841366.100083,37,0,0,1561841365.998397,4.63444793131634,-74.15095877840569,2552.501,0.67,169.453125,4,30,-9999,1561841366.094326,-20.52618408203125,-17.78570175170898,11.3199462890625,128.7590637207031,136.2522735595703,15,169182.394528,-0.942169189453125,0.1003265380859375,-0.2984466552734375,169182.394528,0.2471557302292397,-0.2658023852336475,-0.2113415398898541,169182.372342,-93.23374938964844,-43.62663269042969,-549.1769409179688,169182.389463,0.03422012582665048,-1.243444853625765,-0.11445538468676,0.2193330675363541,-0.276675820350647,-0.224049910902977,-0.01036322116851807,-0.01300936937332153,0.01202899217605591,1,-0.03653813153505325,-0.5821930170059204,0.04719332978129387,0.8108569979667664,-0.9407018423080444,0.1142056509852409,-0.3194324970245361,0,0,0,-1,169182.32443,2,0,1561841366.270929,0,0,0,0,0,0,0,0,0,169179.286433,0,-0.4438477,75.19716,0,182478453,3,1,1,-34.73772,-40.26392,3
1561841366.120304,38,0,0,1561841365.998397,4.63444793131634,-74.15095877840569,2552.501,0.67,169.453125,4,30,-9999,1561841366.118646,-20.46917724609375,-17.70154190063477,11.62896728515625,128.4810943603516,135.9743041992188,15,169182.414792,-0.946533203125,0.0958709716796875,-0.2956085205078125,169182.414792,0.3165819430026244,-0.1903821957948215,-0.1875714955803519,169182.392453,-93.01957702636719,-43.89511108398438,-548.86181640625,169182.409726,0.03801287547886485,-1.248068854756594,-0.1088009042647802,0.3049329221248627,-0.2086040824651718,-0.1981786340475082,0.002397537231445312,-0.009114325046539307,0.02098280191421509,1,-0.03302910178899765,-0.5841827988624573,0.04716603457927704,0.8095769882202148,-0.9427661895751953,0.1085863709449768,-0.3152790665626526,0,0,0,-1,169182.32443,2,0,1561841366.270929,0,0,0,0,0,0,0,0,0,169179.286433,0,-0.4438477,75.19716,0,182478453,3,1,1,-34.73772,-40.6554,3
1561841366.140687,39,0,0,1561841365.998397,4.63444793131634,-74.15095877840569,2552.501,0.67,169.453125,4,30,-9999,1561841366.118646,-20.46917724609375,-17.70154190063477,11.62896728515625,128.4810943603516,135.9743041992188,15,169182.435056,-0.949005126953125,0.0809478759765625,-0.3014984130859375,169182.435056,0.3102878280823311,-0.2305133702612256,-0.179877623191113,169182.412564,-92.9619140625,-43.84207153320312,-548.5552368164062,169182.42999,0.04290137471957248,-1.251632592886169,-0.1031728043661795,0.3149402737617493,-0.2209105491638184,-0.1869981437921524,-0.007668793201446533,-0.01477880030870438,0.01179587841033936,1,-0.02923460491001606,-0.5857416391372681,0.04755785688757896,0.8085730671882629,-0.9444491863250732,0.1029898598790169,-0.3121041357517242,0,0,0,-1,169182.32443,2,0,1561841366.270929,0,0,0,0,0,0,0,0,0,169179.286433,0,-0.4438477,75.19716,0,182478453,3,1,1,-34.73772,-41.3087,3
1561841366.160886,40,0,0,1561841365.998397,4.63444793131634,-74.15095877840569,2552.501,0.67,169.453125,4,30,-9999,1561841366.144988,-20.19625091552734,-17.6551628112793,11.75982666015625,128.1330108642578,135.626220703125,15,169182.455319,-0.94073486328125,0.074615478515625,-0.29803466796875,169182.455319,0.2837558194063077,-0.2759200005309675,-0.1514662217338206,169182.432645,-92.80079650878906,-43.84275817871094,-548.8260498046875,169182.450254,0.04764679677874051,-1.25634027671178,-0.09788716435322113,0.2942025065422058,-0.2815025448799133,-0.1641660630702972,0.001939117908477783,-0.01943807303905487,0.006488025188446045,1,-0.02559132315218449,-0.5877378582954407,0.04799350723624229,0.8072211146354675,-0.9464123845100403,0.09773091226816177,-0.307818591594696,0,0,0,-1,169182.32443,2,0,1561841366.270929,0,0,0,0,0,0,0,0,0,169179.286433,0,-0.4438477,75.19716,0,182478453,3,1,1,-34.73772,-42.11405,3
1561841366.181133,41,0,0,1561841365.998397,4.63444793131634,-74.15095877840569,2552.501,0.67,169.453125,4,30,-9999,1561841366.169262,-19.92397308349609,-17.68033599853516,12.22808837890625,127.8146286010742,135.3078308105469,15,169182.475583,-0.956024169921875,0.0552825927734375,-0.2933502197265625,169182.475583,0.1786203448404866,-0.2626433435485955,-0.1306019524897039,169182.452756,-92.69108581542969,-43.75872802734375,-548.3140869140625,169182.470517,0.05177715248604848,-1.261449286937406,-0.09344341088721082,0.2106916308403015,-0.2615637183189392,-0.1324739158153534,0.003186523914337158,-0.02622984349727631,0.0100482702255249,1,-0.0224571917206049,-0.5898655652999878,0.04841642081737518,0.8057357668876648,-0.9483769536018372,0.0933074876666069,-0.3031085729598999,0,0,0,-1,169182.32443,2,0,1561841366.270929,0,0,0,0,0,0,0,0,0,169179.286433,0,-0.4438477,75.19716,0,182478453,3,1,1,-35.29499,-42.59348,3
1561841366.201408,42,0,0,1561841365.998397,4.63444793131634,-74.15095877840569,2552.501,0.67,169.453125,4,30,-9999,1561841366.195652,-19.847412109375,-17.62036895751953,12.3189697265625,127.6445846557617,135.1377868652344,15,169182.495847,-0.9687347412109375,0.019378662109375,-0.290771484375,169182.495847,0.05022162552060527,-0.2896406064670558,-0.1071168664168401,169182.472837,-92.49520874023438,-44.00999450683594,-547.9934692382812,169182.490781,0.05374760413968241,-1.266918847762129,-0.09010721574530907,0.07625632733106613,-0.2959848046302795,-0.1209509521722794,-0.01122015714645386,-0.05458493530750275,0.002247214317321777,1,-0.02039759233593941,-0.5920977592468262,0.04828551411628723,0.8041596412658691,-0.9503124356269836,0.08998533338308334,-0.2980083525180817,0,0,0,-1,169182.32443,2,0,1561841366.270929,0,0,0,0,0,0,0,0,0,169179.286433,0,-0.4438477,75.19716,0,182478453,3,1,1,-35.85228,-42.5518,3
1561841366.221617,43,0,0,1561841365.998397,4.63444793131634,-74.15095877840569,2552.501,0.67,169.453125,4,30,-9999,1561841366.219897,-19.80963134765625,-17.64266967773438,12.49981689453125,127.6509780883789,135.1441802978516,15,169182.51611,-1.001388549804688,0.0120849609375,-0.27886962890625,169182.51611,-0.002569417819708449,-0.2660319497196124,-0.05855199341037312,169182.492948,-92.6087646484375,-44.09275817871094,-548.1241455078125,169182.511014,0.05372902992710012,-1.272816154535399,-0.08809664511762139,-0.005217493511736393,-0.2813901603221893,-0.06836044788360596,-0.03645366430282593,-0.07118280977010727,0.005998194217681885,1,-0.0194525383412838,-0.5944710969924927,0.0477423258125782,0.802462637424469,-0.9522242546081543,0.08798273652791977,-0.2924514412879944,0,0,0,-1,169182.32443,2,0,1561841366.270929,0,0,0,0,0,0,0,0,0,169179.286433,0,-0.4438477,75.19716,0,182478453,3,1,1,-35.85228,-42.5518,3
1561841366.241972,44,0,0,1561841365.998397,4.63444793131634,-74.15095877840569,2552.501,0.67,169.453125,4,30,-9999,1561841366.219897,-19.80963134765625,-17.64266967773438,12.49981689453125,127.6509780883789,135.1441802978516,15,169182.536344,-1.00567626953125,-0.0107269287109375,-0.26373291015625,169182.536344,0.0662647742433516,-0.1590474424089492,-0.08485443760043171,169182.513059,-92.37986755371094,-43.91587829589844,-547.9007568359375,169182.531278,0.05355518754387723,-1.277919570265148,-0.08673797836125738,0.04267972335219383,-0.2059736847877502,-0.07860669493675232,-0.04721951484680176,-0.08641563355922699,0.01764857769012451,1,-0.01883743330836296,-0.5965182185173035,0.0473182238638401,0.8009820580482483,-0.9538180828094482,0.08662925660610199,-0.287622332572937,0,0,0,-1,169182.32443,2,0,1561841366.270929,0,0,0,0,0,0,0,0,0,169179.286433,0,-0.4438477,75.19716,0,182478453,3,1,1,-36.40955,-42.71009,3
1561841366.262141,45,0,0,1561841365.998397,4.63444793131634,-74.15095877840569,2552.501,0.67,169.453125,4,30,-9999,1561841366.246181,-19.56534576416016,-17.72993469238281,12.5946044921875,127.6386795043945,135.1318817138672,15,169182.556607,-1.035507202148438,-0.037994384765625,-0.24420166015625,169182.556607,0.1381959563380648,0.03501897043788794,-0.08067354100511631,169182.53317,-92.20742797851562,-43.85565185546875,-547.7373046875,169182.551541,0.05476579338862365,-1.280002311715275,-0.08444706864668758,0.1283949017524719,-0.008823860436677933,-0.09098772704601288,-0.06245672702789307,-0.1109122857451439,0.03202915191650391,1,-0.01750818453729153,-0.5973674058914185,0.04714016616344452,0.8003895878791809,-0.9546025991439819,0.08434673398733139,-0.2856912910938263,0,0,0,-1,169182.32443,2,0,1561841366.270929,0,0,0,0,0,0,0,0,0,169179.286433,0,-0.4438477,75.19716,0,182478453,3,1,1,-36.96683,-43.27625,3
1561841366.28239,46,0,0,1561841365.998397,4.63444793131634,-74.15095877840569,2552.501,0.67,169.453125,4,30,-9999,1561841366.270535,-19.44950866699219,-17.99474716186523,12.66650390625,127.5048599243164,134.9980621337891,15,169182.576871,-1.058990478515625,-0.060821533203125,-0.247344970703125,169182.576871,0.1167484548152207,0.06801953108560481,-0.05624356537749244,169182.55325,-92.34580993652344,-43.82064819335938,-547.675537109375,169182.571805,0.05693998744218871,-1.278888492657704,-0.08214021440375213,0.1268291175365448,0.0680890679359436,-0.05821355804800987,-0.09898394346237183,-0.1330427527427673,0.04300469160079956,1,-0.01596033200621605,-0.5969426035881042,0.04731450974941254,0.8007284998893738,-0.9544675946235657,0.08204787969589233,-0.2868095934391022,0,0,0,-1,169182.32443,2,0,1561841366.270929,0,0,0,0,0,0,0,0,0,169179.286433,0,-0.4438477,75.19716,0,182478453,3,1,1,-37.52411,-43.57481,3
1561841366.302655,47,0,0,1561841365.998397,4.63444793131634,-74.15095877840569,2552.501,0.67,169.453125,4,30,-9999,1561841366.296938,-19.25093841552734,-17.90172576904297,12.50640869140625,127.3781967163086,134.8713989257812,15,169182.597135,-1.064468383789062,-0.0966033935546875,-0.2415008544921875,169182.597135,0.09088223641171705,0.0236073251668984,-0.138403416586982,169182.573361,-91.95404052734375,-44.1436767578125,-547.8829345703125,169182.592069,0.05858664758177459,-1.277716421158419,-0.07995939920919781,0.09087777882814407,0.03462991118431091,-0.1113833039999008,-0.1049043536186218,-0.1517278552055359,0.04002374410629272,1,-0.01462192460894585,-0.5964869260787964,0.04731635004281998,0.8010933995246887,-0.9542997479438782,0.07987422496080399,-0.2879790961742401,0,0,0,-1,169182.32443,2,0,1561841366.270929,0,0,0,0,0,0,0,0,0,169179.286433,0,-0.4438477,75.19716,0,182478453,3,1,1,-38.08139,-40.6182,3
1561841366.323996,48,0,0,1561841365.998397,4.63444793131634,-74.15095877840569,2552.501,0.67,169.453125,4,30,-9999,1561841366.32117,-19.23829650878906,-17.71103668212891,12.75408935546875,127.3029861450195,134.7961883544922,15,169182.617398,-1.10064697265625,-0.19537353515625,-0.23968505859375,169182.617398,0.1650129232507267,-0.01817873760088088,-0.2784268340650591,169182.593473,-91.87791442871094,-43.75527954101562,-547.7622680664062,169182.612332,0.05960987368572232,-1.277558365294317,-0.07577377841364666,0.1395052373409271,-0.02374524436891079,-0.2502208054065704,-0.1206750869750977,-0.2105279564857483,0.04866105318069458,1,-0.01264093816280365,-0.5964295268058777,0.04648074135184288,0.8012188076972961,-0.9545660018920898,0.07570128887891769,-0.2882240414619446,0,0,0,-1,169182.32443,2,0,1561841366.270929,0,0,0,0,0,0,0,0,0,169179.286433,0,-0.4438477,75.19716,0,182478453,3,1,1,-38.63867,-41.07288,3
1561841366.343182,49,0,0,1561841365.998397,4.63444793131634,-74.15095877840569,2552.501,0.67,169.453125,4,30,-9999,1561841366.32117,-19.23829650878906,-17.71103668212891,12.75408935546875,127.3029861450195,134.7961883544922,15,169182.637662,-1.134231567382812,-0.3391571044921875,-0.277984619140625,169182.637662,-0.1248106423832175,0.3556808762305138,-0.781153084619862,169182.613553,-91.82881164550781,-43.85235595703125,-547.6966552734375,169182.632596,0.05945221344296973,-1.275618918550268,-0.06726870522504487,-0.01682071760296822,0.2882046699523926,-0.662494421005249,-0.2207826375961304,-0.3600951731204987,0.04887282848358154,1,-0.009317467920482159,-0.5956403017044067,0.04387950897216797,0.8019977211952209,-0.9545866250991821,0.06721798330545425,-0.2902516424655914,0,0,0,-1,169182.32443,2,0,1561841366.270929,0,0,0,0,0,0,0,0,0,169180.228767,0,-0.4516602,75.19723,0,182478453,3,1,1,-36.3505,-36.3505,3
1561841366.363898,50,0,0,1561841365.998397,4.63444793131634,-74.15095877840569,2552.501,0.67,169.453125,4,30,-9999,1561841366.34744,-19.26092529296875,-17.87148666381836,12.65789794921875,127.5035781860352,134.9967803955078,15,169182.657926,-1.154098510742188,-0.391632080078125,-0.3697967529296875,169182.657926,-0.2167682632431086,0.1202752790468126,-1.154207891169835,169182.633664,-91.75628662109375,-44.12492370605469,-547.9105834960938,169182.652829,0.05075198794772617,-1.269804776684522,-0.05138522427541423,-0.254015177488327,0.211277648806572,-1.063226699829102,-0.1887804269790649,-0.3882156312465668,-0.02437382936477661,1,-0.005633055232465267,-0.5932371020317078,0.03565370664000511,0.8042181730270386,-0.9537824392318726,0.05136261507868767,-0.2960760295391083,0,0,0,-1,169182.656735,3,2,1561841366.603234,0,0,0,0,0,0,0,0,0,169180.228767,0,-0.4516602,75.19723,0,182478453,3,1,1,-33.57925,-37.12091,3
1561841366.394235,51,0,0,1561841365.998397,4.63444793131634,-74.15095877840569,2552.501,0.67,169.453125,4,30,-9999,1561841366.37183,-18.75072479248047,-18.43621826171875,12.35333251953125,128.2747650146484,135.7679748535156,15,169182.678159,-1.092727661132812,-0.46014404296875,-0.3525390625,169182.678159,0.08136676183686394,-0.04528252696294431,-1.581463085908991,169182.653775,-91.58016967773438,-44.19328308105469,-547.880126953125,169182.673093,0.04026718633399529,-1.26911634544704,-0.02778394701195374,-0.002660424448549747,-0.03865868225693703,-1.479630827903748,-0.174802303314209,-0.4586580693721771,-0.07518231868743896,1,0.0007486268877983093,-0.5928696393966675,0.02444513142108917,0.8049269914627075,-0.954470157623291,0.02778037264943123,-0.297010064125061,0,0,0,-1,169182.656735,3,2,1561841366.603234,0,0,0,0,0,0,0,0,0,169180.228767,0,-0.4516602,75.19723,0,182478453,3,1,1,-33.57925,-37.87683,3
1561841366.403946,52,0,0,1561841365.998397,4.63444793131634,-74.15095877840569,2552.501,0.67,169.453125,4,30,-9999,1561841366.398223,-18.09605407714844,-18.95088958740234,12.7169189453125,128.8378601074219,136.3310699462891,15,169182.698423,-1.045013427734375,-0.5602874755859375,-0.416290283203125,169182.698423,0.3121461818909884,-0.235098268393906,-1.916399801460551,169182.673886,-90.99809265136719,-45.00790405273438,-547.9324951171875,169182.693357,0.03312147665917546,-1.271089739721774,0.005459829785302016,0.2763525545597076,-0.185661181807518,-1.841050028800964,-0.09340387582778931,-0.4906644523143768,-0.06870186328887939,1,0.0120268240571022,-0.5934960842132568,0.01170627120882273,0.8046619296073914,-0.9554089903831482,-0.005459802690893412,-0.2952355146408081,0,0,0,-1,169182.656735,3,2,1561841366.603234,0,0,0,0,0,0,0,0,0,169180.228767,0,-0.4516602,75.19723,0,182478453,3,1,1,-33.57925,-37.87683,3
1561841366.424242,53,0,0,1561841365.998397,4.63444793131634,-74.15095877840569,2552.501,0.67,169.453125,4,30,-9999,1561841366.423314,-17.28018188476562,-19.33870315551758,12.9267578125,129.2291107177734,136.7223205566406,15,169182.718686,-1.080612182617188,-0.6810150146484375,-0.4900665283203125,169182.718686,0.404357602002764,-0.3154311910956011,-2.227561146380427,169182.693967,-90.18434143066406,-45.37417602539062,-547.7578735351562,169182.71362,0.02777182700653224,-1.276415869310223,0.04615367298339265,0.3867850601673126,-0.3125717043876648,-2.151965379714966,-0.1041718721389771,-0.581914484500885,-0.1793544292449951,1,0.02680123038589954,-0.5952836871147156,-0.002596294740214944,0.8030643463134766,-0.9559630155563354,-0.04613728821277618,-0.289838045835495,0,0,0,-1,169182.656735,3,2,1561841366.603234,0,0,0,0,0,0,0,0,0,169180.228767,0,-0.4516602,75.19723,0,182478453,3,1,1,-33.57925,-38.67938,3
1561841366.444519,54,0,0,1561841365.998397,4.63444793131634,-74.15095877840569,2552.501,0.67,169.453125,4,30,-9999,1561841366.423314,-17.28018188476562,-19.33870315551758,12.9267578125,129.2291107177734,136.7223205566406,15,169182.73895,-1.118698120117188,-0.8056793212890625,-0.49163818359375,169182.73895,0.4287620112839232,-0.4658145715301956,-2.631778133477635,169182.714078,-89.53790283203125,-45.87013244628906,-547.6357421875,169182.733884,0.02222021345047467,-1.28307131360695,0.0936911856290376,0.4238021969795227,-0.4141073822975159,-2.52378511428833,-0.1465098857879639,-0.6527684926986694,-0.2126818299293518,1,0.0441567562520504,-0.5973162651062012,-0.01913044042885303,0.8005607128143311,-0.9546864032745361,-0.09355417639017105,-0.2825269103050232,0,0,0,-1,169182.656735,3,2,1561841366.603234,0,0,0,0,0,0,0,0,0,169180.228767,0,-0.4516602,75.19723,0,182478453,3,1,1,-33.57925,-36.81086,3
1561841366.471051,55,0,0,1561841365.998397,4.63444793131634,-74.15095877840569,2552.501,0.67,169.453125,4,30,-9999,1561841366.448841,-16.38159942626953,-19.74666976928711,12.9661865234375,129.6715850830078,137.164794921875,15,169182.7592165417,-1.2412109375,-0.851348876953125,-0.471221923828125,169182.7592165417,0.3742212711074274,-0.5198596974278276,-3.104505738565459,169182.734159,-88.22236633300781,-46.82429504394531,-547.5668334960938,169182.7541505417,0.0147887233875693,-1.292558696608018,0.1495421464849062,0.3989964425563812,-0.5623019337654114,-2.981295585632324,-0.2113302946090698,-0.6819624900817871,-0.2105358839035034,1,0.06407530605792999,-0.6000802516937256,-0.03909888863563538,0.7964102625846863,-0.9508095979690552,-0.1489854007959366,-0.2715961039066315,0,0,0,-1,169182.656735,3,2,1561841366.603234,0,0,0,0,0,0,0,0,0,169180.228767,0,-0.4516602,75.19723,0,182478453,3,1,1,-32.66097,-32.66097,3
1561841366.485005,56,0,0,1561841365.998397,4.63444793131634,-74.15095877840569,2552.501,0.67,169.453125,4,30,-9999,1561841366.473121,-13.89813232421875,-21.61827850341797,13.75469970703125,130.3621368408203,137.8553466796875,15,169182.7794795417,-1.37298583984375,-0.8981781005859375,-0.4761810302734375,169182.7794795417,0.1858188692669707,-0.1506773934189392,-3.562407525864811,169182.7542725417,-86.93624877929688,-47.53285217285156,-546.841064453125,169182.7743835417,0.003316475158729495,-1.299254213016467,0.2142647049212012,0.2383148968219757,-0.2498183250427246,-3.464412450790405,-0.3855140805244446,-0.663683295249939,-0.2014932632446289,1,0.0861445888876915,-0.6012795567512512,-0.0633663684129715,0.7918500900268555,-0.9413291811943054,-0.2126290053129196,-0.2620840072631836,0,0,0,-1,169182.656735,3,2,1561841366.603234,0,0,0,0,0,0,0,0,0,169180.228767,0,-0.4516602,75.19723,0,182478453,3,1,1,-30.76291,-33.62238,3
1561841366.505238,57,0,0,1561841365.998397,4.63444793131634,-74.15095877840569,2552.501,0.67,169.453125,4,30,-9999,1561841366.499507,-12.38740539550781,-22.30707168579102,13.64691162109375,131.5626525878906,139.0558624267578,15,169182.7997125417,-1.359619140625,-0.873260498046875,-0.535736083984375,169182.7997125417,0.09727488829234326,-0.1195647476679795,-3.942281889018149,169182.7743835417,-85.42167663574219,-48.04046630859375,-547.0548095703125,169182.7946465417,-0.01435250476398283,-1.297342910838117,0.2864232722360748,0.0811266154050827,-0.08428768813610077,-3.842344045639038,-0.4526787400245667,-0.6078273057937622,-0.2490463256835938,1,0.109439916908741,-0.5987443923950195,-0.09188060462474823,0.7880901098251343,-0.9236182570457458,-0.2825230360031128,-0.2590561211109161,0,0,0,-1,169182.656735,3,2,1561841366.603234,0,0,0,0,0,0,0,0,0,169180.228767,0,-0.4516602,75.19723,0,182478453,3,1,1,-30.76291,-34.42502,3
1561841366.525591,58,0,0,1561841365.998397,4.63444793131634,-74.15095877840569,2552.501,0.67,169.453125,4,30,-9999,1561841366.524204,-10.44228363037109,-23.0068473815918,13.89593505859375,133.0311431884766,140.5243530273438,15,169182.8199765417,-1.338958740234375,-0.88275146484375,-0.5532379150390625,169182.8199765417,0.3770479502884375,-0.3836070497371936,-4.427882415867089,169182.7944635417,-83.46939086914062,-48.83914184570312,-546.8281860351562,169182.8149105417,-0.03482954624774366,-1.294551411154397,0.3665778794533125,0.2817957997322083,-0.3077838718891144,-4.31210470199585,-0.4424875974655151,-0.5142579078674316,-0.2947233915328979,1,0.1350506991147995,-0.5953566431999207,-0.1235504448413849,0.7823344469070435,-0.8981648683547974,-0.3584227859973907,-0.2546235620975494,0,0,0,-1,169182.656735,3,2,1561841366.603234,0,0,0,0,0,0,0,0,0,169180.228767,0,-0.4516602,75.19723,0,182478453,3,1,1,-30.76291,-35.27861,3
1561841366.551654,59,0,0,1561841365.998397,4.63444793131634,-74.15095877840569,2552.501,0.67,169.453125,4,30,-9999,1561841366.550126,-5.897071838378906,-24.02938842773438,14.24786376953125,134.1863708496094,141.6795806884766,15,169182.8402405417,-1.4110107421875,-0.9112091064453125,-0.5850677490234375,169182.8402405417,0.708792600957428,-0.683922404801614,-4.804499200375043,169182.8145745417,-81.84346008300781,-49.47126770019531,-546.580078125,169182.8351745417,-0.05211884397262882,-1.297364122515788,0.4575334030304545,0.6394889950752258,-0.6429009437561035,-4.727263927459717,-0.4974666833877563,-0.4587455987930298,-0.3202523589134216,1,0.1653209328651428,-0.5929059982299805,-0.157180443406105,0.772286057472229,-0.8638156652450562,-0.4417365491390228,-0.2422629296779633,0,0,0,-1,169182.656735,3,2,1561841366.603234,0,0,0,0,0,0,0,0,0,169180.228767,0,-0.4516602,75.19723,0,182478453,3,1,1,-30.76291,-35.36678,3
1561841366.565974,60,0,0,1561841365.998397,4.63444793131634,-74.15095877840569,2552.501,0.67,169.453125,4,30,-9999,1561841366.550126,-5.897071838378906,-24.02938842773438,14.24786376953125,134.1863708496094,141.6795806884766,15,169182.8605035417,-1.473007202148438,-0.9175567626953125,-0.6278076171875,169182.8605035417,0.8240233202674125,-0.5997049953339293,-5.016562456920308,169182.8346555417,-79.30757141113281,-50.04591369628906,-546.3703002929688,169182.8554375417,-0.06553353907067944,-1.304888059676528,0.5566474268165952,0.81580650806427,-0.6711887717247009,-4.98231315612793,-0.6371685266494751,-0.3831562995910645,-0.3872230052947998,1,0.1990705281496048,-0.5906050205230713,-0.1917461305856705,0.7581490874290466,-0.8191913366317749,-0.5283427238464355,-0.2231132686138153,0,0,0,-1,169182.656735,3,2,1561841366.603234,0,0,0,0,0,0,0,0,0,169180.228767,0,-0.4516602,75.19723,0,182478453,3,1,1,-30.76291,-35.36678,3
1561841366.586233,61,0,0,1561841365.998397,4.63444793131634,-74.15095877840569,2552.501,0.67,169.453125,4,30,-9999,1561841366.575278,-3.422836303710938,-24.22552871704102,14.60028076171875,135.1296691894531,142.6228790283203,15,169182.8807675417,-1.49322509765625,-0.9264373779296875,-0.62957763671875,169182.8807675417,0.7053512641968276,-0.08736180376674131,-5.099810209435095,169182.8547665417,-76.73298645019531,-50.2764892578125,-545.8347778320312,169182.8757015417,-0.07879002300823337,-1.307189671502953,0.6594987619766338,0.7571559548377991,-0.2398112267255783,-5.079345226287842,-0.7223671078681946,-0.315715491771698,-0.4255917072296143,1,0.234213575720787,-0.584963321685791,-0.2263187170028687,0.7427932024002075,-0.7629997134208679,-0.612720787525177,-0.2059238255023956,0,0,0,-1,169182.656735,3,2,1561841366.603234,0,0,0,0,0,0,0,0,0,169180.228767,0,-0.4516602,75.19723,0,182478453,3,1,1,-30.76291,-35.44898,3
1561841366.607226,62,0,0,1561841365.998397,4.63444793131634,-74.15095877840569,2552.501,0.67,169.453125,4,30,-9999,1561841366.600849,-1.1417236328125,-24.35105514526367,15.19073486328125,136.4649810791016,143.9581909179688,15,169182.9010315417,-1.378753662109375,-0.885345458984375,-0.6070098876953125,169182.9010315417,0.5652831056124371,0.3468056255817157,-5.233212742127126,169182.8748775417,-74.45072937011719,-50.40536499023438,-545.4649658203125,169182.8959655417,-0.09851290956054658,-1.293610818492278,0.7632406810529833,0.5652219653129578,0.2655954957008362,-5.194548606872559,-0.7655231356620789,-0.2124502658843994,-0.431975781917572,1,0.2693019509315491,-0.5732424259185791,-0.2606307566165924,0.7286571264266968,-0.6950176358222961,-0.6912667751312256,-0.1977391541004181,0,0,0,-1,169182.656735,3,2,1561841366.603234,0,0,0,0,0,0,0,0,0,169180.228767,0,-0.4516602,75.19723,0,182478453,3,1,1,-30.76291,-35.67344,3
1561841366.633189,63,0,0,1561841365.998397,4.63444793131634,-74.15095877840569,2552.501,0.67,169.453125,4,30,-9999,1561841366.626825,1.336753845214844,-23.97933578491211,15.49847412109375,138.4503479003906,145.9435577392578,15,169182.9212945417,-1.141555786132812,-0.8578948974609375,-0.4566192626953125,169182.9212945417,0.8609557719485224,0.4726620913250073,-5.383958845102189,169182.8949585417,-71.80580139160156,-50.17218017578125,-544.9900512695312,169182.9161985417,-0.1257929820040787,-1.265952457594337,0.869197550731444,0.7475046515464783,0.4586094319820404,-5.363577365875244,-0.646587073802948,-0.1069773435592651,-0.349579393863678,1,0.3050808608531952,-0.5568331480026245,-0.2945433557033539,0.7142176032066345,-0.615680992603302,-0.7638112306594849,-0.1937250345945358,0,0,0,-1,169182.656735,3,2,1561841366.603234,0,0,0,0,0,0,0,0,0,169180.228767,0,-0.4516602,75.19723,0,182478453,3,1,1,-30.76291,-36.46349,3
1561841366.647046,64,0,0,1561841365.998397,4.63444793131634,-74.15095877840569,2552.501,0.67,169.453125,4,30,-9999,1561841366.626825,1.336753845214844,-23.97933578491211,15.49847412109375,138.4503479003906,145.9435577392578,15,169182.9415285417,-0.9168243408203125,-0.8056488037109375,-0.2504730224609375,169182.9415285417,1.192957151346597,0.4157354251279096,-5.335637917651574,169182.9150695417,-69.39839172363281,-49.79679870605469,-544.916015625,169182.9364625417,-0.1519015028252332,-1.235926420508125,0.9790448844277334,1.157168865203857,0.4293434321880341,-5.378905296325684,-0.5030003786087036,-0.006949067115783691,-0.1672466993331909,1,0.3433413207530975,-0.5389385223388672,-0.3262216448783875,0.6965927481651306,-0.5268306136131287,-0.8299649953842163,-0.183324009180069,0,0,0,-1,169182.656735,3,2,1561841366.603234,0,0,0,0,0,0,0,0,0,169180.228767,0,-0.4516602,75.19723,0,182478453,3,1,1,-30.76291,-30.76291,3
1561841366.667356,65,0,0,1561841365.998397,4.63444793131634,-74.15095877840569,2552.501,0.67,169.453125,4,30,-9999,1561841366.651373,5.910491943359375,-22.68326568603516,16.08837890625,140.3322296142578,147.825439453125,15,169182.9617915417,-0.6897125244140625,-0.7574005126953125,-0.150665283203125,169182.9617915417,0.9528452158845074,0.187910782303228,-5.024726643558055,169182.9351805417,-67.34310913085938,-49.34619140625,-544.5228271484375,169182.9567255417,-0.1808127154432259,-1.203600681754516,1.08736869590321,1.051878452301025,0.2639278173446655,-5.122701644897461,-0.3698952496051788,0.1004795432090759,-0.01500058174133301,1,0.380930095911026,-0.5210161209106445,-0.3553486466407776,0.676137387752533,-0.4338309764862061,-0.8854069113731384,-0.1668689250946045,0,0,0,-1,169182.656735,3,2,1561841366.603234,0,0,0,0,0,0,0,0,0,169180.228767,0,-0.4516602,75.19723,0,182478453,3,1,1,-28.69526,-28.69526,3
1561841366.68753,66,0,0,1561841365.998397,4.63444793131634,-74.15095877840569,2552.501,0.67,169.453125,4,30,-9999,1561841366.675768,7.855369567871094,-21.64450454711914,16.4429931640625,211.9164886474609,219.4096984863281,15,169182.9820555417,-0.463348388671875,-0.67315673828125,-0.0644073486328125,169182.9820555417,0.6504627151819675,-0.238963580400047,-4.701647386443964,169182.9552915417,-65.41763305664062,-48.16249084472656,-543.917236328125,169182.9769895417,-0.2338269483626207,-1.153834969870223,1.186534235357761,0.6869113445281982,-0.135492280125618,-4.774454116821289,-0.2313243448734283,0.211758553981781,0.03307443857192993,1,0.4126347005367279,-0.5038089156150818,-0.3839217126369476,0.654609203338623,-0.3427570760250092,-0.9270753264427185,-0.1518183648586273,0,0,0,-1,169182.656735,3,2,1561841366.603234,0,0,0,0,0,0,0,0,0,169180.228767,0,-0.4516602,75.19723,0,182478453,3,1,1,-28.69526,-28.69526,3
1561841366.713021,67,0,0,1561841365.998397,4.63444793131634,-74.15095877840569,2552.501,0.67,169.453125,4,30,-9999,1561841366.702097,9.771148681640625,-20.66738891601562,16.40478515625,211.9860076904297,219.4792175292969,15,169183.0023195417,-0.2794952392578125,-0.5777435302734375,0.052001953125,169183.0023195417,0.7950372086468811,-0.654411117814119,-4.466443124238673,169182.9753725417,-63.24299621582031,-47.11398315429688,-544.064453125,169182.9972535417,-0.3219144377240011,-1.077865058145126,1.277034037297778,0.7169560790061951,-0.5670706033706665,-4.518980503082275,-0.1103947758674622,0.3323596715927124,0.1364560127258301,1,0.4388685524463654,-0.4887576997280121,-0.4123756587505341,0.6312342286109924,-0.2550837695598602,-0.9571612477302551,-0.1370206028223038,0,0,0,-1,169182.656735,3,2,1561841366.603234,0,0,0,0,0,0,0,0,0,169180.228767,0,-0.4516602,75.19723,0,182478453,3,1,1,-26.90249,-29.9686,3
1561841366.728122,68,0,0,1561841365.998397,4.63444793131634,-74.15095877840569,2552.501,0.67,169.453125,4,30,-9999,1561841366.726957,11.77638626098633,-19.42729187011719,16.65386962890625,212.9208679199219,220.4140777587891,15,169183.0225825417,-0.0962677001953125,-0.4774169921875,0.0923919677734375,169183.0225825417,1.157802626009224,-1.279459020397351,-4.437386438849255,169182.9954835417,-61.56719970703125,-45.85841369628906,-543.8924560546875,169183.0175165417,-0.4497406822779662,-0.9700646679678083,1.363523668201868,1.062044501304626,-1.089522361755371,-4.428720951080322,-0.01894357800483704,0.4487191438674927,0.1981099247932434,1,0.4627210795879364,-0.4772083461284637,-0.4395741820335388,0.6040992140769958,-0.1697618961334229,-0.9785957932472229,-0.1163227930665016,0,0,0,-1,169182.656735,3,2,1561841366.603234,0,0,0,0,0,0,0,0,0,169180.228767,0,-0.4516602,75.19723,0,182478453,3,1,1,-26.90249,-29.9686,3
1561841366.748368,69,0,0,1561841365.998397,4.63444793131634,-74.15095877840569,2552.501,0.67,169.453125,4,30,-9999,1561841366.726957,11.77638626098633,-19.42729187011719,16.65386962890625,212.9208679199219,220.4140777587891,15,169183.0428465417,0.0413360595703125,-0.3450469970703125,0.092193603515625,169183.0428465417,1.493827775498298,-2.112291811234637,-4.281505761292519,169183.0155945417,-59.76359558105469,-44.76103210449219,-543.7884521484375,169183.0377805417,-0.686830233282017,-0.7663950091388131,1.448749013063411,1.417320609092712,-1.922796726226807,-4.365243911743164,0.0675126314163208,0.5760880708694458,0.1881090402603149,1,0.4844390749931335,-0.4706013798713684,-0.4671711921691895,0.5706173181533813,-0.0844346359372139,-0.9925614595413208,-0.08770624548196793,0,0,0,-1,169182.656735,3,2,1561841366.603234,0,0,0,0,0,0,0,0,0,169180.228767,0,-0.4516602,75.19723,0,182478453,3,1,1,-26.90249,-30.33373,3
1561841366.768597,70,0,0,1561841365.998397,4.63444793131634,-74.15095877840569,2552.501,0.67,169.453125,4,30,-9999,1561841366.752663,15.35643768310547,-16.22051620483398,16.50885009765625,215.2843322753906,222.7775421142578,15,169183.0631105417,0.126495361328125,-0.2131195068359375,0.024932861328125,169183.0631105417,1.721179707229491,-2.471890463744766,-3.722454452630867,169183.0356745417,-57.76435852050781,-42.85397338867188,-543.8973999023438,169183.0580135417,-1.431859725853317,-0.06917090016732512,1.516176864252751,1.676793932914734,-2.461825609207153,-3.898222208023071,0.08749812841415405,0.7247660756111145,0.1146266460418701,1,0.5019434690475464,-0.4699171483516693,-0.4942393600940704,0.5319380164146423,-0.003773153759539127,-0.9985087513923645,-0.05446125566959381,0,0,0,-1,169182.656735,3,2,1561841366.603234,0,0,0,0,0,0,0,0,0,169180.228767,0,-0.4516602,75.19723,0,182478453,3,1,1,-26.90249,-29.28038,3
1561841366.792126,71,0,0,1561841365.998397,4.63444793131634,-74.15095877840569,2552.501,0.67,169.453125,4,30,-9999,1561841366.777041,17.29703903198242,-14.34994888305664,16.0889892578125,218.7973022460938,226.2905120849609,15,169183.0833435417,0.1367950439453125,-0.09478759765625,-0.0213470458984375,169183.0833435417,1.716701601856523,-2.1448236555305,-2.812132728819982,169183.0557855417,-55.91725158691406,-41.01300048828125,-544.230224609375,169183.0782775417,-2.814845565716889,1.262820517811382,1.501941376462971,1.753357410430908,-2.282763242721558,-3.084262371063232,0.08804571628570557,0.8401291966438293,0.01907062530517578,1,0.5153518915176392,-0.4732699990272522,-0.5167138576507568,0.4933911263942719,0.06556449085474014,-0.9976304173469543,-0.02085587196052074,0,0,0,-1,169182.656735,3,2,1561841366.603234,0,0,0,0,0,0,0,0,0,169180.228767,0,-0.4516602,75.19723,0,182478453,3,1,1,-26.90249,-29.3952,3
1561841366.809173,72,0,0,1561841365.998397,4.63444793131634,-74.15095877840569,2552.501,0.67,169.453125,4,30,-9999,1561841366.803374,19.02705764770508,-12.61865997314453,15.79608154296875,221.9868774414062,229.4800872802734,15,169183.1036065417,-0.026031494140625,0.0321502685546875,-0.039642333984375,169183.1036065417,1.356690692009649,-1.33765787864718,-1.356689360429104,169183.0758965417,-53.86480712890625,-39.0322265625,-544.4813842773438,169183.0985405417,3.044805971609149,1.644806491049087,1.454936631230903,1.46668541431427,-1.587817907333374,-1.771501541137695,-0.05142560601234436,0.9661961793899536,-0.04049968719482422,1,0.5247568488121033,-0.4784392714500427,-0.531187117099762,0.4621323347091675,0.1152836382389069,-0.9932957887649536,0.008547773584723473,0,0,0,-1,169182.656735,3,2,1561841366.603234,0,0,0,0,0,0,0,0,0,169180.228767,0,-0.4516602,75.19723,0,182478453,3,1,1,-26.90249,-29.91787,3
1561841366.829454,73,0,0,1561841365.998397,4.63444793131634,-74.15095877840569,2552.501,0.67,169.453125,4,30,-9999,1561841366.827721,19.96791458129883,-11.51939010620117,15.570556640625,223.551025390625,231.0442352294922,15,169183.1238705417,-0.2296905517578125,0.0397491455078125,0.0308685302734375,169183.1238705417,0.8208072869350328,-0.07783194812200177,0.3666040977575827,169183.0959775417,-53.01332092285156,-37.68458557128906,-544.9407958984375,169183.1188045417,2.871166454088139,1.796030067194965,1.432784631829699,0.9807600378990173,-0.4058190882205963,-0.04200156778097153,-0.2498220801353455,1.040799736976624,-0.05594778060913086,1,0.5292915105819702,-0.4849876463413239,-0.5349184274673462,0.4455331563949585,0.1340994089841843,-0.990491509437561,0.03072504140436649,0,0,0,-1,169182.656735,3,2,1561841366.603234,0,0,0,0,0,0,0,0,0,169180.228767,0,-0.4516602,75.19723,0,182478453,3,1,1,-24.0036,-29.92439,3
1561841366.849617,74,0,0,1561841365.998397,4.63444793131634,-74.15095877840569,2552.501,0.67,169.453125,4,30,-9999,1561841366.827721,19.96791458129883,-11.51939010620117,15.570556640625,223.551025390625,231.0442352294922,15,169183.1441345417,-0.458770751953125,0.0084686279296875,0.1631317138671875,169183.1441345417,0.2145344037207501,0.6346882794132102,1.530974877963269,169183.1160885417,-52.46128845214844,-36.89599609375,-545.1715087890625,169183.1390685417,2.74728510083009,1.921476997620699,1.442431494183427,0.3165662884712219,0.5215939879417419,1.291751265525818,-0.453046053647995,1.017956614494324,0.05013918876647949,1,0.5295096039772034,-0.4915364384651184,-0.5279337763786316,0.4464273750782013,0.1202213689684868,-0.9917725324630737,0.04397698119282722,0,0,0,-1,169182.656735,3,2,1561841366.603234,0,0,0,0,0,0,0,0,0,169180.228767,0,-0.4516602,75.19723,0,182478453,3,1,1,-24.0036,-29.92439,3
1561841366.87122,75,0,0,1561841365.998397,4.63444793131634,-74.15095877840569,2552.501,0.67,169.453125,4,30,-9999,1561841366.853954,19.85029983520508,-10.89410400390625,16.046630859375,223.0975036621094,230.5907135009766,15,169183.1643975417,-0.6905517578125,-0.13739013671875,0.3042449951171875,169183.1643975417,0.4416056382730483,0.5508828609661607,2.465570782478008,169183.1361995417,-52.66011047363281,-37.03977966308594,-544.609375,169183.1593315417,2.577464386246238,2.103458387768472,1.472718700773755,0.2829545438289642,0.6489018201828003,2.213024377822876,-0.678242027759552,0.9537208676338196,0.1917128562927246,1,0.5251731872558594,-0.4990557134151459,-0.5153322815895081,0.4577872753143311,0.08435468375682831,-0.9951942563056946,0.04972696304321289,0,0,0,-1,169182.656735,3,2,1561841366.603234,0,0,0,0,0,0,0,0,0,169180.228767,0,-0.4516602,75.19723,0,182478453,3,1,1,-21.67406,-21.67406,3
1561841366.89091,76,0,0,1561841365.998397,4.63444793131634,-74.15095877840569,2552.501,0.67,169.453125,4,30,-9999,1561841366.878334,19.1141357421875,-11.68181228637695,15.9564208984375,222.3171234130859,229.8103332519531,15,169183.1846615417,-0.8329010009765625,-0.436004638671875,0.4019927978515625,169183.1846615417,1.423090754836377,-0.2425351457379523,3.143875515276209,169183.1562805417,-53.37567138671875,-37.39445495605469,-544.6658325195312,169183.1795955417,1.981131315140805,2.705309674123974,1.500013331107238,1.185293197631836,-0.01649026200175285,3.058483123779297,-0.7912697792053223,0.7323133945465088,0.2851426601409912,1,0.5165600776672363,-0.5149912238121033,-0.4972649812698364,0.4697631001472473,0.02988672628998756,-0.9974959492683411,0.06410054862499237,0,0,0,-1,169182.656735,3,2,1561841366.603234,0,0,0,0,0,0,0,0,0,169180.228767,0,-0.4516602,75.19723,0,182478453,3,1,1,-21.67406,-22.31389,3
1561841366.910483,77,0,0,1561841365.998397,4.63444793131634,-74.15095877840569,2552.501,0.67,169.453125,4,30,-9999,1561841366.904702,18.40621185302734,-12.00570678710938,16.32427978515625,222.7553863525391,230.2485961914062,15,169183.2049255417,-0.98101806640625,-0.8058929443359375,0.4420166015625,169183.2049255417,1.507522016139595,-0.9632619041722433,2.719829695966707,169183.1763915417,-54.12040710449219,-37.96046447753906,-544.488525390625,169183.1998285417,1.211587386717927,-2.819767458060114,1.470505324864469,1.644733428955078,-0.8263834118843079,2.92705249786377,-0.8910449743270874,0.380640983581543,0.3485126495361328,1,0.5052036643028259,-0.5406119227409363,-0.4766243100166321,0.4746971726417542,-0.03166920691728592,-0.9949750900268555,0.09498398751020432,0,0,0,-1,169182.656735,3,2,1561841366.603234,0,0,0,0,0,0,0,0,0,169180.228767,0,-0.4516602,75.19723,0,182478453,3,1,1,-21.67406,-23.24308,3
1561841366.930687,78,0,0,1561841365.998397,4.63444793131634,-74.15095877840569,2552.501,0.67,169.453125,4,30,-9999,1561841366.929029,18.16139602661133,-12.3693962097168,16.1888427734375,224.1962738037109,231.6894836425781,15,169183.2251585417,-0.9356231689453125,-1.19683837890625,0.2835693359375,169183.2251585417,0.3379471528477851,-1.13942867870044,1.709118250652522,169183.1965025417,-54.36854553222656,-38.69778442382812,-544.2802124023438,169183.2200925417,0.9321785883799258,-2.563594903544137,1.425844872621611,0.66487717628479,-1.16461706161499,1.960757613182068,-0.9047713279724121,-0.01170778274536133,0.2626557350158691,1,0.4923657178878784,-0.5639737248420715,-0.4631687700748444,0.4743251502513885,-0.078916996717453,-0.9895129203796387,0.1209807246923447,0,0,0,-1,169182.656735,3,2,1561841366.603234,0,0,0,0,0,0,0,0,0,169180.228767,0,-0.4516602,75.19723,0,182478453,3,1,1,-21.67406,-24.27158,3
1561841366.952234,79,0,0,1561841365.998397,4.63444793131634,-74.15095877840569,2552.501,0.67,169.453125,4,30,-9999,1561841366.929029,18.16139602661133,-12.3693962097168,16.1888427734375,224.1962738037109,231.6894836425781,15,169183.2454225417,-0.748138427734375,-1.490005493164062,0.101470947265625,169183.2454225417,-0.8249479697978881,-0.7458771191367815,0.7161652961192034,169183.2165825417,-54.51025390625,-39.21080017089844,-544.5062866210938,169183.2403565417,0.7803522764567338,-2.435235004135373,1.407552144670172,-0.5608946681022644,-0.8926582932472229,0.9695271849632263,-0.7455414533615112,-0.3933454751968384,0.05948615074157715,1,0.4790820181369781,-0.5764527320861816,-0.461228221654892,0.4748171269893646,-0.1054869666695595,-0.9867052435874939,0.1236346662044525,0,0,0,-1,169182.656735,3,2,1561841366.603234,0,0,0,0,0,0,0,0,0,169180.228767,0,-0.4516602,75.19723,0,182478453,3,1,1,-21.67406,-25.33379,3
1561841366.971243,80,0,0,1561841365.998397,4.63444793131634,-74.15095877840569,2552.501,0.67,169.453125,4,30,-9999,1561841366.955214,18.03904342651367,-13.52493286132812,15.6993408203125,225.6246185302734,233.1178283691406,15,169183.2656855417,-0.5891265869140625,-1.192916870117188,0.0460205078125,169183.2656855417,-1.651856825106401,0.07931133410754078,-0.320805183859272,169183.2366945417,-54.35319519042969,-39.53755187988281,-544.538818359375,169183.2606195417,0.645608458205144,-2.313264760819673,1.416907261638824,-1.505972743034363,-0.1303864717483521,-0.09799213707447052,-0.5592269897460938,-0.4394146203994751,-0.04824542999267578,1,0.4688433110713959,-0.5761973261833191,-0.4679427146911621,0.4787609577178955,-0.1129379421472549,-0.9881824254989624,0.1036348193883896,0,0,0,-1,169182.656735,3,2,1561841366.603234,0,0,0,0,0,0,0,0,0,169180.228767,0,-0.4516602,75.19723,0,182478453,3,1,1,-21.67406,-26.37126,3
1561841366.991612,81,0,0,1561841365.998397,4.63444793131634,-74.15095877840569,2552.501,0.67,169.453125,4,30,-9999,1561841366.979676,18.37037658691406,-14.16513061523438,15.1611328125,226.0089874267578,233.502197265625,15,169183.2859495417,-0.303253173828125,-0.6891021728515625,0.0383148193359375,169183.2859495417,-1.248628403405831,0.4796560849797734,-0.7923711180796028,169183.2567745417,-54.22683715820312,-39.98248291015625,-545.18408203125,169183.2808835417,0.5012019331002074,-2.16615279400991,1.445375330085131,-1.533111691474915,0.4327850341796875,-0.75798100233078,-0.3539955914020538,0.07280302047729492,-0.02739691734313965,1,0.4645711183547974,-0.5650218725204468,-0.478874146938324,0.4853900074958801,-0.1035697460174561,-0.9921451210975647,0.07015208154916763,0,0,0,-1,169182.656735,3,2,1561841366.603234,0,0,0,0,0,0,0,0,0,169180.228767,0,-0.4516602,75.19723,0,182478453,3,1,1,-21.67406,-27.18716,3
1561841367.012185,82,0,0,1561841365.998397,4.63444793131634,-74.15095877840569,2552.501,0.67,169.453125,4,30,-9999,1561841367.006208,18.34598541259766,-14.23052597045898,14.92474365234375,225.5350799560547,233.0282897949219,15,169183.3062135417,-0.0219573974609375,-0.569580078125,0.0974884033203125,169183.3062135417,0.5493944202329154,0.3138652523746346,-0.4561318504388855,169183.2969665417,-54.2667236328125,-40.37130737304688,-545.351318359375,169183.3011475417,0.449855928795855,-2.106054155178299,1.466822198788782,0.07986588031053543,0.3766565024852753,-0.5917528867721558,-0.05936571955680847,0.4143078327178955,0.01485741138458252,1,0.4669471979141235,-0.5553638339042664,-0.4850052893161774,0.4881609380245209,-0.08927013725042343,-0.9945995807647705,0.0529373474419117,0,0,0,-1,169182.656735,3,2,1561841366.603234,0,0,0,0,0,0,0,0,0,169180.228767,0,-0.4516602,75.19723,0,182478453,3,1,1,-21.67406,-27.18716,3
1561841367.033264,83,0,0,1561841365.998397,4.63444793131634,-74.15095877840569,2552.501,0.67,169.453125,4,30,-9999,1561841367.030396,18.33063888549805,-14.23985290527344,15.080078125,225.0427856445312,232.5359954833984,15,169183.3264765417,0.0608673095703125,-0.5804595947265625,0.1558685302734375,169183.3264765417,1.626023363584306,0.1621076808175593,0.1666883178924956,169183.3170775417,-54.50959777832031,-39.92416381835938,-545.20458984375,169183.3213805417,0.6216938474374009,-2.271548172825511,1.461515687486458,1.489003300666809,0.1861184984445572,-0.002493837848305702,0.1268505454063416,0.4177713990211487,0.05969727039337158,1,0.4743509292602539,-0.5569134950637817,-0.4802738428115845,0.4839168787002563,-0.08336299657821655,-0.9940348267555237,0.07032289355993271,0,0,0,-1,169182.656735,3,2,1561841366.603234,0,0,0,0,0,0,0,0,0,169180.228767,0,-0.4516602,75.19723,0,182478453,3,1,1,-21.67406,-28.17183,3
1561841367.052221,84,0,0,1561841366.998383,4.634434436452234,-74.15095098323575,2552.512,-1,-1,4,30,-9999,1561841367.030396,18.33063888549805,-14.23985290527344,15.080078125,225.0427856445312,232.5359954833984,15,169183.3467095417,-0.01568603515625,-0.7416839599609375,0.198638916015625,169183.3467095417,1.574819031621461,0.201253485680634,0.6475793106697387,169183.3371885417,-54.486083984375,-39.70668029785156,-544.6339721679688,169183.3416445417,0.7796644999672693,-2.425176280533995,1.433473301461607,1.66174304485321,0.1706663072109222,0.5788819193840027,0.1281022727489471,0.3543555736541748,0.06555461883544922,1,0.4813772439956665,-0.5655925869941711,-0.4686160385608673,0.4783093631267548,-0.08989426493644714,-0.99058598279953,0.1032380536198616,0,0,0,-1,169182.656735,3,2,1561841366.603234,0,0,0,0,0,0,0,0,0,169180.228767,0,-0.4516602,75.19723,0,182478453,3,1,1,-21.67406,-29.07049,3
1561841367.073863,85,0,0,1561841366.998383,4.634434436452234,-74.15095098323575,2552.512,-1,-1,4,30,-9999,1561841367.056982,18.05551910400391,-13.34642028808594,15.65765380859375,224.5787200927734,232.0719299316406,15,169183.3669735417,-0.145263671875,-0.93841552734375,0.269317626953125,169183.3669735417,0.9657008270985379,0.3427341849072025,0.4857440712316946,169183.3572995417,-54.50602722167969,-39.20086669921875,-544.505859375,169183.3619075417,0.8368804084062431,-2.476811101805095,1.403039348943839,1.132665157318115,0.321725070476532,0.5648859143257141,0.01601186394691467,0.1343230009078979,0.1056153774261475,1,0.4858165085315704,-0.5741860866546631,-0.4561416506767273,0.4756336808204651,-0.1030021980404854,-0.9859617948532104,0.1314146816730499,0,0,0,-1,169182.656735,3,2,1561841366.603234,0,0,0,0,0,0,0,0,0,169180.228767,0,-0.4516602,75.19723,0,182478453,3,1,1,-21.67406,-30.07295,3
1561841367.092723,86,0,0,1561841366.998383,4.634434436452234,-74.15095098323575,2552.512,-1,-1,4,30,-9999,1561841367.080906,17.84577560424805,-13.15751266479492,16.26220703125,223.9600219726562,231.4532318115234,15,169183.3872375417,-0.1764068603515625,-1.023956298828125,0.29266357421875,169183.3872375417,0.5307887779092948,0.2375086954965367,0.2183645620005021,169183.3773805417,-55.07939147949219,-39.16415405273438,-543.9395141601562,169183.3821715417,0.8595444206047282,-2.492559953652318,1.38481472938514,0.5949201583862305,0.281597375869751,0.238646611571312,-0.0656048059463501,-0.01700061559677124,0.1356611251831055,1,0.4890120625495911,-0.578380286693573,-0.4477876126766205,0.4752154350280762,-0.1117633879184723,-0.9827552437782288,0.1473131030797958,0,0,0,-1,169182.656735,3,2,1561841366.603234,0,0,0,0,0,0,0,0,0,169180.228767,0,-0.4516602,75.19723,0,182478453,3,1,1,-21.67406,-30.93666,3
1561841367.113496,87,0,0,1561841366.998383,4.634434436452234,-74.15095098323575,2552.512,-1,-1,4,30,-9999,1561841367.107377,17.72281646728516,-13.00580596923828,16.598388671875,223.5711517333984,231.0643615722656,15,169183.4075005417,-0.1091156005859375,-1.007568359375,0.2458038330078125,169183.4075005417,0.3213942750923976,0.005336708508409786,0.3342315104949065,169183.3974915417,-54.97297668457031,-39.1246337890625,-543.9600830078125,169183.4024355417,0.8701846529949301,-2.499572488582753,1.37422852695817,0.3727616667747498,0.0503540150821209,0.2819725275039673,-0.03572821617126465,-0.0348670482635498,0.1241463422775269,1,0.4906968772411346,-0.5808830261230469,-0.4430142045021057,0.4748999178409576,-0.1169512271881104,-0.9807426929473877,0.1564170271158218,0,0,0,-1,169182.656735,3,2,1561841366.603234,0,0,0,0,0,0,0,0,0,169180.228767,0,-0.4516602,75.19723,0,182478453,3,1,1,-21.67406,-31.95671,3
1561841367.133302,88,0,0,1561841366.998383,4.634434436452234,-74.15095098323575,2552.512,-1,-1,4,30,-9999,1561841367.131562,17.60372924804688,-12.78814315795898,16.625,223.5272521972656,231.0204620361328,15,169183.4277645417,-0.110870361328125,-1.04559326171875,0.1982421875,169183.4277645417,0.08148234302817338,0.05486857530668453,0.4984454854186094,169183.4176025417,-54.95925903320312,-39.15817260742188,-543.7442016601562,169183.4226985417,0.8557051925584697,-2.485521838611168,1.365302680804957,0.1491133868694305,-0.001156046986579895,0.4718122184276581,0.03264525532722473,-0.04466021060943604,0.05338370800018311,1,0.4896986484527588,-0.5839860439300537,-0.4396573603153229,0.4752441644668579,-0.1244726851582527,-0.978960394859314,0.1616889387369156,0,0,0,-1,169182.656735,3,2,1561841366.603234,0,0,0,0,0,0,0,0,0,169180.228767,0,-0.4516602,75.19723,0,182478453,1,1,1,-21.67406,-32.82116,3
1561841367.153536,89,0,0,1561841366.998383,4.634434436452234,-74.15095098323575,2552.512,-1,-1,4,30,-9999,1561841367.131562,17.60372924804688,-12.78814315795898,16.625,223.5272521972656,231.0204620361328,15,169183.4480285417,-0.1884002685546875,-1.03662109375,0.2088165283203125,169183.4480285417,-0.1726167807951209,0.2956814547676825,0.3281685579572322,169183.4377135417,-55.01188659667969,-39.14837646484375,-543.5491333007812,169183.4429625417,0.8206187752470514,-2.448808248561865,1.359313400421656,-0.1286223530769348,0.2477070242166519,0.3878456950187683,-0.01997125148773193,-0.06903219223022461,0.03522682189941406,1,0.4875033497810364,-0.5857478380203247,-0.4367897510528564,0.4779694378376007,-0.1340661942958832,-0.9777207374572754,0.1615200936794281,0,0,0,-1,169182.656735,3,2,1561841366.603234,0,0,0,0,0,0,0,0,0,169180.228767,0,-0.4516602,75.19723,0,182478453,1,1,1,-21.67406,-33.76858,3
1561841367.173896,90,0,0,1561841366.998383,4.634434436452234,-74.15095098323575,2552.512,-1,-1,4,30,-9999,1561841367.157959,17.59286499023438,-13.15732574462891,16.77490234375,223.2641448974609,230.7573547363281,15,169183.4682915417,-0.1791534423828125,-1.022369384765625,0.209686279296875,169183.4682915417,-0.1407067846137915,0.2288254587623333,0.1710745442078561,169183.4577935417,-55.24179077148438,-39.32608032226562,-543.6738891601562,169183.4631955417,0.7891370913756951,-2.412186907559744,1.358407530107444,-0.1755267530679703,0.2677638530731201,0.1928018927574158,-0.0538259744644165,-0.05379617214202881,0.05734539031982422,1,0.4862634539604187,-0.5849180817604065,-0.43508580327034,0.481787234544754,-0.1404794752597809,-0.9775301814079285,0.1571626216173172,0,0,0,-1,169182.656735,3,2,1561841366.603234,0,0,0,0,0,0,0,0,0,169180.228767,0,-0.4516602,75.19723,0,182478453,1,1,1,-21.67406,-33.76858,3
1561841367.194114,91,0,0,1561841366.998383,4.634434436452234,-74.15095098323575,2552.512,-1,-1,4,30,-9999,1561841367.18219,17.40612411499023,-13.111572265625,16.7017822265625,222.9456481933594,230.4388580322266,15,169183.4885255417,-0.1450958251953125,-1.016250610351562,0.1922149658203125,169183.4885255417,0.08774183685429562,0.06587542009198202,0.1376153872204275,169183.4779045417,-55.01496887207031,-39.09843444824219,-543.7438354492188,169183.4834595417,0.7727227100699071,-2.39267399640692,1.357527130215047,0.03138063475489616,0.07993534207344055,0.1362661719322205,-0.009962618350982666,-0.03831130266189575,0.04752302169799805,1,0.4856878221035004,-0.5844813585281372,-0.4339736700057983,0.4838963747024536,-0.1441053748130798,-0.9773442149162292,0.1550222337245941,0,0,0,-1,169182.656735,3,2,1561841366.603234,0,0,0,0,0,0,0,0,0,169180.228767,0,-0.4516602,75.19723,0,182478453,1,1,1,-21.67406,-34.75084,3
1561841367.214268,92,0,0,1561841366.998383,4.634434436452234,-74.15095098323575,2552.512,-1,-1,4,30,-9999,1561841367.208565,17.315673828125,-13.00845336914062,16.966552734375,222.8217620849609,230.3149719238281,15,169183.5087885417,-0.1719818115234375,-0.9841766357421875,0.187530517578125,169183.5087885417,0.1850902283927251,0.08807393304222851,0.1303007489704159,169183.4979855417,-55.18778991699219,-39.46298217773438,-543.6907348632812,169183.5037225417,0.7712666650557302,-2.389965333944838,1.353955874494273,0.1764219701290131,0.07069364190101624,0.1282639056444168,-0.007740974426269531,-0.0282396674156189,0.03088462352752686,1,0.4857687950134277,-0.5853363871574402,-0.4323149919509888,0.484266072511673,-0.1469068378210068,-0.9765821099281311,0.1571800112724304,0,0,0,-1,169182.656735,3,2,1561841366.603234,0,0,0,0,0,0,0,0,0,169180.228767,0,-0.4516602,75.19723,0,182478453,1,1,1,-21.67406,-35.5002,3
1561841367.234556,93,0,0,1561841366.998383,4.634434436452234,-74.15095098323575,2552.512,-1,-1,4,30,-9999,1561841367.23298,17.34528350830078,-13.19981384277344,16.8037109375,222.6375732421875,230.1307830810547,15,169183.5290525417,-0.1560516357421875,-0.9684600830078125,0.1826171875,169183.5290525417,0.1597073737270708,0.1444911365227941,0.1236553631023412,169183.5180965417,-55.45079040527344,-39.18013000488281,-543.39404296875,169183.5239865417,0.774221778213019,-2.390899774212016,1.349625476884879,0.1649413555860519,0.1266535818576813,0.1154423803091049,-0.01980531215667725,0.001886367797851562,0.02042365074157715,1,0.4863337576389313,-0.5862453579902649,-0.430183470249176,0.4844976663589478,-0.1496435254812241,-0.9756412506103516,0.1604082882404327,0,0,0,-1,169182.656735,3,2,1561841366.603234,0,0,0,0,0,0,0,0,0,169180.228767,0,-0.4516602,75.19723,0,182478453,1,1,1,-21.67406,-36.29521,3
1561841367.254802,94,0,0,1561841366.998383,4.634434436452234,-74.15095098323575,2552.512,-1,-1,4,30,-9999,1561841367.23298,17.34528350830078,-13.19981384277344,16.8037109375,222.6375732421875,230.1307830810547,15,169183.5493165417,-0.140625,-0.969696044921875,0.1915435791015625,169183.5493165417,0.2243249828362084,0.1224095363444021,0.1568862871843499,169183.5382075417,-55.55389404296875,-39.11778259277344,-543.4453125,169183.5442505417,0.7761508039025846,-2.390003824509164,1.345309917776512,0.196001261472702,0.1292701363563538,0.1459957659244537,0.003003031015396118,0.009155035018920898,0.02685129642486572,1,0.4869924187660217,-0.5869523882865906,-0.4278586208820343,0.485038548707962,-0.1526612639427185,-0.9746854901313782,0.163349449634552,0,0,0,-1,169182.656735,3,2,1561841366.603234,0,0,0,0,0,0,0,0,0,169180.228767,0,-0.4516602,75.19723,0,182478453,1,1,1,-21.67406,-37.13521,3
1561841367.275248,95,0,0,1561841366.998383,4.634434436452234,-74.15095098323575,2552.512,-1,-1,4,30,-9999,1561841367.259117,16.99514007568359,-13.22605895996094,17.0146484375,222.4055938720703,229.8988037109375,15,169183.5695795417,-0.138092041015625,-0.994659423828125,0.200103759765625,169183.5493165417,0.2243249828362084,0.1224095363444021,0.1568862871843499,169183.5582885417,-55.58575439453125,-39.15866088867188,-543.512939453125,169183.5645135417,0.781713506726249,-2.393387844425616,1.339509654800137,0.304474413394928,0.07241939753293991,0.1407685428857803,0.02261939644813538,-0.006791353225708008,0.02532351016998291,1,0.4877730309963226,-0.5882857441902161,-0.4251286089420319,0.4850391745567322,-0.1559507250785828,-0.9733722805976868,0.1680052876472473,0,0,0,-1,169182.656735,3,2,1561841366.603234,0,0,0,0,0,0,0,0,0,169180.228767,0,-0.4516602,75.19723,0,182478453,1,1,1,-21.67406,-37.76095,3
1561841367.295335,96,0,0,1561841366.998383,4.634434436452234,-74.15095098323575,2552.512,-1,-1,4,30,-9999,1561841367.2835,16.91432571411133,-13.02370071411133,17.05621337890625,222.2285614013672,229.7217712402344,15,169183.5898435417,-0.163482666015625,-0.9974517822265625,0.2052154541015625,169183.5898435417,0.2560208608658955,0.09607859633067967,0.1073770572553408,169183.5783995417,-55.56036376953125,-39.15931701660156,-543.302734375,169183.5847775417,0.7922365841643764,-2.402341994062464,1.332942697666981,0.2948484420776367,0.07263670861721039,0.1151739805936813,0.006643831729888916,-0.03222817182540894,0.02981877326965332,1,0.4888375401496887,-0.5899960398674011,-0.4222631752490997,0.4843927621841431,-0.1587434411048889,-0.9718459248542786,0.1741149425506592,0,0,0,-1,169182.656735,3,2,1561841366.603234,0,0,0,0,0,0,0,0,0,169181.171152,0,-0.4438477,75.19716,0,182478453,1,1,1,-21.67406,-38.72015,3
1561841367.31558,97,0,0,1561841366.998383,4.634434436452234,-74.15095098323575,2552.512,-1,-1,4,30,-9999,1561841367.309784,16.65165328979492,-12.941162109375,17.25164794921875,222.033447265625,229.5266571044922,15,169183.6101075417,-0.15570068359375,-0.971466064453125,0.21075439453125,169183.6101075417,0.1057887479812176,0.1211440021943964,0.1228566810914264,169183.5985105417,-55.89578247070312,-38.8787841796875,-543.1045532226562,169183.6050105417,0.797919122794658,-2.405717233658483,1.328356663822515,0.1324288845062256,0.1247755438089371,0.1065192371606827,-0.001743108034133911,-0.01250594854354858,0.03144526481628418,1,0.4897160828113556,-0.5908923149108887,-0.4199637174606323,0.4844118058681488,-0.1611444503068924,-0.9707551598548889,0.1779511421918869,0,0,0,-1,169182.656735,3,2,1561841366.603234,0,0,0,0,0,0,0,0,0,169181.171152,0,-0.4438477,75.19716,0,182478453,1,1,1,-21.67406,-39.59116,3
1561841367.335843,98,0,0,1561841366.998383,4.634434436452234,-74.15095098323575,2552.512,-1,-1,4,30,-9999,1561841367.334161,16.8894157409668,-12.70329284667969,17.4654541015625,221.8762664794922,229.3694763183594,15,169183.6303405417,-0.14892578125,-0.9706878662109375,0.2117919921875,169183.6303405417,0.09482424745725235,0.06328256645468087,0.1525168387838569,169183.6185915417,-55.92649841308594,-39.13618469238281,-543.2144775390625,169183.6252745417,0.7951420357851458,-2.401057395456377,1.325109387304132,0.08376574516296387,0.06654686480760574,0.1528752744197845,0.01451638340950012,0.003539800643920898,0.03209960460662842,1,0.4898078739643097,-0.591481626033783,-0.4182558953762054,0.4850770533084869,-0.1640982627868652,-0.9699704647064209,0.1795245409011841,0,0,0,-1,169182.656735,3,2,1561841366.603234,0,0,0,0,0,0,0,0,0,169181.171152,0,-0.4438477,75.19716,0,182478453,1,1,1,-21.67406,-39.59116,3
1561841367.357227,99,0,0,1561841366.998383,4.634434436452234,-74.15095098323575,2552.512,-1,-1,4,30,-9999,1561841367.334161,16.8894157409668,-12.70329284667969,17.4654541015625,221.8762664794922,229.3694763183594,15,169183.6506035417,-0.1661529541015625,-0.9872283935546875,0.2204742431640625,169183.6506035417,0.0833481536878829,0.055892827061929,0.07127817499542577,169183.6387025417,-55.82316589355469,-38.80888366699219,-543.2105712890625,169183.6455385417,0.7927859645547274,-2.397689349921476,1.321944731212409,0.09332063049077988,0.04451559484004974,0.09047769010066986,0.01199504733085632,-0.0128445029258728,0.0359339714050293,1,0.4897466003894806,-0.5922523140907288,-0.4167934060096741,0.4854573607444763,-0.1667801886796951,-0.9691959023475647,0.1812290698289871,0,0,0,-1,169182.656735,3,2,1561841366.603234,0,0,0,0,0,0,0,0,0,169181.171152,0,-0.4438477,75.19716,0,182478453,1,1,1,-21.67406,-40.18632,3
1561841367.376472,100,0,0,1561841366.998383,4.634434436452234,-74.15095098323575,2552.512,-1,-1,4,30,-9999,1561841367.360378,16.63820648193359,-12.78107833862305,17.6578369140625,221.7805480957031,229.2737579345703,15,169183.6708675417,-0.1676483154296875,-0.980621337890625,0.2204742431640625,169183.6708675417,-0.005423793876055376,0.06281464905115396,0.04374348616898752,169183.6588135417,-55.77513122558594,-38.88838195800781,-542.959228515625,169183.6658015417,0.7930597739545275,-2.396853121478026,1.320313647525619,0.01837714575231075,0.06091294437646866,0.0358104482293129,-0.00489509105682373,-0.01918315887451172,0.04162609577178955,1,0.4899657964706421,-0.5925022959709167,-0.4158987402915955,0.4856981635093689,-0.1680022329092026,-0.9687929153442383,0.182250902056694,0,0,0,-1,169182.656735,3,2,1561841366.603234,0,0,0,0,0,0,0,0,0,169181.171152,0,-0.4438477,75.19716,0,182478453,1,1,1,-21.67406,-40.6373,3
1561841367.396607,101,0,0,1561841366.998383,4.634434436452234,-74.15095098323575,2552.512,-1,-1,4,30,-9999,1561841367.384848,16.66117095947266,-12.86297988891602,17.65106201171875,221.6950531005859,229.1882629394531,15,169183.6911315417,-0.1501617431640625,-0.9587554931640625,0.212066650390625,169183.6911315417,-0.03574761131213362,0.07315596988004064,0.09152379191831715,169183.6789245417,-55.93975830078125,-39.07337951660156,-543.0756225585938,169183.6860655417,0.7888644006525178,-2.391625663535955,1.319965490699194,-0.04799708351492882,0.06185091286897659,0.07180440425872803,0.009789645671844482,0.0009330511093139648,0.03189873695373535,1,0.4898015260696411,-0.5923708081245422,-0.4155045449733734,0.4863612949848175,-0.1691829413175583,-0.9687065482139587,0.1816174238920212,0,0,0,-1,169182.656735,3,2,1561841366.603234,0,0,0,0,0,0,0,0,0,169181.171152,0,-0.4438477,75.19716,0,182478453,1,1,1,-21.67406,-41.40967,3
1561841367.416868,102,0,0,1561841366.998383,4.634434436452234,-74.15095098323575,2552.512,-1,-1,4,30,-9999,1561841367.411105,16.73187255859375,-12.99531936645508,17.31134033203125,221.6141815185547,229.1073913574219,15,169183.7113945417,-0.147064208984375,-0.956085205078125,0.2103118896484375,169183.7113945417,0.08019550358944709,0.04333655515442341,0.1609830278892188,169183.6990045417,-56.05937194824219,-39.42146301269531,-543.1622314453125,169183.7063295417,0.7821702102399539,-2.383948243677221,1.318613184522884,0.04454616457223892,0.04494116827845573,0.143369123339653,0.02713915705680847,0.01031643152236938,0.03026819229125977,1,0.4893777966499329,-0.5925719738006592,-0.4147372245788574,0.4871968924999237,-0.1714720726013184,-0.9683700203895569,0.181264340877533,0,0,0,-1,169182.656735,3,2,1561841366.603234,0,0,0,0,0,0,0,0,0,169181.171152,0,-0.4438477,75.19716,0,182478453,1,1,1,-21.67406,-42.31543,3
1561841367.437167,103,0,0,1561841366.998383,4.634434436452234,-74.15095098323575,2552.512,-1,-1,4,30,-9999,1561841367.435454,16.64234924316406,-12.87749099731445,17.6878662109375,221.5668182373047,229.0600280761719,15,169183.7316585417,-0.164276123046875,-0.9679107666015625,0.210723876953125,169183.7316585417,0.1254599210569789,-0.01353338571145567,0.1939473695461106,169183.7191155417,-56.19683837890625,-38.957763671875,-542.7811279296875,169183.7265625417,0.7778335505352814,-2.379341797066424,1.31480337765801,0.128323882818222,-0.01078521087765694,0.191022664308548,0.0195939838886261,0.01007592678070068,0.03091013431549072,1,0.4889397025108337,-0.5937238931655884,-0.4132085740566254,0.4875332713127136,-0.1748521476984024,-0.9674123525619507,0.1831401884555817,0,0,0,-1,169182.656735,3,2,1561841366.603234,0,0,0,0,0,0,0,0,0,169181.171152,0,-0.4438477,75.19716,0,182478453,1,1,1,-21.67406,-43.08242,3
1561841367.457441,104,0,0,1561841366.998383,4.634434436452234,-74.15095098323575,2552.512,-1,-1,4,30,-9999,1561841367.435454,16.64234924316406,-12.87749099731445,17.6878662109375,221.5668182373047,229.0600280761719,15,169183.7518982917,-0.1959686279296875,-0.9964141845703125,0.209686279296875,169183.7518982917,0.01654968196207941,0.05482516578091624,0.1240638920135593,169183.7392342917,-56.3074951171875,-39.09159851074219,-542.9794921875,169183.7468322917,0.7734720909624264,-2.37533583413859,1.310802505099337,0.0480322428047657,0.01876335963606834,0.1459955275058746,-0.0002461671829223633,-0.01786136627197266,0.02212667465209961,1,0.4883510172367096,-0.5950846672058105,-0.411760002374649,0.4876896142959595,-0.1782663911581039,-0.9663915634155273,0.1852249503135681,0,0,0,-1,169182.656735,3,2,1561841366.603234,0,0,0,0,0,0,0,0,0,169181.171152,0,-0.4438477,75.19716,0,182478453,1,1,1,-21.67406,-43.50595,3
1561841367.478294,105,0,0,1561841366.998383,4.634434436452234,-74.15095098323575,2552.512,-1,-1,4,30,-9999,1561841367.461715,16.31219863891602,-13.11851119995117,17.518798828125,221.5345611572266,229.0277709960938,15,169183.7721622917,-0.191864013671875,-1.007171630859375,0.21527099609375,169183.7721622917,-0.07409899522203769,0.1113251935713833,0.05713812118765006,169183.7593142917,-56.19313049316406,-39.22828674316406,-543.0706787109375,169183.7670962917,0.7671429799212441,-2.367809464745389,1.309630189723377,-0.07001715898513794,0.1061302274465561,0.06176907569169998,-0.02055680751800537,-0.03534483909606934,0.02911770343780518,1,0.4879783987998962,-0.595164954662323,-0.4110179841518402,0.4885897934436798,-0.1804472506046295,-0.9660895466804504,0.1846884787082672,0,0,0,-1,169182.656735,3,2,1561841366.603234,0,0,0,0,0,0,0,0,0,169181.171152,0,-0.4438477,75.19716,0,182478453,1,1,1,-21.67406,-44.29521,3
1561841367.497889,106,0,0,1561841366.998383,4.634434436452234,-74.15095098323575,2552.512,-1,-1,4,30,-9999,1561841367.486098,16.3223762512207,-13.03837966918945,17.642822265625,221.4097442626953,228.9029541015625,15,169183.7924262917,-0.178070068359375,-1.006072998046875,0.223907470703125,169183.7924262917,0.005639243608242787,0.0572236086586416,0.06199439543540955,169183.7794252917,-56.10032653808594,-39.237060546875,-542.9677124023438,169183.7873602917,0.7612334156613484,-2.360145806537922,1.309719514966666,-0.02116307243704796,0.07445911318063736,0.05421262606978416,0.00180402398109436,-0.04350042343139648,0.03433597087860107,1,0.4877977669239044,-0.5947040319442749,-0.4106279313564301,0.4896582663059235,-0.1817967146635056,-0.9661126136779785,0.1832390874624252,0,0,0,-1,169182.656735,3,2,1561841366.603234,0,0,0,0,0,0,0,0,0,169181.171152,0,-0.4438477,75.19716,0,182478453,1,1,1,-21.67406,-44.29521,3
1561841367.518185,107,0,0,1561841366.998383,4.634434436452234,-74.15095098323575,2552.512,-1,-1,4,30,-9999,1561841367.512493,16.54087829589844,-13.03910064697266,17.516845703125,221.3406372070312,228.8338470458984,15,169183.8126892917,-0.1928863525390625,-1.003143310546875,0.22320556640625,169183.8126892917,0.03895512252902505,0.01141137895488053,0.04199698512611356,169183.7995362917,-56.05255126953125,-39.23770141601562,-542.9476318359375,169183.8076232917,0.7593688470733929,-2.357642480841442,1.308646428503117,0.04240445047616959,0.01102980691939592,0.04955422133207321,-0.001095682382583618,-0.0380253791809082,0.0409703254699707,1,0.4877181649208069,-0.5948861241340637,-0.4100626409053802,0.489989846944809,-0.182986319065094,-0.9658350348472595,0.1835170239210129,0,0,0,-1,169182.656735,3,2,1561841366.603234,0,0,0,0,0,0,0,0,0,169181.171152,0,-0.4438477,75.19716,0,182478453,1,1,1,-21.67406,-45.12022,3
1561841367.538944,108,0,0,1561841366.998383,4.634434436452234,-74.15095098323575,2552.512,-1,-1,4,30,-9999,1561841367.536757,16.41408538818359,-13.05967330932617,17.70343017578125,221.3254089355469,228.8186187744141,15,169183.8329532917,-0.2020111083984375,-0.990814208984375,0.2171173095703125,169183.8329532917,-0.02585849523634238,0.01473846610471652,0.009810552823633897,169183.8196472917,-56.25065612792969,-39.26612854003906,-542.6456298828125,169183.8278872917,0.7589410490621226,-2.357059379323159,1.307929877341904,-0.01494911871850491,0.01005588844418526,0.01457732915878296,-0.01408001780509949,-0.03027677536010742,0.03607058525085449,1,0.4876841306686401,-0.5950750112533569,-0.4097503125667572,0.4900556802749634,-0.1835823357105255,-0.9656491279602051,0.1839001625776291,0,0,0,-1,169182.656735,3,2,1561841366.603234,0,0,0,0,0,0,0,0,0,169181.171152,0,-0.4438477,75.19716,0,182478453,1,1,1,-21.67406,-45.55225,3
1561841367.558778,109,0,0,1561841366.998383,4.634434436452234,-74.15095098323575,2552.512,-1,-1,4,30,-9999,1561841367.536757,16.41408538818359,-13.05967330932617,17.70343017578125,221.3254089355469,228.8186187744141,15,169183.8532172917,-0.1921539306640625,-0.985198974609375,0.221588134765625,169183.8532172917,-0.03045937233556327,-0.02749181193288798,0.009967146695730556,169183.8397282917,-56.12901306152344,-39.06437683105469,-542.6646118164062,169183.8481512917,0.7570122050166878,-2.355149505032172,1.308302463036311,-0.03527862578630447,-0.01593629643321037,0.00400804216042161,-0.0160585343837738,-0.02119266986846924,0.03696513175964355,1,0.4875154495239258,-0.5949591994285583,-0.4099001586437225,0.4902389347553253,-0.1836790144443512,-0.9657458662986755,0.1832955181598663,0,0,0,-1,169182.656735,3,2,1561841366.603234,0,0,0,0,0,0,0,0,0,169181.171152,0,-0.4438477,75.19716,0,182478453,1,1,1,-21.67406,-45.69351,3
1561841367.579091,110,0,0,1561841366.998383,4.634434436452234,-74.15095098323575,2552.512,-1,-1,4,30,-9999,1561841367.563006,16.47456741333008,-13.08119201660156,17.63165283203125,221.3500213623047,228.8432312011719,15,169183.8734802917,-0.1928253173828125,-0.9764556884765625,0.2227935791015625,169183.8734802917,-0.02334260695454452,-0.0444018195904551,0.007500526894099167,169183.8598392917,-56.14730834960938,-39.09709167480469,-543.1531982421875,169183.8683842917,0.755409943458761,-2.354427787382146,1.308574246973411,-0.01708577387034893,-0.05497477576136589,0.003983008209615946,-0.008162379264831543,-0.01506435871124268,0.03854942321777344,1,0.4871969521045685,-0.5950865149497986,-0.4102212488651276,0.4901324510574341,-0.183625340461731,-0.9658163189888,0.1829776614904404,0,0,0,-1,169182.656735,3,2,1561841366.603234,0,0,0,0,0,0,0,0,0,169181.171152,0,-0.4438477,75.19716,0,182478453,1,1,1,-21.67406,-46.32346,3
1561841367.599229,111,0,0,1561841366.998383,4.634434436452234,-74.15095098323575,2552.512,-1,-1,4,30,-9999,1561841367.587503,16.39720153808594,-13.04959869384766,17.60845947265625,221.4272308349609,228.9204406738281,15,169183.8937132917,-0.1832427978515625,-0.96661376953125,0.2095184326171875,169183.8937132917,-0.06426314236804805,0.01343245190614166,0.05978397173064378,169183.8799502917,-56.25830078125,-39.28999328613281,-542.8607177734375,169183.8886482917,0.7529506324258589,-2.35286876353076,1.308895827044919,-0.05859300494194031,-0.01284223701804876,0.03264394775032997,-0.005534470081329346,-0.004193127155303955,0.03418755531311035,1,0.4867973029613495,-0.5952011346817017,-0.4105677604675293,0.4901001453399658,-0.1836897730827332,-0.965899646282196,0.1824720054864883,0,0,0,-1,169182.656735,3,2,1561841366.603234,0,0,0,0,0,0,0,0,0,169181.171152,0,-0.4438477,75.19716,0,182478453,1,1,1,-21.67406,-46.82773,3
1561841367.619465,112,0,0,1561841366.998383,4.634434436452234,-74.15095098323575,2552.512,-1,-1,4,30,-9999,1561841367.613661,16.36468887329102,-12.88608551025391,17.7166748046875,221.4246215820312,228.9178314208984,15,169183.9139772917,-0.18707275390625,-0.9698944091796875,0.1977081298828125,169183.9139772917,-0.1116772634674918,0.100962034821558,0.1538950246479729,169183.9000612917,-56.22380065917969,-39.64913940429688,-542.9140014648438,169183.9089112917,0.7441497873036367,-2.343765291082992,1.308725666187934,-0.09836465120315552,0.07095732539892197,0.135298416018486,0.003667503595352173,-0.003993034362792969,0.02407979965209961,1,0.4860399663448334,-0.5951626300811768,-0.4104471504688263,0.4909986853599548,-0.185460701584816,-0.965855598449707,0.180906817317009,0,0,0,-1,169182.656735,3,2,1561841366.603234,0,0,0,0,0,0,0,0,0,169181.171152,0,-0.4438477,75.19716,0,182478453,1,1,1,-21.67406,-46.93371,3
1561841367.640905,113,0,0,1561841366.998383,4.634434436452234,-74.15095098323575,2552.512,-1,-1,4,30,-9999,1561841367.638051,16.48577499389648,-13.42912292480469,17.638916015625,221.2780303955078,228.771240234375,15,169183.9342412917,-0.1893768310546875,-0.9823760986328125,0.1866912841796875,169183.9342412917,-0.1696345730064502,0.1975042874980204,0.1603428039631637,169183.9201422917,-56.18832397460938,-39.3240966796875,-542.7280883789062,169183.9291752917,0.7285490106235157,-2.326239737958115,1.308257092165601,-0.1603023260831833,0.1719169616699219,0.1583259701728821,-0.002290934324264526,-0.007242560386657715,0.01409244537353516,1,0.4849720597267151,-0.5947871804237366,-0.4098508059978485,0.4930037260055542,-0.1889322102069855,-0.96573406457901,0.1779393702745438,0,0,0,-1,169182.656735,3,2,1561841366.603234,0,0,0,0,0,0,0,0,0,169181.171152,0,-0.4438477,75.19716,0,182478453,1,1,1,-21.67406,-47.04536,3
1561841367.660086,114,0,0,1561841366.998383,4.634434436452234,-74.15095098323575,2552.512,-1,-1,4,30,-9999,1561841367.638051,16.48577499389648,-13.42912292480469,17.638916015625,221.2780303955078,228.771240234375,15,169183.9545052917,-0.2142181396484375,-0.9916839599609375,0.187744140625,169183.9545052917,-0.1689685164178214,0.1994161708445883,0.07078788703874218,169183.9402532917,-56.15858459472656,-39.47624206542969,-542.9389038085938,169183.9494392917,0.7113326132270896,-2.305536991136698,1.308482992216109,-0.1754879355430603,0.2110854089260101,0.1036733835935593,-0.009002983570098877,-0.02413654327392578,0.009673953056335449,1,0.4841068685054779,-0.5937695503234863,-0.4091770648956299,0.4956332445144653,-0.1924130022525787,-0.9657926559448242,0.1738434731960297,0,0,0,-1,169182.656735,3,2,1561841366.603234,0,0,0,0,0,0,0,0,0,169181.171152,0,-0.4438477,75.19716,0,182478453,1,1,1,-21.67406,-47.04536,3
1561841367.680276,115,0,0,1561841366.998383,4.634434436452234,-74.15095098323575,2552.512,-1,-1,4,30,-9999,1561841367.664426,16.3338623046875,-13.51399612426758,17.65081787109375,221.0367279052734,228.5299377441406,15,169183.9747682917,-0.225067138671875,-1.000076293945312,0.209625244140625,169183.9747682917,-0.1611998092019513,0.08646964480156477,-0.1060939462421407,169183.9603332917,-56.51451110839844,-39.41195678710938,-542.96240234375,169183.9697022917,0.7006623990734703,-2.29187361209648,1.310371565555217,-0.159314826130867,0.1087523698806763,-0.06835643202066422,-0.02673804759979248,-0.03196454048156738,0.02806484699249268,1,0.4838444888591766,-0.5923610925674438,-0.4092424511909485,0.4975173771381378,-0.1934004724025726,-0.9662806987762451,0.1699943095445633,0,0,0,-1,169182.656735,3,2,1561841366.603234,0,0,0,0,0,0,0,0,0,169181.171152,0,-0.4438477,75.19716,0,182478453,1,1,1,-21.67406,-47.29108,3
1561841367.700488,116,0,0,1561841366.998383,4.634434436452234,-74.15095098323575,2552.512,-1,-1,4,30,-9999,1561841367.68872,16.39376068115234,-13.60182571411133,17.751220703125,220.9396820068359,228.4328918457031,15,169183.9950322917,-0.207916259765625,-0.9864959716796875,0.2054443359375,169183.9950322917,-0.2016686724945773,-0.01471795976432291,-0.1586753988046651,169183.9804442917,-56.22651672363281,-39.72111511230469,-542.8828125,169183.9899662917,0.6975669399981254,-2.287840007423847,1.314620102876991,-0.1848582625389099,0.000421903096139431,-0.1632754951715469,-0.0278688371181488,-0.02775126695632935,0.04375314712524414,1,0.4840047061443329,-0.5907588005065918,-0.4106605350971222,0.4980977177619934,-0.1909879595041275,-0.9673659205436707,0.1665130257606506,0,0,0,-1,169182.656735,3,2,1561841366.603234,0,0,0,0,0,0,0,0,0,169181.171152,0,-0.4438477,75.19716,0,182478453,1,1,1,-21.67406,-47.72404,3
1561841367.720792,117,0,0,1561841366.998383,4.634434436452234,-74.15095098323575,2552.512,-1,-1,4,30,-9999,1561841367.715026,16.30916213989258,-13.66596984863281,17.39208984375,221.0252990722656,228.5185089111328,15,169184.0152962917,-0.1854095458984375,-0.9817657470703125,0.18695068359375,169184.0152962917,-0.2629815650070356,-0.02816878748198612,-0.06314141891690668,169184.0005562917,-56.57052612304688,-39.79983520507812,-542.8544921875,169184.0101992917,0.6917936048626911,-2.282804788966165,1.319677669685793,-0.2496276795864105,-0.03678778186440468,-0.09491294622421265,-0.009331107139587402,-0.007973194122314453,0.03256511688232422,1,0.4836395680904388,-0.5892945528030396,-0.4128102362155914,0.4984098076820374,-0.1881176382303238,-0.968635082244873,0.1623506098985672,0,0,0,-1,169182.656735,3,2,1561841366.603234,0,0,0,0,0,0,0,0,0,169181.171152,0,-0.4438477,75.19716,0,182478453,1,1,1,-21.67406,-45.57911,3
1561841367.741111,118,0,0,1561841366.998383,4.634434436452234,-74.15095098323575,2552.512,-1,-1,4,30,-9999,1561841367.739658,16.21278762817383,-13.76222229003906,17.34222412109375,221.1423187255859,228.6355285644531,15,169184.0355292917,-0.17071533203125,-0.98223876953125,0.1685638427734375,169184.0355292917,-0.294889963291711,-0.0005225122058735466,0.01225107364658251,169184.0206362917,-56.24650573730469,-39.71664428710938,-542.9966430664062,169184.0304632917,0.6766315394995636,-2.26866107063569,1.323987753249694,-0.2999273240566254,-0.01270215399563313,-0.001336922403424978,0.01344290375709534,-0.01039022207260132,0.0182725191116333,1,0.4823727309703827,-0.5880573987960815,-0.4148176908493042,0.4994310438632965,-0.187194749712944,-0.9696970582008362,0.1569899171590805,0,0,0,-1,169182.656735,3,2,1561841366.603234,0,0,0,0,0,0,0,0,0,169181.171152,0,-0.4438477,75.19716,0,182478453,1,1,1,-21.67406,-46.09933,3
1561841367.76136,119,0,0,1561841366.998383,4.634434436452234,-74.15095098323575,2552.512,-1,-1,4,30,-9999,1561841367.739658,16.21278762817383,-13.76222229003906,17.34222412109375,221.1423187255859,228.6355285644531,15,169184.0557922917,-0.1818084716796875,-0.990814208984375,0.1695404052734375,169184.0557922917,-0.2341259482799181,0.01993509233978814,0.02058090890413235,169184.0407472917,-56.27690124511719,-39.69493103027344,-543.078857421875,169184.0507262917,0.6577802842076182,-2.250272309589505,1.327326149754046,-0.2524394392967224,0.02072770893573761,0.01721891760826111,0.008911013603210449,-0.01852166652679443,0.01784062385559082,1,0.4808828830718994,-0.5869367122650146,-0.4163716733455658,0.5008907914161682,-0.1875303685665131,-0.9705072641372681,0.1514860987663269,0,0,0,-1,169182.656735,3,2,1561841366.603234,0,0,0,0,0,0,0,0,0,169181.171152,0,-0.4438477,75.19716,0,182478453,1,1,1,-21.67406,-46.19378,3
1561841367.781545,120,0,0,1561841366.998383,4.634434436452234,-74.15095098323575,2552.512,-1,-1,4,30,-9999,1561841367.766106,16.20775604248047,-13.95895385742188,17.31207275390625,221.2021179199219,228.6953277587891,15,169184.0760562917,-0.196044921875,-0.9838409423828125,0.16424560546875,169184.0760562917,-0.1487356826681624,-0.04175011009306321,0.002105228841707638,169184.0608582917,-56.35079956054688,-39.93434143066406,-543.3072509765625,169184.0709902917,0.6431123811035283,-2.236084094407054,1.329676190904624,-0.1666994988918304,-0.0358562096953392,0.007724216673523188,0.001052111387252808,-0.01663029193878174,0.02079606056213379,1,0.4797112941741943,-0.5861551761627197,-0.4175322353839874,0.5019620656967163,-0.1878654658794403,-0.9710711240768433,0.1474016308784485,0,0,0,-1,169182.656735,3,2,1561841366.603234,0,0,0,0,0,0,0,0,0,169181.171152,0,-0.4438477,75.19716,0,182478453,1,1,1,-22.23133,-46.43983,3
1561841367.801809,121,0,0,1561841366.998383,4.634434436452234,-74.15095098323575,2552.512,-1,-1,4,30,-9999,1561841367.790112,16.34795379638672,-13.88962936401367,17.46429443359375,221.3004455566406,228.7936553955078,15,169184.0963202917,-0.204376220703125,-0.9862518310546875,0.1464996337890625,169184.0963202917,-0.1100090593606661,-0.04478185267800942,-0.03817428369741382,169184.0809392917,-56.27961730957031,-39.95625305175781,-543.458740234375,169184.0912542917,0.6344623750172156,-2.228742611774798,1.331564866710867,-0.1195575520396233,-0.05534415692090988,-0.03309831395745277,-0.01484030485153198,-0.01384645700454712,0.009918808937072754,1,0.4788569509983063,-0.5857853293418884,-0.418658584356308,0.5022713541984558,-0.187491238117218,-0.9715203642845154,0.1448968648910522,0,0,0,-1,169182.656735,3,2,1561841366.603234,0,0,0,0,0,0,0,0,0,169181.171152,0,-0.4438477,75.19716,0,182478453,1,1,1,-22.23133,-46.43983,3
1561841367.822156,122,0,0,1561841366.998383,4.634434436452234,-74.15095098323575,2552.512,-1,-1,4,30,-9999,1561841367.816272,16.22926330566406,-13.86857986450195,17.044677734375,221.40380859375,228.8970184326172,15,169184.1165832917,-0.196563720703125,-0.9754486083984375,0.13494873046875,169184.1165832917,-0.04404708653325655,-0.03896391096062231,-0.05329118499303059,169184.1010502917,-56.49993896484375,-40.08941650390625,-543.1278686523438,169184.1115172917,0.6303932333011842,-2.225756328171251,1.333493883655631,-0.06808903068304062,-0.04527793824672699,-0.05324592441320419,-0.01363676786422729,-0.01134645938873291,-0.003332376480102539,1,0.4784431755542755,-0.5853967666625977,-0.4196942448616028,0.5022543668746948,-0.1864364743232727,-0.9719756841659546,0.1431944966316223,0,0,0,-1,169182.656735,3,2,1561841366.603234,0,0,0,0,0,0,0,0,0,169181.171152,0,-0.4438477,75.19716,0,182478453,1,1,1,-22.78861,-43.60886,3
1561841367.84237,123,0,0,1561841366.998383,4.634434436452234,-74.15095098323575,2552.512,-1,-1,4,30,-9999,1561841367.84138,16.37064743041992,-13.93479156494141,17.01678466796875,221.4725189208984,228.9657287597656,15,169184.1368472917,-0.190673828125,-0.963897705078125,0.138275146484375,169184.1368472917,0.04553845674370093,-0.03469992373929644,-0.05201473188255562,169184.1211612917,-56.37518310546875,-39.95648193359375,-543.1751708984375,169184.1317812917,0.6320057501755937,-2.228225610980767,1.334681965781113,0.02297775633633137,-0.04210664704442024,-0.05639777705073357,-0.008389025926589966,0.003260135650634766,-0.005986213684082031,1,0.4784900546073914,-0.5852536559104919,-0.4203283786773682,0.5018461942672729,-0.1851687431335449,-0.9722542762756348,0.1429491490125656,0,0,0,-1,169182.656735,3,2,1561841366.603234,0,0,0,0,0,0,0,0,0,169181.171152,0,-0.4438477,75.19716,0,182478453,1,1,1,-23.34589,-42.46807,3
1561841367.862665,124,0,0,1561841366.998383,4.634434436452234,-74.15095098323575,2552.512,-1,-1,4,30,-9999,1561841367.84138,16.37064743041992,-13.93479156494141,17.01678466796875,221.4725189208984,228.9657287597656,15,169184.1571112917,-0.18756103515625,-0.961456298828125,0.1440582275390625,169184.1571112917,0.1210715642127463,-0.03641340158465342,-0.06611297406121709,169184.1412422917,-56.218017578125,-39.88685607910156,-543.2088623046875,169184.1520142917,0.6395272165174306,-2.236378289030981,1.334739810365119,0.1058196425437927,-0.0426214374601841,-0.06160638481378555,-0.004326105117797852,0.01191014051437378,-0.004541277885437012,1,0.4789823591709137,-0.5854786038398743,-0.4204162657260895,0.5010396838188171,-0.1839520782232285,-0.9722678065299988,0.1444185972213745,0,0,0,-1,169182.656735,3,2,1561841366.603234,0,0,0,0,0,0,0,0,0,169181.171152,0,-0.4438477,75.19716,0,182478453,1,1,1,-23.90317,-43.37851,3
1561841367.882855,125,0,0,1561841366.998383,4.634434436452234,-74.15095098323575,2552.512,-1,-1,4,30,-9999,1561841367.866871,16.34028244018555,-13.83024597167969,17.1234130859375,221.5075988769531,229.0008087158203,15,169184.1773442917,-0.1903533935546875,-0.9600830078125,0.1548309326171875,169184.1773442917,0.138035367724333,-0.01865544343600506,-0.09822643574982858,169184.1613532917,-55.89703369140625,-39.83245849609375,-543.5121459960938,169184.1722782917,0.6525496751549691,-2.249853075543223,1.33438425076813,0.1378225833177567,-0.03272832557559013,-0.1005713641643524,-0.007759332656860352,0.01037734746932983,0.001794099807739258,1,0.479937732219696,-0.5858415961265564,-0.4202536642551422,0.4998361170291901,-0.1822583973407745,-0.9721845984458923,0.1471012085676193,0,0,0,-1,169182.656735,3,2,1561841366.603234,0,0,0,0,0,0,0,0,0,169181.171152,0,-0.4438477,75.19716,0,182478453,1,1,1,-24.46045,-43.96289,3
1561841367.90307,126,0,0,1561841366.998383,4.634434436452234,-74.15095098323575,2552.512,-1,-1,4,30,-9999,1561841367.891412,16.47527694702148,-13.65152740478516,17.24688720703125,221.5122985839844,229.0055084228516,15,169184.1976082917,-0.174957275390625,-0.956268310546875,0.156646728515625,169184.1976082917,0.1285752869001535,-0.005596633030801519,-0.04477333056252116,169184.1814332917,-56.0047607421875,-39.62509155273438,-542.9542236328125,169184.1925422917,0.6663396040576703,-2.263634662318268,1.334117786877688,0.12883360683918,-0.01064539514482021,-0.07049468904733658,-0.002874910831451416,0.01232904195785522,0.008926630020141602,1,0.4810644686222076,-0.5860540866851807,-0.4200211465358734,0.4986981451511383,-0.1804136782884598,-0.9721221327781677,0.1497648358345032,0,0,0,-1,169182.656735,3,2,1561841366.603234,0,0,0,0,0,0,0,0,0,169181.171152,0,-0.4438477,75.19716,0,182478453,1,1,1,-25.01773,-44.58724,3
1561841367.924039,127,0,0,1561841366.998383,4.634434436452234,-74.15095098323575,2552.512,-1,-1,4,30,-9999,1561841367.917537,16.5933952331543,-13.55946350097656,17.2998046875,221.4986572265625,228.9918670654297,15,169184.2178712917,-0.16571044921875,-0.9644317626953125,0.15179443359375,169184.2178712917,0.004814728934754255,0.03630767408937728,0.08212096905757438,169184.2015442917,-56.27394104003906,-39.41781616210938,-543.194580078125,169184.2128052917,0.6742458548525374,-2.271486843649252,1.333012956107048,0.05607711896300316,0.005996698513627052,0.04227979853749275,0.009871482849121094,0.01535004377365112,0.003328084945678711,1,0.4816622734069824,-0.5864605307579041,-0.4195219874382019,0.4980629980564117,-0.1800527572631836,-0.9718624949455261,0.151868999004364,0,0,0,-1,169182.656735,3,2,1561841366.603234,0,0,0,0,0,0,0,0,0,169181.171152,0,-0.4438477,75.19716,0,182478453,1,1,1,-25.57501,-44.8043,3
1561841367.94367,128,0,0,1561841366.998383,4.634434436452234,-74.15095098323575,2552.512,-1,-1,4,30,-9999,1561841367.942117,16.22122955322266,-13.67414855957031,17.2222900390625,221.4032135009766,228.8964233398438,15,169184.2381352917,-0.178985595703125,-0.9892578125,0.152862548828125,169184.2381352917,-0.276473139089377,0.2094160744217269,0.1903137525548065,169184.2216552917,-56.38542175292969,-39.88954162597656,-543.0138549804688,169184.2330692917,0.6635002322308982,-2.259608525165388,1.332151032557147,-0.2086541503667831,0.1534543335437775,0.1701884865760803,0.01282897591590881,-0.005696892738342285,-0.002013564109802246,1,0.4809451103210449,-0.5863600969314575,-0.4190155267715454,0.4992993175983429,-0.1824914515018463,-0.9716591238975525,0.1502527296543121,0,0,0,-1,169182.656735,3,2,1561841366.603234,0,0,0,0,0,0,0,0,0,169181.171152,0,-0.4438477,75.19716,0,182478453,1,1,1,-26.13229,-45.66366,3
1561841367.9639,129,0,0,1561841366.998383,4.634434436452234,-74.15095098323575,2552.512,-1,-1,4,30,-9999,1561841367.942117,16.22122955322266,-13.67414855957031,17.2222900390625,221.4032135009766,228.8964233398438,15,169184.2583992917,-0.1837615966796875,-0.9938201904296875,0.1835784912109375,169184.2583992917,-0.4550503407202043,0.3044768105837782,0.1994569172092665,169184.2417362917,-56.52717590332031,-39.59848022460938,-543.1724853515625,169184.2533332917,0.6309736475388621,-2.223186670118485,1.333233929544527,-0.4271672964096069,0.2934745252132416,0.2022958248853683,0.00507393479347229,-0.02262282371520996,0.0267331600189209,1,0.4791310131549835,-0.5846944451332092,-0.4188351333141327,0.5031331181526184,-0.1870044767856598,-0.971914529800415,0.1428682506084442,0,0,0,-1,169182.656735,3,2,1561841366.603234,0,0,0,0,0,0,0,0,0,169181.171152,0,-0.4438477,75.19716,0,182478453,1,1,1,-26.13229,-45.66366,3
