loggingTime,loggingSample,identifierForVendor,deviceID,locationTimestamp_since1970,locationLatitude,locationLongitude,locationAltitude,locationSpeed,locationCourse,locationVerticalAccuracy,locationHorizontalAccuracy,locationFloor,locationHeadingTimestamp_since1970,locationHeadingX,locationHeadingY,locationHeadingZ,locationTrueHeading,locationMagneticHeading,locationHeadingAccuracy,accelerometerTimestamp_sinceReboot,accelerometerAccelerationX,accelerometerAccelerationY,accelerometerAccelerationZ,gyroTimestamp_sinceReboot,gyroRotationX,gyroRotationY,gyroRotationZ,magnetometerTimestamp_sinceReboot,magnetometerX,magnetometerY,magnetometerZ,motionTimestamp_sinceReboot,motionYaw,motionRoll,motionPitch,motionRotationRateX,motionRotationRateY,motionRotationRateZ,motionUserAccelerationX,motionUserAccelerationY,motionUserAccelerationZ,motionAttitudeReferenceFrame,motionQuaternionX,motionQuaternionY,motionQuaternionZ,motionQuaternionW,motionGravityX,motionGravityY,motionGravityZ,motionMagneticFieldX,motionMagneticFieldY,motionMagneticFieldZ,motionMagneticFieldCalibrationAccuracy,activityTimestamp_sinceReboot,activity,activityActivityConfidence,activityActivityStartDate,pedometerStartDate,pedometerNumberofSteps,pedometerAverageActivePace,pedometerCurrentPace,pedometerCurrentCadence,pedometerDistance,pedometerFloorAscended,pedometerFloorDescended,pedometerEndDate,altimeterTimestamp_sinceReboot,altimeterReset,altimeterRelativeAltitude,altimeterPressure,IP_en0,IP_pdp_ip0,deviceOrientation,batteryState,batteryLevel,avAudioRecorderPeakPower,avAudioRecorderAveragePower,label
1561841380.634126,1,0,0,1561841379.998197,4.634468005974436,-74.15089155554226,2552.117,0.58,219.0234375,4,30,-9999,1561841380.630277,15.34623718261719,-14.74830627441406,17.28717041015625,216.5779571533203,224.0711669921875,15,169196.920571625,-0.1165618896484375,-1.001815795898438,0.0183258056640625,169196.920571625,0.04066487194885592,0.02584970680474512,0.04204066096799085,169196.905892625,-57.34896850585938,-41.00094604492188,-543.1585693359375,169196.915505625,0.2653845671126409,-1.765883887065674,1.456528793679331,0.02901512011885643,0.02186906710267067,0.04459068179130554,-0.003729462623596191,-0.005300760269165039,-0.006569385528564453,1,0.495135486125946,-0.5156474113464355,-0.4470204412937164,0.5376999974250793,-0.1118558570742607,-0.993478536605835,0.02210280485451221,0,0,0,-1,169195.938600875,3,2,1561841379.885099,0,0,0,0,0,0,0,0,0,169194.36391,0,-0.1557617,75.19442,0,182478453,1,1,1,-39.50332,-43.95618,5
1561841380.646209,2,0,0,1561841379.998197,4.634468005974436,-74.15089155554226,2552.117,0.58,219.0234375,4,30,-9999,1561841380.630277,15.34623718261719,-14.74830627441406,17.28717041015625,216.5779571533203,224.0711669921875,15,169196.940835625,-0.123931884765625,-1.003814697265625,0.0224609375,169196.940835625,0.05711628326671141,0.001844239054879872,0.006425941394252194,169196.926003625,-57.19338989257812,-41.08108520507812,-543.2256469726562,169196.935769625,0.2721143775068516,-1.772321809683842,1.455771102582169,0.05392180383205414,0.001052735839039087,0.01126574631780386,-0.007623612880706787,-0.009431004524230957,-0.003228068351745605,1,0.4952814280986786,-0.5159290432929993,-0.4465674459934235,0.5376717448234558,-0.1124478131532669,-0.9933918714523315,0.02297294139862061,0,0,0,-1,169195.938600875,3,2,1561841379.885099,0,0,0,0,0,0,0,0,0,169194.36391,0,-0.1557617,75.19442,0,182478453,1,1,1,-39.50332,-44.75758,5
1561841380.666393,3,0,0,1561841379.998197,4.634468005974436,-74.15089155554226,2552.117,0.58,219.0234375,4,30,-9999,1561841380.65458,15.35263442993164,-14.90386199951172,17.10546875,216.5664825439453,224.0596923828125,15,169196.961098625,-0.11865234375,-1.004226684570312,0.0242462158203125,169196.961098625,0.03433586961828261,0.02025999799277781,0.008747418916474266,169196.946114625,-57.38987731933594,-41.004638671875,-543.3284912109375,169196.956032625,0.2812348163645657,-1.78133398605643,1.45551450979279,0.04509475454688072,0.009289359673857689,0.001027756137773395,-0.01055935025215149,-0.0114593505859375,0.0007412433624267578,1,0.4955723881721497,-0.5161662101745605,-0.4462665617465973,0.5374259948730469,-0.1124875098466873,-0.9933624267578125,0.02403909713029861,0,0,0,-1,169195.938600875,3,2,1561841379.885099,0,0,0,0,0,0,0,0,0,169194.36391,0,-0.1557617,75.19442,0,182478453,1,1,1,-39.50332,-45.24949,5
1561841380.686663,4,0,0,1561841379.998197,4.634468005974436,-74.15089155554226,2552.117,0.58,219.0234375,4,30,-9999,1561841380.680876,15.19036102294922,-14.88499450683594,17.2127685546875,216.5368041992188,224.0300140380859,15,169196.981362625,-0.1123504638671875,-0.9986724853515625,0.0216522216796875,169196.981362625,-0.01580932317903738,0.04439249852663983,0.02228746253065513,169196.966195625,-57.31211853027344,-40.87446594238281,-543.322998046875,169196.976296625,0.2840671389283833,-1.783696234232006,1.45525840058162,-0.007021710276603699,0.03478513285517693,0.0176799688488245,-0.002480208873748779,-0.009001672267913818,-0.001912593841552734,1,0.4957262873649597,-0.5161730051040649,-0.4460102319717407,0.53749018907547,-0.1126778572797775,-0.9933329224586487,0.02435824647545815,0,0,0,-1,169195.938600875,3,2,1561841379.885099,0,0,0,0,0,0,0,0,0,169194.36391,0,-0.1557617,75.19442,0,182478453,1,1,1,-39.50332,-45.24949,5
1561841380.712749,5,0,0,1561841379.998197,4.634468005974436,-74.15089155554226,2552.117,0.58,219.0234375,4,30,-9999,1561841380.70547,15.46405029296875,-14.69470596313477,17.4404296875,216.4850921630859,223.9783020019531,15,169197.001626625,-0.1162567138671875,-0.9917755126953125,0.0239410400390625,169197.001626625,0.003224289131758934,0.03912263536159103,0.004884770071423339,169196.986306625,-57.26109313964844,-40.82228088378906,-542.8663330078125,169196.996560625,0.2802255053195891,-1.779094732584435,1.455008119984312,-0.0123168732970953,0.03805869072675705,0.008377548307180405,0.0007277131080627441,-0.001691102981567383,-0.002849102020263672,1,0.4957118630409241,-0.5159605145454407,-0.4458229839801788,0.5378627777099609,-0.1130324304103851,-0.9933040142059326,0.02389100752770901,0,0,0,-1,169195.938600875,3,2,1561841379.885099,0,0,0,0,0,0,0,0,0,169194.36391,0,-0.1557617,75.19442,0,182478453,1,1,1,-39.50332,-46.11294,5
1561841380.727207,6,0,0,1561841379.998197,4.634468005974436,-74.15089155554226,2552.117,0.58,219.0234375,4,30,-9999,1561841380.70547,15.46405029296875,-14.69470596313477,17.4404296875,216.4850921630859,223.9783020019531,15,169197.021889625,-0.1202545166015625,-0.992462158203125,0.0291290283203125,169197.021889625,0.05617858424689451,0.03871543803091792,-0.03304929649566533,169197.006417625,-57.3143310546875,-41.11911010742188,-543.06640625,169197.016823625,0.2835813786888452,-1.781786118118476,1.455111156291237,0.04507611319422722,0.03009796887636185,-0.02931630052626133,-0.007235020399093628,0.002913713455200195,0.002269983291625977,1,0.4959979355335236,-0.5158224701881409,-0.4456206858158112,0.5378990173339844,-0.1128669157624245,-0.9933159351348877,0.02417354471981525,0,0,0,-1,169195.938600875,3,2,1561841379.885099,0,0,0,0,0,0,0,0,0,169194.36391,0,-0.1557617,75.19442,0,182478453,1,1,1,-39.50332,-46.11294,5
1561841380.747492,7,0,0,1561841379.998197,4.634468005974436,-74.15089155554226,2552.117,0.58,219.0234375,4,30,-9999,1561841380.731467,15.60757064819336,-14.72525024414062,17.3692626953125,216.4355316162109,223.9287414550781,15,169197.042153625,-0.10693359375,-0.99566650390625,0.03173828125,169197.042153625,0.03956924747639732,0.05992085821067385,-0.01051762209304993,169197.026528625,-57.24143981933594,-41.19366455078125,-543.3704833984375,169197.037056625,0.2940662008975837,-1.791417208710231,1.455537254273627,0.04908736795186996,0.05114972591400146,-0.02706300094723701,-0.0005605518817901611,-0.0007450580596923828,0.006754279136657715,1,0.4966393113136292,-0.5156868696212769,-0.4453262686729431,0.5376811623573303,-0.1122171655297279,-0.9933650493621826,0.02516710571944714,0,0,0,-1,169195.938600875,3,2,1561841379.885099,0,0,0,0,0,0,0,0,0,169194.36391,0,-0.1557617,75.19442,0,182478453,1,1,1,-39.50332,-46.90186,5
1561841380.768144,8,0,0,1561841379.998197,4.634468005974436,-74.15089155554226,2552.117,0.58,219.0234375,4,30,-9999,1561841380.75584,15.25856781005859,-14.68418884277344,17.318603515625,216.3577880859375,223.8509979248047,15,169197.062386625,-0.1004638671875,-0.995819091796875,0.0302581787109375,169197.062386625,-0.01044358621474573,0.0609139509811644,0.03792953919323554,169197.046639625,-57.10263061523438,-40.80433654785156,-543.1585083007812,169197.057320625,0.2981683191948865,-1.794366292841585,1.45544991339868,-0.00331166060641408,0.05662970989942551,0.02432162687182426,0.008849650621414185,-0.002784550189971924,0.00503075122833252,1,0.4970236420631409,-0.5154863595962524,-0.4449276030063629,0.5378484129905701,-0.1122279688715935,-0.9933549761772156,0.02551737613976002,0,0,0,-1,169195.938600875,3,2,1561841379.885099,0,0,0,0,0,0,0,0,0,169194.36391,0,-0.1557617,75.19442,0,182478453,1,1,1,-39.50332,-47.78596,5
1561841380.792469,9,0,0,1561841379.998197,4.634468005974436,-74.15089155554226,2552.117,0.58,219.0234375,4,30,-9999,1561841380.782643,15.29163360595703,-14.91662216186523,17.43096923828125,216.2884826660156,223.7816925048828,15,169197.082650625,-0.10711669921875,-0.998260498046875,0.029388427734375,169197.082650625,-0.01137169785463835,0.03835324812266714,0.04703222379912637,169197.066750625,-57.38273620605469,-41.00799560546875,-543.189453125,169197.077584625,0.2936428963475791,-1.788873282976043,1.454765501199375,-0.01964988745748997,0.03749996051192284,0.04478748887777328,0.01074978709220886,-0.004130005836486816,0.004859805107116699,1,0.496947169303894,-0.5153321623802185,-0.4445622265338898,0.5383686423301697,-0.1130294725298882,-0.9932760000228882,0.02504745312035084,0,0,0,-1,169195.938600875,3,2,1561841379.885099,0,0,0,0,0,0,0,0,0,169194.36391,0,-0.1557617,75.19442,0,182478453,1,1,1,-39.50332,-48.39554,5
1561841380.808253,10,0,0,1561841379.998197,4.634468005974436,-74.15089155554226,2552.117,0.58,219.0234375,4,30,-9999,1561841380.80682,15.35041809082031,-15.08994674682617,17.35986328125,216.249755859375,223.7429656982422,15,169197.102913625,-0.1198272705078125,-1.004730224609375,0.032684326171875,169197.102913625,0.02478497500093144,0.0187776825300397,0.02750139931281226,169197.086831625,-57.46524047851562,-40.82040405273438,-543.15478515625,169197.097848625,0.2917482731035655,-1.786408745508786,1.453961150580093,0.01754994504153728,0.01866528391838074,0.03077712841331959,-0.0002644062042236328,-0.007732987403869629,0.006035566329956055,1,0.4968507587909698,-0.5153728723526001,-0.4442039430141449,0.5387142896652222,-0.1138713285326958,-0.9931825399398804,0.02493974752724171,0,0,0,-1,169195.938600875,3,2,1561841379.885099,0,0,0,0,0,0,0,0,0,169194.36391,0,-0.1557617,75.19442,0,182478453,1,1,1,-39.50332,-48.94552,5
1561841380.828604,11,0,0,1561841379.998197,4.634468005974436,-74.15089155554226,2552.117,0.58,219.0234375,4,30,-9999,1561841380.80682,15.35041809082031,-15.08994674682617,17.35986328125,216.249755859375,223.7429656982422,15,169197.123177625,-0.1275177001953125,-1.009201049804688,0.032257080078125,169197.123177625,0.01209075134895974,0.009973538282346747,-0.01309236623493854,169197.106942625,-57.2120361328125,-41.35783386230469,-543.1582641601562,169197.118111625,0.2952112853672967,-1.789660227651538,1.453504606985538,0.02065226063132286,0.003727614413946867,-0.0003283254336565733,-0.006969660520553589,-0.01378297805786133,0.008130788803100586,1,0.4969329535961151,-0.5155207514762878,-0.4439341425895691,0.5387192368507385,-0.1142308786511421,-0.9931291937828064,0.02540801092982292,0,0,0,-1,169195.938600875,3,2,1561841379.885099,0,0,0,0,0,0,0,0,0,169194.36391,0,-0.1557617,75.19442,0,182478453,1,1,1,-39.50332,-48.94552,5
1561841380.84875,12,0,0,1561841379.998197,4.634468005974436,-74.15089155554226,2552.117,0.58,219.0234375,4,30,-9999,1561841380.832814,15.38374710083008,-14.99687957763672,17.1783447265625,216.2388305664062,223.7320404052734,15,169197.143441625,-0.1258087158203125,-1.009445190429688,0.028961181640625,169197.143441625,-0.05987691605268754,0.03188842457649979,-0.05976532960301322,169197.127053625,-57.27194213867188,-41.22911071777344,-543.0277709960938,169197.138375625,0.2949438548430766,-1.789228360737699,1.454181910067549,-0.04538134858012199,0.01877474039793015,-0.05765686184167862,-0.01660266518592834,-0.01728987693786621,0.004709482192993164,1,0.4970907270908356,-0.5152739882469177,-0.4441147148609161,0.5386609435081482,-0.1135853305459023,-0.9932082295417786,0.02521294727921486,0,0,0,-1,169195.938600875,3,2,1561841379.885099,0,0,0,0,0,0,0,0,0,169194.36391,0,-0.1557617,75.19442,0,182478453,1,1,1,-39.50332,-49.30296,5
1561841380.870911,13,0,0,1561841379.998197,4.634468005974436,-74.15089155554226,2552.117,0.58,219.0234375,4,30,-9999,1561841380.858023,15.24665069580078,-14.95922470092773,17.4609375,216.216064453125,223.7092742919922,15,169197.163704625,-0.1120147705078125,-1.005447387695312,0.026763916015625,169197.163704625,-0.0442167298946946,0.04482526220377771,-0.03593696206563825,169197.147164625,-57.38972473144531,-41.07180786132812,-543.0798950195312,169197.158639625,0.2863207374845532,-1.779992205570702,1.455664737001753,-0.06335768848657608,0.04265211150050163,-0.0503171868622303,-0.007010579109191895,-0.01347154378890991,0.004951357841491699,1,0.4972111284732819,-0.5144994854927063,-0.4446124136447906,0.5388796925544739,-0.1123741716146469,-0.9933796525001526,0.02385725453495979,0,0,0,-1,169195.938600875,3,2,1561841379.885099,0,0,0,0,0,0,0,0,0,169194.36391,0,-0.1557617,75.19442,0,182478453,1,1,1,-40.0606,-46.88018,5
1561841380.889305,14,0,0,1561841379.998197,4.634468005974436,-74.15089155554226,2552.117,0.58,219.0234375,4,30,-9999,1561841380.883434,15.24521636962891,-14.88695907592773,17.3226318359375,216.1734466552734,223.6666564941406,15,169197.183968625,-0.10687255859375,-1.001708984375,0.026336669921875,169197.183968625,0.03820783952714882,0.02113910746861296,-0.00926114269075055,169197.167244625,-57.66159057617188,-40.87440490722656,-543.1829833984375,169197.178872625,0.2832422725929497,-1.776272358354447,1.456410177560216,0.01844583265483379,0.01988101750612259,-0.01901412941515446,0.005658507347106934,-0.01112782955169678,0.00137019157409668,1,0.4973928332328796,-0.5140470862388611,-0.4447528719902039,0.5390278697013855,-0.1117376312613487,-0.9934650063514709,0.02328807488083839,0,0,0,-1,169195.938600875,3,2,1561841379.885099,0,0,0,0,0,0,0,0,0,169194.36391,0,-0.1557617,75.19442,0,182478453,1,1,1,-40.61788,-45.92093,5
1561841380.909548,15,0,0,1561841379.998197,4.634468005974436,-74.15089155554226,2552.117,0.58,219.0234375,4,30,-9999,1561841380.908203,15.42785263061523,-14.67428970336914,17.31683349609375,216.1370849609375,223.6302947998047,15,169197.204201625,-0.1160888671875,-0.99798583984375,0.0267486572265625,169197.204201625,0.06962142248128747,0.02924417193016011,0.003974501610834255,169197.187356625,-57.30902099609375,-40.66876220703125,-543.0708618164062,169197.199135625,0.2921791949311854,-1.784768881914288,1.456332059004882,0.06939902901649475,0.02089674770832062,0.0003158932086080313,0.0009232163429260254,-0.005582571029663086,0.003685951232910156,1,0.4977860450744629,-0.5141356587409973,-0.4444342851638794,0.538843035697937,-0.1116104647517204,-0.9934561252593994,0.02425284497439861,0,0,0,-1,169195.938600875,3,2,1561841379.885099,0,0,0,0,0,0,0,0,0,169194.36391,0,-0.1557617,75.19442,0,182478453,1,1,1,-41.17516,-46.45844,5
1561841380.929796,16,0,0,1561841379.998197,4.634468005974436,-74.15089155554226,2552.117,0.58,219.0234375,4,30,-9999,1561841380.908203,15.42785263061523,-14.67428970336914,17.31683349609375,216.1370849609375,223.6302947998047,15,169197.224465625,-0.1250457763671875,-1.000259399414062,0.031707763671875,169197.224465625,0.04178153539392614,0.03525173071716086,-0.01896330485801822,169197.207467625,-57.2896728515625,-40.93006896972656,-543.1268920898438,169197.219399625,0.3029415943920715,-1.794961420314496,1.456117834061675,0.04471951723098755,0.02656102553009987,-0.01632806472480297,-0.009240537881851196,-0.005393385887145996,0.003250360488891602,1,0.4982480108737946,-0.5142635107040405,-0.4440056979656219,0.5386471748352051,-0.1115632653236389,-0.9934316277503967,0.02543607726693153,0,0,0,-1,169195.938600875,3,2,1561841379.885099,0,0,0,0,0,0,0,0,0,169194.36391,0,-0.1557617,75.19442,0,182478453,1,1,1,-41.73244,-43.94537,5
1561841380.951439,17,0,0,1561841379.998197,4.634468005974436,-74.15089155554226,2552.117,0.58,219.0234375,4,30,-9999,1561841380.934597,15.46055603027344,-14.58541107177734,17.34991455078125,216.0914611816406,223.5846710205078,15,169197.244729625,-0.1280364990234375,-1.009292602539062,0.0354461669921875,169197.244729625,0.0295293964829076,0.06340027817486238,-0.04227342124726378,169197.227578625,-57.41792297363281,-40.91331481933594,-542.8676147460938,169197.239663625,0.309863492961666,-1.801133412138664,1.456474507120001,0.02719271928071976,0.05121603608131409,-0.03854015842080116,-0.01470214128494263,-0.0113798975944519,0.00680851936340332,1,0.4987253546714783,-0.5140961408615112,-0.4437934756278992,0.538540244102478,-0.111060805618763,-0.9934723973274231,0.02604364231228828,0,0,0,-1,169195.938600875,3,2,1561841379.885099,0,0,0,0,0,0,0,0,0,169194.36391,0,-0.1557617,75.19442,0,182478453,1,1,1,-42.28971,-44.67613,5
1561841380.970295,18,0,0,1561841379.998197,4.634468005974436,-74.15089155554226,2552.117,0.58,219.0234375,4,30,-9999,1561841380.958826,15.42847061157227,-14.71451568603516,17.38519287109375,216.0166015625,223.5098114013672,15,169197.264992625,-0.127532958984375,-1.003143310546875,0.0403594970703125,169197.264992625,0.0354847573125428,0.07123050441191335,-0.04421965937189368,169197.247658625,-57.13664245605469,-40.85256958007812,-542.9716186523438,169197.259926625,0.317263724567285,-1.807250527887784,1.457292086227629,0.03442266955971718,0.06679952889680862,-0.05338754877448082,-0.017027348279953,-0.01446080207824707,0.01256108283996582,1,0.4994231760501862,-0.5136560201644897,-0.443590521812439,0.5384806394577026,-0.1101088672876358,-0.9935653209686279,0.02653203159570694,0,0,0,-1,169195.938600875,3,2,1561841379.885099,0,0,0,0,0,0,0,0,0,169194.36391,0,-0.1557617,75.19442,0,182478453,1,1,1,-42.84699,-45.18222,5
1561841380.991293,19,0,0,1561841379.998197,4.634468005974436,-74.15089155554226,2552.117,0.58,219.0234375,4,30,-9999,1561841380.984765,15.23057556152344,-14.59292602539062,17.59368896484375,215.9268035888672,223.4200134277344,15,169197.285256625,-0.1302337646484375,-0.992584228515625,0.0336151123046875,169197.285256625,-0.04098418496355642,0.05898608866805604,-0.03538994877773597,169197.267769625,-57.36418151855469,-40.58493041992188,-542.9057006835938,169197.280190625,0.3219849379202948,-1.810731039189159,1.458099212244207,-0.02166590094566345,0.05090418085455894,-0.03783868253231049,-0.01950016617774963,-0.004680395126342773,0.01162052154541016,1,0.5000133514404297,-0.5131754875183105,-0.4434484243392944,0.5385082960128784,-0.1092382520437241,-0.9936563968658447,0.02672486566007137,0,0,0,-1,169195.938600875,3,2,1561841379.885099,0,0,0,0,0,0,0,0,0,169194.36391,0,-0.1557617,75.19442,0,182478453,1,1,1,-43.40427,-45.81415,5
1561841381.010836,20,0,0,1561841379.998197,4.634468005974436,-74.15089155554226,2552.117,0.58,219.0234375,4,30,-9999,1561841381.009634,15.26100158691406,-14.65986633300781,17.50689697265625,215.8610076904297,223.3542175292969,15,169197.305520625,-0.1326751708984375,-0.9837493896484375,0.026397705078125,169197.305520625,-0.08829497541270508,0.05789179577614248,-0.03468128161166589,169197.287880625,-57.39337158203125,-40.62396240234375,-542.9244384765625,169197.300454625,0.3125329769894784,-1.800241781712163,1.459128576252216,-0.09206815809011459,0.05335136130452156,-0.03920887783169746,-0.02283266186714172,0.006085515022277832,0.003769159317016602,1,0.500108540058136,-0.5124097466468811,-0.4437035024166107,0.5389386415481567,-0.1085150018334389,-0.9937716126441956,0.02534460090100765,0,0,0,-1,169195.938600875,3,2,1561841379.885099,0,0,0,0,0,0,0,0,0,169194.36391,0,-0.1557617,75.19442,0,182478453,1,1,1,-43.40427,-45.81415,5
1561841381.033037,21,0,0,1561841379.998197,4.634468005974436,-74.15089155554226,2552.117,0.58,219.0234375,4,30,-9999,1561841381.009634,15.26100158691406,-14.65986633300781,17.50689697265625,215.8610076904297,223.3542175292969,15,169197.325783625,-0.1438140869140625,-0.9951324462890625,0.0131378173828125,169197.325783625,-0.0495238773150045,0.04764608243038963,-0.009455553450326335,169197.307992625,-57.41659545898438,-40.80020141601562,-542.8980102539062,169197.320687625,0.2997795139762375,-1.786635926486875,1.460071854806375,-0.05751444399356842,0.03943607583642006,-0.019297756254673,-0.02878379821777344,0.007975459098815918,-0.002028346061706543,1,0.5000424385070801,-0.5116543769836426,-0.4440407454967499,0.5394397377967834,-0.1079349741339684,-0.9938762784004211,0.02366528287529945,0,0,0,-1,169195.938600875,3,2,1561841379.885099,0,0,0,0,0,0,0,0,0,169194.36391,0,-0.1557617,75.19442,0,182478453,1,1,1,-43.96155,-46.05605,5
1561841381.051424,22,0,0,1561841380.998182,4.634493612688625,-74.15090563713959,2551.893,0.64,252.0703125,4,30,-9999,1561841381.03552,15.38816452026367,-14.46034240722656,17.58966064453125,215.8084716796875,223.3016815185547,15,169197.346016625,-0.1690673828125,-0.999053955078125,-0.011138916015625,169197.346016625,-0.09299652000113097,0.1894298493890092,-0.001357679523722396,169197.328072625,-57.3546142578125,-40.82574462890625,-542.5703125,169197.340951625,0.2898455311843132,-1.775378065688674,1.460492794566848,-0.07930975407361984,0.1333705633878708,-0.009061629883944988,-0.04808327555656433,-0.006657063961029053,-0.02254688739776611,1,0.5000837445259094,-0.5109776258468628,-0.4440402090549469,0.5400430560112,-0.1077852547168732,-0.9939227104187012,0.02236377075314522,0,0,0,-1,169195.938600875,3,2,1561841379.885099,0,0,0,0,0,0,0,0,0,169194.36391,0,-0.1557617,75.19442,0,182478453,1,1,1,-43.74347,-46.7333,5
1561841381.071545,23,0,0,1561841380.998182,4.634493612688625,-74.15090563713959,2551.893,0.64,252.0703125,4,30,-9999,1561841381.059799,15.32780838012695,-14.53918838500977,17.829345703125,215.6045074462891,223.0977172851562,15,169197.366280625,-0.192413330078125,-0.978363037109375,-0.029693603515625,169197.366280625,-0.1533394892445824,0.284738525848547,0.08258702224833825,169197.348183625,-57.35470581054688,-40.99507141113281,-543.0517578125,169197.361214625,0.2691027281846258,-1.750276582284064,1.460672733490391,-0.1489833742380142,0.2795317471027374,0.04751616343855858,-0.07466557621955872,0.004745721817016602,-0.03811287879943848,1,0.5003977417945862,-0.5093247294425964,-0.4434294402599335,0.5418123602867126,-0.1081346869468689,-0.9939424991607666,0.0196191594004631,0,0,0,-1,169195.938600875,3,2,1561841379.885099,0,0,0,0,0,0,0,0,0,169194.36391,0,-0.1557617,75.19442,0,182478453,1,1,1,-43.74347,-47.43784,5
1561841381.091928,24,0,0,1561841380.998182,4.634493612688625,-74.15090563713959,2551.893,0.64,252.0703125,4,30,-9999,1561841381.086085,15.12512588500977,-14.94381713867188,17.46295166015625,215.2394104003906,222.7326202392578,15,169197.386544625,-0.2194366455078125,-0.9694061279296875,-0.0591278076171875,169197.386544625,-0.1978161436616687,0.2839230659227647,0.1906541045421186,169197.368294625,-57.57936096191406,-40.86177062988281,-543.1551513671875,169197.381478625,0.236773069455088,-1.712637425236369,1.458954481246493,-0.178460568189621,0.2675358057022095,0.1656441241502762,-0.09854242205619812,0.02132487297058105,-0.058013916015625,1,0.5001553297042847,-0.5076745748519897,-0.4422638118267059,0.5445308685302734,-0.1104877516627312,-0.9937522411346436,0.01577765494585037,0,0,0,-1,169195.938600875,3,2,1561841379.885099,0,0,0,0,0,0,0,0,0,169194.36391,0,-0.1557617,75.19442,0,182478453,1,1,1,-43.74347,-44.61198,5
1561841381.113064,25,0,0,1561841380.998182,4.634493612688625,-74.15090563713959,2551.893,0.64,252.0703125,4,30,-9999,1561841381.110595,14.80525588989258,-15.10564041137695,17.668701171875,214.8015899658203,222.2947998046875,15,169197.406807625,-0.281494140625,-0.951873779296875,-0.08441162109375,169197.406807625,-0.235067109409152,0.5047686287947846,0.1932650676748323,169197.388405625,-57.64393615722656,-40.98944091796875,-542.7559814453125,169197.401742625,0.1940136968266485,-1.663866884501503,1.455554263590786,-0.2432739287614822,0.4046784937381744,0.1968782097101212,-0.1336490511894226,0.02988123893737793,-0.08817052841186523,1,0.4993383586406708,-0.5059688091278076,-0.4407338798046112,0.5480970740318298,-0.114489383995533,-0.9933669567108154,0.01068646460771561,0,0,0,-1,169195.938600875,3,2,1561841379.885099,0,0,0,0,0,0,0,0,0,169194.36391,0,-0.1557617,75.19442,0,182478453,1,1,1,-41.88037,-44.68839,5
1561841381.132431,26,0,0,1561841380.998182,4.634493612688625,-74.15090563713959,2551.893,0.64,252.0703125,4,30,-9999,1561841381.110595,14.80525588989258,-15.10564041137695,17.668701171875,214.8015899658203,222.2947998046875,15,169197.427071625,-0.287322998046875,-0.922515869140625,-0.08001708984375,169197.427071625,-0.03835724286430226,0.8386382156975494,0.1508491673092493,169197.408486625,-58.0340576171875,-41.3070068359375,-542.6981811523438,169197.422005625,0.1561620391313875,-1.614309627407094,1.452083098968856,-0.1252104043960571,0.7615671157836914,0.1669000834226608,-0.1660855412483215,0.0541343092918396,-0.08669483661651611,1,0.4998688399791718,-0.5026997923851013,-0.4377604424953461,0.5529827475547791,-0.1183230131864548,-0.9929618835449219,0.005151876714080572,0,0,0,-1,169195.938600875,3,2,1561841379.885099,0,0,0,0,0,0,0,0,0,169194.36391,0,-0.1557617,75.19442,0,182478453,1,1,1,-41.88037,-45.4212,5
1561841381.152597,27,0,0,1561841380.998182,4.634493612688625,-74.15090563713959,2551.893,0.64,252.0703125,4,30,-9999,1561841381.136678,14.5728645324707,-15.1680908203125,17.76983642578125,213.8204040527344,221.3136138916016,15,169197.447335625,-0.4364013671875,-0.8926239013671875,-0.0388336181640625,169197.447335625,0.4222894645705946,1.095572008185124,-0.0416387899594979,169197.428597625,-58.36087036132812,-41.55619812011719,-542.5115966796875,169197.442269625,0.1676624700432779,-1.607502584666554,1.4497381918472,0.3062632381916046,1.029657483100891,0.01684480160474777,-0.2147981524467468,0.08887284994125366,-0.06577205657958984,1,0.5036675930023193,-0.4985326826572418,-0.4321853816509247,0.5576736927032471,-0.1206815838813782,-0.9926813840866089,0.004431759938597679,0,0,0,-1,169195.938600875,3,2,1561841379.885099,0,0,0,0,0,0,0,0,0,169194.36391,0,-0.1557617,75.19442,0,182478453,1,1,1,-41.88037,-45.4212,5
1561841381.172882,28,0,0,1561841380.998182,4.634493612688625,-74.15090563713959,2551.893,0.64,252.0703125,4,30,-9999,1561841381.161561,14.20450973510742,-15.25770568847656,17.96441650390625,212.2579650878906,219.7511749267578,15,169197.467598625,-0.613311767578125,-0.8762664794921875,-0.0318450927734375,169197.467598625,0.6118215793454628,1.310578590367145,-0.3262074061304978,169197.448708625,-58.72393798828125,-41.36906433105469,-542.4314575195312,169197.462502625,0.2510900757278298,-1.667106139515447,1.451451288933413,0.6022570729255676,1.257682085037231,-0.2604714930057526,-0.4116566479206085,0.1019261479377747,-0.04456067085266113,1,0.5119874477386475,-0.4935518205165863,-0.4245052933692932,0.5604200959205627,-0.1185099557042122,-0.9928868412971497,0.01144909206777811,0,0,0,-1,169195.938600875,3,2,1561841379.885099,0,0,0,0,0,0,0,0,0,169194.36391,0,-0.1557617,75.19442,0,182478453,1,1,1,-41.88037,-45.79679,5
1561841381.193333,29,0,0,1561841380.998182,4.634493612688625,-74.15090563713959,2551.893,0.64,252.0703125,4,30,-9999,1561841381.187452,13.57767486572266,-14.97639083862305,18.5694580078125,210.2556610107422,217.7488708496094,15,169197.487832625,-0.772369384765625,-0.799957275390625,-0.0693206787109375,169197.487832625,0.3548438446999018,1.572199812689368,-0.6215429162725791,169197.468819625,-59.21226501464844,-41.08622741699219,-541.83349609375,169197.482766625,0.3584827689110392,-1.746227885127848,1.45795040833401,0.4561507403850555,1.482393264770508,-0.5467663407325745,-0.5913631319999695,0.1537348628044128,-0.0631103515625,1,0.522981584072113,-0.4861243963241577,-0.4168533682823181,0.5625001788139343,-0.1108768507838249,-0.9936396479606628,0.0196533314883709,0,0,0,-1,169195.938600875,3,2,1561841379.885099,0,0,0,0,0,0,0,0,0,169194.36391,0,-0.1557617,75.19442,0,182478453,1,1,1,-41.88037,-46.13701,5
1561841381.213412,30,0,0,1561841380.998182,4.634493612688625,-74.15090563713959,2551.893,0.64,252.0703125,4,30,-9999,1561841381.211735,12.96418380737305,-14.65766143798828,19.17889404296875,207.7828979492188,215.2761077880859,15,169197.508095625,-0.9161529541015625,-0.77142333984375,-0.0940399169921875,169197.508095625,0.002332662798800405,1.931763844105327,-0.942178456770413,169197.488900625,-59.76397705078125,-40.63182067871094,-541.3688354492188,169197.503029625,0.4311110525124673,-1.784737703345207,1.471040731025417,0.05649920925498009,1.846061229705811,-0.8702865839004517,-0.7414871454238892,0.2109403610229492,-0.1054489612579346,1,0.5348137617111206,-0.4738631844520569,-0.4107743501663208,0.5662969946861267,-0.09731904417276382,-0.995028555393219,0.02114415541291237,0,0,0,-1,169195.938600875,3,2,1561841379.885099,0,0,0,0,0,0,0,0,0,169194.36391,0,-0.1557617,75.19442,0,182478453,1,1,1,-41.88037,-44.16344,5
1561841381.233558,31,0,0,1561841380.998182,4.634493612688625,-74.15090563713959,2551.893,0.64,252.0703125,4,30,-9999,1561841381.211735,12.96418380737305,-14.65766143798828,19.17889404296875,207.7828979492188,215.2761077880859,15,169197.528359625,-1.00543212890625,-0.7144927978515625,-0.1338043212890625,169197.528359625,0.3471891207786871,2.216947117855917,-1.29585051059068,169197.509011625,-60.13381958007812,-40.8118896484375,-541.2681274414062,169197.523293625,0.4895470045519971,-1.802378262470833,1.491257485390373,0.1548675894737244,2.148946523666382,-1.202463507652283,-0.9058799743652344,0.2558869123458862,-0.1389336585998535,1,0.548128604888916,-0.4568077921867371,-0.4055774807929993,0.5713043808937073,-0.07733535021543503,-0.9968384504318237,0.01823665387928486,0,0,0,-1,169195.938600875,3,2,1561841379.885099,0,0,0,0,0,0,0,0,0,169194.36391,0,-0.1557617,75.19442,0,182478453,1,1,1,-39.75936,-44.20259,5
1561841381.253887,32,0,0,1561841380.998182,4.634493612688625,-74.15090563713959,2551.893,0.64,252.0703125,4,30,-9999,1561841381.237964,12.34891510009766,-14.43050384521484,19.4869384765625,204.7414093017578,212.234619140625,15,169197.548623625,-1.015335083007812,-0.693939208984375,-0.18505859375,169197.548623625,1.749545302316034,2.194110777824597,-1.862197549058604,169197.529122625,-60.74099731445312,-40.44924926757812,-540.48583984375,169197.543557625,0.8273314747435354,-2.094443317635114,1.513531654658624,1.32262110710144,2.209463119506836,-1.707398772239685,-0.9755064249038696,0.309823215007782,-0.1864557266235352,1,0.5674227476119995,-0.4385668039321899,-0.398324728012085,0.57186359167099,-0.04956375062465668,-0.998360812664032,0.02861883118748665,0,0,0,-1,169195.938600875,3,2,1561841379.885099,0,0,0,0,0,0,0,0,0,169194.36391,0,-0.1557617,75.19442,0,182478453,1,1,1,-39.75936,-45.05261,5
1561841381.274829,33,0,0,1561841380.998182,4.634493612688625,-74.15090563713959,2551.893,0.64,252.0703125,4,30,-9999,1561841381.262382,11.56998825073242,-14.08020401000977,20.29351806640625,201.4553680419922,208.9485778808594,15,169197.568886625,-0.865997314453125,-0.741973876953125,-0.1128997802734375,169197.568886625,3.195829527085911,1.992102285974925,-2.282474196477316,169197.549202625,-61.58256530761719,-39.37442016601562,-539.8052368164062,169197.563820625,1.754926959131528,-2.976872438051875,1.498762619435354,2.927236080169678,2.048514366149902,-2.183382749557495,-0.934609055519104,0.2562720775604248,-0.2323461771011353,1,0.5969873666763306,-0.4232091307640076,-0.3875499963760376,0.5606293678283691,-0.01180203165858984,-0.9974067211151123,0.07099977135658264,0,0,0,-1,169195.938600875,3,2,1561841379.885099,0,0,0,0,0,0,0,0,0,169194.36391,0,-0.1557617,75.19442,0,182478453,1,1,1,-39.75936,-45.47661,5
1561841381.294514,34,0,0,1561841380.998182,4.634493612688625,-74.15090563713959,2551.893,0.64,252.0703125,4,30,-9999,1561841381.288679,10.78873062133789,-11.10091018676758,22.23468017578125,198.5631256103516,206.0563354492188,15,169197.589150625,-0.721588134765625,-0.8128509521484375,-0.0146331787109375,169197.589150625,3.561792335653002,2.016924545231118,-2.703774829335165,169197.569314625,-61.90213012695312,-37.80105590820312,-538.6314697265625,169197.584084625,2.188502987245275,2.914667243632235,1.427841580521368,3.594773054122925,1.950343370437622,-2.581992626190186,-0.8487493991851807,0.2488631010055542,-0.2168046236038208,1,0.6332675814628601,-0.4103421270847321,-0.3744716048240662,0.5388531088829041,0.03205319494009018,-0.9897993803024292,0.1388169825077057,0,0,0,-1,169195.938600875,3,2,1561841379.885099,0,0,0,0,0,0,0,0,0,169194.36391,0,-0.1557617,75.19442,0,182478453,1,1,1,-39.75936,-45.5428,5
1561841381.314713,35,0,0,1561841380.998182,4.634493612688625,-74.15090563713959,2551.893,0.64,252.0703125,4,30,-9999,1561841381.312995,10.18581008911133,-8.920131683349609,23.174560546875,195.7874908447266,203.2807006835938,15,169197.609414625,-0.4543609619140625,-0.8703765869140625,0.088836669921875,169197.609414625,2.811686116705175,2.207726987845954,-3.048492270306149,169197.589394625,-62.41094970703125,-35.61683654785156,-537.7264404296875,169197.604317625,2.375963647957817,2.772177999922892,1.345165203022775,3.031546592712402,2.186238288879395,-3.013945341110229,-0.6615438461303711,0.1096628904342651,-0.1604417562484741,1,0.6705138683319092,-0.393351823091507,-0.3620176613330841,0.514420747756958,0.08077904582023621,-0.9746531248092651,0.2086290121078491,0,0,0,-1,169195.938600875,3,2,1561841379.885099,0,0,0,0,0,0,0,0,0,169194.36391,0,-0.1557617,75.19442,0,182478453,1,1,1,-39.75936,-45.5428,5
1561841381.334963,36,0,0,1561841380.998182,4.634493612688625,-74.15090563713959,2551.893,0.64,252.0703125,4,30,-9999,1561841381.312995,10.18581008911133,-8.920131683349609,23.174560546875,195.7874908447266,203.2807006835938,15,169197.629677625,-0.243896484375,-0.9085693359375,0.283050537109375,169197.629677625,2.147975506680609,1.852991267486309,-2.96600485028258,169197.609505625,-62.8468017578125,-33.89923095703125,-536.5691528320312,169197.624581625,2.510207142356393,2.686526120500239,1.271398995267047,2.299860715866089,2.025791645050049,-3.002868890762329,-0.4752612709999084,0.07209157943725586,-0.08051037788391113,1,0.7035942673683167,-0.3707009255886078,-0.3521307706832886,0.4934974908828735,0.1296344250440598,-0.9555144309997559,0.2649281322956085,0,0,0,-1,169195.938600875,3,2,1561841379.885099,0,0,0,0,0,0,0,0,0,169194.36391,0,-0.1557617,75.19442,0,182478453,1,1,1,-38.34402,-42.07998,5
1561841381.355239,37,0,0,1561841380.998182,4.634493612688625,-74.15090563713959,2551.893,0.64,252.0703125,4,30,-9999,1561841381.339237,9.478065490722656,-7.158885955810547,24.09735107421875,193.1765899658203,200.6697998046875,15,169197.649910625,0.021514892578125,-0.903472900390625,0.3583221435546875,169197.649910625,1.74540967945925,0.8244227944309244,-2.753555701695362,169197.629616625,-63.46476745605469,-32.01167297363281,-535.8955688476562,169197.644845625,2.612152100308826,2.622254443698474,1.207446523434595,1.796963453292847,1.075674533843994,-2.815493106842041,-0.2900227606296539,0.0114327073097229,0.01497101783752441,1,0.7297755479812622,-0.3488560914993286,-0.3475654423236847,0.4742628633975983,0.1763905435800552,-0.9347115159034729,0.308545857667923,0,0,0,-1,169195.938600875,3,2,1561841379.885099,0,0,0,0,0,0,0,0,0,169194.36391,0,-0.1557617,75.19442,0,182478453,1,1,1,-36.86745,-40.36499,5
1561841381.375589,38,0,0,1561841380.998182,4.634493612688625,-74.15090563713959,2551.893,0.64,252.0703125,4,30,-9999,1561841381.363906,8.829315185546875,-5.492380142211914,24.754638671875,192.2093963623047,199.7026062011719,15,169197.670174625,0.223114013671875,-0.8016204833984375,0.385772705078125,169197.670174625,1.966197718051724,-0.2859257630625043,-2.592557493787929,169197.649697625,-64.08834838867188,-30.66046142578125,-535.2003173828125,169197.665108625,2.686688371777412,2.564118332589233,1.148145315708511,1.850886702537537,-0.03333015739917755,-2.653783559799194,-0.1094038188457489,0.06979590654373169,0.0337594747543335,1,0.7493358850479126,-0.3321582078933716,-0.3503264188766479,0.4532527923583984,0.2239210456609726,-0.9120047688484192,0.343666672706604,0,0,0,-1,169195.938600875,3,2,1561841379.885099,0,0,0,0,0,0,0,0,0,169194.36391,0,-0.1557617,75.19442,0,182478453,1,1,1,-36.11633,-41.13243,5
1561841381.39578,39,0,0,1561841380.998182,4.634493612688625,-74.15090563713959,2551.893,0.64,252.0703125,4,30,-9999,1561841381.390306,9.027236938476562,-2.833459854125977,25.2730712890625,193.5102081298828,201.00341796875,15,169197.690438625,0.371673583984375,-0.6819915771484375,0.381103515625,169197.690438625,2.487531208826802,-0.9846145971602807,-2.268988747665482,169197.669808625,-63.73170471191406,-29.51681518554688,-535.1636962890625,169197.685372625,2.727969786058114,2.516880258138275,1.084204114032796,2.357951879501343,-0.8855485916137695,-2.37602710723877,0.02728921175003052,0.1292623281478882,0.00470435619354248,1,0.7652484774589539,-0.3225584626197815,-0.3584496080875397,0.4264560043811798,0.2734920382499695,-0.8839315176010132,0.3792983889579773,0,0,0,-1,169195.938600875,3,2,1561841379.885099,0,0,0,0,0,0,0,0,0,169194.36391,0,-0.1557617,75.19442,0,182478453,1,1,1,-36.11633,-41.61944,5
1561841381.416506,40,0,0,1561841380.998182,4.634493612688625,-74.15090563713959,2551.893,0.64,252.0703125,4,30,-9999,1561841381.414307,9.630359649658203,-0.9792633056640625,25.1925048828125,196.387451171875,203.8806610107422,15,169197.710702625,0.4934844970703125,-0.5592193603515625,0.3082733154296875,169197.710702625,2.504696879949016,-1.014230013746398,-1.612809823519769,169197.689889625,-63.11895751953125,-27.82455444335938,-534.972900390625,169197.705636625,2.734961301517318,2.489597954130886,1.017276846100379,2.586766242980957,-1.128844141960144,-1.772651195526123,0.1268602311611176,0.2240927219390869,-0.05710506439208984,1,0.7788738608360291,-0.3198157846927643,-0.3671035766601562,0.3953583836555481,0.3189710676670074,-0.8506796360015869,0.4178532660007477,0,0,0,-1,169195.938600875,3,2,1561841379.885099,0,0,0,0,0,0,0,0,0,169194.36391,0,-0.1557617,75.19442,0,182478453,1,1,1,-36.11633,-42.37584,5
1561841381.436447,41,0,0,1561841380.998182,4.634493612688625,-74.15090563713959,2551.893,0.64,252.0703125,4,30,-9999,1561841381.414307,9.630359649658203,-0.9792633056640625,25.1925048828125,196.387451171875,203.8806610107422,15,169197.730965625,0.6213531494140625,-0.3690643310546875,0.304656982421875,169197.730965625,2.097954150873977,-0.2007456208607559,-1.002827156907006,169197.710000625,-62.74896240234375,-26.01327514648438,-535.1905517578125,169197.725899625,2.723287667535848,2.482581462237671,0.9606726593470997,2.201427459716797,-0.4483145475387573,-1.136629223823547,0.2213556170463562,0.3875855803489685,-0.1270449161529541,1,0.7897984385490417,-0.3204877078533173,-0.3714857995510101,0.3681090474128723,0.3508489727973938,-0.819577157497406,0.4529878795146942,0,0,0,-1,169195.938600875,3,2,1561841379.885099,0,0,0,0,0,0,0,0,0,169195.306384,0,-0.1188965,75.19408,0,182478453,1,1,1,-36.11633,-40.94576,5
1561841381.457956,42,0,0,1561841380.998182,4.634493612688625,-74.15090563713959,2551.893,0.64,252.0703125,4,30,-9999,1561841381.440738,10.06158065795898,0.5802326202392578,25.30816650390625,198.6537933349609,206.1470031738281,15,169197.751229625,0.725311279296875,-0.30023193359375,0.3654327392578125,169197.751229625,1.675459622899447,0.4278677217898745,-0.4756845128461383,169197.730111625,-62.21096801757812,-24.44438171386719,-535.2988891601562,169197.746163625,2.705542712369445,2.4970317964923,0.9177901511407135,1.783536434173584,0.3708013594150543,-0.6082392334938049,0.2954767346382141,0.4543103575706482,-0.1535520553588867,1,0.7999062538146973,-0.3209165334701538,-0.3681195974349976,0.3487843573093414,0.3650610148906708,-0.7942609190940857,0.4856748580932617,0,0,0,-1,169195.938600875,3,2,1561841379.885099,0,0,0,0,0,0,0,0,0,169195.306384,0,-0.1188965,75.19408,0,182478453,1,1,1,-34.60043,-34.60043,5
1561841381.477325,43,0,0,1561841380.998182,4.634493612688625,-74.15090563713959,2551.893,0.64,252.0703125,4,30,-9999,1561841381.464865,10.40871810913086,1.907743453979492,25.12274169921875,199.3915100097656,206.8847198486328,15,169197.771504875,0.7794647216796875,-0.2002716064453125,0.4794158935546875,169197.771504875,1.309684833505315,0.2711090000217394,0.128320955016051,169197.750202875,-62.49322509765625,-23.2655029296875,-535.2993774414062,169197.766407875,2.684475704127799,2.521048199087592,0.8880475065821507,1.366699695587158,0.2838331460952759,-0.06125233322381973,0.3957327008247375,0.5142751932144165,-0.09377408027648926,1,0.8078315854072571,-0.3225798308849335,-0.361224502325058,0.3359573185443878,0.3668710291385651,-0.7758413553237915,0.5132992267608643,0,0,0,-1,169195.938600875,3,2,1561841379.885099,0,0,0,0,0,0,0,0,0,169195.306384,0,-0.1188965,75.19408,0,182478453,1,1,1,-34.60043,-34.60043,5
1561841381.49701,44,0,0,1561841380.998182,4.634493612688625,-74.15090563713959,2551.893,0.64,252.0703125,4,30,-9999,1561841381.49209,9.941276550292969,3.880455017089844,25.2376708984375,199.8600921630859,207.3533020019531,15,169197.791737875,0.8106689453125,-0.1783905029296875,0.64300537109375,169197.791737875,1.455347494591634,0.6082494813753395,0.633067479573788,169197.770313875,-62.81092834472656,-22.47850036621094,-535.1890869140625,169197.786671875,2.653466991134163,2.551670158159328,0.8693373211291833,1.362024307250977,0.4969318509101868,0.5439597964286804,0.4299134314060211,0.5968482494354248,-0.003134250640869141,1,0.8125379681587219,-0.3285005688667297,-0.3532214164733887,0.3272675275802612,0.3589964807033539,-0.7639014720916748,0.5362611413002014,0,0,0,-1,169195.938600875,3,2,1561841379.885099,0,0,0,0,0,0,0,0,0,169195.306384,0,-0.1188965,75.19408,0,182478453,1,1,1,-30.94984,-35.58255,5
1561841381.517306,45,0,0,1561841380.998182,4.634493612688625,-74.15090563713959,2551.893,0.64,252.0703125,4,30,-9999,1561841381.515645,9.441631317138672,4.393743515014648,24.96600341796875,199.8719024658203,207.3651123046875,15,169197.812000875,0.8818206787109375,-0.2230377197265625,0.936798095703125,169197.812000875,1.591936499527946,0.8545679137578583,1.063568268733424,169197.790424875,-63.06013488769531,-22.05078125,-535.3433837890625,169197.806934875,2.60897351450541,2.599130629381963,0.8511441746153871,1.628101468086243,0.8125028610229492,0.9348061084747314,0.5146498084068298,0.5404108762741089,0.2308039665222168,1,0.817463219165802,-0.3376441597938538,-0.3400948345661163,0.3195085525512695,0.3402696549892426,-0.7520350217819214,0.5644993782043457,0,0,0,-1,169195.938600875,3,2,1561841379.885099,0,0,0,0,0,0,0,0,0,169195.306384,0,-0.1188965,75.19408,0,182478453,1,1,1,-23.05862,-23.98963,5
1561841381.538006,46,0,0,1561841380.998182,4.634493612688625,-74.15090563713959,2551.893,0.64,252.0703125,4,30,-9999,1561841381.515645,9.441631317138672,4.393743515014648,24.96600341796875,199.8719024658203,207.3651123046875,15,169197.832264875,0.8959197998046875,-0.22283935546875,1.165054321289062,169197.832264875,0.7088288199482531,0.7281066441310097,1.853389410069276,169197.810505875,-63.59593200683594,-21.16145324707031,-535.474365234375,169197.827198875,2.554855535356666,2.656512998602629,0.838028181368019,1.057989358901978,0.789650559425354,1.597386479377747,0.5792818069458008,0.5250791311264038,0.4917201995849609,1,0.8206101655960083,-0.3499703407287598,-0.3242300450801849,0.3146340250968933,0.3119077980518341,-0.7433255314826965,0.5917605757713318,0,0,0,-1,169195.938600875,3,2,1561841379.885099,0,0,0,0,0,0,0,0,0,169195.306384,0,-0.1188965,75.19408,0,182478453,1,1,1,-23.05862,-24.19147,5
1561841381.557887,47,0,0,1561841380.998182,4.634493612688625,-74.15090563713959,2551.893,0.64,252.0703125,4,30,-9999,1561841381.542095,9.154895782470703,5.264116287231445,25.189208984375,199.3633575439453,206.8565673828125,15,169197.852528875,0.8880157470703125,-0.413818359375,1.114913940429688,169197.852528875,-1.314231115802189,0.3667862579761442,2.881316593934169,169197.830616875,-63.96087646484375,-20.62557983398438,-535.5665283203125,169197.847462875,2.49385917475359,2.71499456088131,0.8528134500679652,-0.7789726257324219,0.466278612613678,2.633996963500977,0.6186138391494751,0.4589447975158691,0.5593564510345459,1,0.8157020807266235,-0.3661747872829437,-0.3113504648208618,0.3218803107738495,0.2722095251083374,-0.7531342506408691,0.5989077091217041,0,0,0,-1,169195.938600875,3,2,1561841379.885099,0,0,0,0,0,0,0,0,0,169195.306384,0,-0.1188965,75.19408,0,182478453,1,1,1,-23.05862,-24.46106,5
1561841381.578122,48,0,0,1561841380.998182,4.634493612688625,-74.15090563713959,2551.893,0.64,252.0703125,4,30,-9999,1561841381.566722,8.809490203857422,4.539493560791016,25.34808349609375,198.1270141601562,205.6202239990234,15,169197.872791875,0.7310333251953125,-0.638092041015625,1.0076904296875,169197.872791875,-2.340679446313761,-0.4009647347740031,3.495413045482778,169197.850697875,-64.05558776855469,-21.04743957519531,-535.5181274414062,169197.867725875,2.424578927576847,2.772784384804413,0.9082775021097517,-2.290631294250488,-0.1192751601338387,3.398949384689331,0.6124503016471863,0.2625054717063904,0.475069522857666,1,0.7990142107009888,-0.3852894902229309,-0.3056147992610931,0.3460170328617096,0.2217476814985275,-0.7884454131126404,0.5737434029579163,0,0,0,-1,169195.938600875,3,2,1561841379.885099,0,0,0,0,0,0,0,0,0,169195.306384,0,-0.1188965,75.19408,0,182478453,1,1,1,-23.05862,-25.30187,5
1561841381.598937,49,0,0,1561841380.998182,4.634493612688625,-74.15090563713959,2551.893,0.64,252.0703125,4,30,-9999,1561841381.592891,9.330101013183594,2.921384811401367,25.44305419921875,198.1038208007812,205.5970306396484,15,169197.893055875,0.4726104736328125,-0.7588958740234375,0.862457275390625,169197.893055875,-1.444650375441113,-1.670881116353383,3.478502771509101,169197.870808875,-63.47657775878906,-22.47492980957031,-534.9144287109375,169197.887989875,2.335277282744053,2.829674075720617,0.9737696966845411,-1.798385143280029,-1.422704815864563,3.540138721466064,0.4332624971866608,0.1033780574798584,0.4038448333740234,1,0.7745595574378967,-0.4093738794326782,-0.3076030611991882,0.3712829649448395,0.1725266873836517,-0.8270108699798584,0.5350589752197266,0,0,0,-1,169195.938600875,3,2,1561841379.885099,0,0,0,0,0,0,0,0,0,169195.306384,0,-0.1188965,75.19408,0,182478453,1,1,1,-20.73687,-20.73687,5
1561841381.618706,50,0,0,1561841380.998182,4.634493612688625,-74.15090563713959,2551.893,0.64,252.0703125,4,30,-9999,1561841381.616889,10.33931732177734,1.534048080444336,25.2615966796875,200.7731781005859,208.2663879394531,15,169197.913319875,0.25909423828125,-0.71307373046875,0.7549896240234375,169197.913319875,0.1694702559671923,-1.794581753194255,2.78991424216156,169197.890919875,-62.59257507324219,-24.28602600097656,-535.0965576171875,169197.908222875,2.22712041419624,2.884596001193544,1.012907392904996,-0.2287249714136124,-1.897329330444336,3.026664018630981,0.2171395123004913,0.08268857002258301,0.2850180864334106,1,0.7507302165031433,-0.4386444091796875,-0.3129300773143768,0.3821909129619598,0.1345603168010712,-0.848374605178833,0.5120095610618591,0,0,0,-1,169195.938600875,3,2,1561841379.885099,0,0,0,0,0,0,0,0,0,169195.306384,0,-0.1188965,75.19408,0,182478453,1,1,1,-20.68243,-21.45705,5
1561841381.638848,51,0,0,1561841380.998182,4.634493612688625,-74.15090563713959,2551.893,0.64,252.0703125,4,30,-9999,1561841381.616889,10.33931732177734,1.534048080444336,25.2615966796875,200.7731781005859,208.2663879394531,15,169197.933552875,0.1785736083984375,-0.2776947021484375,0.7627410888671875,169197.933552875,1.398617635999094,-0.798528612835975,1.652074405367461,169197.911030875,-61.53111267089844,-24.96846008300781,-535.5121459960938,169197.928486875,2.129349179024513,2.935737008989399,1.014559526583958,1.150378584861755,-1.106489300727844,1.918164014816284,0.09022602438926697,0.2845965623855591,0.2312612533569336,1,0.7362444400787354,-0.4651530981063843,-0.3128129541873932,0.3791106641292572,0.1079245954751968,-0.8492480516433716,0.5168465375900269,0,0,0,-1,169195.938600875,3,2,1561841379.885099,0,0,0,0,0,0,0,0,0,169195.306384,0,-0.1188965,75.19408,0,182478453,1,1,1,-20.68243,-21.45705,5
1561841381.659181,52,0,0,1561841380.998182,4.634493612688625,-74.15090563713959,2551.893,0.64,252.0703125,4,30,-9999,1561841381.643652,11.32577896118164,0.9759616851806641,24.8935546875,203.0836334228516,210.5768432617188,15,169197.953816875,0.2944793701171875,0.6152191162109375,0.80120849609375,169197.953816875,2.021279612561724,0.2880983698797909,1.682381178572563,169197.931110875,-60.75775146484375,-25.09494018554688,-535.8407592773438,169197.948750875,2.061886063561817,2.982414121477807,0.9889283021082095,1.892308712005615,0.05542927235364914,1.429923295974731,0.128844290971756,0.964008092880249,0.2457835674285889,1,0.7332577109336853,-0.4833757877349854,-0.3031863272190094,0.3698096871376038,0.08711332827806473,-0.8354374766349792,0.5426380634307861,0,0,0,-1,169195.938600875,3,2,1561841379.885099,0,0,0,0,0,0,0,0,0,169195.306384,0,-0.1188965,75.19408,0,182478453,1,1,1,-20.68243,-22.46285,5
1561841381.679423,53,0,0,1561841380.998182,4.634493612688625,-74.15090563713959,2551.893,0.64,252.0703125,4,30,-9999,1561841381.667733,12.12024688720703,2.088735580444336,24.53564453125,203.2526092529297,210.7458190917969,15,169197.974079875,0.4245758056640625,1.510467529296875,0.8753204345703125,169197.974079875,2.328590292861456,0.4489077596659365,4.335579383013815,169197.951222875,-60.69773864746094,-24.31454467773438,-536.1600952148438,169197.969013875,1.973332974654212,3.063644011807803,0.9510662182814772,2.352219820022583,0.5732487440109253,3.448350429534912,0.3458090722560883,1.892602682113647,0.2424967288970947,1,0.73123699426651,-0.5047953128814697,-0.2811773121356964,0.3625098764896393,0.04522793367505074,-0.8140352368354797,0.579051673412323,0,0,0,-1,169195.938600875,3,2,1561841379.885099,0,0,0,0,0,0,0,0,0,169195.306384,0,-0.1188965,75.19408,0,182478453,1,1,1,-20.68243,-23.52487,5
1561841381.699685,54,0,0,1561841380.998182,4.634493612688625,-74.15090563713959,2551.893,0.64,252.0703125,4,30,-9999,1561841381.693893,12.2729377746582,2.347190856933594,24.2490234375,202.8905639648438,210.3837738037109,15,169197.994343875,0.1940460205078125,2.122177124023438,0.86090087890625,169197.994343875,1.193351565504037,-1.026070694268999,8.343972381880418,169197.971333875,-60.56475830078125,-23.67689514160156,-536.0518798828125,169197.989277875,1.791948230868694,-3.071950687098676,0.9083704999601991,1.606189250946045,-0.5872465968132019,7.35629415512085,0.4103968739509583,2.676579475402832,0.2667386531829834,1,0.7107749581336975,-0.5491533875465393,-0.2495068609714508,0.3619060516357422,-0.04279741272330284,-0.78850257396698,0.6135409474372864,0,0,0,-1,169195.938600875,3,2,1561841379.885099,0,0,0,0,0,0,0,0,0,169195.306384,0,-0.1188965,75.19408,0,182478453,1,1,1,-20.68243,-24.50205,5
1561841381.719989,55,0,0,1561841380.998182,4.634493612688625,-74.15090563713959,2551.893,0.64,252.0703125,4,30,-9999,1561841381.718237,13.32854080200195,1.335966110229492,23.7452392578125,205.2721099853516,212.7653198242188,15,169198.014607875,-0.538909912109375,2.13885498046875,0.797882080078125,169198.014607875,-0.7812960963703992,-1.712184880647748,11.42532326634818,169197.991413875,-59.64794921875,-24.1051025390625,-536.5525512695312,169198.009541875,1.505112310987254,-2.876448390832429,0.8626089384736403,-0.2696374952793121,-1.75321638584137,10.82728004455566,0.04922059178352356,2.957799673080444,0.2089571952819824,1,0.6558007001876831,-0.6195074319839478,-0.220405176281929,0.3708877265453339,-0.1704516708850861,-0.7595421671867371,0.6277280449867249,0,0,0,-1,169195.938600875,3,2,1561841379.885099,0,0,0,0,0,0,0,0,0,169195.306384,0,-0.1188965,75.19408,0,182478453,1,1,1,-20.68243,-25.54343,5
1561841381.741429,56,0,0,1561841380.998182,4.634493612688625,-74.15090563713959,2551.893,0.64,252.0703125,4,30,-9999,1561841381.718237,13.32854080200195,1.335966110229492,23.7452392578125,205.2721099853516,212.7653198242188,15,169198.034870875,-1.340911865234375,1.705215454101562,0.8091888427734375,169198.034870875,-2.527998207906665,-0.9618568203811175,12.59886224492258,169198.011524875,-58.17921447753906,-26.53077697753906,-537.0724487304688,169198.029804875,1.161112587818158,-2.652734654933772,0.7977372456860127,-2.155225038528442,-1.126365303993225,12.46311283111572,-0.6406651139259338,2.687198162078857,0.1585371494293213,1,0.5689983367919922,-0.6960656642913818,-0.1927747279405594,0.3931558430194855,-0.3279475569725037,-0.7157777547836304,0.6165330410003662,0,0,0,-1,169195.938600875,3,2,1561841379.885099,0,0,0,0,0,0,0,0,0,169195.306384,0,-0.1188965,75.19408,0,182478453,1,1,1,-20.68243,-26.50281,5
1561841381.760542,57,0,0,1561841380.998182,4.634493612688625,-74.15090563713959,2551.893,0.64,252.0703125,4,30,-9999,1561841381.744765,14.7193717956543,-1.645999908447266,23.40435791015625,208.8373718261719,216.3305816650391,15,169198.055134875,-1.965179443359375,0.9993438720703125,0.9280242919921875,169198.055134875,-3.160195899068433,-1.098076977506453,12.19819924630008,169198.031635875,-57.65611267089844,-30.74163818359375,-537.5469360351562,169198.050037875,0.8296829586480137,-2.44550762419857,0.7011386414162273,-3.15250825881958,-1.023712635040283,12.43468761444092,-1.204299449920654,2.007316589355469,0.2994585037231445,1,0.4630302786827087,-0.7607728242874146,-0.1663567721843719,0.4232646822929382,-0.489960104227066,-0.6450881361961365,0.5863446593284607,0,0,0,-1,169195.938600875,3,2,1561841379.885099,0,0,0,0,0,0,0,0,0,169195.306384,0,-0.1188965,75.19408,0,182478453,1,1,1,-20.68243,-27.43149,5
1561841381.780667,58,0,0,1561841380.998182,4.634493612688625,-74.15090563713959,2551.893,0.64,252.0703125,4,30,-9999,1561841381.768848,13.60294342041016,-10.74629211425781,22.20928955078125,213.6499328613281,221.1431427001953,15,169198.075367875,-2.272476196289062,0.3018646240234375,0.6662750244140625,169198.075367875,-3.217718314401381,-0.9703235421186974,11.34499593628478,169198.051716875,-58.5289306640625,-35.52006530761719,-538.200927734375,169198.070301875,0.5565481248390423,-2.303558808056496,0.5780287425462323,-3.211281776428223,-1.040336132049561,11.52694034576416,-1.537449717521667,1.210970520973206,0.2825661897659302,1,0.3520230948925018,-0.8100655674934387,-0.1432075649499893,0.4465033113956451,-0.62256920337677,-0.5463739633560181,0.5602529644966125,0,0,0,-1,169195.938600875,3,2,1561841379.885099,0,0,0,0,0,0,0,0,0,169195.306384,0,-0.1188965,75.19408,0,182478453,1,1,1,-20.68243,-28.08873,5
1561841381.800996,59,0,0,1561841380.998182,4.634493612688625,-74.15090563713959,2551.893,0.64,252.0703125,4,30,-9999,1561841381.796603,11.61894607543945,-15.0089225769043,21.1932373046875,111.0086975097656,118.5018997192383,15,169198.095631875,-2.732803344726562,-0.07427978515625,0.39019775390625,169198.095631875,-2.112695812772002,-1.482568995673879,11.61209075359544,169198.071827875,-60.41409301757812,-39.78083801269531,-538.8134765625,169198.090565875,0.3351794459414741,-2.214059169826426,0.439963497464724,-2.627134323120117,-1.040610432624817,11.34040641784668,-1.767374634742737,0.4923737049102783,-0.02274465560913086,1,0.2418350130319595,-0.8443102240562439,-0.119610957801342,0.462978720664978,-0.7239431142807007,-0.4259064495563507,0.5426878333091736,0,0,0,-1,169195.938600875,3,2,1561841379.885099,0,0,0,0,0,0,0,0,0,169195.306384,0,-0.1188965,75.19408,0,182478453,1,1,1,-20.68243,-28.08873,5
1561841381.82128,60,0,0,1561841380.998182,4.634493612688625,-74.15090563713959,2551.893,0.64,252.0703125,4,30,-9999,1561841381.819497,8.783538818359375,-18.2219352722168,20.47955322265625,123.2118301391602,130.7050323486328,15,169198.115894875,-3.777450561523438,-0.6510772705078125,0.338470458984375,169198.115894875,0.2694346706444066,-2.019374919750099,11.56404626226597,169198.091938875,-63.0621337890625,-43.38362121582031,-539.6323852539062,169198.110828875,0.160208386415069,-2.193626857567424,0.2621839147415834,-0.05103965103626251,-2.653724431991577,12.06355571746826,-2.273723363876343,-0.04531395435333252,-0.2868666648864746,1,0.1300584524869919,-0.8745202422142029,-0.07972351461648941,0.4603729844093323,-0.7844735383987427,-0.2591904401779175,0.5634016990661621,0,0,0,-1,169195.938600875,3,2,1561841379.885099,0,0,0,0,0,0,0,0,0,169195.306384,0,-0.1188965,75.19408,0,182478453,1,1,1,-20.68243,-29.13626,5
1561841381.841595,61,0,0,1561841380.998182,4.634493612688625,-74.15090563713959,2551.893,0.64,252.0703125,4,30,-9999,1561841381.819497,8.783538818359375,-18.2219352722168,20.47955322265625,123.2118301391602,130.7050323486328,15,169198.136158875,-5.247039794921875,-2.011795043945312,0.3807373046875,169198.136158875,-3.931146147236092,2.496515649080293,5.865813635877932,169198.112019875,-65.77169799804688,-45.90083312988281,-540.6251831054688,169198.131092875,0.02824655010214577,-2.187482956123897,0.0991488659002723,-2.494862794876099,1.428594470024109,7.515955924987793,-3.954900503158569,-1.18707001209259,-0.0008184909820556641,1,0.03528184071183205,-0.8868498802185059,-0.03754034265875816,0.4591767489910126,-0.8117927312850952,-0.09898649901151657,0.5754950642585754,0,0,0,-1,169195.938600875,3,2,1561841379.885099,0,0,0,0,0,0,0,0,0,169195.306384,0,-0.1188965,75.19408,0,182478453,1,1,1,-20.68243,-29.85248,5
1561841381.861821,62,0,0,1561841380.998182,4.634493612688625,-74.15090563713959,2551.893,0.64,252.0703125,4,30,-9999,1561841381.845797,5.724403381347656,-19.98741912841797,19.89166259765625,132.5046539306641,139.9978637695312,15,169198.156422875,-4.818344116210938,-2.876541137695312,-0.1946563720703125,169198.156422875,-3.078007019403061,1.886052814522988,1.474782977910924,169198.132130875,-69.14048767089844,-47.14067077636719,-541.28173828125,169198.151356875,-0.09446432126676378,-2.120764832411458,0.07007974353575554,-4.199288845062256,2.886621475219727,2.133272886276245,-4.2957763671875,-2.435470819473267,-0.374542236328125,1,-0.0240757130086422,-0.8718423843383789,-0.05358541384339333,0.4862509071826935,-0.8504484891891479,-0.07002239674329758,0.5213775634765625,0,0,0,-1,169195.938600875,3,2,1561841379.885099,0,0,0,0,0,0,0,0,0,169195.306384,0,-0.1188965,75.19408,0,182478453,1,1,1,-20.68243,-30.52106,5
1561841381.882527,63,0,0,1561841380.998182,4.634493612688625,-74.15090563713959,2551.893,0.64,252.0703125,4,30,-9999,1561841381.870619,0.3426513671875,-22.95733642578125,17.2430419921875,138.4067840576172,145.8999938964844,15,169198.176685875,-4.024826049804688,-2.991241455078125,-1.01531982421875,169198.176685875,1.378859643871796,-1.041832613180633,-1.428537718213916,169198.152241875,-72.26216125488281,-49.06007385253906,-543.1649780273438,169198.171619875,-0.1336279964760395,-2.100824732800087,0.07290111004699237,0.7075058817863464,-0.8646910190582275,-0.5343636870384216,-3.544741868972778,-3.035317659378052,-1.303760290145874,1,-0.03980886191129684,-0.866327166557312,-0.06472203135490417,0.4936633706092834,-0.8605009913444519,-0.07283655554056168,0.5042150020599365,0,0,0,-1,169195.938600875,3,2,1561841379.885099,0,0,0,0,0,0,0,0,0,169195.306384,0,-0.1188965,75.19408,0,182478453,1,1,1,-20.68243,-30.61774,5
1561841381.902306,64,0,0,1561841380.998182,4.634493612688625,-74.15090563713959,2551.893,0.64,252.0703125,4,30,-9999,1561841381.896572,0.8656768798828125,-23.10738372802734,17.4320068359375,135.8045806884766,143.2977905273438,15,169198.196949875,-3.518386840820312,-2.270172119140625,-1.014678955078125,169198.196949875,1.177578194999716,1.096574688335539,-4.324769079516964,169198.172352875,-72.46424865722656,-49.48736572265625,-543.1979370117188,169198.191853875,-0.08546268226701643,-2.117371711693887,0.09684375243977905,1.402363777160645,0.3456773459911346,-3.763900756835938,-2.917409181594849,-2.568087100982666,-1.593592524528503,1,-0.01349778473377228,-0.8709089159965515,-0.06306315958499908,0.4871944189071655,-0.8503063321113586,-0.09669244289398193,0.5173290371894836,0,0,0,-1,169195.938600875,3,2,1561841379.885099,0,0,0,0,0,0,0,0,0,169195.306384,0,-0.1188965,75.19408,0,182478453,1,1,1,-20.68243,-20.68243,5
1561841381.922437,65,0,0,1561841380.998182,4.634493612688625,-74.15090563713959,2551.893,0.64,252.0703125,4,30,-9999,1561841381.920786,2.019554138183594,-22.37653350830078,17.65704345703125,130.9078063964844,138.4010162353516,15,169198.217213875,-2.5572509765625,-1.454544067382812,-0.571502685546875,169198.217213875,1.334750239369031,2.243786987953953,-5.125939548154299,169198.192432875,-70.97544860839844,-48.69975280761719,-543.0570068359375,169198.212116875,-0.01772146136479713,-2.094473965792687,0.1654653132616214,1.105595469474792,2.284886837005615,-5.069441318511963,-2.149778366088867,-1.680946111679077,-1.28370463848114,1,0.03366726636886597,-0.8634151220321655,-0.075980544090271,0.497602105140686,-0.8541582226753235,-0.1647113114595413,0.4932383298873901,0,0,0,-1,169195.938600875,3,2,1561841379.885099,0,0,0,0,0,0,0,0,0,169195.306384,0,-0.1188965,75.19408,0,182478453,1,1,1,-20.68243,-20.68243,5
1561841381.942854,66,0,0,1561841380.998182,4.634493612688625,-74.15090563713959,2551.893,0.64,252.0703125,4,30,-9999,1561841381.920786,2.019554138183594,-22.37653350830078,17.65704345703125,130.9078063964844,138.4010162353516,15,169198.237446875,-2.215087890625,-0.9542694091796875,-0.2011566162109375,169198.237446875,2.610808403054352,1.075781525492527,-5.775542594936388,169198.212544875,-69.66696166992188,-48.33137512207031,-542.4771728515625,169198.232380875,0.06539658268871373,-2.071808098316158,0.2417759497107432,2.319789409637451,1.377106308937073,-5.533967971801758,-1.459281206130981,-0.9231550693511963,-0.8410378694534302,1,0.08936043828725815,-0.8515786528587341,-0.08715087175369263,0.5091495513916016,-0.8515861034393311,-0.2394272983074188,0.4663429856300354,0,0,0,-1,169195.938600875,3,2,1561841379.885099,0,0,0,0,0,0,0,0,0,169195.306384,0,-0.1188965,75.19408,0,182478453,1,1,1,-20.68243,-20.68243,5
1561841381.963077,67,0,0,1561841380.998182,4.634493612688625,-74.15090563713959,2551.893,0.64,252.0703125,4,30,-9999,1561841381.947211,3.15802001953125,-21.74046325683594,18.48809814453125,124.2842788696289,131.7774810791016,15,169198.257710875,-2.145919799804688,-0.6653594970703125,-0.051300048828125,169198.257710875,3.060069830513051,0.7847592710519383,-6.693159782237436,169198.232655875,-68.42208862304688,-47.05165100097656,-541.7163696289062,169198.252644875,0.178376044630247,-2.084662963518076,0.3215309153565568,3.054399490356445,0.7002274394035339,-6.512203216552734,-1.359996676445007,-0.4910942316055298,-0.5663942098617554,1,0.1563169956207275,-0.8418692350387573,-0.09335684776306152,0.5080409646034241,-0.8262215852737427,-0.3160193860530853,0.4663576185703278,0,0,0,-1,169195.938600875,3,2,1561841379.885099,0,0,0,0,0,0,0,0,0,169195.306384,0,-0.1188965,75.19408,0,182478453,1,1,1,-20.68243,-21.0453,5
1561841381.991195,68,0,0,1561841380.998182,4.634493612688625,-74.15090563713959,2551.893,0.64,252.0703125,4,30,-9999,1561841381.971957,6.742210388183594,-18.59840393066406,20.34881591796875,115.3447570800781,122.8379592895508,15,169198.277973875,-2.003677368164062,-0.29443359375,0.0861358642578125,169198.277973875,2.893617735009245,1.261654456929627,-7.140990559558545,169198.252766875,-66.55038452148438,-45.24879455566406,-540.4305419921875,169198.272907875,0.3095177758175506,-2.112923878061217,0.4103210833581563,2.929990768432617,1.171188473701477,-7.071897983551025,-1.299147844314575,-0.09258180856704712,-0.4685841798782349,1,0.230410173535347,-0.8267265558242798,-0.1010061651468277,0.5032217502593994,-0.78550785779953,-0.3989037871360779,0.4731312990188599,0,0,0,-1,169195.938600875,3,2,1561841379.885099,0,0,0,0,0,0,0,0,0,169195.306384,0,-0.1188965,75.19408,0,182478453,1,1,1,-13.59114,-18.62814,5
1561841382.003533,69,0,0,1561841380.998182,4.634493612688625,-74.15090563713959,2551.893,0.64,252.0703125,4,30,-9999,1561841381.997725,8.285598754882812,-16.06270599365234,21.56268310546875,105.3961181640625,112.8893203735352,15,169198.298237875,-1.83636474609375,0.1267242431640625,0.2515869140625,169198.298237875,2.772663616200571,1.427806946810798,-7.241870569018529,169198.272846875,-64.60987854003906,-42.88909912109375,-539.2889404296875,169198.293171875,0.450421883113689,-2.148534866134098,0.5030182363711155,2.796017646789551,1.410857081413269,-7.252353191375732,-1.190289735794067,0.392533540725708,-0.3050967454910278,1,0.3057277500629425,-0.8035992383956909,-0.1102539077401161,0.4986007809638977,-0.7339350581169128,-0.482072114944458,0.4784823954105377,0,0,0,-1,169195.938600875,3,2,1561841379.885099,0,0,0,0,0,0,0,0,0,169195.306384,0,-0.1188965,75.19408,0,182478453,1,1,1,-13.59114,-18.62814,5
1561841382.024826,70,0,0,1561841380.998182,4.634493612688625,-74.15090563713959,2551.893,0.64,252.0703125,4,30,-9999,1561841382.022163,9.413108825683594,-13.60788726806641,22.529052734375,94.55217742919922,102.0453796386719,15,169198.318501875,-1.638824462890625,0.451934814453125,0.346710205078125,169198.318501875,2.822049009138892,1.29532160679819,-7.027006199638717,169198.292957875,-63.7139892578125,-40.48420715332031,-538.4357299804688,169198.313435875,0.6014466126526149,-2.199108700943676,0.5916117718146563,2.785822629928589,1.322299718856812,-7.103034496307373,-1.057009220123291,0.8740600347518921,-0.1832715272903442,1,0.3788673877716064,-0.774855375289917,-0.1194441467523575,0.4917231202125549,-0.6715216040611267,-0.5576995611190796,0.4878827035427094,0,0,0,-1,169195.938600875,3,2,1561841379.885099,0,0,0,0,0,0,0,0,0,169195.306384,0,-0.1188965,75.19408,0,182478453,1,1,1,-13.59114,-18.95432,5
1561841382.044103,71,0,0,1561841380.998182,4.634493612688625,-74.15090563713959,2551.893,0.64,252.0703125,4,30,-9999,1561841382.022163,9.413108825683594,-13.60788726806641,22.529052734375,94.55217742919922,102.0453796386719,15,169198.338764875,-1.474105834960938,0.6070404052734375,0.4257354736328125,169198.338764875,2.966069565097069,1.369373464068934,-6.816565340829528,169198.313038875,-62.73013305664062,-37.76950073242188,-537.3660888671875,169198.333698875,0.7655377306523521,-2.269632747157349,0.6673520324075202,2.93383264541626,1.331841588020325,-6.856649398803711,-0.9632313847541809,1.155620932579041,-0.1200407743453979,1,0.4481815993785858,-0.7428244948387146,-0.1263719797134399,0.4810146987438202,-0.6013438105583191,-0.6189082860946655,0.5053099393844604,0,0,0,-1,169195.938600875,3,2,1561841379.885099,0,0,0,0,0,0,0,0,0,169195.306384,0,-0.1188965,75.19408,0,182478453,1,1,1,-13.59114,-19.34538,5
1561841382.071253,72,0,0,1561841381.998168,4.634518590760076,-74.15092776536396,2551.908,0.91,275.2734375,4,30,-9999,1561841382.052497,10.60021209716797,-7.940448760986328,24.0601806640625,82.468505859375,89.96170806884766,15,169198.359028875,-1.222457885742188,0.68548583984375,0.51751708984375,169198.359028875,3.124364664498071,1.213594519265839,-6.606514368803927,169198.333149875,-62.00556945800781,-35.10179138183594,-536.60986328125,169198.353931875,0.9450984713252012,-2.357960287361204,0.7275418375840587,3.082981109619141,1.287404894828796,-6.691469669342041,-0.8261293172836304,1.32194197177887,-0.05789196491241455,1,0.5141159892082214,-0.7072399258613586,-0.1303641349077225,0.4674416184425354,-0.5271421670913696,-0.6650358438491821,0.5290071368217468,0,0,0,-1,169195.938600875,3,2,1561841379.885099,0,0,0,0,0,0,0,0,0,169195.306384,0,-0.1188965,75.19408,0,182478453,1,1,1,-13.59114,-20.36184,5
1561841382.08454,73,0,0,1561841381.998168,4.634518590760076,-74.15092776536396,2551.908,0.91,275.2734375,4,30,-9999,1561841382.072744,10.53756713867188,-4.955886840820312,24.65643310546875,69.03387451171875,76.52707672119141,15,169198.379261875,-0.9522705078125,0.7513427734375,0.5650634765625,169198.379261875,3.197951001210268,0.8766907929331466,-6.12579088885925,169198.353260875,-62.14573669433594,-31.94717407226562,-536.0673217773438,169198.374195875,1.137108886241838,-2.466385293665573,0.7679644408159911,3.193952560424805,0.9270067811012268,-6.272102832794189,-0.6381623148918152,1.390183329582214,-0.01351618766784668,1,0.575589656829834,-0.6704039573669434,-0.1325104087591171,0.4491059184074402,-0.4496215283870697,-0.6946724653244019,0.5614898204803467,0,0,0,-1,169195.938600875,3,2,1561841379.885099,0,0,0,0,0,0,0,0,0,169195.306384,0,-0.1188965,75.19408,0,182478453,1,1,1,-13.59114,-21.28862,5
1561841382.104808,74,0,0,1561841381.998168,4.634518590760076,-74.15092776536396,2551.908,0.91,275.2734375,4,30,-9999,1561841382.098996,10.33029556274414,-1.897611618041992,24.88690185546875,55.30027389526367,62.79347991943359,15,169198.399525875,-0.638275146484375,1.003768920898438,0.621124267578125,169198.399525875,2.956712548607075,0.6903587325241175,-5.571075206452247,169198.373341875,-62.398681640625,-29.08366394042969,-535.8758544921875,169198.394459875,1.327751108523632,-2.583683340312816,0.7859816414588638,3.048460960388184,0.7111301422119141,-5.692350387573242,-0.4219633936882019,1.562423467636108,-0.009415149688720703,1,0.6302491426467896,-0.6344704627990723,-0.1332280933856964,0.4271807968616486,-0.3741334080696106,-0.7075192332267761,0.5995334982872009,0,0,0,-1,169195.938600875,3,2,1561841379.885099,0,0,0,0,0,0,0,0,0,169195.306384,0,-0.1188965,75.19408,0,182478453,1,1,1,-13.59114,-21.28862,5
1561841382.125085,75,0,0,1561841381.998168,4.634518590760076,-74.15092776536396,2551.908,0.91,275.2734375,4,30,-9999,1561841382.123863,9.784206390380859,1.195283889770508,25.06976318359375,42.74287033081055,50.23607635498047,15,169198.419788875,-0.289093017578125,1.483535766601562,0.682342529296875,169198.419788875,2.186368702219627,0.7029735939756049,-5.097041054533631,169198.393452875,-62.87800598144531,-26.00347900390625,-535.6953125,169198.414723875,1.504510823477902,-2.695016665302379,0.7895253283187942,2.459860801696777,0.7047039270401001,-5.259203433990479,-0.183472603559494,1.925793647766113,0.02584123611450195,1,0.677257239818573,-0.5990696549415588,-0.1341684907674789,0.4055080711841583,-0.3041220009326935,-0.7100191116333008,0.6351236701011658,0,0,0,-1,169195.938600875,3,2,1561841379.885099,0,0,0,0,0,0,0,0,0,169195.306384,0,-0.1188965,75.19408,0,182478453,1,1,1,-13.59114,-21.69288,5
1561841382.151068,76,0,0,1561841381.998168,4.634518590760076,-74.15092776536396,2551.908,0.91,275.2734375,4,30,-9999,1561841382.14982,7.582069396972656,4.47993278503418,24.75946044921875,33.15340423583984,40.64661026000977,15,169198.440052875,0.14385986328125,2.131561279296875,0.6881256103515625,169198.440052875,0.8300202264100529,0.5869196915726769,-3.803580464705187,169198.413563875,-63.57620239257812,-23.02459716796875,-535.7069091796875,169198.434986875,1.653476814746829,-2.787648424082306,0.7933166149798955,1.165540218353271,0.5875349640846252,-4.239137172698975,0.1671615540981293,2.505560874938965,0.02186810970306396,1,0.7140684723854065,-0.5648959875106812,-0.1381042003631592,0.3897768557071686,-0.2431350499391556,-0.7126837372779846,0.658002495765686,0,0,0,-1,169195.938600875,3,2,1561841379.885099,0,0,0,0,0,0,0,0,0,169195.306384,0,-0.1188965,75.19408,0,182478453,1,1,1,-13.59114,-22.20867,5
1561841382.165655,77,0,0,1561841381.998168,4.634518590760076,-74.15092776536396,2551.908,0.91,275.2734375,4,30,-9999,1561841382.14982,7.582069396972656,4.47993278503418,24.75946044921875,33.15340423583984,40.64661026000977,15,169198.460316875,0.612518310546875,2.9454345703125,0.78558349609375,169198.460316875,-0.3149608768470932,0.5193643494650729,-1.126326991401686,169198.433674875,-64.69671630859375,-21.74050903320312,-535.7457275390625,169198.455250875,1.74711117047572,-2.842872163832972,0.8043234045129067,-0.07859911024570465,0.5651846528053284,-1.984978675842285,0.582222044467926,3.23429274559021,0.06488585472106934,1,0.7349982857704163,-0.5396466851234436,-0.1435517072677612,0.3846451938152313,-0.2041244953870773,-0.7203615307807922,0.6628820300102234,0,0,0,-1,169195.938600875,3,2,1561841379.885099,0,0,0,0,0,0,0,0,0,169195.306384,0,-0.1188965,75.19408,0,182478453,1,1,1,-13.59114,-22.97333,5
1561841382.185906,78,0,0,1561841381.998168,4.634518590760076,-74.15092776536396,2551.908,0.91,275.2734375,4,30,-9999,1561841382.174243,7.069862365722656,4.912351608276367,24.98638916015625,30.07735443115234,37.57056045532227,15,169198.480579875,0.899078369140625,3.487197875976562,0.892608642578125,169198.480579875,-0.8731732897653699,-0.2015674723731543,3.927153269813736,169198.453754875,-65.55339050292969,-21.07215881347656,-535.582763671875,169198.475514875,1.742251420435152,-2.831521985736538,0.8133296930106459,-0.7711972594261169,0.06988570839166641,2.458988904953003,1.018469572067261,4.040146827697754,0.1963293552398682,1,0.7335653305053711,-0.5376250743865967,-0.1431631743907928,0.3903147578239441,-0.209646925330162,-0.726578950881958,0.6543176174163818,0,0,0,-1,169195.938600875,3,2,1561841379.885099,0,0,0,0,0,0,0,0,0,169195.306384,0,-0.1188965,75.19408,0,182478453,1,1,1,-13.59114,-20.57902,5
1561841382.206182,79,0,0,1561841381.998168,4.634518590760076,-74.15092776536396,2551.908,0.91,275.2734375,4,30,-9999,1561841382.200324,7.586326599121094,4.205661773681641,24.98193359375,39.33320617675781,46.82641220092773,15,169198.500843875,0.65179443359375,3.1748046875,0.8722381591796875,169198.500843875,-1.409082261186451,-0.9649082703581303,9.420472161918939,169198.473866875,-65.55192565917969,-21.61427307128906,-535.53125,169198.495747875,1.585519784378191,-2.727804198941424,0.7931843153263567,-1.223464369773865,-0.8767356872558594,8.208494186401367,1.175265073776245,4.108907699584961,0.2474011182785034,1,0.698689341545105,-0.5770770311355591,-0.1303758323192596,0.4022654294967651,-0.2820918560028076,-0.7125909328460693,0.6423693895339966,0,0,0,-1,169195.938600875,3,2,1561841379.885099,0,0,0,0,0,0,0,0,0,169195.306384,0,-0.1188965,75.19408,0,182478453,1,1,1,-9.459666,-20.78475,5
1561841382.233517,80,0,0,1561841381.998168,4.634518590760076,-74.15092776536396,2551.908,0.91,275.2734375,4,30,-9999,1561841382.224885,8.810302734375,2.219066619873047,25.08343505859375,59.15130996704102,66.64451599121094,15,169198.521076875,-0.3303985595703125,2.58624267578125,0.77923583984375,169198.521076875,-2.58031361067629,-1.352759067292365,12.21214781882548,169198.493977875,-64.38722229003906,-23.15223693847656,-535.3577880859375,169198.516010875,1.311331263465854,-2.559885288963592,0.7229808660316652,-2.206733703613281,-1.2272047996521,11.810791015625,0.6099052429199219,3.566301107406616,0.1826504468917847,1,0.6267222166061401,-0.6484390497207642,-0.1050184145569801,0.4191862642765045,-0.4119987487792969,-0.6616227626800537,0.6265078783035278,0,0,0,-1,169195.938600875,3,2,1561841379.885099,0,0,0,0,0,0,0,0,0,169195.306384,0,-0.1188965,75.19408,0,182478453,1,1,1,-9.459666,-16.61537,5
1561841382.246684,81,0,0,1561841381.998168,4.634518590760076,-74.15092776536396,2551.908,0.91,275.2734375,4,30,-9999,1561841382.224885,8.810302734375,2.219066619873047,25.08343505859375,59.15130996704102,66.64451599121094,15,169198.541340875,-1.4327392578125,1.845657348632812,0.789215087890625,169198.541340875,-4.477514151206242,-2.183607536801433,12.46808931749089,169198.514057875,-63.07318115234375,-25.83673095703125,-535.6029052734375,169198.536274875,1.010540366336262,-2.40437105783921,0.6177064461912415,-4.023533344268799,-1.984508156776428,12.54018974304199,-0.3855982422828674,2.814976215362549,0.1858061552047729,1,0.5260041952133179,-0.7246275544166565,-0.08195937424898148,0.4376266598701477,-0.5480107069015503,-0.5791669487953186,0.6035310029983521,0,0,0,-1,169195.938600875,3,2,1561841379.885099,0,0,0,0,0,0,0,0,0,169195.306384,0,-0.1188965,75.19408,0,182478453,1,1,1,-9.459666,-16.69281,5
1561841382.266852,82,0,0,1561841381.998168,4.634518590760076,-74.15092776536396,2551.908,0.91,275.2734375,4,30,-9999,1561841382.25096,10.9049072265625,-5.353349685668945,24.5697021484375,80.51413726806641,88.00733947753906,15,169198.561604875,-2.146286010742188,1.072540283203125,0.5995330810546875,169198.561604875,-5.442799258858618,-2.33538614733112,11.61538561649609,169198.534168875,-61.93223571777344,-29.98130798339844,-535.9359130859375,169198.556538875,0.7221227882605193,-2.29587307197599,0.5084479632663056,-5.375458240509033,-2.344750642776489,11.83346271514893,-1.210350036621094,1.936361312866211,0.1524661779403687,1,0.4083482623100281,-0.7892410755157471,-0.07424430549144745,0.4525901675224304,-0.6537704467773438,-0.4868221282958984,0.5792995691299438,0,0,0,-1,169195.938600875,3,2,1561841379.885099,0,0,0,0,0,0,0,0,0,169195.306384,0,-0.1188965,75.19408,0,182478453,1,1,1,-9.459666,-16.69281,5
1561841382.287204,83,0,0,1561841381.998168,4.634518590760076,-74.15092776536396,2551.908,0.91,275.2734375,4,30,-9999,1561841382.275738,10.77744293212891,-10.25922012329102,23.4193115234375,99.97946166992188,107.4726638793945,15,169198.581867875,-2.735443115234375,0.4241790771484375,0.2182769775390625,169198.581867875,-4.401661730722496,-2.421868308989808,11.80324073873253,169198.554279875,-61.67593383789062,-34.88201904296875,-536.5567016601562,169198.576801875,0.4637835971138887,-2.229881629216137,0.3954846574937776,-4.895183563232422,-2.360294818878174,11.63451385498047,-1.651436328887939,1.110231041908264,-0.1443620920181274,1,0.2865009009838104,-0.8369461297988892,-0.07247170060873032,0.460636705160141,-0.7295297980308533,-0.3852554857730865,0.5651232004165649,0,0,0,-1,169195.938600875,3,2,1561841379.885099,0,0,0,0,0,0,0,0,0,169195.306384,0,-0.1188965,75.19408,0,182478453,1,1,1,-9.459666,-12.69977,5
1561841382.311663,84,0,0,1561841381.998168,4.634518590760076,-74.15092776536396,2551.908,0.91,275.2734375,4,30,-9999,1561841382.302218,9.226222991943359,-14.73101425170898,21.9776611328125,116.0806427001953,123.573844909668,15,169198.602131875,-3.586578369140625,-0.009368896484375,-0.022369384765625,169198.602131875,-2.077328767179641,-2.257965124965317,11.68114012907458,169198.574360875,-62.85577392578125,-39.74832153320312,-538.0374755859375,169198.597065875,0.2465434010690068,-2.209804992427433,0.2496842786339239,-2.591768503189087,-2.490893840789795,11.88401699066162,-2.380604982376099,0.5004397034645081,-0.5001624822616577,1,0.1645115166902542,-0.8728625178337097,-0.05559654533863068,0.4560220539569855,-0.7777965664863586,-0.2470980435609818,0.5779060125350952,0,0,0,-1,169195.938600875,3,2,1561841379.885099,0,0,0,0,0,0,0,0,0,169195.306384,0,-0.1188965,75.19408,0,182478453,1,1,1,-9.459666,-13.39472,5
1561841382.327848,85,0,0,1561841381.998168,4.634518590760076,-74.15092776536396,2551.908,0.91,275.2734375,4,30,-9999,1561841382.326321,6.77801513671875,-17.7617073059082,20.79888916015625,127.3653793334961,134.8585815429688,15,169198.622395875,-5.207061767578125,-1.296722412109375,0.059814453125,169198.622395875,-1.568081766695779,0.8044911642005533,7.097854806750314,169198.594471875,-64.90910339355469,-43.52229309082031,-539.5037841796875,169198.617329875,0.08318543471348695,-2.213091158044652,0.09557637717305291,-1.434521198272705,-0.07227335870265961,8.801231384277344,-3.526508808135986,-0.4773077368736267,-0.6378961801528931,1,0.05850792303681374,-0.891474723815918,-0.0240803100168705,0.4486311674118042,-0.7970688939094543,-0.09543093293905258,0.5963007211685181,0,0,0,-1,169195.938600875,3,2,1561841379.885099,0,0,0,0,0,0,0,0,0,169195.306384,0,-0.1188965,75.19408,0,182478453,1,1,1,-9.459666,-14.11943,5
1561841382.34804,86,0,0,1561841381.998168,4.634518590760076,-74.15092776536396,2551.908,0.91,275.2734375,4,30,-9999,1561841382.326321,6.77801513671875,-17.7617073059082,20.79888916015625,127.3653793334961,134.8585815429688,15,169198.642658875,-4.89215087890625,-2.387069702148438,-0.1896514892578125,169198.642658875,-0.5129573165145602,1.810622238755911,1.118336176550903,169198.614582875,-67.68780517578125,-45.43074035644531,-540.57666015625,169198.637562875,-0.006017263378771663,-2.180565353889163,0.02667672259382938,-1.199058651924133,2.115611553192139,2.119279623031616,-4.573485851287842,-1.920759916305542,-0.606104850769043,1,0.00349755771458149,-0.8866932988166809,-0.01321805641055107,0.4621559977531433,-0.8194887638092041,-0.02667355909943581,0.572474479675293,0,0,0,-1,169195.938600875,3,2,1561841379.885099,0,0,0,0,0,0,0,0,0,169195.306384,0,-0.1188965,75.19408,0,182478453,1,1,1,-9.459666,-14.77348,5
1561841382.36872,87,0,0,1561841381.998168,4.634518590760076,-74.15092776536396,2551.908,0.91,275.2734375,4,30,-9999,1561841382.352264,1.967201232910156,-20.52379608154297,19.4052734375,131.6837005615234,139.1769104003906,15,169198.662891875,-4.007614135742188,-2.46484375,-0.4195556640625,169198.662891875,2.458438837078776,-0.3629550344319561,-0.8489350617362318,169198.634693875,-70.46078491210938,-46.7723388671875,-541.1096801757812,169198.657826875,-0.006728532830447921,-2.156310496924601,0.01231179666871806,1.995608687400818,0.04498109221458435,-0.4013166427612305,-3.622552633285522,-2.479250431060791,-0.9115642309188843,1,-5.27241500094533e-05,-0.8810749053955078,-0.007014928385615349,0.4729245901107788,-0.833364725112915,-0.01231148559600115,0.5525859594345093,0,0,0,-1,169195.938600875,3,2,1561841379.885099,0,0,0,0,0,0,0,0,0,169196.248778,0,0.1083984,75.19194,0,182478453,1,1,1,-9.459666,-15.83033,5
1561841382.392712,88,0,0,1561841381.998168,4.634518590760076,-74.15092776536396,2551.908,0.91,275.2734375,4,30,-9999,1561841382.376608,1.858573913574219,-19.9420166015625,19.8192138671875,128.9945983886719,136.4878082275391,15,169198.683155875,-3.172134399414062,-2.194854736328125,-0.3779449462890625,169198.683155875,1.419985242689235,0.5049768879920288,-2.86116978028772,169198.654774875,-71.15823364257812,-46.36489868164062,-540.6851806640625,169198.678089875,0.04827923966977801,-2.163079967420918,0.008745167713798676,1.970859408378601,-0.01449395157396793,-2.368085622787476,-2.694243431091309,-2.366834878921509,-0.9665305614471436,1,0.02335972338914871,-0.8823674321174622,0.007485211361199617,0.4699214398860931,-0.8296364545822144,-0.008745056577026844,0.5582359433174133,0,0,0,-1,169195.938600875,3,2,1561841379.885099,0,0,0,0,0,0,0,0,0,169196.248778,0,0.1083984,75.19194,0,182478453,1,1,1,-9.459666,-16.91916,5
1561841382.408912,89,0,0,1561841381.998168,4.634518590760076,-74.15092776536396,2551.908,0.91,275.2734375,4,30,-9999,1561841382.402993,2.295478820800781,-19.06494140625,20.69287109375,125.1044692993164,132.5976715087891,15,169198.703419875,-2.252334594726562,-1.553314208984375,-0.102020263671875,169198.703419875,-0.01543142062035514,2.162158970014153,-4.13970841221234,169198.674885875,-70.7218017578125,-45.34278869628906,-539.9794311523438,169198.698353875,0.1003379628234023,-2.143561217293681,0.05353748509524404,0.08406435698270798,1.958414077758789,-3.975024700164795,-1.913926601409912,-1.8464515209198,-0.803784966468811,1,0.0568096712231636,-0.8759927153587341,0.0005182479508221149,0.4789666533470154,-0.8392015099525452,-0.05351191386580467,0.5411811470985413,0,0,0,-1,169195.938600875,3,2,1561841379.885099,0,0,0,0,0,0,0,0,0,169196.248778,0,0.1083984,75.19194,0,182478453,1,1,1,-9.459666,-17.62605,5
1561841382.429025,90,0,0,1561841381.998168,4.634518590760076,-74.15092776536396,2551.908,0.91,275.2734375,4,30,-9999,1561841382.427307,3.030036926269531,-18.50075149536133,21.04486083984375,121.6163558959961,129.1095581054688,15,169198.723682875,-1.573043823242188,-1.078277587890625,0.1574859619140625,169198.723682875,0.8490948514016365,1.598101184819261,-4.282322552798846,169198.694996875,-69.5849609375,-44.89375305175781,-539.7705078125,169198.718617875,0.1478899635333349,-2.105781511673357,0.1241564927619837,0.5517500638961792,1.851486086845398,-4.278632164001465,-0.9901415109634399,-1.148394346237183,-0.4665210247039795,1,0.09469439089298248,-0.8625456094741821,-0.01725173182785511,0.4967398345470428,-0.8536542654037476,-0.1238377615809441,0.5059038996696472,0,0,0,-1,169195.938600875,3,2,1561841379.885099,0,0,0,0,0,0,0,0,0,169196.248778,0,0.1083984,75.19194,0,182478453,1,1,1,-9.459666,-17.62605,5
1561841382.449273,91,0,0,1561841381.998168,4.634518590760076,-74.15092776536396,2551.908,0.91,275.2734375,4,30,-9999,1561841382.427307,3.030036926269531,-18.50075149536133,21.04486083984375,121.6163558959961,129.1095581054688,15,169198.743946875,-1.384185791015625,-0.8304901123046875,0.309722900390625,169198.743946875,1.481668847225433,0.7258253803412478,-4.348526873285453,169198.715107875,-69.29171752929688,-44.67709350585938,-539.3159790039062,169198.738880875,0.2109252118275232,-2.088733484752781,0.1888087569975157,1.429367065429688,0.8655774593353271,-4.33347225189209,-0.5852275490760803,-0.7441500425338745,-0.2375874519348145,1,0.1377093195915222,-0.8509884476661682,-0.02839268743991852,0.5060124397277832,-0.8534016013145447,-0.1876889616250992,0.4862903952598572,0,0,0,-1,169195.938600875,3,2,1561841379.885099,0,0,0,0,0,0,0,0,0,169196.248778,0,0.1083984,75.19194,0,182478453,1,1,1,-9.459666,-18.67189,5
1561841382.471301,92,0,0,1561841381.998168,4.634518590760076,-74.15092776536396,2551.908,0.91,275.2734375,4,30,-9999,1561841382.453542,4.047615051269531,-17.27426528930664,21.42755126953125,116.8345489501953,124.327751159668,15,169198.7642156667,-1.34649658203125,-0.715179443359375,0.384979248046875,169198.7642156667,0.9772272546125099,0.7345530918656554,-4.274930416561113,169198.735188875,-68.84698486328125,-43.81033325195312,-539.0552978515625,169198.759144875,0.2808249855697528,-2.09018410367302,0.2513131882409161,1.186150431632996,0.6453444361686707,-4.318948745727539,-0.5094128251075745,-0.5192224383354187,-0.1222362518310547,1,0.1823720782995224,-0.8409035801887512,-0.03765951842069626,0.5081371665000916,-0.8408526182174683,-0.2486761063337326,0.4807568192481995,0,0,0,-1,169195.938600875,3,2,1561841379.885099,0,0,0,0,0,0,0,0,0,169196.248778,0,0.1083984,75.19194,0,182478453,1,1,1,-9.459666,-13.63235,5
1561841382.489712,93,0,0,1561841381.998168,4.634518590760076,-74.15092776536396,2551.908,0.91,275.2734375,4,30,-9999,1561841382.47792,5.334259033203125,-16.16764068603516,22.06439208984375,112.2471084594727,119.7403106689453,15,169198.7844786667,-1.337997436523438,-0.6197509765625,0.463623046875,169198.7844786667,-0.03418966207443726,1.390841471932171,-4.170322514207236,169198.7553046667,-67.78199768066406,-42.66555786132812,-538.2286987304688,169198.7793826667,0.3384479408052485,-2.088393604982973,0.3186104515471144,0.216095894575119,1.20959734916687,-4.190384387969971,-0.5256166458129883,-0.3518223166465759,-0.05312800407409668,1,0.2223459929227829,-0.8279540538787842,-0.05160780251026154,0.512241005897522,-0.8252744674682617,-0.3132472634315491,0.4698913097381592,0,0,0,-1,169195.938600875,3,2,1561841379.885099,0,0,0,0,0,0,0,0,0,169196.248778,0,0.1083984,75.19194,0,182478453,1,1,1,-9.459666,-14.35905,5
1561841382.509953,94,0,0,1561841381.998168,4.634518590760076,-74.15092776536396,2551.908,0.91,275.2734375,4,30,-9999,1561841382.504698,5.743949890136719,-15.61197280883789,22.155029296875,109.2312469482422,116.7244491577148,15,169198.8047426667,-1.339920043945312,-0.5622711181640625,0.5355377197265625,169198.8047426667,-0.8042251144076544,1.937815877682532,-4.155979261208287,169198.7955266667,-66.53515625,-41.39582824707031,-538.260498046875,169198.7996466667,0.377560010900256,-2.070887184050339,0.3948089330357171,-0.6687527298927307,1.817899823188782,-4.160167694091797,-0.5137307643890381,-0.2031672596931458,0.06090772151947021,1,0.2565446794033051,-0.8096254467964172,-0.07181308418512344,0.5230052471160889,-0.8100301623344421,-0.3846318423748016,0.4426170587539673,0,0,0,-1,169195.938600875,3,2,1561841379.885099,0,0,0,0,0,0,0,0,0,169196.248778,0,0.1083984,75.19194,0,182478453,1,1,1,-9.459666,-14.8434,5
1561841382.530071,95,0,0,1561841381.998168,4.634518590760076,-74.15092776536396,2551.908,0.91,275.2734375,4,30,-9999,1561841382.528614,6.014312744140625,-15.38309097290039,22.2752685546875,107.387809753418,114.8810119628906,15,169198.8249756667,-1.3145751953125,-0.493194580078125,0.597076416015625,169198.8249756667,-0.9002887970362297,2.010955069647705,-4.129700252835822,169198.8156066667,-66.25790405273438,-41.53355407714844,-538.4475708007812,169198.8199096667,0.4037559644066979,-2.041654545016303,0.4774364672291005,-0.9530347585678101,2.061007022857666,-4.147380352020264,-0.5545149445533752,-0.06390315294265747,0.1674972772598267,1,0.2871721088886261,-0.7867612242698669,-0.09566903859376907,0.5379464626312256,-0.7915238738059998,-0.4595038294792175,0.4029220938682556,0,0,0,-1,169195.938600875,3,2,1561841379.885099,0,0,0,0,0,0,0,0,0,169196.248778,0,0.1083984,75.19194,0,182478453,1,1,1,-9.459666,-15.76768,5
1561841382.552168,96,0,0,1561841381.998168,4.634518590760076,-74.15092776536396,2551.908,0.91,275.2734375,4,30,-9999,1561841382.528614,6.014312744140625,-15.38309097290039,22.2752685546875,107.387809753418,114.8810119628906,15,169198.8452396667,-1.290496826171875,-0.496490478515625,0.592987060546875,169198.8452396667,-0.4866612639111179,1.449470963330266,-3.910359109663588,169198.8357186667,-66.23808288574219,-41.29121398925781,-538.446044921875,169198.8401736667,0.4290870233292779,-2.016603090339503,0.5587172517444601,-0.58991539478302,1.56853187084198,-3.958628416061401,-0.5110771059989929,0.05173587799072266,0.2458932399749756,1,0.3167970180511475,-0.7631832361221313,-0.1187693178653717,0.5505314469337463,-0.7650611996650696,-0.5300989747047424,0.3656179904937744,0,0,0,-1,169195.938600875,3,2,1561841379.885099,0,0,0,0,0,0,0,0,0,169196.248778,0,0.1083984,75.19194,0,182478453,1,1,1,-9.459666,-16.60614,5
1561841382.570741,97,0,0,1561841381.998168,4.634518590760076,-74.15092776536396,2551.908,0.91,275.2734375,4,30,-9999,1561841382.554835,6.465812683105469,-15.2261848449707,22.03759765625,105.4690475463867,112.9622497558594,15,169198.8655036667,-1.291778564453125,-0.559906005859375,0.634063720703125,169198.8655036667,-0.3377751126413659,1.497838496099958,-4.25383152282496,169198.8558296667,-65.98121643066406,-41.15628051757812,-538.4085693359375,169198.8604376667,0.4608601977560883,-2.005457468883038,0.6353236818962601,-0.3435607552528381,1.446287989616394,-4.125222682952881,-0.5912529826164246,0.06366819143295288,0.2498993873596191,1,0.3464944064617157,-0.7412221431732178,-0.1396002769470215,0.5577123761177063,-0.7300360798835754,-0.5934380888938904,0.3389372825622559,0,0,0,-1,169195.938600875,3,2,1561841379.885099,0,0,0,0,0,0,0,0,0,169196.248778,0,0.1083984,75.19194,0,182478453,1,1,1,-9.459666,-17.35079,5
1561841382.591452,98,0,0,1561841381.998168,4.634518590760076,-74.15092776536396,2551.908,0.91,275.2734375,4,30,-9999,1561841382.57964,6.928863525390625,-15.06178283691406,22.007080078125,102.8952941894531,110.3884963989258,15,169198.8857666667,-1.216110229492188,-0.5540618896484375,0.6786041259765625,169198.8857666667,-0.2973981284063476,1.242687157329973,-4.609474848484104,169198.8759406667,-65.70773315429688,-40.91273498535156,-538.27099609375,169198.8807006667,0.5004892252921842,-2.00049777950389,0.718688754774315,-0.3229036629199982,1.37909722328186,-4.5807204246521,-0.5666862726211548,0.07889997959136963,0.3572909832000732,1,0.3791173696517944,-0.716275691986084,-0.1615346521139145,0.5631390810012817,-0.6842445135116577,-0.6583983302116394,0.3135617077350616,0,0,0,-1,169195.938600875,3,2,1561841379.885099,0,0,0,0,0,0,0,0,0,169196.248778,0,0.1083984,75.19194,0,182478453,1,1,1,-9.459666,-17.35079,5
1561841382.611282,99,0,0,1561841381.998168,4.634518590760076,-74.15092776536396,2551.908,0.91,275.2734375,4,30,-9999,1561841382.605525,7.218070983886719,-14.67563247680664,22.0648193359375,99.66817474365234,107.161376953125,15,169198.9060306667,-1.061065673828125,-0.4912567138671875,0.64385986328125,169198.9060306667,-0.2865489427575828,0.7893103470387747,-4.4435993273563,169198.8960206667,-64.86024475097656,-40.61505126953125,-538.572021484375,169198.9009646667,0.5471446501919325,-2.010661605943914,0.8052063191908844,-0.2615108788013458,0.8308189511299133,-4.495539665222168,-0.5220644474029541,0.1983906030654907,0.3677510023117065,1,0.412008672952652,-0.6912211179733276,-0.1853353828191757,0.5640150308609009,-0.6269986033439636,-0.7209736108779907,0.2950755655765533,0,0,0,-1,169195.938600875,3,2,1561841379.885099,0,0,0,0,0,0,0,0,0,169196.248778,0,0.1083984,75.19194,0,182478453,1,1,1,-9.459666,-18.20811,5
1561841382.634593,100,0,0,1561841381.998168,4.634518590760076,-74.15092776536396,2551.908,0.91,275.2734375,4,30,-9999,1561841382.630058,7.870742797851562,-14.24817657470703,21.995361328125,96.24252319335938,103.735725402832,15,169198.9262946667,-0.87811279296875,-0.4956207275390625,0.6470184326171875,169198.9262946667,-0.6129238617206466,0.990340393503951,-4.364810239138524,169198.9161316667,-63.86074829101562,-39.75410461425781,-538.4614868164062,169198.9212286667,0.5958931914785179,-2.030613323543572,0.8889485363869564,-0.5172979235649109,0.9056175351142883,-4.363059997558594,-0.4019361734390259,0.2998470067977905,0.367485523223877,1,0.4419500231742859,-0.6667255163192749,-0.2094673216342926,0.5623883605003357,-0.5647691488265991,-0.7764095067977905,0.2796854674816132,0,0,0,-1,169195.938600875,3,2,1561841379.885099,0,0,0,0,0,0,0,0,0,169196.248778,0,0.1083984,75.19194,0,182478453,1,1,1,-9.459666,-19.26464,5
1561841382.651827,101,0,0,1561841381.998168,4.634518590760076,-74.15092776536396,2551.908,0.91,275.2734375,4,30,-9999,1561841382.630058,7.870742797851562,-14.24817657470703,21.995361328125,96.24252319335938,103.735725402832,15,169198.9465576667,-0.666748046875,-0.517852783203125,0.6724853515625,169198.9465576667,-0.7043424587759056,1.007711128030102,-4.393419513464809,169198.9362426667,-63.88320922851562,-39.83061218261719,-538.3185424804688,169198.9414616667,0.6426467716533302,-2.047411916880188,0.9741104686580835,-0.7457140684127808,1.064003229141235,-4.392752170562744,-0.2796037793159485,0.3196797966957092,0.4011025428771973,1,0.4693683981895447,-0.6392080187797546,-0.2340679168701172,0.562421977519989,-0.499281108379364,-0.8272023797035217,0.2577871680259705,0,0,0,-1,169195.938600875,3,2,1561841379.885099,0,0,0,0,0,0,0,0,0,169196.248778,0,0.1083984,75.19194,0,182478453,1,1,1,-9.459666,-20.18581,5
1561841382.672026,102,0,0,1561841381.998168,4.634518590760076,-74.15092776536396,2551.908,0.91,275.2734375,4,30,-9999,1561841382.656106,9.190776824951172,-13.67760467529297,22.399658203125,92.80238342285156,100.2955856323242,15,169198.9667916667,-0.461456298828125,-0.5339202880859375,0.6704559326171875,169198.9667916667,-0.3430300621043103,0.5291386832978817,-4.315273312334178,169198.9563236667,-63.04109191894531,-39.41453552246094,-538.2327270507812,169198.9617256667,0.7014333923248732,-2.079495391506088,1.058335549725584,-0.4346610903739929,0.6598078012466431,-4.34766960144043,-0.1242978274822235,0.3487896919250488,0.4344861507415771,1,0.4958286285400391,-0.611193835735321,-0.25859335064888,0.5601121187210083,-0.428238183259964,-0.8715405464172363,0.2388078719377518,0,0,0,-1,169195.938600875,3,2,1561841379.885099,0,0,0,0,0,0,0,0,0,169196.248778,0,0.1083984,75.19194,0,182478453,1,1,1,-9.459666,-21.18152,5
1561841382.692458,103,0,0,1561841381.998168,4.634518590760076,-74.15092776536396,2551.908,0.91,275.2734375,4,30,-9999,1561841382.680487,9.744747161865234,-13.11814880371094,22.26580810546875,206.1947021484375,213.6879119873047,15,169198.9870546667,-0.336090087890625,-0.561279296875,0.6144256591796875,169198.9870546667,-0.223065041324492,0.07918163816245392,-4.230930201663042,169198.9764346667,-62.33445739746094,-39.20823669433594,-538.2396850585938,169198.9819886667,0.7888449109913608,-2.149273880784582,1.136078338326955,-0.2156400680541992,0.1659868806600571,-4.260326385498047,-0.04286140203475952,0.3565738201141357,0.4173014163970947,1,0.5213096141815186,-0.58597731590271,-0.2825769484043121,0.5522835850715637,-0.352631151676178,-0.9069888591766357,0.2302662581205368,0,0,0,-1,169195.938600875,3,2,1561841379.885099,0,0,0,0,0,0,0,0,0,169196.248778,0,0.1083984,75.19194,0,182478453,1,1,1,-9.459666,-21.98098,5
1561841382.712682,104,0,0,1561841381.998168,4.634518590760076,-74.15092776536396,2551.908,0.91,275.2734375,4,30,-9999,1561841382.707015,10.46611785888672,-12.8304443359375,22.26300048828125,206.2055511474609,213.6987609863281,15,169199.0073186667,-0.1892242431640625,-0.5597991943359375,0.5363616943359375,169199.0073186667,-0.2368708684154627,-0.06132141462794653,-4.096111399903307,169198.9965156667,-61.53038024902344,-38.55735778808594,-538.27685546875,169199.0022526667,0.9085822057799462,-2.259161530563345,1.207730405223002,-0.2509663701057434,-0.04872569069266319,-4.142465591430664,0.00678446888923645,0.3703897595405579,0.3503299951553345,1,0.5445153117179871,-0.5624140501022339,-0.307117223739624,0.541176974773407,-0.2742710113525391,-0.9348123669624329,0.2256129831075668,0,0,0,-1,169195.938600875,3,2,1561841379.885099,0,0,0,0,0,0,0,0,0,169196.248778,0,0.1083984,75.19194,0,182478453,1,1,1,-9.459666,-22.92217,5
1561841382.732855,105,0,0,1561841381.998168,4.634518590760076,-74.15092776536396,2551.908,0.91,275.2734375,4,30,-9999,1561841382.731656,11.43215942382812,-12.20204925537109,22.2509765625,206.4384002685547,213.9316101074219,15,169199.0275826667,-0.0169677734375,-0.576751708984375,0.4734039306640625,169199.0275826667,-0.2326915697168014,-0.1676467895688151,-3.799095168797276,169199.0166266667,-60.59645080566406,-37.58238220214844,-538.3629760742188,169199.0225166667,1.07241615979964,-2.416096571367362,1.270084350914526,-0.2279997915029526,-0.1500059813261032,-3.897606134414673,0.09701311588287354,0.3861561417579651,0.2849071025848389,1,0.5654731392860413,-0.5394852161407471,-0.3308288753032684,0.5289121866226196,-0.1965309232473373,-0.9551258683204651,0.2216083407402039,0,0,0,-1,169195.938600875,3,2,1561841379.885099,0,0,0,0,0,0,0,0,0,169196.248778,0,0.1083984,75.19194,0,182478453,1,1,1,-9.459666,-22.92217,5
1561841382.753205,106,0,0,1561841381.998168,4.634518590760076,-74.15092776536396,2551.908,0.91,275.2734375,4,30,-9999,1561841382.731656,11.43215942382812,-12.20204925537109,22.2509765625,206.4384002685547,213.9316101074219,15,169199.0478456667,0.1126708984375,-0.5522003173828125,0.437530517578125,169199.0478456667,-0.4157641872676824,-0.3425403067798448,-3.335061719404126,169199.0367376667,-59.97024536132812,-36.99673461914062,-538.4697265625,169199.0427796667,1.283685827576267,-2.623720496481541,1.318406936102481,-0.3543324172496796,-0.2917620539665222,-3.466232299804688,0.1741860806941986,0.3949695229530334,0.2423770427703857,1,0.5830814242362976,-0.518172562122345,-0.3530696928501129,0.5165800452232361,-0.1236184537410736,-0.9683185219764709,0.2169734984636307,0,0,0,-1,169195.938600875,3,2,1561841379.885099,0,0,0,0,0,0,0,0,0,169196.248778,0,0.1083984,75.19194,0,182478453,1,1,1,-9.459666,-23.91296,5
1561841382.774588,107,0,0,1561841381.998168,4.634518590760076,-74.15092776536396,2551.908,0.91,275.2734375,4,30,-9999,1561841382.757444,12.98030853271484,-10.68135070800781,21.87066650390625,206.9003601074219,214.3935699462891,15,169199.0681096667,0.1929168701171875,-0.51934814453125,0.414031982421875,169199.0681096667,-0.6829591394353324,-0.5826381274881565,-2.742024480491428,169199.0568176667,-59.09492492675781,-36.57609558105469,-538.6779174804688,169199.0630436667,1.523839904185421,-2.865633445706389,1.352781250784064,-0.6236608624458313,-0.5352950692176819,-2.899543046951294,0.2184333205223083,0.4447735548019409,0.2257595062255859,1,0.5955081582069397,-0.4994241297245026,-0.3745580613613129,0.5056203007698059,-0.05893319472670555,-0.9763286709785461,0.2081088572740555,0,0,0,-1,169195.938600875,3,2,1561841379.885099,0,0,0,0,0,0,0,0,0,169196.248778,0,0.1083984,75.19194,0,182478453,1,1,1,-9.459666,-24.9482,5
1561841382.79369,108,0,0,1561841381.998168,4.634518590760076,-74.15092776536396,2551.908,0.91,275.2734375,4,30,-9999,1561841382.781771,13.69978713989258,-10.13165664672852,21.5218505859375,207.7519073486328,215.2451171875,15,169199.0883736667,0.27386474609375,-0.4910125732421875,0.361663818359375,169199.0883736667,-0.7583963731051349,-0.6905499474903852,-2.145480124739204,169199.0769286667,-58.60739135742188,-36.19198608398438,-539.286865234375,169199.0832766667,1.766089242851378,-3.11523958332193,1.375299718885783,-0.7812286615371704,-0.6704704761505127,-2.287154674530029,0.2392494678497314,0.4730014801025391,0.1891137361526489,1,0.6023340821266174,-0.4840321838855743,-0.3950209617614746,0.4968551695346832,-0.005118608940392733,-0.9809513092041016,0.1941870003938675,0,0,0,-1,169195.938600875,3,2,1561841379.885099,0,0,0,0,0,0,0,0,0,169196.248778,0,0.1083984,75.19194,0,182478453,1,1,1,-9.459666,-25.70948,5
1561841382.813931,109,0,0,1561841381.998168,4.634518590760076,-74.15092776536396,2551.908,0.91,275.2734375,4,30,-9999,1561841382.808348,14.24366760253906,-9.766925811767578,21.3189697265625,208.7982482910156,216.2914581298828,15,169199.1086066667,0.3567047119140625,-0.4505767822265625,0.3141937255859375,169199.1086066667,-0.3447741663022032,-0.8993729359373515,-1.704240937432151,169199.0970406667,-57.84684753417969,-35.92774963378906,-539.47509765625,169199.1035406667,1.989736709484813,2.933440242873079,1.385372230734826,-0.4940724968910217,-0.8211768865585327,-1.805907130241394,0.2785511016845703,0.5105528235435486,0.1548970937728882,1,0.60577392578125,-0.4724723398685455,-0.4129611253738403,0.4891533851623535,0.03809927403926849,-0.9828581809997559,0.1803843230009079,0,0,0,-1,169195.938600875,3,2,1561841379.885099,0,0,0,0,0,0,0,0,0,169196.248778,0,0.1083984,75.19194,0,182478453,1,1,1,-9.459666,-25.85218,5
1561841382.834142,110,0,0,1561841381.998168,4.634518590760076,-74.15092776536396,2551.908,0.91,275.2734375,4,30,-9999,1561841382.832435,15.35271835327148,-9.385848999023438,20.47344970703125,210.3102722167969,217.8034820556641,15,169199.1288696667,0.372650146484375,-0.41265869140625,0.28204345703125,169199.1288696667,0.2816521884612541,-1.250528835159711,-1.414025088169638,169199.1171516667,-57.43832397460938,-35.36183166503906,-540.061279296875,169199.1238036667,2.162438901665134,2.743416355107896,1.378919595166172,0.1552658379077911,-1.193291902542114,-1.46208131313324,0.3057422935962677,0.5553632974624634,0.1213974952697754,1,0.6083399057388306,-0.4667054116725922,-0.4279042482376099,0.4785462915897369,0.07394216954708099,-0.9816480875015259,0.1757827699184418,0,0,0,-1,169195.938600875,3,2,1561841379.885099,0,0,0,0,0,0,0,0,0,169196.248778,0,0.1083984,75.19194,0,182478453,1,1,1,-9.459666,-26.8758,5
1561841382.854278,111,0,0,1561841381.998168,4.634518590760076,-74.15092776536396,2551.908,0.91,275.2734375,4,30,-9999,1561841382.832435,15.35271835327148,-9.385848999023438,20.47344970703125,210.3102722167969,217.8034820556641,15,169199.1491336667,0.3164825439453125,-0.3770751953125,0.23699951171875,169199.1491336667,0.3063399580823977,-1.159233009830705,-1.276934343683956,169199.1372316667,-56.73600769042969,-35.0570068359375,-540.1307373046875,169199.1440676667,2.274365462995859,2.608171363516148,1.360415694287584,0.3645420968532562,-1.243587851524353,-1.337228655815125,0.2384171187877655,0.5810551643371582,0.08507299423217773,1,0.6109008193016052,-0.4655211567878723,-0.440853089094162,0.4644768834114075,0.1061873957514763,-0.9779515266418457,0.1798195242881775,0,0,0,-1,169195.938600875,3,2,1561841379.885099,0,0,0,0,0,0,0,0,0,169196.248778,0,0.1083984,75.19194,0,182478453,1,1,1,-9.459666,-27.63707,5
1561841382.874771,112,0,0,1561841381.998168,4.634518590760076,-74.15092776536396,2551.908,0.91,275.2734375,4,30,-9999,1561841382.858907,16.30484771728516,-8.753383636474609,20.18524169921875,212.1704254150391,219.6636352539062,15,169199.1693976667,0.27392578125,-0.3234405517578125,0.162322998046875,169199.1693976667,-0.2507320892571072,-0.5293341593218935,-0.8160394296354639,169199.1573426667,-55.98995971679688,-34.59414672851562,-540.3803100585938,169199.1643316667,2.356210571330215,2.507423438731766,1.344045534444813,-0.06297728419303894,-0.7296613454818726,-0.9527195692062378,0.153921365737915,0.6227480173110962,0.01769065856933594,1,0.6126711368560791,-0.4638798236846924,-0.4517948031425476,0.4531346261501312,0.1332032531499863,-0.9744020104408264,0.1811008304357529,0,0,0,-1,169195.938600875,3,2,1561841379.885099,0,0,0,0,0,0,0,0,0,169196.248778,0,0.1083984,75.19194,0,182478453,1,1,1,-9.459666,-28.25166,5
1561841382.89496,113,0,0,1561841381.998168,4.634518590760076,-74.15092776536396,2551.908,0.91,275.2734375,4,30,-9999,1561841382.883086,16.72872543334961,-8.223819732666016,19.88751220703125,213.1050567626953,220.5982666015625,15,169199.1896606667,0.285858154296875,-0.28070068359375,0.13531494140625,169199.1896606667,-1.011513589434517,0.01592836647976392,-0.417733594893796,169199.1774536667,-55.6114501953125,-34.21627807617188,-540.9259033203125,169199.1845946667,2.431793850773555,2.426525550333841,1.342361080094452,-0.8599151968955994,-0.04797175154089928,-0.4994331002235413,0.1293689608573914,0.6739120483398438,-0.03295254707336426,1,0.6122214198112488,-0.4589953124523163,-0.4594198763370514,0.4510449767112732,0.1484783142805099,-0.9740219116210938,0.1709835231304169,0,0,0,-1,169195.938600875,3,2,1561841379.885099,0,0,0,0,0,0,0,0,0,169196.248778,0,0.1083984,75.19194,0,182478453,1,1,1,-9.459666,-28.25166,5
1561841382.915167,114,0,0,1561841381.998168,4.634518590760076,-74.15092776536396,2551.908,0.91,275.2734375,4,30,-9999,1561841382.909945,16.95592498779297,-8.331192016601562,19.5643310546875,212.9791107177734,220.4723205566406,15,169199.2099246667,0.289825439453125,-0.2607421875,0.151580810546875,169199.2099246667,-0.9670390655463027,-0.3233263984632501,-0.1175828231847425,169199.1975646667,-55.60911560058594,-34.54598999023438,-540.9047241210938,169199.2048586667,2.52156982345674,2.337949000053514,1.352950387340815,-1.079411029815674,-0.1977292895317078,-0.2048038393259048,0.1491615474224091,0.6968852281570435,-0.01002645492553711,1,0.6087682247161865,-0.4521134197711945,-0.4662081003189087,0.4556803107261658,0.1555869877338409,-0.9763652682304382,0.1500105857849121,0,0,0,-1,169195.938600875,3,2,1561841379.885099,0,0,0,0,0,0,0,0,0,169196.248778,0,0.1083984,75.19194,0,182478453,1,1,1,-9.459666,-28.89686,5
1561841382.935458,115,0,0,1561841381.998168,4.634518590760076,-74.15092776536396,2551.908,0.91,275.2734375,4,30,-9999,1561841382.933728,17.03081512451172,-8.741561889648438,19.2122802734375,213.4944610595703,220.9876708984375,15,169199.2301886667,0.1574554443359375,-0.16180419921875,0.1878814697265625,169199.2301886667,-0.1196441098684638,-0.6925601014811771,0.2450307939954655,169199.2176456667,-55.60099792480469,-34.71914672851562,-541.1622314453125,169199.2250916667,2.578668206419038,2.273231161942202,1.362885916938217,-0.3614630401134491,-0.643023669719696,0.1382629722356796,0.07427522540092468,0.7732183933258057,0.03703403472900391,1,0.6032736897468567,-0.4502680599689484,-0.4725925624370575,0.4582312405109406,0.1575515270233154,-0.9784643650054932,0.1333609372377396,0,0,0,-1,169195.938600875,3,2,1561841379.885099,0,0,0,0,0,0,0,0,0,169196.248778,0,0.1083984,75.19194,0,182478453,1,1,1,-9.459666,-29.78474,5
1561841382.955693,116,0,0,1561841381.998168,4.634518590760076,-74.15092776536396,2551.908,0.91,275.2734375,4,30,-9999,1561841382.933728,17.03081512451172,-8.741561889648438,19.2122802734375,213.4944610595703,220.9876708984375,15,169199.2504216667,-0.0295867919921875,-0.0993499755859375,0.2241668701171875,169199.2504216667,0.703985861505944,-0.7012113802822995,0.800815202947917,169199.2377566667,-55.38778686523438,-35.02792358398438,-541.5386962890625,169199.2453556667,2.546716801843668,2.290185700894105,1.367109537761414,0.5472660660743713,-0.7126696109771729,0.6337443590164185,-0.08584275841712952,0.8512299060821533,0.06640362739562988,1,0.5986918210983276,-0.4563027024269104,-0.4746941030025482,0.4560936391353607,0.1521574407815933,-0.9793274402618408,0.133288100361824,0,0,0,-1,169195.938600875,3,2,1561841379.885099,0,0,0,0,0,0,0,0,0,169196.248778,0,0.1083984,75.19194,0,182478453,1,1,1,-9.459666,-30.81057,5
1561841382.976072,117,0,0,1561841381.998168,4.634518590760076,-74.15092776536396,2551.908,0.91,275.2734375,4,30,-9999,1561841382.960022,17.17461013793945,-8.644481658935547,18.972900390625,214.6111602783203,222.1043701171875,15,169199.2706856667,-0.241912841796875,-0.05938720703125,0.223114013671875,169199.2706856667,0.7369105220625937,-0.7047733582402804,1.828178595610041,169199.2578676667,-55.53440856933594,-34.99357604980469,-541.7164306640625,169199.2656196667,2.421487905258635,2.398396636416327,1.371101254141489,0.804102897644043,-0.7252413034439087,1.471454739570618,-0.2548316121101379,0.8938233852386475,0.09087646007537842,1,0.5939993262290955,-0.4692502319812775,-0.4708777964115143,0.4530376195907593,0.1342261731624603,-0.9801270961761475,0.1460619568824768,0,0,0,-1,169195.938600875,3,2,1561841379.885099,0,0,0,0,0,0,0,0,0,169196.248778,0,0.1083984,75.19194,0,182478453,1,1,1,-9.459666,-31.63749,5
1561841382.996219,118,0,0,1561841381.998168,4.634518590760076,-74.15092776536396,2551.908,0.91,275.2734375,4,30,-9999,1561841382.984887,17.25484466552734,-8.858665466308594,18.6849365234375,215.7724609375,223.2656707763672,15,169199.2909486667,-0.6358184814453125,0.038787841796875,0.2018280029296875,169199.2909486667,0.08802439824595303,-0.3998014660098564,3.845023778640674,169199.2779786667,-55.11203002929688,-35.07244873046875,-541.8522338867188,169199.2858826667,2.185773019803367,2.616546687836445,1.389101694005282,0.2920348644256592,-0.5216085314750671,3.272425889968872,-0.5165694355964661,0.9708282947540283,0.0573577880859375,1,0.5824853777885437,-0.4887628853321075,-0.4613417685031891,0.4571491777896881,0.09057457000017166,-0.9835388660430908,0.1563567519187927,0,0,0,-1,169195.938600875,3,2,1561841379.885099,0,0,0,0,0,0,0,0,0,169196.248778,0,0.1083984,75.19194,0,182478453,1,1,1,-9.459666,-32.64323,5
1561841383.016474,119,0,0,1561841381.998168,4.634518590760076,-74.15092776536396,2551.908,0.91,275.2734375,4,30,-9999,1561841383.010756,17.43910217285156,-8.975852966308594,18.55670166015625,216.3974456787109,223.8906555175781,15,169199.3112126667,-1.030166625976562,-0.09014892578125,0.2223663330078125,169199.3112126667,-0.9892474321925825,-0.3790237495011672,5.776246202096387,169199.2980896667,-55.48538208007812,-36.00491333007812,-542.1132202148438,169199.3061466667,1.672477721721182,3.115447534951419,1.417661667834831,-0.7075581550598145,-0.3358203172683716,5.411956787109375,-0.8280690908432007,1.016358733177185,0.05642223358154297,1,0.557614803314209,-0.5150812268257141,-0.4436299204826355,0.476392388343811,0.003987669944763184,-0.9882977604866028,0.1524858772754669,0,0,0,-1,169195.938600875,3,2,1561841379.885099,0,0,0,0,0,0,0,0,0,169196.248778,0,0.1083984,75.19194,0,182478453,1,1,1,-9.459666,-33.69194,5
1561841383.036798,120,0,0,1561841381.998168,4.634518590760076,-74.15092776536396,2551.908,0.91,275.2734375,4,30,-9999,1561841383.035342,15.7174186706543,-12.78992080688477,18.04779052734375,217.2744750976562,224.7676849365234,15,169199.3314766667,-1.410858154296875,-0.613494873046875,0.3147430419921875,169199.3314766667,-1.892924302767611,-0.6995700741024836,6.172868652713016,169199.3181706667,-56.36201477050781,-38.1629638671875,-542.2938232421875,169199.3264106667,0.9003281106825811,-2.414548878152315,1.398772129199287,-1.75142776966095,-0.6481838226318359,6.225226402282715,-1.132379412651062,0.6867326498031616,0.1443840265274048,1,0.5172985196113586,-0.5443795919418335,-0.4233456254005432,0.5067855715751648,-0.1137753129005432,-0.9852402806282043,0.127893790602684,0,0,0,-1,169195.938600875,3,2,1561841379.885099,0,0,0,0,0,0,0,0,0,169196.248778,0,0.1083984,75.19194,0,182478453,1,1,1,-9.459666,-34.67763,5
1561841383.058255,121,0,0,1561841382.998154,4.634540132251227,-74.15094897157898,2551.739,1.04,280.546875,4,10,-9999,1561841383.035342,15.7174186706543,-12.78992080688477,18.04779052734375,217.2744750976562,224.7676849365234,15,169199.3517396667,-1.555618286132812,-1.702789306640625,0.288543701171875,169199.3517396667,-2.092463245338452,-0.8384720344455284,4.428680831561895,169199.3382816667,-57.65339660644531,-40.75424194335938,-542.8984375,169199.3466736667,0.4158706482170825,-1.954666612711166,1.321644904940237,-1.99021852016449,-0.7546558976173401,5.135542392730713,-1.274552583694458,-0.1156710386276245,0.2500134706497192,1,0.4709596335887909,-0.5695357918739319,-0.4067120552062988,0.5370395183563232,-0.2286365330219269,-0.9691219925880432,0.09234798699617386,0,0,0,-1,169195.938600875,3,2,1561841379.885099,0,0,0,0,0,0,0,0,0,169196.248778,0,0.1083984,75.19194,0,182478453,1,1,1,-9.459666,-35.50741,5
1561841383.07738,122,0,0,1561841382.998154,4.634540132251227,-74.15094897157898,2551.739,1.04,280.546875,4,10,-9999,1561841383.061319,14.63762664794922,-14.99474334716797,17.24847412109375,218.9909820556641,226.4841918945312,15,169199.3720036667,-1.523056030273438,-2.36419677734375,-0.26507568359375,169199.3720036667,-3.789446536167919,-1.740674845357198,0.6789990188943845,169199.3583926667,-58.76971435546875,-42.38333129882812,-543.8037109375,169199.3669066667,0.1716502800441717,-1.741461328447916,1.26696243333175,-3.228951930999756,-1.52277684211731,1.588587522506714,-1.281612396240234,-1.268795490264893,0.009231209754943848,1,0.4328115880489349,-0.581446647644043,-0.4065490961074829,0.5561580061912537,-0.2948341071605682,-0.9541964530944824,0.05081215128302574,0,0,0,-1,169195.938600875,3,2,1561841379.885099,0,0,0,0,0,0,0,0,0,169196.248778,0,0.1083984,75.19194,0,182478453,1,1,1,-9.459666,-35.50741,5
1561841383.097982,123,0,0,1561841382.998154,4.634540132251227,-74.15094897157898,2551.739,1.04,280.546875,4,10,-9999,1561841383.085647,14.10488891601562,-16.92844772338867,16.17816162109375,222.5565185546875,230.0497283935547,15,169199.3922676667,-1.185714721679688,-1.77325439453125,-0.8013153076171875,169199.3922676667,-5.032021574416,-1.037859709466453,-1.392976794494197,169199.3785036667,-58.03898620605469,-44.19842529296875,-545.5050048828125,169199.3871706667,-0.1171945129243251,-1.500124739825972,1.27066104564349,-5.002727508544922,-1.457653999328613,-1.104299545288086,-1.092447757720947,-1.208125114440918,-0.5678074359893799,1,0.4013133943080902,-0.5731572508811951,-0.4383340179920197,0.5641823410987854,-0.2949117720127106,-0.955296516418457,-0.02087664976716042,0,0,0,-1,169195.938600875,3,2,1561841379.885099,0,0,0,0,0,0,0,0,0,169196.248778,0,0.1083984,75.19194,0,182478453,1,1,1,-9.459666,-36.09238,5
1561841383.117779,124,0,0,1561841382.998154,4.634540132251227,-74.15094897157898,2551.739,1.04,280.546875,4,10,-9999,1561841383.112162,14.65505981445312,-18.56961822509766,14.30975341796875,225.6429748535156,233.1361846923828,15,169199.4125006667,-0.5824127197265625,-1.030807495117188,-0.77459716796875,169199.4125006667,-2.812791062241449,1.107290982245909,-1.527423552649648,169199.3986146667,-57.26904296875,-45.27276611328125,-547.6160888671875,169199.4074346667,-0.455459220046602,-1.186393552786447,1.279521610260558,-3.656822443008423,0.5853042602539062,-1.631507992744446,-0.6406289339065552,-0.3939433097839355,-0.7317706346511841,1,0.3809819221496582,-0.54864102602005,-0.4752930104732513,0.5726624727249146,-0.2662161588668823,-0.957878589630127,-0.1076916009187698,0,0,0,-1,169195.938600875,3,2,1561841379.885099,0,0,0,0,0,0,0,0,0,169196.248778,0,0.1083984,75.19194,0,182478453,1,1,1,-9.459666,-36.80993,5
1561841383.138032,125,0,0,1561841382.998154,4.634540132251227,-74.15094897157898,2551.739,1.04,280.546875,4,10,-9999,1561841383.136396,15.31071853637695,-19.54998779296875,12.58367919921875,223.9738006591797,231.4670104980469,15,169199.4327636667,-0.23291015625,-0.6553802490234375,-0.4932403564453125,169199.4327636667,1.136288811775237,2.328002000576657,-1.035930781888909,169199.4186956667,-57.04977416992188,-45.69026184082031,-548.2841796875,169199.4276976667,-0.6163879038172565,-1.001724866162899,1.287744060112327,0.1696993708610535,2.204645156860352,-1.098495721817017,-0.113482803106308,0.155214786529541,-0.509433388710022,1,0.3852578103542328,-0.5256704688072205,-0.4874742329120636,0.5810470581054688,-0.2352720499038696,-0.960207462310791,-0.1504939496517181,0,0,0,-1,169195.938600875,3,2,1561841379.885099,0,0,0,0,0,0,0,0,0,169196.248778,0,0.1083984,75.19194,0,182478453,1,1,1,-10.01695,-30.91415,5
1561841383.158989,126,0,0,1561841382.998154,4.634540132251227,-74.15094897157898,2551.739,1.04,280.546875,4,10,-9999,1561841383.136396,15.31071853637695,-19.54998779296875,12.58367919921875,223.9738006591797,231.4670104980469,15,169199.4530276667,-0.2243194580078125,-0.5496673583984375,-0.166748046875,169199.4530276667,3.932438845629217,2.155202526930757,-1.271237575796168,169199.4388066667,-57.73486328125,-45.06678771972656,-546.7803344726562,169199.4479616667,-0.5334776506508857,-1.035338234360532,1.327187587142007,3.414479494094849,2.239004135131836,-1.185695886611938,-0.0007602274417877197,0.4078365564346313,-0.1994224786758423,1,0.4135615527629852,-0.5171371698379517,-0.4744704365730286,0.5800119042396545,-0.207445964217186,-0.9704738259315491,-0.123071976006031,0,0,0,-1,169195.938600875,3,2,1561841379.885099,0,0,0,0,0,0,0,0,0,169196.248778,0,0.1083984,75.19194,0,182478453,1,1,1,-10.57422,-31.69855,5
1561841383.178682,127,0,0,1561841382.998154,4.634540132251227,-74.15094897157898,2551.739,1.04,280.546875,4,10,-9999,1561841383.162574,15.05113220214844,-18.50261688232422,14.0789794921875,219.8688659667969,227.3620758056641,15,169199.4732916667,-0.2250213623046875,-0.6658782958984375,0.0943603515625,169199.4732916667,4.953373633735998,1.572654680603554,-1.428771011125407,169199.4589176667,-57.80091857910156,-43.66082763671875,-545.2876586914062,169199.4682256667,-0.2068617928162434,-1.313853206925118,1.386461477141008,4.847702980041504,1.742645621299744,-1.439267158508301,-0.0708777904510498,0.3950762748718262,0.02651405334472656,1,0.4548245668411255,-0.5194659829139709,-0.4510453939437866,0.5655509233474731,-0.1772758811712265,-0.9830583930015564,-0.04657941311597824,0,0,0,-1,169195.938600875,3,2,1561841379.885099,0,0,0,0,0,0,0,0,0,169196.248778,0,0.1083984,75.19194,0,182478453,1,1,1,-11.1315,-32.71803,5
1561841383.198895,128,0,0,1561841382.998154,4.634540132251227,-74.15094897157898,2551.739,1.04,280.546875,4,10,-9999,1561841383.187093,14.93669509887695,-16.88955688476562,15.75067138671875,216.2496337890625,223.7428436279297,15,169199.4935546667,-0.1717987060546875,-0.8359832763671875,0.2453155517578125,169199.4935546667,4.511537632028658,0.8289182103509781,-1.104923964669046,169199.4790286667,-57.93734741210938,-41.44975280761719,-543.3931274414062,169199.4884896667,0.3886180249572978,-1.873357620289834,1.413259195810615,4.733962059020996,0.9921036958694458,-1.228594064712524,-0.05434143543243408,0.2294684648513794,0.1307739019393921,1,0.4957394599914551,-0.5268926024436951,-0.4262022972106934,0.543118953704834,-0.1497601270675659,-0.9876166582107544,0.04674685373902321,0,0,0,-1,169195.938600875,3,2,1561841379.885099,0,0,0,0,0,0,0,0,0,169196.248778,0,0.1083984,75.19194,0,182478453,1,1,1,-11.68878,-33.68233,5
1561841383.219588,129,0,0,1561841382.998154,4.634540132251227,-74.15094897157898,2551.739,1.04,280.546875,4,10,-9999,1561841383.213392,14.67342376708984,-14.70610809326172,17.58837890625,214.1499481201172,221.6431579589844,15,169199.5138186667,-0.08062744140625,-0.9441375732421875,0.34600830078125,169199.5138186667,3.113821742374665,0.4916573541161065,-0.5203537138100374,169199.4991096667,-57.665283203125,-39.4854736328125,-541.8694458007812,169199.5087526667,0.8795617520657372,-2.343116745917439,1.38577455870805,3.509877681732178,0.5108484029769897,-0.6665182113647461,0.003997981548309326,0.08779060840606689,0.1729425191879272,1,0.5264769196510315,-0.5357316732406616,-0.4051953554153442,0.5211817026138306,-0.1317750811576843,-0.9829322695732117,0.1283727437257767,0,0,0,-1,169195.938600875,3,2,1561841379.885099,0,0,0,0,0,0,0,0,0,169196.248778,0,0.1083984,75.19194,0,182478453,1,1,1,-11.68878,-33.68233,5
