loggingTime,loggingSample,identifierForVendor,deviceID,locationTimestamp_since1970,locationLatitude,locationLongitude,locationAltitude,locationSpeed,locationCourse,locationVerticalAccuracy,locationHorizontalAccuracy,locationFloor,locationHeadingTimestamp_since1970,locationHeadingX,locationHeadingY,locationHeadingZ,locationTrueHeading,locationMagneticHeading,locationHeadingAccuracy,accelerometerTimestamp_sinceReboot,accelerometerAccelerationX,accelerometerAccelerationY,accelerometerAccelerationZ,gyroTimestamp_sinceReboot,gyroRotationX,gyroRotationY,gyroRotationZ,magnetometerTimestamp_sinceReboot,magnetometerX,magnetometerY,magnetometerZ,motionTimestamp_sinceReboot,motionYaw,motionRoll,motionPitch,motionRotationRateX,motionRotationRateY,motionRotationRateZ,motionUserAccelerationX,motionUserAccelerationY,motionUserAccelerationZ,motionAttitudeReferenceFrame,motionQuaternionX,motionQuaternionY,motionQuaternionZ,motionQuaternionW,motionGravityX,motionGravityY,motionGravityZ,motionMagneticFieldX,motionMagneticFieldY,motionMagneticFieldZ,motionMagneticFieldCalibrationAccuracy,activityTimestamp_sinceReboot,activity,activityActivityConfidence,activityActivityStartDate,pedometerStartDate,pedometerNumberofSteps,pedometerAverageActivePace,pedometerCurrentPace,pedometerCurrentCadence,pedometerDistance,pedometerFloorAscended,pedometerFloorDescended,pedometerEndDate,altimeterTimestamp_sinceReboot,altimeterReset,altimeterRelativeAltitude,altimeterPressure,IP_en0,IP_pdp_ip0,deviceOrientation,batteryState,batteryLevel,avAudioRecorderPeakPower,avAudioRecorderAveragePower,label
1561241774.645374,1,0,0,1561241773.218555,4.603078566422389,-74.06476740934676,2651.395,-1,-1,10,65,-9999,1561241774.628367,-26.47941207885742,6.045202255249023,-3.07293701171875,264.6610412597656,272.2047424316406,15,64235.00292704167,-0.4219207763671875,0.8763580322265625,-0.07647705078125,64234.99380204167,-0.02895894737741263,0.02585663102357932,-0.02665744356336615,64234.98965204167,10.87791442871094,7.197296142578125,-536.115478515625,64234.98367004167,-1.990277283159019,-1.384161063373438,-1.121212730685209,0.01151752378791571,0.01474574953317642,-0.02728759683668613,-0.01012098789215088,-0.01781564950942993,0.005658149719238281,1,0.6762117743492126,-0.0491703487932682,0.362269252538681,-0.6395942568778992,-0.4270433187484741,0.9006281495094299,-0.08063982427120209,0,0,0,-1,64234.185733375,1,2,1561241773.848648,1561241546.732582,16,16.27515,0,0,14.2948,0,0,1561241691.513234,64231.925212,0,-1.236572,74.44146,2650659446,177292352,1,1,0.2,-28.77262,-39.13146,3
1561241774.65652,2,0,0,1561241773.218555,4.603078566422389,-74.06476740934676,2651.395,-1,-1,10,65,-9999,1561241774.650703,-26.62047958374023,6.206643581390381,-3.1104736328125,264.6759643554688,272.2196655273438,15,64235.02319104167,-0.4096527099609375,0.9027862548828125,-0.0826568603515625,64235.01406604167,-0.04064010455071818,-0.03690928217962618,-0.04169471634238956,64235.00979404167,10.68702697753906,7.101333618164062,-536.29931640625,64235.00393404167,-1.991844353784,-1.385289617228553,-1.12073519521421,-0.05800243467092514,-0.0008720927871763706,-0.03586243838071823,0.005636274814605713,-0.02406251430511475,0.003760159015655518,1,0.6763610243797302,-0.04916461557149887,0.3625410199165344,-0.6392829418182373,-0.4275570213794708,0.9004204869270325,-0.08023720979690552,0,0,0,-1,64234.185733375,1,2,1561241773.848648,1561241546.732582,16,16.27515,0,0,14.2948,0,0,1561241691.513234,64231.925212,0,-1.236572,74.44146,2650659446,177292352,1,1,0.2,-28.77262,-39.13146,3
1561241774.68034,3,0,0,1561241773.218555,4.603078566422389,-74.06476740934676,2651.395,-1,-1,10,65,-9999,1561241774.677675,-26.58586502075195,6.069389820098877,-3.1973876953125,264.6132202148438,272.1569213867188,15,64235.04345404167,-0.4296722412109375,0.9050140380859375,-0.087554931640625,64235.03433004167,0.004579571810500258,-0.043457196351804,-0.02190982628808189,64235.02993504167,11.03445434570312,7.003433227539062,-536.1528930664062,64235.02419804167,-1.994129733866389,-1.388137499838627,-1.120042356735221,-0.02077144011855125,-0.06494747847318649,-0.03961643204092979,0.01874446868896484,0.00266730785369873,-0.003524303436279297,1,0.6767974495887756,-0.04877432808279991,0.3625286221504211,-0.6388578414916992,-0.4283971786499023,0.900118887424469,-0.0791325569152832,0,0,0,-1,64234.185733375,1,2,1561241773.848648,1561241546.732582,16,16.27515,0,0,14.2948,0,0,1561241691.513234,64231.925212,0,-1.236572,74.44146,2650659446,177292352,1,1,0.2,-29.3299,-39.612,3
1561241774.697048,4,0,0,1561241773.218555,4.603078566422389,-74.06476740934676,2651.395,-1,-1,10,65,-9999,1561241774.677675,-26.58586502075195,6.069389820098877,-3.1973876953125,264.6132202148438,272.1569213867188,15,64235.06371804167,-0.436981201171875,0.8964996337890625,-0.0822296142578125,64235.05459304167,0.04165183944883929,0.004943892247623097,-0.004283694613392454,64235.05004604167,11.04981994628906,6.972305297851562,-536.0577392578125,64235.04446104167,-1.994228904880511,-1.389224495552523,-1.119525931003893,0.02483226358890533,-0.0252248365432024,-0.01192887872457504,-0.000732123851776123,0.005120217800140381,-0.008804202079772949,1,0.6769744753837585,-0.04827183112502098,0.3623569309711456,-0.6388058662414551,-0.4289401173591614,0.8998938202857971,-0.07875078171491623,0,0,0,-1,64234.185733375,1,2,1561241773.848648,1561241546.732582,16,16.27515,0,0,14.2948,0,0,1561241691.513234,64231.925212,0,-1.236572,74.44146,2650659446,177292352,1,1,0.2,-29.88717,-40.4418,3
1561241774.717295,5,0,0,1561241773.218555,4.603078566422389,-74.06476740934676,2651.395,-1,-1,10,65,-9999,1561241774.70122,-26.42083358764648,6.288479804992676,-3.0460205078125,264.5883483886719,272.1320495605469,15,64235.08398204167,-0.4243011474609375,0.884307861328125,-0.078155517578125,64235.07485704167,0.02996162752782746,0.0140186136620681,-0.01898567541117489,64235.07018804167,10.73086547851562,7.050674438476562,-536.2874755859375,64235.06472504167,-1.992704047564975,-1.387956465113126,-1.119176757914607,0.03866898268461227,0.008843384683132172,-0.01520190387964249,-0.007832467555999756,-0.003241837024688721,-0.002877891063690186,1,0.676769495010376,-0.0480332225561142,0.3624100983142853,-0.6390107870101929,-0.4291487038135529,0.8997414708137512,-0.07935172319412231,0,0,0,-1,64234.185733375,1,2,1561241773.848648,1561241546.732582,16,16.27515,0,0,14.2948,0,0,1561241691.513234,64231.925212,0,-1.236572,74.44146,2650659446,177292352,1,1,0.2,-30.44445,-36.38564,3
1561241774.73758,6,0,0,1561241773.218555,4.603078566422389,-74.06476740934676,2651.395,-1,-1,10,65,-9999,1561241774.727651,-26.62598419189453,6.270802021026611,-3.05548095703125,264.5824584960938,272.1261596679688,15,64235.10424504167,-0.4147186279296875,0.8826904296875,-0.0770263671875,64235.09512104167,-0.006845122949830666,-0.007822503069889747,-0.01664928418684837,64235.09029904167,10.65058898925781,7.160018920898438,-536.3475341796875,64235.08498904167,-1.99169836404986,-1.386922817235411,-1.118680083036907,0.00940350629389286,0.0006517679430544376,-0.01859876699745655,0.005204737186431885,-0.01521670818328857,0.001721441745758057,1,0.6765890121459961,-0.04784155264496803,0.3625967502593994,-0.6391104459762573,-0.4295058846473694,0.8995245695114136,-0.07987698912620544,0,0,0,-1,64234.185733375,1,2,1561241773.848648,1561241546.732582,16,16.27515,0,0,14.2948,0,0,1561241691.513234,64231.925212,0,-1.236572,74.44146,2650659446,177292352,1,1,0.2,-31.00173,-36.59294,3
1561241774.764571,7,0,0,1561241773.218555,4.603078566422389,-74.06476740934676,2651.395,-1,-1,10,65,-9999,1561241774.752094,-26.62399291992188,6.261821746826172,-3.07891845703125,264.5637817382812,272.1074829101562,15,64235.12450904167,-0.425445556640625,0.888580322265625,-0.07757568359375,64235.11538404167,-0.007911452650298393,-0.01847754427518777,-0.02018489685003757,64235.11044004167,10.92308044433594,7.001953125,-536.3272094726562,64235.10525204167,-1.992152561553899,-1.387581239931121,-1.118338009760306,-0.01532634068280458,-0.02201439626514912,-0.02180867455899715,0.01514214277267456,-0.01668471097946167,0.002623856067657471,1,0.676685631275177,-0.04765977710485458,0.3626280128955841,-0.6390039324760437,-0.4298607707023621,0.8993750810623169,-0.07965020090341568,0,0,0,-1,64234.185733375,1,2,1561241773.848648,1561241546.732582,16,16.27515,0,0,14.2948,0,0,1561241691.513234,64231.925212,0,-1.236572,74.44146,2650659446,177292352,1,1,0.2,-31.55901,-37.09932,3
1561241774.778818,8,0,0,1561241773.218555,4.603078566422389,-74.06476740934676,2651.395,-1,-1,10,65,-9999,1561241774.752094,-26.62399291992188,6.261821746826172,-3.07891845703125,264.5637817382812,272.1074829101562,15,64235.14477304167,-0.4364776611328125,0.902496337890625,-0.0820770263671875,64235.13564804167,-0.003241067046626433,0.00435613259504261,-0.01583196004830306,64235.13055204167,10.8607177734375,6.76837158203125,-536.1180419921875,64235.12551604167,-1.992857493482142,-1.388641353306103,-1.117929232025398,-0.00952597614377737,-0.01030447706580162,-0.02371176891028881,0.004860877990722656,-0.0106160044670105,0.001685380935668945,1,0.6768469214439392,-0.04741017892956734,0.3626246452331543,-0.6388535499572754,-0.4303064346313477,0.8991963267326355,-0.07926104217767715,0,0,0,-1,64234.185733375,1,2,1561241773.848648,1561241546.732582,16,16.27515,0,0,14.2948,0,0,1561241691.513234,64231.925212,0,-1.236572,74.44146,2650659446,177292352,1,1,0.2,-31.55901,-37.09932,3
1561241774.798418,9,0,0,1561241773.218555,4.603078566422389,-74.06476740934676,2651.395,-1,-1,10,65,-9999,1561241774.778826,-26.41575241088867,5.981329917907715,-3.03570556640625,264.5645751953125,272.1082763671875,15,64235.16503604167,-0.436126708984375,0.902679443359375,-0.084808349609375,64235.15591204167,0.01498587376998488,0.02220410558853565,-0.007860053641259863,64235.15069304167,11.04319763183594,6.94049072265625,-536.2377319335938,64235.14578004167,-1.993219755005094,-1.388995046085675,-1.117552452197835,0.0007516948971897364,0.01290231011807919,-0.01462399773299694,-0.005810081958770752,0.003464937210083008,-0.002906918525695801,1,0.6768894791603088,-0.04728204756975174,0.3627406060695648,-0.6387521028518677,-0.4306675791740417,0.899031400680542,-0.07917008548974991,0,0,0,-1,64235.15759004167,2,0,1561241774.820505,1561241546.732582,16,16.27515,0,0,14.2948,0,0,1561241691.513234,64231.925212,0,-1.236572,74.44146,2650659446,177292352,1,1,0.2,-32.11629,-37.36889,3
1561241774.818646,10,0,0,1561241773.218555,4.603078566422389,-74.06476740934676,2651.395,-1,-1,10,65,-9999,1561241774.802627,-26.47561264038086,6.118268489837646,-2.97784423828125,264.5739440917969,272.1176452636719,15,64235.18530004167,-0.4350433349609375,0.897857666015625,-0.0872344970703125,64235.17617504167,0.0332431746230231,0.007664843933357056,-0.007979629574204422,64235.17083504167,11.08476257324219,6.731643676757812,-536.2356567382812,64235.16604404167,-1.992809235219502,-1.388358573192545,-1.117294583311542,0.02092913538217545,0.007844433188438416,-0.007637461647391319,-0.005281746387481689,0.003760993480682373,-0.005322158336639404,1,0.676774799823761,-0.04725214466452599,0.3629069328308105,-0.6387813091278076,-0.4308449625968933,0.8989184498786926,-0.07948621362447739,0,0,0,-1,64235.15759004167,2,0,1561241774.820505,1561241546.732582,16,16.27515,0,0,14.2948,0,0,1561241691.513234,64231.925212,0,-1.236572,74.44146,2650659446,177292352,1,1,0.2,-32.67357,-36.47803,3
1561241774.849611,11,0,0,1561241773.218555,4.603078566422389,-74.06476740934676,2651.395,-1,-1,10,65,-9999,1561241774.833324,-26.45866775512695,5.970091819763184,-3.1500244140625,264.556396484375,272.10009765625,15,64235.20556404167,-0.4361572265625,0.890625,-0.0830078125,64235.19643904167,0.02743748344665036,0.01086463198308726,-0.01262791094082872,64235.19094604167,10.87049865722656,6.938613891601562,-536.061767578125,64235.18630704167,-1.991629965628142,-1.387295890791589,-1.116984141471,0.02932341955602169,-0.004377345554530621,-0.01459070853888988,-0.004008501768112183,-0.0009247064590454102,-0.00723952054977417,1,0.6765989065170288,-0.04707898199558258,0.3629887402057648,-0.6389340162277222,-0.4310348331928253,0.8987823724746704,-0.07999497652053833,0,0,0,-1,64235.15759004167,2,0,1561241774.820505,1561241546.732582,16,16.27515,0,0,14.2948,0,0,1561241691.513234,64231.925212,0,-1.236572,74.44146,2650659446,177292352,1,1,0.2,-33.23085,-36.91328,3
1561241774.859279,12,0,0,1561241773.218555,4.603078566422389,-74.06476740934676,2651.395,-1,-1,10,65,-9999,1561241774.85346,-26.59001922607422,6.20977258682251,-3.1943359375,264.5333862304688,272.0770874023438,15,64235.22582704167,-0.433837890625,0.8896331787109375,-0.0781707763671875,64235.21670304167,0.02809848002920803,-0.01019404802060531,-0.01653716510495604,64235.21108704167,10.641357421875,6.857421875,-536.0350952148438,64235.20657104167,-1.990603509469269,-1.386389285995566,-1.116585631464133,0.02229906432330608,-0.005045265890657902,-0.01370307803153992,-0.004842787981033325,-0.007982611656188965,-0.002556383609771729,1,0.6764443516731262,-0.04687559232115746,0.3630944490432739,-0.6390526294708252,-0.4313144385814667,0.898607611656189,-0.08045143634080887,0,0,0,-1,64235.15759004167,2,0,1561241774.820505,1561241546.732582,16,16.27515,0,0,14.2948,0,0,1561241691.513234,64231.925212,0,-1.236572,74.44146,2650659446,177292352,1,1,0.2,-33.78813,-35.39934,3
1561241774.879588,13,0,0,1561241773.218555,4.603078566422389,-74.06476740934676,2651.395,-1,-1,10,65,-9999,1561241774.85346,-26.59001922607422,6.20977258682251,-3.1943359375,264.5333862304688,272.0770874023438,15,64235.24606104167,-0.44024658203125,0.8874664306640625,-0.069549560546875,64235.23696604167,0.03592577678905991,-0.0178567614250903,-0.02171807868959619,64235.23122904167,10.869873046875,6.997390747070312,-536.024658203125,64235.22683504167,-1.989613581946517,-1.385838575618681,-1.116132602283604,0.02914365567266941,-0.02586399391293526,-0.02041371166706085,-0.002167761325836182,-0.008775591850280762,0.002592980861663818,1,0.6763513088226318,-0.04655107483267784,0.3631086051464081,-0.6391667723655701,-0.4316701591014862,0.8984087705612183,-0.0807638093829155,0,0,0,-1,64235.15759004167,2,0,1561241774.820505,1561241546.732582,16,16.27515,0,0,14.2948,0,0,1561241691.513234,64231.925212,0,-1.236572,74.44146,2650659446,177292352,1,1,0.2,-34.34541,-36.05891,3
1561241774.89964,14,0,0,1561241773.218555,4.603078566422389,-74.06476740934676,2651.395,-1,-1,10,65,-9999,1561241774.879602,-26.47932243347168,6.162072658538818,-3.1339111328125,264.4864501953125,272.0301513671875,15,64235.26632404167,-0.4435577392578125,0.8873138427734375,-0.0677337646484375,64235.25720004167,0.002110821479996804,0.01628656164637958,-0.02306057819510513,64235.25134004167,11.15948486328125,6.96197509765625,-536.3185424804688,64235.24706804167,-1.988444121451082,-1.385254161933547,-1.115524197553369,0.02288495935499668,-0.00973029900342226,-0.02710916474461555,-0.008086681365966797,-0.01067495346069336,0.01156729459762573,1,0.6762503385543823,-0.04611988365650177,0.363126128911972,-0.6392948627471924,-0.4321599304676056,0.8981413841247559,-0.08111687004566193,0,0,0,-1,64235.15759004167,2,0,1561241774.820505,1561241546.732582,16,16.27515,0,0,14.2948,0,0,1561241691.513234,64231.925212,0,-1.236572,74.44146,2650659446,177292352,1,1,0.2,-34.90268,-36.44213,3
1561241774.928312,15,0,0,1561241773.218555,4.603078566422389,-74.06476740934676,2651.395,-1,-1,10,65,-9999,1561241774.903836,-26.29281997680664,6.012961387634277,-3.10711669921875,264.5023498535156,272.0460510253906,15,64235.28658804167,-0.431549072265625,0.896392822265625,-0.07257080078125,64235.27746304167,-0.02465234957864549,0.03261733176685448,-0.01975000264402763,64235.27148204167,10.98432922363281,6.827194213867188,-536.3056640625,64235.26733104167,-1.988652171827531,-1.385285688391854,-1.114988209444087,-0.01601210609078407,0.02137489058077335,-0.02627346478402615,-0.01092216372489929,-0.01059174537658691,0.013458251953125,1,0.6762318015098572,-0.04598407074809074,0.3633526265621185,-0.6391955614089966,-0.4326355755329132,0.8979055881500244,-0.08119203150272369,0,0,0,-1,64235.15759004167,2,0,1561241774.820505,1561241546.732582,16,16.27515,0,0,14.2948,0,0,1561241691.513234,64231.925212,0,-1.236572,74.44146,2650659446,177292352,1,1,0.2,-35.45996,-36.9213,3
1561241774.940101,16,0,0,1561241773.218555,4.603078566422389,-74.06476740934676,2651.395,-1,-1,10,65,-9999,1561241774.930224,-26.43321228027344,6.046141147613525,-3.01702880859375,264.553466796875,272.09716796875,15,64235.30685204167,-0.4246368408203125,0.8988037109375,-0.0777435302734375,64235.29772704167,-0.02165096703012619,0.02900528638038001,-0.01428919082882015,64235.29159304167,10.80142211914062,6.7076416015625,-536.1619873046875,64235.28759504167,-1.990070190444104,-1.386071954846346,-1.114630680660238,-0.03273675590753555,0.02347106486558914,-0.0167396143078804,0.00146561861038208,-0.001355350017547607,0.008340001106262207,1,0.6763291358947754,-0.04608158022165298,0.3636536002159119,-0.6389142870903015,-0.4330146908760071,0.8977481722831726,-0.08091077208518982,0,0,0,-1,64235.15759004167,2,0,1561241774.820505,1561241546.732582,16,16.27515,0,0,14.2948,0,0,1561241691.513234,64232.874363,0,-1.226074,74.44138,2650659446,177292352,1,1,0.2,-35.45996,-36.9213,3
1561241774.960498,17,0,0,1561241773.218555,4.603078566422389,-74.06476740934676,2651.395,-1,-1,10,65,-9999,1561241774.954525,-26.46977806091309,6.130067825317383,-3.13916015625,264.5868530273438,272.1305541992188,15,64235.32711504167,-0.42694091796875,0.8952789306640625,-0.0852508544921875,64235.31799104167,-0.001326520538968468,0.02256815970954948,-0.01318557687309132,64235.31173404167,10.63349914550781,6.92413330078125,-536.1900634765625,64235.30785904167,-1.991320720371624,-1.386767844278666,-1.114385566348443,-0.01423391234129667,0.01809440739452839,-0.01621843315660954,0.008650422096252441,0.0011635422706604,0.002906143665313721,1,0.6764180660247803,-0.04619255661964417,0.3638956844806671,-0.638674259185791,-0.4332872331142426,0.8976401686668396,-0.08064969629049301,0,0,0,-1,64235.15759004167,2,0,1561241774.820505,1561241546.732582,16,16.27515,0,0,14.2948,0,0,1561241691.513234,64232.874363,0,-1.226074,74.44138,2650659446,177292352,1,1,0.2,-36.01724,-37.67225,3
1561241774.983357,18,0,0,1561241773.218555,4.603078566422389,-74.06476740934676,2651.395,-1,-1,10,65,-9999,1561241774.980925,-26.42578887939453,5.891433715820312,-3.22882080078125,264.5974426269531,272.1411437988281,15,64235.34737904167,-0.4304046630859375,0.890777587890625,-0.0840606689453125,64235.33825404167,0.01499812431099925,0.01860191389809447,-0.01675874010765063,64235.33187604167,10.84944152832031,6.724014282226562,-536.240234375,64235.32812204167,-1.991644351159914,-1.386760654970107,-1.114055704695677,0.008154483512043953,0.01161706820130348,-0.01614759303629398,0.006636708974838257,-0.002215802669525146,-0.004543840885162354,1,0.6763975024223328,-0.04618367552757263,0.3641063570976257,-0.6385765671730042,-0.4335776269435883,0.8974947333335876,-0.08070697635412216,0,0,0,-1,64235.15759004167,2,0,1561241774.820505,1561241546.732582,16,16.27515,0,0,14.2948,0,0,1561241691.513234,64232.874363,0,-1.226074,74.44138,2650659446,177292352,1,1,0.2,-34.70993,-38.11498,3
1561241775.008072,19,0,0,1561241773.218555,4.603078566422389,-74.06476740934676,2651.395,-1,-1,10,65,-9999,1561241774.980925,-26.42578887939453,5.891433715820312,-3.22882080078125,264.5974426269531,272.1411437988281,15,64235.36764304167,-0.4260406494140625,0.8934173583984375,-0.0849609375,64235.35851804167,-0.006519950980731991,0.008972189712476953,0.001440237517514852,64235.35198704167,10.68603515625,6.870651245117188,-536.1342163085938,64235.34838604167,-1.991497638399047,-1.386450914046448,-1.113656944192162,-0.002575925085693598,0.009804520756006241,-0.01154618337750435,0.003499716520309448,-0.006541192531585693,-0.003153800964355469,1,0.6763302087783813,-0.04608708992600441,0.3642911016941071,-0.6385494470596313,-0.4339043796062469,0.8973187804222107,-0.08090686053037643,0,0,0,-1,64235.15759004167,2,0,1561241774.820505,1561241546.732582,16,16.27515,0,0,14.2948,0,0,1561241691.513234,64232.874363,0,-1.226074,74.44138,2650659446,177292352,1,1,0.2,-34.45277,-37.84826,3
1561241775.021204,20,0,0,1561241773.218555,4.603078566422389,-74.06476740934676,2651.395,-1,-1,10,65,-9999,1561241775.008419,-26.54065322875977,6.067053318023682,-2.98779296875,264.6024780273438,272.1461791992188,15,64235.38790604167,-0.429779052734375,0.8858489990234375,-0.0797576904296875,64235.37878204167,0.01479732196480727,0.007349259344182665,0.005966546106213525,64235.37212904167,10.61761474609375,6.838943481445312,-536.078125,64235.36865004167,-1.991829747753438,-1.386709637200852,-1.113637952844736,0.003514724085107446,-0.004412232898175716,0.005947589408606291,0.007901161909103394,-0.003893017768859863,-0.004163265228271484,1,0.6763690114021301,-0.04610993713140488,0.3643155694007874,-0.6384926438331604,-0.4339418113231659,0.8973104357719421,-0.08079766482114792,0,0,0,-1,64235.15759004167,2,0,1561241774.820505,1561241546.732582,16,16.27515,0,0,14.2948,0,0,1561241691.513234,64232.874363,0,-1.226074,74.44138,2650659446,177292352,1,1,0.2,-30.38799,-38.38294,3
1561241775.041504,21,0,0,1561241773.218555,4.603078566422389,-74.06476740934676,2651.395,-1,-1,10,65,-9999,1561241775.033139,-26.54935836791992,5.988226890563965,-3.0875244140625,264.6084899902344,272.1521911621094,15,64235.40817004167,-0.4388427734375,0.87652587890625,-0.07806396484375,64235.39904504167,0.01052720947297422,0.03240347993132112,0.01465617442703307,64235.39227004167,10.65534973144531,6.715347290039062,-536.1039428710938,64235.38891304167,-1.991400394628239,-1.386307744803564,-1.113720021330588,0.005972289480268955,0.01262187771499157,0.007091950159519911,0.004058182239532471,-0.01149767637252808,0.00120091438293457,1,0.6763086318969727,-0.046122957020998,0.3642884492874146,-0.6385712623596191,-0.4338372647762299,0.8973466157913208,-0.08095861226320267,0,0,0,-1,64235.15759004167,2,0,1561241774.820505,1561241546.732582,16,16.27515,0,0,14.2948,0,0,1561241691.513234,64232.874363,0,-1.226074,74.44138,2650659446,177292352,1,1,0.2,-30.38799,-39.11677,3
1561241775.062449,22,0,0,1561241773.218555,4.603078566422389,-74.06476740934676,2651.395,-1,-1,10,65,-9999,1561241775.055789,-26.2685661315918,6.099695205688477,-3.3665771484375,264.6410522460938,272.1847534179688,15,64235.42843404167,-0.43988037109375,0.8759002685546875,-0.082427978515625,64235.41930904167,-0.008601211372628915,0.02501587106744131,0.008376440576626228,64235.41238104167,10.90449523925781,6.69293212890625,-536.3471069335938,64235.40917704167,-1.99104433554597,-1.385569925590966,-1.113930333587648,-0.0003412666264921427,0.02334749326109886,0.0144896786659956,-0.005250751972198486,-0.02091354131698608,0.003179967403411865,1,0.6761900186538696,-0.04631505534052849,0.3643573820590973,-0.6386436820030212,-0.4335920214653015,0.8974394202232361,-0.08124394714832306,0,0,0,-1,64235.15759004167,2,0,1561241774.820505,1561241546.732582,16,16.27515,0,0,14.2948,0,0,1561241691.513234,64232.874363,0,-1.226074,74.44138,2650659446,177292352,1,1,0.2,-30.38799,-39.7116,3
1561241775.082653,23,0,0,1561241773.218555,4.603078566422389,-74.06476740934676,2651.395,-1,-1,10,65,-9999,1561241775.055789,-26.2685661315918,6.099695205688477,-3.3665771484375,264.6410522460938,272.1847534179688,15,64235.44869704167,-0.438323974609375,0.889251708984375,-0.0887908935546875,64235.43957304167,-0.0287528187090405,0.006351106567620967,-0.01248436655807345,64235.43252304167,10.92070007324219,6.823715209960938,-536.1351318359375,64235.42944104167,-1.991567924319558,-1.385716936092098,-1.114093141773524,-0.02686528488993645,0.005024145822972059,-0.005555402487516403,-0.006420314311981201,-0.02161097526550293,-0.001274704933166504,1,0.6762105226516724,-0.04650479927659035,0.3644229471683502,-0.6385706663131714,-0.4334600567817688,0.8975112438201904,-0.0811532661318779,0,0,0,-1,64235.15759004167,2,0,1561241774.820505,1561241546.732582,16,16.27515,0,0,14.2948,0,0,1561241691.513234,64232.874363,0,-1.226074,74.44138,2650659446,177292352,1,1,0.2,-30.38799,-36.22659,3
1561241775.102273,24,0,0,1561241773.218555,4.603078566422389,-74.06476740934676,2651.395,-1,-1,10,65,-9999,1561241775.082721,-26.44780349731445,6.097028255462646,-3.10980224609375,264.6604614257812,272.2041625976562,15,64235.46896104167,-0.4431915283203125,0.897735595703125,-0.091949462890625,64235.45983604167,-0.007120493806544859,0.008083492856717512,-0.006297044397492358,64235.45266504167,10.8475341796875,6.844680786132812,-536.4799194335938,64235.44970404167,-1.992963205279028,-1.387025911427548,-1.113942192816224,-0.02034373581409454,-0.009329226799309254,-0.01467086933553219,-0.004624664783477783,-0.008192956447601318,-0.008180320262908936,1,0.6764112114906311,-0.04650347307324409,0.364473819732666,-0.6383292078971863,-0.4336993098258972,0.8974446654319763,-0.08061060309410095,0,0,0,-1,64235.15759004167,2,0,1561241774.820505,1561241546.732582,16,16.27515,0,0,14.2948,0,0,1561241691.513234,64232.874363,0,-1.226074,74.44138,2650659446,177292352,1,1,0.2,-30.38799,-36.22659,3
1561241775.122465,25,0,0,1561241773.218555,4.603078566422389,-74.06476740934676,2651.395,-1,-1,10,65,-9999,1561241775.106496,-26.58975219726562,5.881876945495605,-3.29541015625,264.6703796386719,272.2140808105469,15,64235.48922504167,-0.439910888671875,0.898590087890625,-0.0969085693359375,64235.48010004167,0.01958834876585982,0.0217990387867346,-0.008016114881138507,64235.47277604167,10.47084045410156,6.49200439453125,-536.1917724609375,64235.46996804167,-1.993521909929354,-1.387518774418209,-1.11378333394901,0.0006382439751178026,0.01058509200811386,-0.007439055945724249,-0.009312629699707031,0.0003609657287597656,-0.01152670383453369,1,0.6764824390411377,-0.04647712036967278,0.3645358383655548,-0.6382201313972473,-0.4338789284229279,0.8973745703697205,-0.0804227739572525,0,0,0,-1,64235.48180904167,1,2,1561241775.144724,1561241546.732582,16,16.27515,0,0,14.2948,0,0,1561241691.513234,64232.874363,0,-1.226074,74.44138,2650659446,177292352,1,1,0.2,-30.38799,-36.61362,3
1561241775.143151,26,0,0,1561241773.218555,4.603078566422389,-74.06476740934676,2651.395,-1,-1,10,65,-9999,1561241775.132887,-26.70391845703125,5.896256446838379,-3.24896240234375,264.6719360351562,272.2156372070312,15,64235.50948804167,-0.4281463623046875,0.8939361572265625,-0.08905029296875,64235.50036404167,0.05618124740798459,0.01792760151008641,-0.01627005004762109,64235.49291704167,10.90354919433594,6.733261108398438,-536.2236328125,64235.49023204167,-1.992835141728788,-1.386629262433963,-1.11347479150338,0.03858961910009384,0.01517185568809509,-0.02036337740719318,-0.005831211805343628,0.001351714134216309,-0.0160490870475769,1,0.676325261592865,-0.04641574993729591,0.3647157549858093,-0.6382884979248047,-0.4340796768665314,0.8972383737564087,-0.08085943758487701,0,0,0,-1,64235.48180904167,1,2,1561241775.144724,1561241546.732582,16,16.27515,0,0,14.2948,0,0,1561241691.513234,64232.874363,0,-1.226074,74.44138,2650659446,177292352,1,1,0.2,-30.38799,-37.16942,3
1561241775.167886,27,0,0,1561241773.218555,4.603078566422389,-74.06476740934676,2651.395,-1,-1,10,65,-9999,1561241775.157392,-26.62809181213379,6.103702545166016,-3.13787841796875,264.6540832519531,272.1977844238281,15,64235.52975204167,-0.4095916748046875,0.8917999267578125,-0.08685302734375,64235.52062704167,0.03706747394837689,0.01163268764146611,0.01280980484328114,64235.51305904167,10.7872314453125,6.701080322265625,-536.2220458984375,64235.51049504167,-1.99074625881804,-1.384547953459746,-1.11294721513143,0.04862147942185402,0.004511220846325159,-0.0008618470747023821,0.00622907280921936,-0.003069162368774414,-0.007199943065643311,1,0.67597496509552,-0.04618094116449356,0.3649203181266785,-0.6385595798492432,-0.4343754351139069,0.8970053195953369,-0.0818503350019455,0,0,0,-1,64235.48180904167,1,2,1561241775.144724,1561241546.732582,16,16.27515,0,0,14.2948,0,0,1561241691.513234,64232.874363,0,-1.226074,74.44138,2650659446,177292352,1,1,0.2,-30.38799,-37.20958,3
1561241775.183994,28,0,0,1561241773.218555,4.603078566422389,-74.06476740934676,2651.395,-1,-1,10,65,-9999,1561241775.157392,-26.62809181213379,6.103702545166016,-3.13787841796875,264.6540832519531,272.1977844238281,15,64235.54998504167,-0.40264892578125,0.8923797607421875,-0.0865936279296875,64235.54089104167,0.01534113945940145,-0.01086063724145214,0.02734347386017056,64235.53317004167,10.75468444824219,6.947662353515625,-536.342529296875,64235.53075904167,-1.98910497883637,-1.383054553341497,-1.113002411490211,0.01992112770676613,-0.01427604816854,0.02233108878135681,0.02461248636245728,-0.005229771137237549,-0.004363358020782471,1,0.6757423877716064,-0.04612338170409203,0.3648833334445953,-0.6388310194015503,-0.4342041909694672,0.89702969789505,-0.08248972147703171,0,0,0,-1,64235.48180904167,1,2,1561241775.144724,1561241546.732582,16,16.27515,0,0,14.2948,0,0,1561241691.513234,64232.874363,0,-1.226074,74.44138,2650659446,177292352,1,1,0.2,-30.38799,-37.21904,3
1561241775.20351,29,0,0,1561241773.218555,4.603078566422389,-74.06476740934676,2651.395,-1,-1,10,65,-9999,1561241775.184,-26.57982635498047,6.119860649108887,-3.39996337890625,264.6272583007812,272.1709594726562,15,64235.57024904167,-0.426544189453125,0.894439697265625,-0.07647705078125,64235.56112404167,0.03346368436128166,0.02962287343716938,0.05576925638734933,64235.55331204167,10.76390075683594,6.836013793945312,-536.1614379882812,64235.55099204167,-1.988231895400967,-1.38256057176877,-1.113432910010523,0.01659297570586205,0.0002187383361160755,0.02866675145924091,0.0311349630355835,-0.00484013557434082,-0.003961741924285889,1,0.6756883859634399,-0.04614380374550819,0.3646343052387238,-0.639028787612915,-0.4337838888168335,0.8972198963165283,-0.0826319083571434,0,0,0,-1,64235.48180904167,1,2,1561241775.144724,1561241546.732582,16,16.27515,0,0,14.2948,0,0,1561241691.513234,64232.874363,0,-1.226074,74.44138,2650659446,177292352,1,1,0.2,-30.38799,-37.92429,3
1561241775.248018,30,0,0,1561241773.218555,4.603078566422389,-74.06476740934676,2651.395,-1,-1,10,65,-9999,1561241775.234113,-26.38517761230469,6.116872787475586,-3.391357421875,264.6702270507812,272.2139282226562,15,64235.59051304167,-0.43865966796875,0.89105224609375,-0.0716400146484375,64235.58138804167,0.0459411267005209,0.05227545535327437,0.06162794446941464,64235.57345304167,11.02059936523438,6.706161499023438,-536.385009765625,64235.57125604167,-1.986467569480275,-1.380549523872339,-1.114288489579776,0.03691049665212631,0.03946574032306671,0.06335202604532242,0.006318777799606323,-0.003157675266265869,0.006881833076477051,1,0.6753946542739868,-0.04650375247001648,0.3644774258136749,-0.6394026279449463,-0.4328629672527313,0.8975973725318909,-0.08335892111063004,0,0,0,-1,64235.48180904167,1,2,1561241775.144724,1561241546.732582,16,16.27515,0,0,14.2948,0,0,1561241691.513234,64232.874363,0,-1.226074,74.44138,2650659446,177292352,1,1,0.2,-30.38799,-30.38799,3
1561241775.250669,31,0,0,1561241773.218555,4.603078566422389,-74.06476740934676,2651.395,-1,-1,10,65,-9999,1561241775.234113,-26.38517761230469,6.116872787475586,-3.391357421875,264.6702270507812,272.2139282226562,15,64235.61077604167,-0.453125,0.874664306640625,-0.0722808837890625,64235.60165104167,0.02350559241325737,0.04369794611434717,0.01622184683189066,64235.59356404167,10.87608337402344,6.760147094726562,-536.3311767578125,64235.59152004167,-1.984140674086566,-1.377599053125193,-1.115232472667687,0.04119845107197762,0.03917146101593971,0.03832417353987694,-0.006876289844512939,-0.006960868835449219,0.01283299922943115,1,0.6749472618103027,-0.04700745642185211,0.364428699016571,-0.6398658156394958,-0.4317833781242371,0.8980131149291992,-0.08447298407554626,0,0,0,-1,64235.48180904167,1,2,1561241775.144724,1561241546.732582,16,16.27515,0,0,14.2948,0,0,1561241691.513234,64232.874363,0,-1.226074,74.44138,2650659446,177292352,1,1,0.2,-30.38799,-30.38799,3
1561241775.264347,32,0,0,1561241773.218555,4.603078566422389,-74.06476740934676,2651.395,-1,-1,10,65,-9999,1561241775.258446,-26.29011154174805,6.08904504776001,-3.3651123046875,264.7453002929688,272.2890014648438,15,64235.63104004167,-0.4463958740234375,0.8770294189453125,-0.076751708984375,64235.62191504167,-0.03024658576446594,0.06246044862617341,-0.01698990249026951,64235.61370604167,11.00614929199219,6.69573974609375,-536.3195190429688,64235.61178304167,-1.983203594847873,-1.375953178121105,-1.115447785852411,-0.01539984438568354,0.0474240668118,-0.01122047752141953,-0.02167078852653503,-0.02344346046447754,0.01286518573760986,1,0.6746776700019836,-0.04729671031236649,0.3646156787872314,-0.640022337436676,-0.431454211473465,0.8981078267097473,-0.08514612913131714,0,0,0,-1,64235.48180904167,1,2,1561241775.144724,1561241546.732582,16,16.27515,0,0,14.2948,0,0,1561241691.513234,64232.874363,0,-1.226074,74.44138,2650659446,177292352,1,1,0.2,-30.38799,-30.38799,3
1561241775.285188,33,0,0,1561241773.218555,4.603078566422389,-74.06476740934676,2651.395,-1,-1,10,65,-9999,1561241775.258446,-26.29011154174805,6.08904504776001,-3.3651123046875,264.7453002929688,272.2890014648438,15,64235.65130404167,-0.4392852783203125,0.8909454345703125,-0.083282470703125,64235.64217904167,-0.01946078334964502,0.06456434588733601,-0.007212372864152593,64235.63384704167,11.15324401855469,7.117172241210938,-536.4991455078125,64235.63204704167,-1.984672913726124,-1.376158483280444,-1.115271452187599,-0.03353091329336166,0.06066929921507835,-0.01663894578814507,-0.01476895809173584,-0.02100080251693726,0.008336424827575684,1,0.6746734380722046,-0.0476621501147747,0.3650726079940796,-0.6397390961647034,-0.4316269159317017,0.8980302214622498,-0.08508814126253128,0,0,0,-1,64235.48180904167,1,2,1561241775.144724,1561241546.732582,16,16.27515,0,0,14.2948,0,0,1561241691.513234,64232.874363,0,-1.226074,74.44138,2650659446,177292352,1,1,0.2,-30.38799,-30.91358,3
1561241775.324415,34,0,0,1561241773.218555,4.603078566422389,-74.06476740934676,2651.395,-1,-1,10,65,-9999,1561241775.286884,-26.34839630126953,6.073095798492432,-3.32708740234375,264.8370666503906,272.3807678222656,15,64235.67156704167,-0.4313507080078125,0.8903350830078125,-0.090545654296875,64235.66244204167,-0.003912716273544416,0.04582900761862857,0.001511876550837984,64235.65398904167,10.71563720703125,6.819671630859375,-536.3278198242188,64235.65231104167,-1.985764642560537,-1.37603270928843,-1.115187069756546,-0.01213560812175274,0.04719769582152367,-0.003078928682953119,-0.00759473443031311,-0.007047712802886963,0.001874625682830811,1,0.6746211051940918,-0.04803972691297531,0.3654910624027252,-0.6395270824432373,-0.4316905438899994,0.8979930877685547,-0.08515709638595581,0,0,0,-1,64235.48180904167,1,2,1561241775.144724,1561241546.732582,16,16.27515,0,0,14.2948,0,0,1561241691.513234,64232.874363,0,-1.226074,74.44138,2650659446,177292352,1,1,0.2,-30.38799,-32.69321,3
1561241775.32743,35,0,0,1561241773.218555,4.603078566422389,-74.06476740934676,2651.395,-1,-1,10,65,-9999,1561241775.286884,-26.34839630126953,6.073095798492432,-3.32708740234375,264.8370666503906,272.3807678222656,15,64235.69183104167,-0.435211181640625,0.895721435546875,-0.0856475830078125,64235.68270604167,0.004940163822096987,0.01080124874914337,-0.005866411249226546,64235.67410004167,10.70222473144531,7.056716918945312,-536.5018310546875,64235.67257404167,-1.986243307196502,-1.375731541606651,-1.115148291469972,-0.007295578718185425,0.02062068320810795,-0.009276903234422207,0.0003483295440673828,-0.007640957832336426,-0.005251824855804443,1,0.6745530366897583,-0.04828327149152756,0.3657580316066742,-0.6394279003143311,-0.4316990375518799,0.8979760408401489,-0.08529385179281235,0,0,0,-1,64235.48180904167,1,2,1561241775.144724,1561241546.732582,16,16.27515,0,0,14.2948,0,0,1561241691.513234,64232.874363,0,-1.226074,74.44138,2650659446,177292352,1,1,0.2,-30.38799,-32.69321,3
1561241775.345378,36,0,0,1561241773.218555,4.603078566422389,-74.06476740934676,2651.395,-1,-1,10,65,-9999,1561241775.33134,-26.54565811157227,6.170102119445801,-3.39849853515625,264.887939453125,272.431640625,15,64235.71209504167,-0.4373321533203125,0.895233154296875,-0.0799102783203125,64235.70297004167,0.01456216484055328,0.006873352457385505,-0.003744937124869425,64235.69424204167,10.60691833496094,6.80780029296875,-536.3939208984375,64235.69283804167,-1.986387031363969,-1.375764385626913,-1.114915069462028,0.0052468441426754,-0.002088092267513275,-0.01067825872451067,-0.003304183483123779,-0.002151966094970703,-0.0003273487091064453,1,0.6745466589927673,-0.04823590442538261,0.365867018699646,-0.6393757462501526,-0.4319070279598236,0.8978734016418457,-0.08532020449638367,0,0,0,-1,64235.48180904167,1,2,1561241775.144724,1561241546.732582,16,16.27515,0,0,14.2948,0,0,1561241691.513234,64232.874363,0,-1.226074,74.44138,2650659446,177292352,1,1,0.2,-30.38799,-33.33535,3
1561241775.3657,37,0,0,1561241773.218555,4.603078566422389,-74.06476740934676,2651.395,-1,-1,10,65,-9999,1561241775.359819,-26.56535339355469,6.117084980010986,-3.3533935546875,264.9082946777344,272.4519958496094,15,64235.732379375,-0.437408447265625,0.8936309814453125,-0.0776824951171875,64235.72323304167,0.006157228440263199,0.0426470627482019,0.01249395393799774,64235.71438304167,10.707763671875,6.927658081054688,-536.4505004882812,64235.71310204167,-1.98602551004814,-1.375421454987904,-1.114698472318282,0.009894060902297497,0.01259604655206203,0.001090516336262226,-0.005263537168502808,-0.002544879913330078,0.005595803260803223,1,0.6744843125343323,-0.04814421758055687,0.3659361004829407,-0.6394089460372925,-0.4320686459541321,0.8977780342102051,-0.08550609648227692,0,0,0,-1,64235.48180904167,1,2,1561241775.144724,1561241546.732582,16,16.27515,0,0,14.2948,0,0,1561241691.513234,64232.874363,0,-1.226074,74.44138,2650659446,177292352,1,1,0.2,-30.38799,-33.65283,3
1561241775.405233,38,0,0,1561241773.218555,4.603078566422389,-74.06476740934676,2651.395,-1,-1,10,65,-9999,1561241775.388424,-26.40583801269531,6.187736034393311,-3.37811279296875,264.9626159667969,272.5063171386719,15,64235.752643375,-0.4315948486328125,0.895782470703125,-0.080902099609375,64235.74351837501,-0.005194229390090547,0.04449769338969796,0.002050634039361014,64235.73451537501,10.91468811035156,6.957778930664062,-536.3904418945312,64235.733386375,-1.985826931715485,-1.374599718580357,-1.114795393280286,-0.001274438225664198,0.04368152469396591,0.005176604259759188,-0.005495667457580566,-0.004189729690551758,0.008161604404449463,1,0.6743424534797668,-0.04837551340460777,0.3661188185214996,-0.6394364833831787,-0.4319127798080444,0.8978207111358643,-0.08584412932395935,0,0,0,-1,64235.48180904167,1,2,1561241775.144724,1561241546.732582,16,16.27515,0,0,14.2948,0,0,1561241691.513234,64232.874363,0,-1.226074,74.44138,2650659446,177292352,1,1,0.2,-30.38799,-33.93419,3
1561241775.407924,39,0,0,1561241773.218555,4.603078566422389,-74.06476740934676,2651.395,-1,-1,10,65,-9999,1561241775.388424,-26.40583801269531,6.187736034393311,-3.37811279296875,264.9626159667969,272.5063171386719,15,64235.772907375,-0.4308929443359375,0.896575927734375,-0.081939697265625,64235.763782375,-0.004430967421673837,0.01923228412811623,0.002549976743750871,64235.754657375,10.81362915039062,6.766952514648438,-536.3890380859375,64235.753650375,-1.986144253454092,-1.374148985791972,-1.114816691443008,-0.01092946249991655,0.02680614031851292,-0.001595814246684313,0.0002603232860565186,-0.002047598361968994,0.005132913589477539,1,0.6742530465126038,-0.04863443970680237,0.3663654029369354,-0.6393698453903198,-0.4318552017211914,0.897830069065094,-0.08603504300117493,0,0,0,-1,64235.48180904167,1,2,1561241775.144724,1561241546.732582,16,16.27515,0,0,14.2948,0,0,1561241691.513234,64232.874363,0,-1.226074,74.44138,2650659446,177292352,1,1,0.2,-30.38799,-34.87184,3
1561241775.426515,40,0,0,1561241773.218555,4.603078566422389,-74.06476740934676,2651.395,-1,-1,10,65,-9999,1561241775.411061,-26.64570999145508,6.140109062194824,-3.27008056640625,264.9860534667969,272.5297546386719,15,64235.79317037501,-0.43231201171875,0.8985137939453125,-0.084808349609375,64235.784045375,-0.002350239661994928,0.00570049631331461,0.006848052427029753,64235.774799375,10.69384765625,6.807144165039062,-536.504638671875,64235.773914375,-1.986517904965326,-1.374206927049758,-1.114833121341323,-0.006943775340914726,0.004923744592815638,0.00344608211889863,0.0009528994560241699,-0.001261353492736816,0.004067480564117432,1,0.6742551922798157,-0.04874785989522934,0.3664601445198059,-0.6393046975135803,-0.4318458437919617,0.8978373408317566,-0.08600716292858124,0,0,0,-1,64235.48180904167,1,2,1561241775.144724,1561241546.732582,16,16.27515,0,0,14.2948,0,0,1561241691.513234,64232.874363,0,-1.226074,74.44138,2650659446,177292352,1,1,0.2,-30.38799,-34.87184,3
1561241775.446753,41,0,0,1561241773.218555,4.603078566422389,-74.06476740934676,2651.395,-1,-1,10,65,-9999,1561241775.436915,-26.47324752807617,5.975039958953857,-3.621826171875,264.9842834472656,272.5279846191406,15,64235.81343437501,-0.4373626708984375,0.8929901123046875,-0.075164794921875,64235.804309375,0.01545805223125593,0.01534726472990863,-0.003258377593711948,64235.794940375,10.78274536132812,6.85211181640625,-536.5233154296875,64235.79417737501,-1.986660328956722,-1.374359031343069,-1.114888377677199,0.003589559113606811,-0.005814386997371912,-0.003627007361501455,-0.0005017518997192383,0.0006521344184875488,0.001123487949371338,1,0.6742817163467407,-0.04876749962568283,0.3664368093013763,-0.639288604259491,-0.4318102598190308,0.897861659526825,-0.08593179285526276,0,0,0,-1,64235.806262375,2,0,1561241775.469177,1561241546.732582,16,16.27515,0,0,14.2948,0,0,1561241691.513234,64232.874363,0,-1.226074,74.44138,2650659446,177292352,1,1,0.2,-30.38799,-35.69178,3
1561241775.480177,42,0,0,1561241773.218555,4.603078566422389,-74.06476740934676,2651.395,-1,-1,10,65,-9999,1561241775.461064,-26.53713607788086,6.173435688018799,-3.4814453125,265.00634765625,272.550048828125,15,64235.83369837501,-0.438507080078125,0.883148193359375,-0.0775604248046875,64235.824573375,0.001122256083359391,0.03098641191528995,0.006165484239642444,64235.815051375,10.85989379882812,6.963333129882812,-536.7918701171875,64235.81444137501,-1.986213685536087,-1.373816771779829,-1.114713255051366,0.01529441773891449,0.0186773743480444,-0.003291981527581811,-0.005444586277008057,-0.004794418811798096,0.01103192567825317,1,0.6741864681243896,-0.04872598871588707,0.3665327131748199,-0.6393373608589172,-0.4319181144237518,0.8977845311164856,-0.08619676530361176,0,0,0,-1,64235.806262375,2,0,1561241775.469177,1561241546.732582,16,16.27515,0,0,14.2948,0,0,1561241691.513234,64232.874363,0,-1.226074,74.44138,2650659446,177292352,1,1,0.2,-30.38799,-35.74964,3
1561241775.487359,43,0,0,1561241773.218555,4.603078566422389,-74.06476740934676,2651.395,-1,-1,10,65,-9999,1561241775.461064,-26.53713607788086,6.173435688018799,-3.4814453125,265.00634765625,272.550048828125,15,64235.853931375,-0.4320220947265625,0.8848724365234375,-0.0815887451171875,64235.84483637501,-0.01967756466237747,0.001061536010505584,-0.00729359927740001,64235.835193375,10.69355773925781,7.120361328125,-536.4368286132812,64235.834705375,-1.986272916192989,-1.373448377808509,-1.11476266702303,-0.01434310246258974,0.01524615660309792,0.003074305132031441,-0.00666433572769165,-0.01465809345245361,0.00878673791885376,1,0.6741194128990173,-0.04888185486197472,0.3666600584983826,-0.6393231153488159,-0.431842714548111,0.8978062868118286,-0.08634716272354126,0,0,0,-1,64235.806262375,2,0,1561241775.469177,1561241546.732582,16,16.27515,0,0,14.2948,0,0,1561241691.513234,64232.874363,0,-1.226074,74.44138,2650659446,177292352,1,1,0.2,-30.38799,-35.74964,3
1561241775.507404,44,0,0,1561241773.218555,4.603078566422389,-74.06476740934676,2651.395,-1,-1,10,65,-9999,1561241775.487371,-26.55764770507812,6.119812965393066,-3.30792236328125,265.0231628417969,272.5668640136719,15,64235.87419437501,-0.4416961669921875,0.8851318359375,-0.0791168212890625,64235.865070375,-0.02932459939508051,0.006394516093389259,-0.01363085740735256,64235.855335375,10.95602416992188,6.937454223632812,-536.5738525390625,64235.85493837501,-1.987387783241644,-1.374531878668964,-1.114668955943358,-0.02892550639808178,-0.01765373535454273,-0.01715320162475109,-3.546476364135742e-06,-0.01289260387420654,0.004306912422180176,1,0.6742871999740601,-0.0488770417869091,0.3666809499263763,-0.6391345262527466,-0.432018518447876,0.897765040397644,-0.08589561283588409,0,0,0,-1,64235.806262375,2,0,1561241775.469177,1561241546.732582,16,16.27515,0,0,14.2948,0,0,1561241691.513234,64232.874363,0,-1.226074,74.44138,2650659446,177292352,1,1,0.2,-30.38799,-36.5153,3
1561241775.527796,45,0,0,1561241773.218555,4.603078566422389,-74.06476740934676,2651.395,-1,-1,10,65,-9999,1561241775.511575,-26.50735473632812,6.146267890930176,-3.37738037109375,265.0570983886719,272.6007995605469,15,64235.89445837501,-0.4314117431640625,0.890899658203125,-0.09210205078125,64235.885333375,-0.04373895879513438,0.06150384116261695,-0.005032309195813729,64235.875476375,10.88636779785156,6.830474853515625,-536.3624877929688,64235.87520137501,-1.98904472459661,-1.375969509352308,-1.114476383751767,-0.04154995828866959,0.03248240053653717,-0.01548766158521175,-0.009384900331497192,-0.01254832744598389,0.006191074848175049,1,0.674502968788147,-0.048905860632658,0.3667868673801422,-0.638843834400177,-0.4323112368583679,0.8976801633834839,-0.08530792593955994,0,0,0,-1,64235.806262375,2,0,1561241775.469177,1561241546.732582,16,16.27515,0,0,14.2948,0,0,1561241691.513234,64232.874363,0,-1.226074,74.44138,2650659446,177292352,1,1,0.2,-30.38799,-35.43531,3
1561241775.556898,46,0,0,1561241773.218555,4.603078566422389,-74.06476740934676,2651.395,-1,-1,10,65,-9999,1561241775.538096,-26.49833679199219,6.195344924926758,-3.347412109375,265.1416931152344,272.6853942871094,15,64235.914722375,-0.41424560546875,0.8974761962890625,-0.1061859130859375,64235.90559737501,-0.02994032223910683,0.02081739760893139,0.006784935509194875,64235.89561837501,10.57913208007812,6.940536499023438,-536.3440551757812,64235.895465375,-1.991142814480134,-1.37688869461743,-1.114487259052691,-0.03844418004155159,0.04451989009976387,0.001095043495297432,0.0009681284427642822,-0.006785333156585693,-0.007193446159362793,1,0.674620509147644,-0.04932397231459618,0.3671433627605438,-0.6384826898574829,-0.4323798716068268,0.8976849913597107,-0.084908626973629,0,0,0,-1,64235.806262375,2,0,1561241775.469177,1561241546.732582,16,16.27515,0,0,14.2948,0,0,1561241691.513234,64232.874363,0,-1.226074,74.44138,2650659446,177292352,1,1,0.2,-30.38799,-34.16253,3
1561241775.568278,47,0,0,1561241773.218555,4.603078566422389,-74.06476740934676,2651.395,-1,-1,10,65,-9999,1561241775.562926,-26.69648742675781,6.045878887176514,-3.35369873046875,265.138916015625,272.6826171875,15,64235.934985375,-0.4318389892578125,0.90228271484375,-0.1079864501953125,64235.92586137501,-0.001849032744842015,-0.02248613434797504,-0.004779841524474217,64235.915729375,10.82159423828125,6.98260498046875,-536.338623046875,64235.915729375,-1.992648890739017,-1.377970989082227,-1.114628497802729,-0.02602697163820267,-0.01787813194096088,-0.004088148474693298,0.01810142397880554,-0.0002710223197937012,-0.02176958322525024,1,0.6747872233390808,-0.04953836277127266,0.367214024066925,-0.6382492184638977,-0.4323470294475555,0.8977472186088562,-0.08441630750894547,0,0,0,-1,64235.806262375,2,0,1561241775.469177,1561241546.732582,16,16.27515,0,0,14.2948,0,0,1561241691.513234,64232.874363,0,-1.226074,74.44138,2650659446,177292352,1,1,0.2,-30.38799,-34.16253,3
1561241775.588499,48,0,0,1561241773.218555,4.603078566422389,-74.06476740934676,2651.395,-1,-1,10,65,-9999,1561241775.562926,-26.69648742675781,6.045878887176514,-3.35369873046875,265.138916015625,272.6826171875,15,64235.955249375,-0.4379730224609375,0.9016876220703125,-0.10125732421875,64235.946124375,0.0340061702753308,0.02602174701116424,0.006259227510013234,64235.935870375,10.739013671875,6.794464111328125,-536.3070068359375,64235.935992375,-1.992950346447749,-1.378704746558321,-1.114499073348883,0.01755219697952271,-0.009187172167003155,-0.008064780384302139,0.0006839931011199951,0.004592537879943848,-0.02386516332626343,1,0.6749097108840942,-0.04935849830508232,0.3671038150787354,-0.6381970643997192,-0.4325229525566101,0.8976901769638062,-0.08412124216556549,0,0,0,-1,64235.806262375,2,0,1561241775.469177,1561241546.732582,16,16.27515,0,0,14.2948,0,0,1561241691.513234,64232.874363,0,-1.226074,74.44138,2650659446,177292352,1,1,0.2,-26.25497,-27.8743,3
1561241775.608734,49,0,0,1561241773.218555,4.603078566422389,-74.06476740934676,2651.395,-1,-1,10,65,-9999,1561241775.588758,-26.66351699829102,5.958624839782715,-3.40118408203125,265.1330261230469,272.6767272949219,15,64235.975513375,-0.4198455810546875,0.8810272216796875,-0.0896148681640625,64235.966388375,0.06686265390807439,0.03420564104097774,0.0249785868121802,64235.95601237501,10.68338012695312,6.741622924804688,-536.5452880859375,64235.956256375,-1.991494519138116,-1.377082326033898,-1.114424974865009,0.04871544241905212,0.03445058688521385,0.01636173389852047,-0.005522012710571289,0.004030108451843262,-0.01642167568206787,1,0.6746450662612915,-0.04935802891850471,0.3672100603580475,-0.6384156942367554,-0.4324510395526886,0.8976575136184692,-0.08483564108610153,0,0,0,-1,64235.806262375,2,0,1561241775.469177,1561241546.732582,16,16.27515,0,0,14.2948,0,0,1561241691.513234,64232.874363,0,-1.226074,74.44138,2650659446,177292352,1,1,0.2,-21.4561,-21.4561,3
1561241775.636435,50,0,0,1561241773.218555,4.603078566422389,-74.06476740934676,2651.395,-1,-1,10,65,-9999,1561241775.612995,-26.55397796630859,6.02918529510498,-3.46160888671875,265.1299438476562,272.6736450195312,15,64235.99577637501,-0.4146575927734375,0.8637542724609375,-0.0828399658203125,64235.986652375,0.03809039412307632,0.005495432909378508,0.01217543987162426,64235.97615437501,10.78733825683594,6.824844360351562,-536.576904296875,64235.97652037501,-1.988660969912319,-1.373993339819312,-1.114548839151178,0.05656963586807251,0.01699702814221382,0.01293531060218811,0.01223230361938477,-0.016684889793396,-0.003465533256530762,1,0.6741524934768677,-0.04943432658910751,0.3673074543476105,-0.6388739347457886,-0.4320778548717499,0.8977121114730835,-0.08614932745695114,0,0,0,-1,64235.806262375,2,0,1561241775.469177,1561241546.732582,16,16.27515,0,0,14.2948,0,0,1561241691.513234,64232.874363,0,-1.226074,74.44138,2650659446,177292352,1,1,0.2,-15.3114,-19.73983,3
1561241775.64921,51,0,0,1561241773.218555,4.603078566422389,-74.06476740934676,2651.395,-1,-1,10,65,-9999,1561241775.639269,-26.67848587036133,6.139445781707764,-3.64117431640625,265.1074829101562,272.6511840820312,15,64236.01604037501,-0.435943603515625,0.87445068359375,-0.0829315185546875,64236.006915375,-0.005668538380233659,-0.009541839869644903,0.02277535364235764,64235.996265375,10.69869995117188,6.942092895507812,-536.5137329101562,64235.99678437501,-1.986900739998691,-1.372417828334789,-1.114658228157612,0.01540915202349424,-0.01682751439511776,0.0153819564729929,0.01718798279762268,-0.03400599956512451,0.003970682621002197,1,0.6739108562469482,-0.04938450083136559,0.3672413229942322,-0.63917076587677,-0.4318455755710602,0.897760272026062,-0.08681065589189529,0,0,0,-1,64235.806262375,2,0,1561241775.469177,1561241546.732582,16,16.27515,0,0,14.2948,0,0,1561241691.513234,64232.874363,0,-1.226074,74.44138,2650659446,177292352,1,1,0.2,-15.14696,-20.41439,3
1561241775.669582,52,0,0,1561241773.218555,4.603078566422389,-74.06476740934676,2651.395,-1,-1,10,65,-9999,1561241775.664246,-26.49692153930664,5.970903873443604,-3.302734375,265.1222839355469,272.6659851074219,15,64236.036304375,-0.448516845703125,0.89227294921875,-0.0858917236328125,64236.02717937501,-0.005579322483716004,0.03488448080283894,0.01310807888537001,64236.01640637501,10.6015625,6.94879150390625,-536.5504760742188,64236.017047375,-1.986853854922032,-1.372654258187527,-1.115035880796445,-0.01293886639177799,0.0001274999231100082,0.01309057325124741,-0.004409998655319214,-0.02347588539123535,0.003710269927978516,1,0.6739700436592102,-0.04943157359957695,0.3670264780521393,-0.6392281055450439,-0.4315336048603058,0.8979265689849854,-0.08664179593324661,0,0,0,-1,64235.806262375,2,0,1561241775.469177,1561241546.732582,16,16.27515,0,0,14.2948,0,0,1561241691.513234,64232.874363,0,-1.226074,74.44138,2650659446,177292352,1,1,0.2,-15.14696,-20.39402,3
1561241775.689937,53,0,0,1561241773.218555,4.603078566422389,-74.06476740934676,2651.395,-1,-1,10,65,-9999,1561241775.664246,-26.49692153930664,5.970903873443604,-3.302734375,265.1222839355469,272.6659851074219,15,64236.056567375,-0.4524688720703125,0.9049224853515625,-0.095947265625,64236.04744337501,0.008979113931311159,0.02869715864225784,0.03363678983213681,64236.03654837501,10.65768432617188,6.953506469726562,-536.5299682617188,64236.037311375,-1.987090083966877,-1.372361986912879,-1.115318059618777,-0.006959270685911179,0.0367952324450016,0.02190883085131645,-0.0172572135925293,-0.00577777624130249,0.0008262395858764648,1,0.6739214658737183,-0.04970808327198029,0.3671105802059174,-0.639209508895874,-0.4312596321105957,0.8980507254600525,-0.08671792596578598,0,0,0,-1,64235.806262375,2,0,1561241775.469177,1561241546.732582,16,16.27515,0,0,14.2948,0,0,1561241691.513234,64232.874363,0,-1.226074,74.44138,2650659446,177292352,1,1,0.2,-15.14696,-20.7014,3
1561241775.716989,54,0,0,1561241773.218555,4.603078566422389,-74.06476740934676,2651.395,-1,-1,10,65,-9999,1561241775.689948,-26.62601089477539,6.13788890838623,-3.4658203125,265.1535949707031,272.6972961425781,15,64236.076831375,-0.526824951171875,0.9039154052734375,-0.062530517578125,64236.067706375,0.04543272924842478,-0.04972095123567037,-0.000457797391384621,64236.056690375,10.61378479003906,6.7642822265625,-536.208984375,64236.057575375,-1.986572299131806,-1.371516648973495,-1.115828393115247,0.01856499910354614,-0.006652641575783491,0.01887495815753937,-0.0217321515083313,0.006647408008575439,-0.008955597877502441,1,0.6737989783287048,-0.0499909520149231,0.3670673966407776,-0.6393412947654724,-0.4307367205619812,0.8982751369476318,-0.08699168264865875,0,0,0,-1,64235.806262375,2,0,1561241775.469177,1561241546.732582,16,16.27515,0,0,14.2948,0,0,1561241691.513234,64232.874363,0,-1.226074,74.44138,2650659446,177292352,1,1,0.2,-15.14696,-21.55143,3
1561241775.730342,55,0,0,1561241773.218555,4.603078566422389,-74.06476740934676,2651.395,-1,-1,10,65,-9999,1561241775.716478,-26.83494186401367,6.116118907928467,-3.40106201171875,265.0469665527344,272.5906677246094,15,64236.09709537501,-0.651275634765625,0.8527679443359375,-0.0361175537109375,64236.087970375,0.01001455096313397,-0.07209656439840711,-0.1412463410506416,64236.07680137501,10.70075988769531,6.708892822265625,-536.50048828125,64236.077838375,-1.984831162506814,-1.371139473579158,-1.115495304216864,0.05473977699875832,-0.1029421612620354,-0.05565280839800835,-0.09582778811454773,0.005786716938018799,0.02468299865722656,1,0.6737600564956665,-0.049402866512537,0.366743803024292,-0.6396136879920959,-0.4309971630573273,0.8981286883354187,-0.08721348643302917,0,0,0,-1,64235.806262375,2,0,1561241775.469177,1561241546.732582,16,16.27515,0,0,14.2948,0,0,1561241691.513234,64232.874363,0,-1.226074,74.44138,2650659446,177292352,1,1,0.2,-15.14696,-21.55143,3
1561241775.750646,56,0,0,1561241773.218555,4.603078566422389,-74.06476740934676,2651.395,-1,-1,10,65,-9999,1561241775.740602,-26.65809440612793,5.973147392272949,-3.39599609375,265.10986328125,272.653564453125,15,64236.11735837501,-0.838287353515625,0.803009033203125,-0.030731201171875,64236.108234375,-0.1725483375551059,0.2728397884141819,-0.2735018502611756,64236.09694237501,10.67623901367188,6.670135498046875,-536.45556640625,64236.09810237501,-1.986165153406938,-1.373545006921413,-1.112598221103028,-0.07794769108295441,0.04572055116295815,-0.2303425818681717,-0.217520147562027,-0.04408305883407593,0.05056846141815186,1,0.6740555763244629,-0.04802148789167404,0.3672816157341003,-0.6390987634658813,-0.433755487203598,0.8968510031700134,-0.08668603003025055,0,0,0,-1,64235.806262375,2,0,1561241775.469177,1561241546.732582,16,16.27515,0,0,14.2948,0,0,1561241691.513234,64232.874363,0,-1.226074,74.44138,2650659446,177292352,1,1,0.2,-15.14696,-22.06656,3
1561241775.770906,57,0,0,1561241773.218555,4.603078566422389,-74.06476740934676,2651.395,-1,-1,10,65,-9999,1561241775.765061,-26.76886749267578,5.707621574401855,-3.6976318359375,265.7400207519531,273.2837219238281,15,64236.137622375,-0.9418792724609375,0.8060150146484375,-0.05047607421875,64236.128497375,-0.1669775371868782,0.44004822166757,-0.4645583584440052,64236.117084375,10.64117431640625,6.620147705078125,-536.5511474609375,64236.11836637501,-1.996066028576258,-1.377340249524231,-1.107649927404304,-0.2210017889738083,0.4105866849422455,-0.3468425571918488,-0.3998560607433319,-0.09164220094680786,0.05516016483306885,1,0.6743278503417969,-0.04833484441041946,0.3707319498062134,-0.6367916464805603,-0.4384312927722931,0.8946512341499329,-0.08589138835668564,0,0,0,-1,64235.806262375,2,0,1561241775.469177,1561241546.732582,16,16.27515,0,0,14.2948,0,0,1561241691.513234,64232.874363,0,-1.226074,74.44138,2650659446,177292352,1,1,0.2,-15.14696,-22.98625,3
1561241775.803587,58,0,0,1561241773.218555,4.603078566422389,-74.06476740934676,2651.395,-1,-1,10,65,-9999,1561241775.791351,-26.7512149810791,5.312283039093018,-3.781494140625,266.20458984375,273.748291015625,15,64236.157855375,-1.054718017578125,0.72015380859375,-0.088348388671875,64236.148731375,-0.02659539190996731,0.3025159250731529,-0.8178458518028647,64236.137225375,10.28814697265625,6.244903564453125,-536.7877197265625,64236.138629375,-2.007463710421762,-1.379136632359528,-1.098785259098959,-0.09002219885587692,0.3596992492675781,-0.6402307748794556,-0.495526134967804,-0.08464068174362183,0.03613495826721191,1,0.6740594506263733,-0.04835645481944084,0.3765509724617004,-0.6336520910263062,-0.4463531374931335,0.8906556963920593,-0.08661101758480072,0,0,0,-1,64235.806262375,2,0,1561241775.469177,1561241546.732582,16,16.27515,0,0,14.2948,0,0,1561241691.513234,64232.874363,0,-1.226074,74.44138,2650659446,177292352,1,1,0.2,-15.14696,-24.55634,3
1561241775.812031,59,0,0,1561241773.218555,4.603078566422389,-74.06476740934676,2651.395,-1,-1,10,65,-9999,1561241775.791351,-26.7512149810791,5.312283039093018,-3.781494140625,266.20458984375,273.748291015625,15,64236.17811937501,-1.160293579101562,0.60296630859375,-0.127105712890625,64236.168994375,0.02691976493073896,0.2919042933936232,-1.145186432977191,64236.157367375,10.65440368652344,5.814620971679688,-536.78173828125,64236.15886237501,-2.0157979029505,-1.380271541513097,-1.08270769785364,0.003322661854326725,0.3016295731067657,-0.982768177986145,-0.5942649841308594,-0.1630769968032837,0.0004565119743347168,1,0.6734841465950012,-0.04490743577480316,0.3838600814342499,-0.6301220655441284,-0.4604530334472656,0.8832308053970337,-0.08880485594272614,0,0,0,-1,64235.806262375,2,0,1561241775.469177,1561241546.732582,16,16.27515,0,0,14.2948,0,0,1561241691.513234,64232.874363,0,-1.226074,74.44138,2650659446,177292352,1,1,0.2,-15.14696,-24.55634,3
1561241775.83174,60,0,0,1561241773.218555,4.603078566422389,-74.06476740934676,2651.395,-1,-1,10,65,-9999,1561241775.815541,-26.76301956176758,4.897111415863037,-3.8321533203125,266.5198364257812,274.0635375976562,15,64236.19838337501,-1.204940795898438,0.5507965087890625,-0.1627655029296875,64236.189258375,0.0801752635651625,0.0553282369108322,-1.546999118242276,64236.177509375,10.80215454101562,5.228073120117188,-537.0643310546875,64236.17912637501,-2.023990747872757,-1.38193227586143,-1.059686024681153,0.04874047636985779,0.2069815993309021,-1.337073564529419,-0.6798454523086548,-0.2692356109619141,-0.03527182340621948,1,0.6727451682090759,-0.03869107365608215,0.3930619955062866,-0.6256350874900818,-0.4804481267929077,0.8722019195556641,-0.09183388203382492,0,0,0,-1,64235.806262375,2,0,1561241775.469177,1561241546.732582,16,16.27515,0,0,14.2948,0,0,1561241691.513234,64232.874363,0,-1.226074,74.44138,2650659446,177292352,1,1,0.2,-15.14696,-25.49624,3
1561241775.851881,61,0,0,1561241773.218555,4.603078566422389,-74.06476740934676,2651.395,-1,-1,10,65,-9999,1561241775.815541,-26.76301956176758,4.897111415863037,-3.8321533203125,266.5198364257812,274.0635375976562,15,64236.218646375,-1.310394287109375,0.5078125,-0.1613311767578125,64236.20952237501,0.1171380752826993,-0.2981821630312669,-1.989636997753839,64236.197650375,10.71958923339844,4.299911499023438,-536.96728515625,64236.199390375,-2.032413872765282,-1.388389337637952,-1.028503615297442,0.1191083863377571,-0.1481341421604156,-1.774628281593323,-0.6974018812179565,-0.3057311773300171,-0.06914621591567993,1,0.6726090908050537,-0.02806020528078079,0.4031524956226349,-0.6199013590812683,-0.5075389742851257,0.8565276861190796,-0.09361927211284637,0,0,0,-1,64235.806262375,2,0,1561241775.469177,1561241546.732582,16,16.27515,0,0,14.2948,0,0,1561241691.513234,64232.874363,0,-1.226074,74.44138,2650659446,177292352,1,1,0.2,-15.14696,-26.20285,3
1561241775.893714,62,0,0,1561241773.218555,4.603078566422389,-74.06476740934676,2651.395,-1,-1,10,65,-9999,1561241775.856569,-26.60615348815918,3.030129909515381,-3.693115234375,266.3540954589844,273.8977966308594,15,64236.238910375,-1.39642333984375,0.5150299072265625,-0.1457061767578125,64236.22978537501,0.02756052148901202,-0.4439082073515308,-2.400231723029568,64236.21779237501,10.4752197265625,2.9815673828125,-536.9283447265625,64236.219653375,-2.041738867468849,-1.402203465564499,-0.988440796422773,0.05759575217962265,-0.3935236632823944,-2.196943998336792,-0.7681994438171387,-0.3273569345474243,-0.06904494762420654,1,0.6735778450965881,-0.01223836746066809,0.413601279258728,-0.6124354004859924,-0.5421949028968811,0.8351694345474243,-0.09228621423244476,0,0,0,-1,64235.806262375,2,0,1561241775.469177,1561241546.732582,16,16.27515,0,0,14.2948,0,0,1561241691.513234,64232.874363,0,-1.226074,74.44138,2650659446,177292352,1,1,0.2,-15.14696,-27.20768,3
1561241775.89644,63,0,0,1561241773.218555,4.603078566422389,-74.06476740934676,2651.395,-1,-1,10,65,-9999,1561241775.856569,-26.60615348815918,3.030129909515381,-3.693115234375,266.3540954589844,273.8977966308594,15,64236.259174375,-1.4208984375,0.5714263916015625,-0.1613922119140625,64236.250049375,0.03175553283810484,-0.5800074569633762,-2.753454767890048,64236.237903375,10.41752624511719,1.737091064453125,-536.490234375,64236.239917375,-2.054129019743077,-1.421542373806954,-0.9402727377126863,0.02728365361690521,-0.5125845670700073,-2.603821516036987,-0.8134103417396545,-0.2926890254020691,-0.05803722143173218,1,0.6753630042076111,0.007094784174114466,0.4253004491329193,-0.6024565696716309,-0.5830129981040955,0.8077189326286316,-0.08766895532608032,0,0,0,-1,64235.806262375,2,0,1561241775.469177,1561241546.732582,16,16.27515,0,0,14.2948,0,0,1561241691.513234,64233.823664,0,-1.226074,74.44138,2650659446,177292352,1,1,0.2,-15.14696,-28.18879,3
1561241775.912718,64,0,0,1561241773.218555,4.603078566422389,-74.06476740934676,2651.395,-1,-1,10,65,-9999,1561241775.898858,-26.94446182250977,1.886159896850586,-3.73712158203125,265.8267211914062,273.3704223632812,15,64236.279437375,-1.38055419921875,0.6346282958984375,-0.2034759521484375,64236.270313375,0.07488382879528405,-0.7817075547588165,-2.994338487436042,64236.258044375,10.19522094726562,0.0877227783203125,-536.0979614257812,64236.260181375,-2.06573808633672,-1.442669716817613,-0.8849523496157568,0.0386287197470665,-0.6725223064422607,-2.882537364959717,-0.7927635908126831,-0.2024584412574768,-0.08046811819076538,1,0.6772436499595642,0.02964774332940578,0.4378924369812012,-0.5905185341835022,-0.6281348466873169,0.7738848328590393,-0.08092410117387772,0,0,0,-1,64235.806262375,2,0,1561241775.469177,1561241546.732582,16,16.27515,0,0,14.2948,0,0,1561241691.513234,64233.823664,0,-1.226074,74.44138,2650659446,177292352,1,1,0.2,-15.14696,-28.18879,3
1561241775.932968,65,0,0,1561241773.218555,4.603078566422389,-74.06476740934676,2651.395,-1,-1,10,65,-9999,1561241775.898858,-26.94446182250977,1.886159896850586,-3.73712158203125,265.8267211914062,273.3704223632812,15,64236.29970137501,-1.3170166015625,0.6886138916015625,-0.262542724609375,64236.290576375,0.1869573706329796,-1.084982747058751,-3.161216422398151,64236.27818637501,9.937408447265625,-1.6395263671875,-535.577880859375,64236.28044437501,-2.074166474383977,-1.465131392483889,-0.824538549297839,0.133672684431076,-0.9298846125602722,-3.090535640716553,-0.705444872379303,-0.09960627555847168,-0.1318739056587219,1,0.6790770292282104,0.05525717884302139,0.4501082003116608,-0.5772379040718079,-0.675109326839447,0.7342345714569092,-0.07160206884145737,0,0,0,-1,64235.806262375,2,0,1561241775.469177,1561241546.732582,16,16.27515,0,0,14.2948,0,0,1561241691.513234,64233.823664,0,-1.226074,74.44138,2650659446,177292352,1,1,0.2,-15.14696,-29.12992,3
1561241775.970532,66,0,0,1561241773.218555,4.603078566422389,-74.06476740934676,2651.395,-1,-1,10,65,-9999,1561241775.943334,-26.84122085571289,-4.671463012695312,-1.62432861328125,262.6943359375,270.238037109375,15,64236.31996537501,-1.285018920898438,0.7588653564453125,-0.26904296875,64236.310840375,0.2935631764366335,-1.544254997055058,-3.262383786939754,64236.29832837501,10.47291564941406,-3.438812255859375,-534.8186645507812,64236.30070837501,-2.07752504025889,-1.489935433555614,-0.7603839009629962,0.2213343530893326,-1.320596098899841,-3.230189085006714,-0.5948127508163452,-0.0005857944488525391,-0.2040170431137085,1,0.6809086203575134,0.08426517993211746,0.4606384634971619,-0.5630940794944763,-0.7222038507461548,0.689199686050415,-0.05852565914392471,0,0,0,-1,64235.806262375,2,0,1561241775.469177,1561241546.732582,16,16.27515,0,0,14.2948,0,0,1561241691.513234,64233.823664,0,-1.226074,74.44138,2650659446,177292352,1,1,0.2,-15.14696,-30.97391,3
1561241775.97347,67,0,0,1561241773.218555,4.603078566422389,-74.06476740934676,2651.395,-1,-1,10,65,-9999,1561241775.969354,-26.07032012939453,-6.519641876220703,-0.5760498046875,260.6591491699219,268.2028503417969,15,64236.340228375,-1.329360961914062,0.7792205810546875,-0.2032928466796875,64236.33110437501,0.4612973176892032,-1.815711273282944,-3.326302848894964,64236.318469375,10.98284912109375,-5.353530883789062,-533.9090576171875,64236.320972375,-2.075403217243605,-1.519856141458876,-0.6939639202158134,0.3911090195178986,-1.741219520568848,-3.299324750900269,-0.5172992944717407,0.1192759871482849,-0.2299013137817383,1,0.6831974983215332,0.1169202998280525,0.4680431485176086,-0.5481846928596497,-0.7677196264266968,0.6395893096923828,-0.03914164379239082,0,0,0,-1,64235.806262375,2,0,1561241775.469177,1561241546.732582,16,16.27515,0,0,14.2948,0,0,1561241691.513234,64233.823664,0,-1.226074,74.44138,2650659446,177292352,1,1,0.2,-15.14696,-30.97391,3
1561241775.994006,68,0,0,1561241773.218555,4.603078566422389,-74.06476740934676,2651.395,-1,-1,10,65,-9999,1561241775.969354,-26.07032012939453,-6.519641876220703,-0.5760498046875,260.6591491699219,268.2028503417969,15,64236.360492375,-1.441070556640625,0.7577667236328125,-0.126312255859375,64236.35136737501,0.4457417937620504,-1.624556228139781,-3.305883061236782,64236.33858037501,11.53201293945312,-6.810714721679688,-532.65673828125,64236.341235375,-2.066977399839692,-1.551085953029606,-0.6263418075404447,0.4645382165908813,-1.756046175956726,-3.330418109893799,-0.5193411111831665,0.1930357217788696,-0.1873250007629395,1,0.6847893595695496,0.1519197225570679,0.4731958508491516,-0.5329817533493042,-0.810019850730896,0.5861849188804626,-0.01596786268055439,0,0,0,-1,64235.806262375,2,0,1561241775.469177,1561241546.732582,16,16.27515,0,0,14.2948,0,0,1561241691.513234,64233.823664,0,-1.226074,74.44138,2650659446,177292352,1,1,0.2,-15.14696,-31.81019,3
1561241776.014119,69,0,0,1561241773.218555,4.603078566422389,-74.06476740934676,2651.395,-1,-1,10,65,-9999,1561241775.997543,-25.48477935791016,-8.26509952545166,0.568359375,258.7371520996094,266.2808532714844,15,64236.380756375,-1.500091552734375,0.692291259765625,-0.041290283203125,64236.371631375,0.4139050345106981,-1.441714240339301,-3.275505980578902,64236.35872237501,12.20071411132812,-8.65875244140625,-531.7920532226562,64236.361499375,-2.056551125704045,-1.578403723282283,-0.5592274317196242,0.434225857257843,-1.523745059967041,-3.286146879196167,-0.5934299230575562,0.2272352576255798,-0.132760763168335,1,0.68463534116745,0.185738205909729,0.4786979258060455,-0.517323911190033,-0.8476406931877136,0.5305314660072327,0.006448463071137667,0,0,0,-1,64235.806262375,2,0,1561241775.469177,1561241546.732582,16,16.27515,0,0,14.2948,0,0,1561241691.513234,64233.823664,0,-1.226074,74.44138,2650659446,177292352,1,1,0.2,-15.14696,-32.28654,3
1561241776.051508,70,0,0,1561241773.218555,4.603078566422389,-74.06476740934676,2651.395,-1,-1,10,65,-9999,1561241776.018223,-24.83098030090332,-10.00886535644531,1.31671142578125,168.1875457763672,175.7312316894531,15,64236.40101937501,-1.453689575195312,0.6303253173828125,-0.033233642578125,64236.391895375,0.1529456077193597,-1.331822360066598,-3.234453618691439,64236.378864375,12.98878479003906,-9.993408203125,-530.7581787109375,64236.381763375,-2.0457024041663,-1.602369857091047,-0.4929672760448354,0.3215248584747314,-1.387983918190002,-3.267552852630615,-0.6195980310440063,0.2190493047237396,-0.0690997838973999,1,0.6829560995101929,0.2178892642259598,0.484743595123291,-0.5011177062988281,-0.8804935216903687,0.473241925239563,0.02780953049659729,0,0,0,-1,64235.806262375,2,0,1561241775.469177,1561241546.732582,16,16.27515,0,0,14.2948,0,0,1561241691.513234,64233.823664,0,-1.226074,74.44138,2650659446,177292352,1,1,0.2,-15.14696,-33.11625,3
1561241776.054596,71,0,0,1561241773.218555,4.603078566422389,-74.06476740934676,2651.395,-1,-1,10,65,-9999,1561241776.018223,-24.83098030090332,-10.00886535644531,1.31671142578125,168.1875457763672,175.7312316894531,15,64236.42128337501,-1.400527954101562,0.6336517333984375,-0.01397705078125,64236.412158375,-0.09979423868355822,-1.43582758906579,-3.14207148995379,64236.399005375,14.34521484375,-11.52195739746094,-529.8546142578125,64236.40202637501,-2.03907476318527,-1.626763822193642,-0.4276071905765125,-0.01117478869855404,-1.351006746292114,-3.19210958480835,-0.5451536178588867,0.2156306803226471,-0.08413529396057129,1,0.6812365055084229,0.2477249354124069,0.491195023059845,-0.4829872846603394,-0.9085359573364258,0.4146946370601654,0.05090164020657539,0,0,0,-1,64235.806262375,2,0,1561241775.469177,1561241546.732582,16,16.27515,0,0,14.2948,0,0,1561241691.513234,64233.823664,0,-1.226074,74.44138,2650659446,177292352,1,1,0.2,-15.14696,-33.11625,3
1561241776.074784,72,0,0,1561241773.218555,4.603078566422389,-74.06476740934676,2651.395,-1,-1,10,65,-9999,1561241776.066893,-22.91608428955078,-12.72733783721924,3.24908447265625,167.8343505859375,175.3780364990234,15,64236.44154737501,-1.346969604492188,0.6085357666015625,-0.03466796875,64236.432422375,-0.2877961010960669,-1.462420850446885,-3.07301971762967,64236.41911637501,15.11366271972656,-13.19493103027344,-529.131591796875,64236.42229037501,-2.036484757445526,-1.654802579901564,-0.3638323539573295,-0.1849953085184097,-1.48084819316864,-3.113167285919189,-0.4692836403846741,0.2777934074401855,-0.0923919677734375,1,0.6805474162101746,0.2757945954799652,0.4966660737991333,-0.4627259969711304,-0.9312443137168884,0.355858325958252,0.07841488718986511,0,0,0,-1,64235.806262375,2,0,1561241775.469177,1561241546.732582,16,16.27515,0,0,14.2948,0,0,1561241691.513234,64233.823664,0,-1.226074,74.44138,2650659446,177292352,1,1,0.2,-15.14696,-33.65548,3
1561241776.095217,73,0,0,1561241773.218555,4.603078566422389,-74.06476740934676,2651.395,-1,-1,10,65,-9999,1561241776.066893,-22.91608428955078,-12.72733783721924,3.24908447265625,167.8343505859375,175.3780364990234,15,64236.461780375,-1.412841796875,0.5848388671875,0.0096893310546875,64236.452655375,-0.3348459017583878,-1.31555950055392,-2.888565718421365,64236.439258375,16.54067993164062,-14.50944519042969,-528.4531860351562,64236.442554375,-2.035813751533502,-1.684419817453728,-0.3014208318403412,-0.3099718689918518,-1.465766906738281,-2.99690580368042,-0.3982113599777222,0.3116584718227386,-0.1429355144500732,1,0.6802524924278259,0.3023083209991455,0.5013651251792908,-0.4410207867622375,-0.9487582445144653,0.2968772947788239,0.1082675457000732,0,0,0,-1,64236.454364375,1,2,1561241776.117279,1561241546.732582,16,16.27515,0,0,14.2948,0,0,1561241691.513234,64233.823664,0,-1.226074,74.44138,2650659446,177292352,1,1,0.2,-15.14696,-34.30197,3
1561241776.117977,74,0,0,1561241773.218555,4.603078566422389,-74.06476740934676,2651.395,-1,-1,10,65,-9999,1561241776.095211,-20.39262580871582,-15.46365642547607,4.86151123046875,167.7060546875,175.2497406005859,15,64236.48204437501,-1.453201293945312,0.5809783935546875,-0.0927886962890625,64236.472919375,-0.6006930280983487,-0.6284474277147185,-2.653708998738329,64236.459399375,17.66354370117188,-15.7525634765625,-527.8231811523438,64236.46278737501,-2.035527887115364,-1.7105517170025,-0.2424517451472162,-0.457936555147171,-1.032103896141052,-2.783758878707886,-0.4515542984008789,0.3447554707527161,-0.1255373954772949,1,0.6792020201683044,0.3260336518287659,0.5061836242675781,-0.4197198748588562,-0.9612874984741211,0.2400833815336227,0.1352266520261765,0,0,0,-1,64236.454364375,1,2,1561241776.117279,1561241546.732582,16,16.27515,0,0,14.2948,0,0,1561241691.513234,64233.823664,0,-1.226074,74.44138,2650659446,177292352,1,1,0.2,-15.14696,-34.37156,3
1561241776.135547,75,0,0,1561241773.218555,4.603078566422389,-74.06476740934676,2651.395,-1,-1,10,65,-9999,1561241776.119456,-19.35950088500977,-16.48783493041992,5.20379638671875,167.9800415039062,175.5237274169922,15,64236.50230737501,-1.396926879882812,0.6634979248046875,-0.09930419921875,64236.493182375,-0.5549513721634747,-0.2399793100398032,-2.49919292492415,64236.479541375,18.82972717285156,-16.54437255859375,-527.4743041992188,64236.48305137501,-2.039309575118715,-1.724644243984885,-0.1873698957220965,-0.6379045248031616,-0.3402604162693024,-2.548601627349854,-0.4823083877563477,0.3947029411792755,-0.2433483600616455,1,0.67595374584198,0.3440440893173218,0.51469886302948,-0.3997564017772675,-0.9708929061889648,0.1862754672765732,0.1505596041679382,0,0,0,-1,64236.454364375,1,2,1561241776.117279,1561241546.732582,16,16.27515,0,0,14.2948,0,0,1561241691.513234,64233.823664,0,-1.226074,74.44138,2650659446,177292352,1,1,0.2,-15.14696,-34.76131,3
1561241776.155888,76,0,0,1561241773.218555,4.603078566422389,-74.06476740934676,2651.395,-1,-1,10,65,-9999,1561241776.146324,-17.02057647705078,-18.59085083007812,5.31378173828125,168.005859375,175.5495452880859,15,64236.522571375,-1.198471069335938,0.507598876953125,0.017059326171875,64236.51344637501,-0.2424680340784822,-0.6720755990085056,-2.493511337054575,64236.499683375,19.90827941894531,-17.55119323730469,-527.7691650390625,64236.503314375,-2.04198729068768,-1.731413763228369,-0.1354810979657109,-0.3359888195991516,-0.4772643446922302,-2.495171546936035,-0.4188437461853027,0.5284309387207031,-0.2577664852142334,1,0.6707549095153809,0.359609454870224,0.5243871212005615,-0.3818206489086151,-0.978083074092865,0.1350670158863068,0.1584622114896774,0,0,0,-1,64236.454364375,1,2,1561241776.117279,1561241546.732582,16,16.27515,0,0,14.2948,0,0,1561241691.513234,64233.823664,0,-1.226074,74.44138,2650659446,177292352,1,1,0.2,-13.04219,-14.48527,3
1561241776.176672,77,0,0,1561241773.218555,4.603078566422389,-74.06476740934676,2651.395,-1,-1,10,65,-9999,1561241776.17021,-16.09594535827637,-19.42790222167969,5.61328125,168.0949401855469,175.6386260986328,15,64236.542835375,-1.022903442382812,0.3697052001953125,0.0100860595703125,64236.53371037501,-0.7503256634216497,-1.044580995425595,-2.46991093610651,64236.51982437501,20.9315185546875,-18.42604064941406,-527.3995361328125,64236.523578375,-2.039549916663067,-1.74489660177092,-0.08454476147415073,-0.4318695366382599,-0.8666781783103943,-2.514667272567749,-0.2171061038970947,0.4231548011302948,-0.1555440425872803,1,0.6661865711212158,0.3774879276752472,0.5303545594215393,-0.3638987839221954,-0.9813649654388428,0.0844440758228302,0.1726033687591553,0,0,0,-1,64236.454364375,1,2,1561241776.117279,1561241546.732582,16,16.27515,0,0,14.2948,0,0,1561241691.513234,64233.823664,0,-1.226074,74.44138,2650659446,177292352,1,1,0.2,-12.79865,-15.10912,3
1561241776.204264,78,0,0,1561241773.218555,4.603078566422389,-74.06476740934676,2651.395,-1,-1,10,65,-9999,1561241776.196586,-14.91732788085938,-20.23081970214844,5.794677734375,169.1882476806641,176.73193359375,15,64236.563098375,-0.8800506591796875,0.505767822265625,0.0021820068359375,64236.553973375,-1.416338842524699,-1.171571168844933,-2.485866999461611,64236.53996637501,22.19911193847656,-19.19065856933594,-527.1673583984375,64236.543842375,-2.045692980252061,-1.765843023902697,-0.03228720748046414,-1.170828819274902,-1.073275327682495,-2.458125352859497,-0.04237610101699829,0.3374235928058624,-0.183625340461731,1,0.6647376418113708,0.3936744034290314,0.5353764891624451,-0.3413449227809906,-0.9805273413658142,0.03228159621357918,0.1937113404273987,0,0,0,-1,64236.454364375,1,2,1561241776.117279,1561241546.732582,16,16.27515,0,0,14.2948,0,0,1561241691.513234,64233.823664,0,-1.226074,74.44138,2650659446,177292352,1,1,0.2,-12.79865,-15.24518,3
1561241776.216686,79,0,0,1561241773.218555,4.603078566422389,-74.06476740934676,2651.395,-1,-1,10,65,-9999,1561241776.196586,-14.91732788085938,-20.23081970214844,5.794677734375,169.1882476806641,176.73193359375,15,64236.583362375,-0.7775421142578125,0.609649658203125,0.1330413818359375,64236.574237375,-1.192798160629519,-0.9481194365301618,-2.681367790871565,64236.560107375,23.39056396484375,-19.970458984375,-527.1787109375,64236.564105375,-2.062233971316477,-1.789400434786461,0.02279839576179271,-1.341247200965881,-1.191930294036865,-2.548829078674316,0.09589672088623047,0.5285642147064209,-0.2146288156509399,1,0.6654509902000427,0.406915694475174,0.5413507223129272,-0.3139012455940247,-0.9759474396705627,-0.02279642038047314,0.2168108075857162,0,0,0,-1,64236.454364375,1,2,1561241776.117279,1561241546.732582,16,16.27515,0,0,14.2948,0,0,1561241691.513234,64233.823664,0,-1.226074,74.44138,2650659446,177292352,1,1,0.2,-12.79865,-15.24518,3
1561241776.23692,80,0,0,1561241773.218555,4.603078566422389,-74.06476740934676,2651.395,-1,-1,10,65,-9999,1561241776.221592,-13.51161766052246,-21.2474250793457,5.6207275390625,169.9786224365234,177.5223083496094,15,64236.60362637501,-0.720977783203125,0.7340087890625,0.2387237548828125,64236.594501375,-1.03796783380671,-0.2349885461569947,-2.600220473508524,64236.580249375,24.91392517089844,-21.02340698242188,-527.3494873046875,64236.58436937501,-2.073673886436794,-1.80768695243945,0.08105584043269445,-1.080746293067932,-0.5783140063285828,-2.761696100234985,0.191338837146759,0.6906167268753052,-0.1008694171905518,1,0.6630270481109619,0.4211300313472748,0.5482503175735474,-0.2871694564819336,-0.9688809514045715,-0.08096711337566376,0.2339107394218445,0,0,0,-1,64236.454364375,1,2,1561241776.117279,1561241546.732582,16,16.27515,0,0,14.2948,0,0,1561241691.513234,64233.823664,0,-1.226074,74.44138,2650659446,177292352,1,1,0.2,-12.79865,-16.15693,3
1561241776.257221,81,0,0,1561241773.218555,4.603078566422389,-74.06476740934676,2651.395,-1,-1,10,65,-9999,1561241776.247341,-11.10201454162598,-22.85808181762695,5.14788818359375,170.8553619384766,178.3990478515625,15,64236.62388937501,-0.5570526123046875,0.7273406982421875,0.257293701171875,64236.614764375,-1.535463369664488,0.5747277401022941,-1.331468958589945,64236.600391375,25.99061584472656,-21.79563903808594,-527.8678588867188,64236.60463337501,-2.082610369816143,-1.811732862420719,0.1357177606411211,-1.144901037216187,0.07229010760784149,-1.999412894248962,0.2412072420120239,0.8693102598190308,0.002305746078491211,1,0.6565021872520447,0.43268221616745,0.5582408905029297,-0.2648736834526062,-0.9621850252151489,-0.1353015005588531,0.2364180386066437,0,0,0,-1,64236.454364375,1,2,1561241776.117279,1561241546.732582,16,16.27515,0,0,14.2948,0,0,1561241691.513234,64233.823664,0,-1.226074,74.44138,2650659446,177292352,1,1,0.2,-12.79865,-16.90658,3
1561241776.286549,82,0,0,1561241773.218555,4.603078566422389,-74.06476740934676,2651.395,-1,-1,10,65,-9999,1561241776.271654,-10.71864891052246,-23.45068359375,3.9893798828125,173.4848327636719,181.0285186767578,15,64236.644153375,-0.2989654541015625,0.715972900390625,0.1626739501953125,64236.63502837501,-2.396465480615978,1.793720753213832,-0.6691410618033472,64236.620532375,26.49983215332031,-22.53321838378906,-528.6069946289062,64236.624896375,-2.10684654881086,-1.796332495828558,0.1700643071401747,-1.977143406867981,1.108614206314087,-0.8783352375030518,0.4035609364509583,0.8965864181518555,0.03689086437225342,1,0.651186466217041,0.4314598739147186,0.5724021792411804,-0.2493075579404831,-0.9606135487556458,-0.1692457348108292,0.220402866601944,0,0,0,-1,64236.454364375,1,2,1561241776.117279,1561241546.732582,16,16.27515,0,0,14.2948,0,0,1561241691.513234,64233.823664,0,-1.226074,74.44138,2650659446,177292352,1,1,0.2,-12.79865,-17.68438,3
1561241776.297947,83,0,0,1561241773.218555,4.603078566422389,-74.06476740934676,2651.395,-1,-1,10,65,-9999,1561241776.271654,-10.71864891052246,-23.45068359375,3.9893798828125,173.4848327636719,181.0285186767578,15,64236.664417375,-0.197052001953125,0.793853759765625,-0.0167236328125,64236.65529237501,-2.711179482430021,2.549272870274763,-0.4976012633530543,64236.640674375,26.8543701171875,-22.92427062988281,-530.098388671875,64236.645160375,-2.151601395296393,-1.7528420196392,0.1937323417761001,-2.653939008712769,2.266964435577393,-0.6204988956451416,0.6661116480827332,0.9084956645965576,-0.01498103141784668,1,0.6436480283737183,0.4177854955196381,0.5957629084587097,-0.2371478229761124,-0.9650771021842957,-0.1925227493047714,0.1776550114154816,0,0,0,-1,64236.454364375,1,2,1561241776.117279,1561241546.732582,16,16.27515,0,0,14.2948,0,0,1561241691.513234,64233.823664,0,-1.226074,74.44138,2650659446,177292352,1,1,0.2,-12.79865,-18.71565,3
1561241776.317984,84,0,0,1561241773.218555,4.603078566422389,-74.06476740934676,2651.395,-1,-1,10,65,-9999,1561241776.297956,-10.46298980712891,-23.72046661376953,2.3948974609375,177.2499694824219,184.7936553955078,15,64236.684680375,-0.1273345947265625,0.7711334228515625,-0.2627105712890625,64236.675555375,-2.306376067260778,2.284322163957722,0.01373498700597466,64236.66081537501,26.88302612304688,-23.43315124511719,-531.958740234375,64236.665424375,-2.20502260643046,-1.691587444144637,0.2114861570167155,-2.627451658248901,2.540653467178345,-0.2520835697650909,0.7735440135002136,1.003767013549805,-0.1345365047454834,1,0.6325953006744385,0.3984088897705078,0.6240988373756409,-0.2271435409784317,-0.9705960154533386,-0.2099131792783737,0.117812916636467,0,0,0,-1,64236.454364375,1,2,1561241776.117279,1561241546.732582,16,16.27515,0,0,14.2948,0,0,1561241691.513234,64233.823664,0,-1.226074,74.44138,2650659446,177292352,1,1,0.2,-12.79865,-19.01241,3
1561241776.338339,85,0,0,1561241773.218555,4.603078566422389,-74.06476740934676,2651.395,-1,-1,10,65,-9999,1561241776.322713,-10.2357006072998,-24.05805206298828,0.4527587890625,180.3747406005859,187.9184265136719,15,64236.70494437501,-0.1830596923828125,0.57769775390625,-0.18212890625,64236.695819375,-0.4884077649539918,1.038986226607556,0.1184329042046958,64236.680927375,27.14572143554688,-23.28346252441406,-533.386474609375,64236.685687375,-2.251135606024021,-1.636642582525139,0.2160931760449988,-1.60868763923645,1.749517560005188,0.1150954961776733,0.8472914695739746,0.985548734664917,-0.3269789218902588,1,0.6232514381408691,0.379067063331604,0.6471251845359802,-0.2215737998485565,-0.9746260643005371,-0.2144153118133545,0.06426838785409927,0,0,0,-1,64236.454364375,1,2,1561241776.117279,1561241546.732582,16,16.27515,0,0,14.2948,0,0,1561241691.513234,64233.823664,0,-1.226074,74.44138,2650659446,177292352,1,1,0.2,-12.79865,-19.8703,3
1561241776.370454,86,0,0,1561241773.218555,4.603078566422389,-74.06476740934676,2651.395,-1,-1,10,65,-9999,1561241776.34852,-10.39595222473145,-23.93792343139648,-0.9610595703125,180.0860290527344,187.6297149658203,15,64236.72520837501,-0.4023590087890625,0.3014984130859375,0.0691375732421875,64236.716083375,1.415879979868878,-0.06498619060400457,0.1606922106981822,64236.701068375,26.86973571777344,-23.24154663085938,-534.44189453125,64236.70595137501,-2.26141642068946,-1.613308165313831,0.2140368952871015,0.6376615166664124,0.3620175421237946,0.1842676550149918,0.7932389974594116,0.7901041507720947,-0.2236582040786743,1,0.6179594397544861,0.3726805150508881,0.6552602052688599,-0.2233148366212845,-0.9762986302375793,-0.2124063968658447,0.04152927175164223,0,0,0,-1,64236.454364375,1,2,1561241776.117279,1561241546.732582,16,16.27515,0,0,14.2948,0,0,1561241691.513234,64233.823664,0,-1.226074,74.44138,2650659446,177292352,1,1,0.2,-12.79865,-20.81506,3
1561241776.37871,87,0,0,1561241773.218555,4.603078566422389,-74.06476740934676,2651.395,-1,-1,10,65,-9999,1561241776.373337,-10.38662910461426,-23.89340591430664,-0.28179931640625,177.5705413818359,185.1142272949219,15,64236.7454865,-0.6073455810546875,-0.076690673828125,0.4363250732421875,64236.73636150001,1.806201923978598,-0.03664083554174619,0.13561482060956,64236.7212255,26.93235778808594,-23.38792419433594,-533.4376220703125,64236.72621537501,-2.233945406402017,-1.618937922804414,0.2098454218907641,1.772325038909912,-0.1022145822644234,0.08794084191322327,0.5745710134506226,0.5098071098327637,0.02207028865814209,1,0.6153901219367981,0.3805636167526245,0.6498796939849854,-0.2326430082321167,-0.9769300222396851,-0.2083087116479874,0.04706733673810959,0,0,0,-1,64236.454364375,1,2,1561241776.117279,1561241546.732582,16,16.27515,0,0,14.2948,0,0,1561241691.513234,64233.823664,0,-1.226074,74.44138,2650659446,177292352,1,1,0.2,-12.79865,-20.81506,3
1561241776.399201,88,0,0,1561241773.218555,4.603078566422389,-74.06476740934676,2651.395,-1,-1,10,65,-9999,1561241776.373337,-10.38662910461426,-23.89340591430664,-0.28179931640625,177.5705413818359,185.1142272949219,15,64236.76571950001,-0.5648193359375,-0.3487091064453125,0.6262969970703125,64236.7565955,1.053981687757465,0.3379719202459228,0.1578596725627739,64236.74136650001,26.88554382324219,-23.28497314453125,-532.893310546875,64236.7464935,-2.197891750851922,-1.627025003971291,0.205509972359232,1.543882012367249,0.0841454416513443,0.1322569102048874,0.3700643181800842,0.1273757517337799,0.3813085556030273,1,0.6118542551994324,0.3913343846797943,0.6425403356552124,-0.2442001700401306,-0.9774098992347717,-0.2040664255619049,0.05501646175980568,0,0,0,-1,64236.454364375,1,2,1561241776.117279,1561241546.732582,16,16.27515,0,0,14.2948,0,0,1561241691.513234,64233.823664,0,-1.226074,74.44138,2650659446,177292352,1,1,0.2,-12.79865,-21.77383,3
1561241776.419267,89,0,0,1561241773.218555,4.603078566422389,-74.06476740934676,2651.395,-1,-1,10,65,-9999,1561241776.401953,-10.39727210998535,-24.02581024169922,0.34124755859375,175.8172760009766,183.3609619140625,15,64236.78598350001,-0.5538177490234375,-0.4059906005859375,0.4336395263671875,64236.7768585,-0.253818692960509,0.5969496888701333,0.3479321427228192,64236.76150850001,26.81388854980469,-23.26567077636719,-532.3358154296875,64236.76672650001,-2.177030552332351,-1.624775388799696,0.2006912119363855,0.4058322906494141,0.5206732153892517,0.3050462603569031,0.4136824011802673,-0.1493623852729797,0.5734269618988037,1,0.607940673828125,0.3960342407226562,0.6399832367897034,-0.2529554665088654,-0.9785017371177673,-0.1993467211723328,0.05286996439099312,0,0,0,-1,64236.454364375,1,2,1561241776.117279,1561241546.732582,16,16.27515,0,0,14.2948,0,0,1561241691.513234,64233.823664,0,-1.226074,74.44138,2650659446,177292352,1,1,0.2,-12.79865,-22.80859,3
1561241776.440609,90,0,0,1561241773.218555,4.603078566422389,-74.06476740934676,2651.395,-1,-1,10,65,-9999,1561241776.425938,-10.5823802947998,-23.87356948852539,0.75360107421875,176.2294921875,183.7731781005859,15,64236.8062475,-0.6096649169921875,-0.1614227294921875,0.1630401611328125,64236.79712250001,-0.7407667793210284,0.1742634132971169,0.07580901095797758,64236.7816505,26.60014343261719,-23.01419067382812,-532.643310546875,64236.7869905,-2.181683895625112,-1.612701427807878,0.1945931985141498,-0.6787201166152954,0.465392142534256,0.2047119438648224,0.4264472723007202,-0.2126231491565704,0.3925373554229736,1,0.6061445474624634,0.391330897808075,0.6434075236320496,-0.2558820843696594,-0.9802650809288025,-0.1933674216270447,0.04110216721892357,0,0,0,-1,64236.454364375,1,2,1561241776.117279,1561241546.732582,16,16.27515,0,0,14.2948,0,0,1561241691.513234,64233.823664,0,-1.226074,74.44138,2650659446,177292352,1,1,0.2,-12.79865,-23.86986,3
1561241776.459663,91,0,0,1561241773.218555,4.603078566422389,-74.06476740934676,2651.395,-1,-1,10,65,-9999,1561241776.449748,-10.77540016174316,-23.76823043823242,0.08746337890625,177.0446624755859,184.5883483886719,15,64236.8265105,-0.7054443359375,-0.0586090087890625,0.0769195556640625,64236.81738650001,-0.08852826832419602,0.1243501818307428,0.2427766944488224,64236.8017915,26.43121337890625,-23.28912353515625,-532.98779296875,64236.8072545,-2.195868370131293,-1.606007299343892,0.1928989589660649,-0.4935912191867828,0.01476583257317543,0.1234149411320686,0.371179461479187,0.03028216958045959,0.1284893751144409,1,0.6070609092712402,0.3856843709945679,0.6470149755477905,-0.2531724870204926,-0.9808443188667297,-0.1917048841714859,0.03455076366662979,0,0,0,-1,64236.454364375,1,2,1561241776.117279,1561241546.732582,16,16.27515,0,0,14.2948,0,0,1561241691.513234,64233.823664,0,-1.226074,74.44138,2650659446,177292352,1,1,0.2,-12.79865,-24.94428,3
1561241776.480069,92,0,0,1561241773.218555,4.603078566422389,-74.06476740934676,2651.395,-1,-1,10,65,-9999,1561241776.474166,-10.92926406860352,-23.65061187744141,0.0311279296875,176.5749053955078,184.1185913085938,15,64236.8467745,-0.7195587158203125,-0.0920257568359375,0.0437774658203125,64236.8376495,0.6150874137902269,0.2933338782667777,0.4560104102931779,64236.8219335,26.25590515136719,-22.9510498046875,-532.996826171875,64236.8275175,-2.197968683390945,-1.60324327038136,0.1881131444514759,0.3044625222682953,0.2251989543437958,0.3525389432907104,0.2763975858688354,0.1283966600894928,0.04505062103271484,1,0.6074691414833069,0.383295863866806,0.6474825739860535,-0.2546212673187256,-0.9818419218063354,-0.1870056539773941,0.03186895325779915,0,0,0,-1,64236.454364375,1,2,1561241776.117279,1561241546.732582,16,16.27515,0,0,14.2948,0,0,1561241691.513234,64233.823664,0,-1.226074,74.44138,2650659446,177292352,1,1,0.2,-12.79865,-25.77021,3
1561241776.502613,93,0,0,1561241773.218555,4.603078566422389,-74.06476740934676,2651.395,-1,-1,10,65,-9999,1561241776.500448,-11.19614028930664,-23.60501480102539,0.312744140625,175.424560546875,182.9682464599609,15,64236.8670385,-0.7332000732421875,-0.1824188232421875,0.1053009033203125,64236.8579135,0.8441783897132412,0.1339767102230523,0.6176445810689211,64236.8420745,26.22923278808594,-22.822998046875,-532.7474365234375,64236.8477815,-2.186138501407831,-1.600131896548652,0.1784883137004855,0.7970804572105408,0.2186747491359711,0.5732438564300537,0.2641310691833496,0.08551636338233948,0.01491212844848633,1,0.6060011982917786,0.3836603164672852,0.6455976366996765,-0.2622422873973846,-0.9836897850036621,-0.1775421053171158,0.02886538207530975,0,0,0,-1,64236.454364375,1,2,1561241776.117279,1561241546.732582,16,16.27515,0,0,14.2948,0,0,1561241691.513234,64233.823664,0,-1.226074,74.44138,2650659446,177292352,1,1,0.2,-12.79865,-26.63357,3
1561241776.530421,94,0,0,1561241773.218555,4.603078566422389,-74.06476740934676,2651.395,-1,-1,10,65,-9999,1561241776.500448,-11.19614028930664,-23.60501480102539,0.312744140625,175.424560546875,182.9682464599609,15,64236.88730150001,-0.809112548828125,-0.2258758544921875,0.17364501953125,64236.8781775,0.5375681207802006,0.1829160236787844,0.6024144954269759,64236.86221650001,25.92292785644531,-22.72450256347656,-532.6567993164062,64236.86804550001,-2.169859319286198,-1.599893069370853,0.1658510429202777,0.7224235534667969,0.1501473486423492,0.5784812569618225,0.2526607513427734,-0.01732707023620605,0.07660746574401855,1,0.6051743030548096,0.3848516345024109,0.6417397260665894,-0.2717047035694122,-0.9858607649803162,-0.1650917530059814,0.0286934357136488,0,0,0,-1,64236.454364375,1,2,1561241776.117279,1561241546.732582,16,16.27515,0,0,14.2948,0,0,1561241691.513234,64233.823664,0,-1.226074,74.44138,2650659446,177292352,1,1,0.2,-12.79865,-27.14085,3
1561241776.540752,95,0,0,1561241773.218555,4.603078566422389,-74.06476740934676,2651.395,-1,-1,10,65,-9999,1561241776.536735,-11.34712600708008,-23.22605133056641,0.49609375,174.7178192138672,182.2615051269531,15,64236.90756550001,-0.855072021484375,-0.20050048828125,0.119842529296875,64236.8984405,0.120961309343617,0.1660084128661983,0.5005296752877055,64236.88235850001,25.75105285644531,-22.32737731933594,-532.3399047851562,64236.88830950001,-2.159354770789645,-1.598181691940073,0.1534671574969007,0.318003386259079,0.1660323143005371,0.6027746200561523,0.1787639260292053,-0.07301041483879089,0.1465849876403809,1,0.6049385070800781,0.3841607272624969,0.639037013053894,-0.2794667482376099,-0.9878764748573303,-0.1528654545545578,0.02706012316048145,0,0,0,-1,64236.454364375,1,2,1561241776.117279,1561241546.732582,16,16.27515,0,0,14.2948,0,0,1561241691.513234,64233.823664,0,-1.226074,74.44138,2650659446,177292352,1,1,0.2,-12.79865,-27.14085,3
1561241776.561046,96,0,0,1561241773.218555,4.603078566422389,-74.06476740934676,2651.395,-1,-1,10,65,-9999,1561241776.536735,-11.34712600708008,-23.22605133056641,0.49609375,174.7178192138672,182.2615051269531,15,64236.9278295,-0.8418121337890625,-0.1265411376953125,0.0533905029296875,64236.91870450001,0.00963824630110577,-0.049809368183861,0.4180971163825918,64236.90249950001,25.62767028808594,-22.33723449707031,-532.2630615234375,64236.9085725,-2.156749426050144,-1.595571415225523,0.143156853326959,0.03416885063052177,0.09464148432016373,0.4282156825065613,0.1343947052955627,-0.05783212184906006,0.09532332420349121,1,0.6055415868759155,0.3815481066703796,0.6379559636116028,-0.2841699123382568,-0.9894667267799377,-0.1426683813333511,0.02451914176344872,0,0,0,-1,64236.454364375,1,2,1561241776.117279,1561241546.732582,16,16.27515,0,0,14.2948,0,0,1561241691.513234,64233.823664,0,-1.226074,74.44138,2650659446,177292352,1,1,0.2,-12.79865,-28.02181,3
1561241776.582352,97,0,0,1561241773.218555,4.603078566422389,-74.06476740934676,2651.395,-1,-1,10,65,-9999,1561241776.575501,-12.0156192779541,-23.17421722412109,0.85174560546875,174.5578308105469,182.1015167236328,15,64236.9480925,-0.8725738525390625,-0.0916290283203125,0.002105712890625,64236.93896850001,0.1146251164781005,-0.4618725604846603,0.4576037795733723,64236.92261050001,25.27857971191406,-22.6114501953125,-532.4666748046875,64236.9288365,-2.156657983368257,-1.597018516415151,0.1347164969304803,0.02597883157432079,-0.2731975018978119,0.4080720543861389,0.1487865447998047,0.007768243551254272,0.02740883827209473,1,0.6075593829154968,0.3792919814586639,0.6362589597702026,-0.2866768836975098,-0.9905986785888672,-0.1343093812465668,0.02598162181675434,0,0,0,-1,64236.454364375,1,2,1561241776.117279,1561241546.732582,16,16.27515,0,0,14.2948,0,0,1561241691.513234,64233.823664,0,-1.226074,74.44138,2650659446,177292352,1,1,0.2,-12.79865,-28.88317,3
1561241776.60219,98,0,0,1561241773.218555,4.603078566422389,-74.06476740934676,2651.395,-1,-1,10,65,-9999,1561241776.575501,-12.0156192779541,-23.17421722412109,0.85174560546875,174.5578308105469,182.1015167236328,15,64236.9683565,-0.97772216796875,-0.09930419921875,0.063507080078125,64236.9592315,0.4045317727380552,-0.6645819963332406,0.3975787917640763,64236.94275250001,25.20489501953125,-22.29261779785156,-532.1824340820312,64236.9491005,-2.154386876702084,-1.606769630463255,0.1256074780585876,0.2641271948814392,-0.6464496850967407,0.4572489261627197,0.1189060807228088,0.03364840149879456,-0.03357648849487305,1,0.6119043231010437,0.3787006735801697,0.6315967440605164,-0.2885212302207947,-0.9914799332618713,-0.1252774447202682,0.03568220138549805,0,0,0,-1,64236.454364375,1,2,1561241776.117279,1561241546.732582,16,16.27515,0,0,14.2948,0,0,1561241691.513234,64233.823664,0,-1.226074,74.44138,2650659446,177292352,1,1,0.2,-12.79865,-29.76862,3
1561241776.621764,99,0,0,1561241773.218555,4.603078566422389,-74.06476740934676,2651.395,-1,-1,10,65,-9999,1561241776.601918,-12.31970596313477,-22.84352874755859,0.86083984375,174.0843048095703,181.6279907226562,15,64236.98862050001,-1.0946044921875,-0.1407470703125,0.1457977294921875,64236.9794955,0.3847663237597051,-0.3063527412556301,0.3416718499483699,64236.96289350001,24.94612121582031,-22.18008422851562,-532.0061645507812,64236.9693635,-2.146944073160775,-1.620571703142948,0.1171077082911945,0.4357407689094543,-0.5166760087013245,0.3740158379077911,0.01419854164123535,0.01753604412078857,0.01409304141998291,1,0.6163865327835083,0.3804926574230194,0.6249805688858032,-0.2910193502902985,-0.9919206500053406,-0.1168402209877968,0.04941403865814209,0,0,0,-1,64236.454364375,1,2,1561241776.117279,1561241546.732582,16,16.27515,0,0,14.2948,0,0,1561241691.513234,64233.823664,0,-1.226074,74.44138,2650659446,177292352,1,1,0.2,-12.79865,-30.7256,3
1561241776.642048,100,0,0,1561241773.218555,4.603078566422389,-74.06476740934676,2651.395,-1,-1,10,65,-9999,1561241776.626495,-12.41838073730469,-22.89271545410156,1.45068359375,173.5790405273438,181.1227264404297,15,64237.00888350001,-1.104995727539062,-0.1448211669921875,0.1406707763671875,64236.9997595,0.1895182663371998,0.001945439176302884,0.1716575101704744,64236.9830355,24.84089660644531,-21.98561096191406,-531.4253540039062,64236.98962750001,-2.13966376776813,-1.627745498061892,0.1100767423715172,0.2908925116062164,-0.1136326193809509,0.2465071231126785,-0.1022682189941406,-0.03089249134063721,0.08922386169433594,1,0.6185161471366882,0.38173907995224,0.6206018924713135,-0.294221431016922,-0.9923362135887146,-0.1098545789718628,0.05657389760017395,0,0,0,-1,64236.454364375,1,2,1561241776.117279,1561241546.732582,16,16.27515,0,0,14.2948,0,0,1561241691.513234,64233.823664,0,-1.226074,74.44138,2650659446,177292352,1,1,0.2,-12.79865,-30.9465,3
1561241776.663387,101,0,0,1561241773.218555,4.603078566422389,-74.06476740934676,2651.395,-1,-1,10,65,-9999,1561241776.652509,-12.74544334411621,-22.68500137329102,1.4085693359375,173.4148101806641,180.95849609375,15,64237.0291475,-1.024093627929688,-0.126800537109375,0.079437255859375,64237.0200225,-0.01466443022641232,-0.07407982046218912,0.1299428201199092,64237.0031775,24.57861328125,-21.95965576171875,-531.4751586914062,64237.00989150001,-2.136051697505677,-1.628620377854858,0.1062646356618592,0.08484161645174026,0.006624011788517237,0.1345480978488922,-0.1122983694076538,-0.03875643014907837,0.08320498466491699,1,0.6187919974327087,0.381876140832901,0.6191942691802979,-0.2964213192462921,-0.9926973581314087,-0.1060647517442703,0.05746584758162498,0,0,0,-1,64236.454364375,1,2,1561241776.117279,1561241546.732582,16,16.27515,0,0,14.2948,0,0,1561241691.513234,64233.823664,0,-1.226074,74.44138,2650659446,177292352,1,1,0.2,-12.79865,-29.09466,3
1561241776.689053,102,0,0,1561241773.218555,4.603078566422389,-74.06476740934676,2651.395,-1,-1,10,65,-9999,1561241776.676884,-12.78765869140625,-22.6329231262207,1.540771484375,173.5034637451172,181.0471496582031,15,64237.0494115,-1.01080322265625,-0.087310791015625,0.0668182373046875,64237.04028650001,-0.05614635999770454,-0.4135082235082763,0.1007713524875083,64237.0233185,24.6600341796875,-21.90237426757812,-531.5148315429688,64237.0301545,-2.136380246551815,-1.63054696664592,0.103764991363141,-0.07179912924766541,-0.245187446475029,0.1033747270703316,-0.03124737739562988,-0.02322164177894592,0.02004337310791016,1,0.6199050545692444,0.3813327550888062,0.6182482242584229,-0.2967694103717804,-0.9928461909294128,-0.1035788804292679,0.05939389392733574,0,0,0,-1,64236.454364375,1,2,1561241776.117279,1561241546.732582,16,16.27515,0,0,14.2948,0,0,1561241691.513234,64233.823664,0,-1.226074,74.44138,2650659446,177292352,1,1,0.2,-12.79865,-29.92934,3
1561241776.703145,103,0,0,1561241773.218555,4.603078566422389,-74.06476740934676,2651.395,-1,-1,10,65,-9999,1561241776.676884,-12.78765869140625,-22.6329231262207,1.540771484375,173.5034637451172,181.0471496582031,15,64237.06964450001,-1.051284790039062,-0.0814666748046875,0.0720672607421875,64237.0605195,0.02060647525059712,-0.6614186935904445,0.1359807389433369,64237.0434605,24.71775817871094,-21.85330200195312,-531.429931640625,64237.0504185,-2.137674326792347,-1.638958541448839,0.1017784433005281,-0.03337610512971878,-0.600262463092804,0.1114382445812225,-0.01828819513320923,0.01429203152656555,-0.0009386539459228516,1,0.6231056451797485,0.3815990686416626,0.6155082583427429,-0.2954169511795044,-0.9925150275230408,-0.10160281509161,0.06775698810815811,0,0,0,-1,64236.454364375,1,2,1561241776.117279,1561241546.732582,16,16.27515,0,0,14.2948,0,0,1561241691.513234,64233.823664,0,-1.226074,74.44138,2650659446,177292352,1,1,0.2,-12.79865,-29.92934,3
1561241776.723311,104,0,0,1561241773.218555,4.603078566422389,-74.06476740934676,2651.395,-1,-1,10,65,-9999,1561241776.706858,-12.75644683837891,-22.77453994750977,1.7664794921875,173.5187225341797,181.0624084472656,15,64237.08990850001,-1.116836547851562,-0.0867156982421875,0.0936126708984375,64237.0807835,0.06875749302366577,-0.452283582663721,0.08806461197841323,64237.06360150001,24.79159545898438,-21.76441955566406,-531.3543701171875,64237.07065150001,-2.137650288229397,-1.652016827003876,0.09923235852488317,0.03793749213218689,-0.5971258282661438,0.1212980672717094,-0.05948454141616821,0.01760289072990417,-0.008664846420288086,1,0.6275623440742493,0.3827944099903107,0.6110115051269531,-0.2937668263912201,-0.9918002486228943,-0.09906958043575287,0.08073211461305618,0,0,0,-1,64236.454364375,1,2,1561241776.117279,1561241546.732582,16,16.27515,0,0,14.2948,0,0,1561241691.513234,64233.823664,0,-1.226074,74.44138,2650659446,177292352,1,1,0.2,-12.79865,-30.19544,3
1561241776.743492,105,0,0,1561241773.218555,4.603078566422389,-74.06476740934676,2651.395,-1,-1,10,65,-9999,1561241776.727372,-12.79209327697754,-22.82799911499023,2.08355712890625,173.4337310791016,180.9774169921875,15,64237.1101715,-1.109222412109375,-0.0921173095703125,0.094573974609375,64237.1010475,0.05771363029921618,-0.1208859418847678,0.04402658019286294,64237.08374350001,24.43789672851562,-21.79774475097656,-531.0269775390625,64237.0909155,-2.136529311565639,-1.66140670751186,0.09734878744444263,0.07534025609493256,-0.3006336688995361,0.06961623579263687,-0.1256540417671204,0.01047942042350769,0.003554582595825195,1,0.630544126033783,0.3839832246303558,0.607587456703186,-0.2929308712482452,-0.9911825060844421,-0.097195103764534,0.09005802124738693,0,0,0,-1,64236.454364375,1,2,1561241776.117279,1561241546.732582,16,16.27515,0,0,14.2948,0,0,1561241691.513234,64233.823664,0,-1.226074,74.44138,2650659446,177292352,1,1,0.2,-12.79865,-31.08492,3
1561241776.781386,106,0,0,1561241773.218555,4.603078566422389,-74.06476740934676,2651.395,-1,-1,10,65,-9999,1561241776.761596,-12.70160865783691,-22.63674926757812,2.05816650390625,173.3856964111328,180.9293823242188,15,64237.1304355,-1.04962158203125,-0.0955810546875,0.0793914794921875,64237.12131050001,-0.007880826297762482,0.09335205200665654,0.006351106567620967,64237.1038545,24.27590942382812,-21.82315063476562,-530.952392578125,64237.1111785,-2.135530532961298,-1.664177308044414,0.09647509910092686,0.02465950138866901,0.03015330620110035,0.003803398460149765,-0.1182088851928711,0.004208207130432129,0.001762270927429199,1,0.6313484907150269,0.3844541013240814,0.6064243316650391,-0.2929912209510803,-0.9910135269165039,-0.09632550925016403,0.09281174838542938,0,0,0,-1,64236.454364375,1,2,1561241776.117279,1561241546.732582,16,16.27515,0,0,14.2948,0,0,1561241691.513234,64233.823664,0,-1.226074,74.44138,2650659446,177292352,1,1,0.2,-12.79865,-32.93632,3
1561241776.78396,107,0,0,1561241773.218555,4.603078566422389,-74.06476740934676,2651.395,-1,-1,10,65,-9999,1561241776.761596,-12.70160865783691,-22.63674926757812,2.05816650390625,173.3856964111328,180.9293823242188,15,64237.1506995,-0.996124267578125,-0.0679931640625,0.0501708984375,64237.1415745,0.01717339428937597,-0.1631156872901542,-0.05003547056040872,64237.12399650001,24.24131774902344,-21.93714904785156,-531.0848388671875,64237.1314425,-2.135625893203364,-1.663033660116255,0.09644803913456282,-0.01419548504054546,-0.01576225273311138,-0.007201582193374634,-0.05850017070770264,0.0007175207138061523,-0.01228702068328857,1,0.6310247778892517,0.3842486143112183,0.6067947149276733,-0.2931909263134003,-0.9911214113235474,-0.09629857540130615,0.09167853742837906,0,0,0,-1,64236.454364375,1,2,1561241776.117279,1561241546.732582,16,16.27515,0,0,14.2948,0,0,1561241691.513234,64233.823664,0,-1.226074,74.44138,2650659446,177292352,1,1,0.2,-12.79865,-32.93632,3
1561241776.804389,108,0,0,1561241773.218555,4.603078566422389,-74.06476740934676,2651.395,-1,-1,10,65,-9999,1561241776.761596,-12.70160865783691,-22.63674926757812,2.05816650390625,173.3856964111328,180.9293823242188,15,64237.1709625,-1.007080078125,-0.0711669921875,0.0595855712890625,64237.1618385,0.0278793018714945,-0.2414009054296875,0.002649845284628842,64237.14413750001,24.72613525390625,-21.60791015625,-531.2161865234375,64237.1517065,-2.13534521621686,-1.666115185000083,0.09735487324327811,0.02066582441329956,-0.2286287099123001,-0.06049782782793045,-0.005377411842346191,0.02920800447463989,-0.04455304145812988,1,0.631743848323822,0.3850476145744324,0.6059293150901794,-0.2923828363418579,-0.9907468557357788,-0.0972011610865593,0.0947239100933075,0,0,0,-1,64236.454364375,1,2,1561241776.117279,1561241546.732582,16,16.27515,0,0,14.2948,0,0,1561241691.513234,64233.823664,0,-1.226074,74.44138,2650659446,177292352,1,1,0.2,-12.79865,-33.6692,3
1561241776.844983,109,0,0,1561241773.218555,4.603078566422389,-74.06476740934676,2651.395,-1,-1,10,65,-9999,1561241776.828748,-12.66776657104492,-22.35259628295898,2.11993408203125,173.2241973876953,180.7678833007812,15,64237.19122650001,-0.982269287109375,-0.0974884033203125,0.0764923095703125,64237.1821015,0.08234733775023112,-0.2933261550996165,-0.003933222613938027,64237.1642795,24.48475646972656,-21.74067687988281,-530.7913818359375,64237.17196950001,-2.134697931999917,-1.671233551223139,0.09747814407744708,0.05962041765451431,-0.2704563140869141,0.01702173054218292,-0.01684290170669556,0.02615684270858765,-0.0402069091796875,1,0.6331456899642944,0.3860346674919128,0.6042365431785583,-0.2915511131286621,-0.9902371764183044,-0.09732384234666824,0.09979245811700821,0,0,0,-1,64236.454364375,1,2,1561241776.117279,1561241546.732582,16,16.27515,0,0,14.2948,0,0,1561241691.513234,64233.823664,0,-1.226074,74.44138,2650659446,177292352,1,1,0.2,-12.79865,-33.41491,3
1561241776.84763,110,0,0,1561241773.218555,4.603078566422389,-74.06476740934676,2651.395,-1,-1,10,65,-9999,1561241776.828748,-12.66776657104492,-22.35259628295898,2.11993408203125,173.2241973876953,180.7678833007812,15,64237.21149050001,-1.027923583984375,-0.1095123291015625,0.11517333984375,64237.2023655,0.0894720926145201,-0.2835880402576327,-0.04832199271505175,64237.1844215,24.68089294433594,-21.58184814453125,-531.0729370117188,64237.19223350001,-2.133134800886115,-1.677465195738261,0.09737787186415686,0.08761290460824966,-0.3296541273593903,-0.0202217772603035,0.00733637809753418,-0.0002643764019012451,-0.02946996688842773,1,0.6347404718399048,0.3874089419841766,0.6020171046257019,-0.290850818157196,-0.9896056652069092,-0.09722404927015305,0.1059623062610626,0,0,0,-1,64236.454364375,1,2,1561241776.117279,1561241546.732582,16,16.27515,0,0,14.2948,0,0,1561241691.513234,64234.772989,0,-1.194336,74.44108,2650659446,177292352,1,1,0.2,-12.79865,-34.3958,3
1561241776.865003,111,0,0,1561241773.218555,4.603078566422389,-74.06476740934676,2651.395,-1,-1,10,65,-9999,1561241776.855131,-12.65419006347656,-22.63302993774414,2.4249267578125,173.1016693115234,180.6453552246094,15,64237.2317535,-1.042755126953125,-0.1113128662109375,0.1323394775390625,64237.22262950001,0.04975876812314949,-0.03100585299124753,-0.06998813976339138,64237.2045625,24.57551574707031,-22.09283447265625,-530.6911010742188,64237.2124975,-2.13131668012391,-1.68322367228798,0.09818073893267049,0.07471441477537155,-0.179604709148407,-0.07132091373205185,-0.03902232646942139,-0.01148927211761475,0.003522992134094238,1,0.6359758973121643,0.3890499174594879,0.6000567078590393,-0.2900117337703705,-0.9889013171195984,-0.09802307933568954,0.111650362610817,0,0,0,-1,64236.454364375,1,2,1561241776.117279,1561241546.732582,16,16.27515,0,0,14.2948,0,0,1561241691.513234,64234.772989,0,-1.194336,74.44108,2650659446,177292352,1,1,0.2,-12.79865,-34.3958,3
1561241776.885187,112,0,0,1561241773.218555,4.603078566422389,-74.06476740934676,2651.395,-1,-1,10,65,-9999,1561241776.879673,-12.77760887145996,-22.6500129699707,2.3028564453125,173.0517730712891,180.595458984375,15,64237.2520175,-0.982513427734375,-0.1010894775390625,0.1096649169921875,64237.24289250001,0.0132489601070352,0.08918686806177262,-0.08767525782704363,64237.2246735,24.66934204101562,-21.86415100097656,-530.7570190429688,64237.2327605,-2.130172983261529,-1.684249913347677,0.09953665980985872,0.02489146217703819,0.05674922838807106,-0.07641208171844482,-0.05410176515579224,-0.01194050908088684,0.01968944072723389,1,0.635820746421814,0.389944851398468,0.5997897386550903,-0.289702296257019,-0.9886533617973328,-0.09937237948179245,0.1126500144600868,0,0,0,-1,64236.454364375,1,2,1561241776.117279,1561241546.732582,16,16.27515,0,0,14.2948,0,0,1561241691.513234,64234.772989,0,-1.194336,74.44108,2650659446,177292352,1,1,0.2,-12.79865,-34.7608,3
1561241776.924886,113,0,0,1561241773.218555,4.603078566422389,-74.06476740934676,2651.395,-1,-1,10,65,-9999,1561241776.905796,-12.65715217590332,-22.54887008666992,2.4246826171875,173.0060272216797,180.5497131347656,15,64237.2722815,-0.93963623046875,-0.0979156494140625,0.0963592529296875,64237.2631565,0.02544330842239903,-0.02770459850398531,-0.08612103701487339,64237.2448155,24.67591857910156,-21.74880981445312,-530.5726928710938,64237.2530245,-2.129697652633845,-1.682833454332911,0.1013034511588904,0.009750859811902046,0.04080674797296524,-0.1080666780471802,0.006122231483459473,4.079937934875488e-05,-0.001564741134643555,1,0.634989321231842,0.3903887867927551,0.6004638075828552,-0.2895311713218689,-0.9886356592178345,-0.1011302694678307,0.1112296879291534,0,0,0,-1,64236.454364375,1,2,1561241776.117279,1561241546.732582,16,16.27515,0,0,14.2948,0,0,1561241691.513234,64234.772989,0,-1.194336,74.44108,2650659446,177292352,1,1,0.2,-12.79865,-35.94367,3
1561241776.928621,114,0,0,1561241773.218555,4.603078566422389,-74.06476740934676,2651.395,-1,-1,10,65,-9999,1561241776.905796,-12.65715217590332,-22.54887008666992,2.4246826171875,173.0060272216797,180.5497131347656,15,64237.29254450001,-0.936614990234375,-0.110198974609375,0.09490966796875,64237.2834205,0.055791893256615,-0.1924557330195572,-0.02115482011904443,64237.2649565,24.66891479492188,-21.84779357910156,-530.7481689453125,64237.2732885,-2.128994636384702,-1.683591688458145,0.1029104277887919,0.04853713884949684,-0.1180052682757378,-0.04266716539859772,0.04875218868255615,0.004813224077224731,-0.01560163497924805,1,0.6347936391830444,0.3911744654178619,0.6003876924514771,-0.2890575528144836,-0.9883884191513062,-0.1027288809418678,0.1119608506560326,0,0,0,-1,64236.454364375,1,2,1561241776.117279,1561241546.732582,16,16.27515,0,0,14.2948,0,0,1561241691.513234,64234.772989,0,-1.194336,74.44108,2650659446,177292352,1,1,0.2,-12.79865,-35.94367,3
1561241776.945906,115,0,0,1561241773.218555,4.603078566422389,-74.06476740934676,2651.395,-1,-1,10,65,-9999,1561241776.930162,-12.40762138366699,-22.43090438842773,2.54681396484375,172.9239959716797,180.4676818847656,15,64237.31280850001,-0.9842529296875,-0.1024627685546875,0.1290435791015625,64237.3036835,0.05545473706261097,-0.2119314300713067,-0.008200139312462983,64237.2850985,24.81620788574219,-21.83644104003906,-530.4971923828125,64237.29355150001,-2.127899288002753,-1.687527475745262,0.1033149549735121,0.05159391462802887,-0.2289629429578781,-0.01651305705308914,0.05128371715545654,-0.007067739963531494,-0.0209355354309082,1,0.6356872916221619,0.3922043740749359,0.599046528339386,-0.2884799540042877,-0.9878987073898315,-0.1031312569975853,0.1158452108502388,0,0,0,-1,64236.454364375,1,2,1561241776.117279,1561241546.732582,16,16.27515,0,0,14.2948,0,0,1561241691.513234,64234.772989,0,-1.194336,74.44108,2650659446,177292352,1,1,0.2,-12.79865,-36.5834,3
1561241776.966397,116,0,0,1561241773.218555,4.603078566422389,-74.06476740934676,2651.395,-1,-1,10,65,-9999,1561241776.956486,-12.49497604370117,-22.49540328979492,2.639892578125,172.8371887207031,180.3808746337891,15,64237.33307250001,-1.010009765625,-0.112457275390625,0.15875244140625,64237.3239475,0.05136119215105017,0.05060778387866675,-0.005277320016101018,64237.30524050001,24.93348693847656,-21.71705627441406,-530.3997192382812,64237.31381550001,-2.126761335697643,-1.691730912517977,0.1034983276289867,0.06053201854228973,-0.1144736483693123,-0.02720059081912041,0.003131330013275146,0.0008508861064910889,0.009049177169799805,1,0.6366887092590332,0.3932234942913055,0.5975759625434875,-0.2879336178302765,-0.9873842597007751,-0.103313647210598,0.1199944615364075,0,0,0,-1,64236.454364375,1,2,1561241776.117279,1561241546.732582,16,16.27515,0,0,14.2948,0,0,1561241691.513234,64234.772989,0,-1.194336,74.44108,2650659446,177292352,1,1,0.2,-12.79865,-36.99944,3
1561241777.002883,117,0,0,1561241773.218555,4.603078566422389,-74.06476740934676,2651.395,-1,-1,10,65,-9999,1561241776.956486,-12.49497604370117,-22.49540328979492,2.639892578125,172.8371887207031,180.3808746337891,15,64237.3533055,-0.955078125,-0.12176513671875,0.1302337646484375,64237.34421150001,0.007481352134250596,0.1569632525398532,0.005560414039976441,64237.3253515,24.95118713378906,-21.81558227539062,-530.5903930664062,64237.3340795,-2.125836219066135,-1.691106465897625,0.1035341704209147,0.02117422223091125,0.1524248868227005,0.01526750717312098,-0.02255433797836304,-0.009107977151870728,0.03937506675720215,1,0.636313796043396,0.3934380114078522,0.5976474285125732,-0.2883208990097046,-0.987455427646637,-0.1033492982387543,0.1193774342536926,0,0,0,-1,64236.454364375,1,2,1561241776.117279,1561241546.732582,16,16.27515,0,0,14.2948,0,0,1561241691.513234,64234.772989,0,-1.194336,74.44108,2650659446,177292352,1,1,0.2,-12.79865,-37.92817,3
1561241777.006901,118,0,0,1561241773.218555,4.603078566422389,-74.06476740934676,2651.395,-1,-1,10,65,-9999,1561241776.956486,-12.49497604370117,-22.49540328979492,2.639892578125,172.8371887207031,180.3808746337891,15,64237.37356950001,-0.9416046142578125,-0.1084442138671875,0.1203155517578125,64237.3644445,-0.0001541970271155879,-0.03298724484226648,-0.01290061863645284,64237.3454925,24.97799682617188,-21.77836608886719,-530.5374755859375,64237.35431250001,-2.125732818601732,-1.688445483325344,0.1034854398092185,-0.006919196806848049,0.04801938682794571,-0.01548347994685173,0.03269624710083008,-0.01846432685852051,0.01348376274108887,1,0.6355064511299133,0.3930732011795044,0.5984703898429871,-0.2888912558555603,-0.9877744317054749,-0.1033008322119713,0.1167499795556068,0,0,0,-1,64236.454364375,1,2,1561241776.117279,1561241546.732582,16,16.27515,0,0,14.2948,0,0,1561241691.513234,64234.772989,0,-1.194336,74.44108,2650659446,177292352,1,1,0.2,-12.79865,-37.92817,3
1561241777.027138,119,0,0,1561241773.218555,4.603078566422389,-74.06476740934676,2651.395,-1,-1,10,65,-9999,1561241776.999418,-12.56088829040527,-22.60249328613281,2.67767333984375,172.8053894042969,180.3490753173828,15,64237.39383250001,-0.967315673828125,-0.101531982421875,0.11590576171875,64237.3847075,0.02688354593991388,-0.09636195667066411,0.009877131850885878,64237.36563450001,24.89129638671875,-21.62229919433594,-530.5249633789062,64237.37457650001,-2.125745075718808,-1.689035690825899,0.103780154853314,0.005512439645826817,-0.07765544950962067,-0.001995901111513376,0.046070396900177,-0.004850238561630249,0.00298619270324707,1,0.6356329321861267,0.3932371437549591,0.5983336567878723,-0.2886729538440704,-0.9876750111579895,-0.1035939678549767,0.1173293516039848,0,0,0,-1,64236.454364375,1,2,1561241776.117279,1561241546.732582,16,16.27515,0,0,14.2948,0,0,1561241691.513234,64234.772989,0,-1.194336,74.44108,2650659446,177292352,1,1,0.2,-12.79865,-36.41561,3
1561241777.047385,120,0,0,1561241773.218555,4.603078566422389,-74.06476740934676,2651.395,-1,-1,10,65,-9999,1561241777.032286,-12.39743423461914,-22.45894622802734,2.6048583984375,172.7589721679688,180.3026580810547,15,64237.4140965,-0.9720916748046875,-0.098663330078125,0.1125946044921875,64237.40497150001,0.07345451023823853,-0.1449880823822029,-0.03555000475924974,64237.38577650001,24.92042541503906,-21.85394287109375,-530.3125,64237.3948395,-2.125235227436143,-1.691193890304268,0.1037495682620116,0.04873820766806602,-0.1333200335502625,-0.02168518304824829,0.02010703086853027,0.002031564712524414,-0.0035552978515625,1,0.6361833214759827,0.3937020599842072,0.5975688099861145,-0.2884110510349274,-0.9874226450920105,-0.1035635396838188,0.1194610595703125,0,0,0,-1,64236.454364375,1,2,1561241776.117279,1561241546.732582,16,16.27515,0,0,14.2948,0,0,1561241691.513234,64234.772989,0,-1.194336,74.44108,2650659446,177292352,1,1,0.2,-12.79865,-37.1639,3
1561241777.07856,121,0,0,1561241773.218555,4.603078566422389,-74.06476740934676,2651.395,-1,-1,10,65,-9999,1561241777.057669,-12.33133697509766,-22.79471588134766,2.91510009765625,172.6343078613281,180.1779937744141,15,64237.4343605,-0.9786529541015625,-0.107208251953125,0.13665771484375,64237.42523550001,0.097804058400942,-0.09968158696944787,-0.01118154815280669,64237.4058875,25.023193359375,-21.87814331054688,-530.2926025390625,64237.4151035,-2.12372127335581,-1.694357452626331,0.104270383161342,0.08916978538036346,-0.1384940296411514,-0.03298231214284897,0.01489442586898804,0.005418211221694946,-0.009982943534851074,1,0.6367364525794983,0.3947853446006775,0.5964308381080627,-0.2880648374557495,-0.9869860410690308,-0.1040815412998199,0.1225775554776192,0,0,0,-1,64236.454364375,1,2,1561241776.117279,1561241546.732582,16,16.27515,0,0,14.2948,0,0,1561241691.513234,64234.772989,0,-1.194336,74.44108,2650659446,177292352,1,1,0.2,-12.79865,-30.06894,3
1561241777.087901,122,0,0,1561241773.218555,4.603078566422389,-74.06476740934676,2651.395,-1,-1,10,65,-9999,1561241777.082069,-12.08966827392578,-22.65463638305664,2.94183349609375,172.5113067626953,180.0549926757812,15,64237.4546235,-0.9792633056640625,-0.11279296875,0.143402099609375,64237.4454985,0.06843684842842024,-0.05091111792682678,0.0005544701389544974,64237.42602850001,25.01292419433594,-21.82505798339844,-530.1107177734375,64237.4353675,-2.121794351683222,-1.696735835897522,0.1044191282357549,0.09152268618345261,-0.06826620548963547,-0.01077554374933243,0.008023619651794434,-0.002978771924972534,0.01173496246337891,1,0.6370377540588379,0.3957830965518951,0.5954208970069885,-0.2881191670894623,-0.9866765737533569,-0.1042294800281525,0.1249227225780487,0,0,0,-1,64236.454364375,1,2,1561241776.117279,1561241546.732582,16,16.27515,0,0,14.2948,0,0,1561241691.513234,64234.772989,0,-1.194336,74.44108,2650659446,177292352,1,1,0.2,-12.79865,-30.6796,3
