loggingTime,loggingSample,identifierForVendor,deviceID,locationTimestamp_since1970,locationLatitude,locationLongitude,locationAltitude,locationSpeed,locationCourse,locationVerticalAccuracy,locationHorizontalAccuracy,locationFloor,locationHeadingTimestamp_since1970,locationHeadingX,locationHeadingY,locationHeadingZ,locationTrueHeading,locationMagneticHeading,locationHeadingAccuracy,accelerometerTimestamp_sinceReboot,accelerometerAccelerationX,accelerometerAccelerationY,accelerometerAccelerationZ,gyroTimestamp_sinceReboot,gyroRotationX,gyroRotationY,gyroRotationZ,magnetometerTimestamp_sinceReboot,magnetometerX,magnetometerY,magnetometerZ,motionTimestamp_sinceReboot,motionYaw,motionRoll,motionPitch,motionRotationRateX,motionRotationRateY,motionRotationRateZ,motionUserAccelerationX,motionUserAccelerationY,motionUserAccelerationZ,motionAttitudeReferenceFrame,motionQuaternionX,motionQuaternionY,motionQuaternionZ,motionQuaternionW,motionGravityX,motionGravityY,motionGravityZ,motionMagneticFieldX,motionMagneticFieldY,motionMagneticFieldZ,motionMagneticFieldCalibrationAccuracy,activityTimestamp_sinceReboot,activity,activityActivityConfidence,activityActivityStartDate,pedometerStartDate,pedometerNumberofSteps,pedometerAverageActivePace,pedometerCurrentPace,pedometerCurrentCadence,pedometerDistance,pedometerFloorAscended,pedometerFloorDescended,pedometerEndDate,altimeterTimestamp_sinceReboot,altimeterReset,altimeterRelativeAltitude,altimeterPressure,IP_en0,IP_pdp_ip0,deviceOrientation,batteryState,batteryLevel,avAudioRecorderPeakPower,avAudioRecorderAveragePower,label
1561841418.06134,1,0,0,1561841416.997668,4.634497216906989,-74.15089909925511,2552.269,0.79,108.984375,4,30,-9999,1561841418.045887,-17.39447784423828,-22.07303619384766,12.61090087890625,139.7460479736328,147.2392578125,15,169234.3399145,-0.9880523681640625,0.1127166748046875,-0.0545196533203125,169234.3399145,0.05516605040044638,-0.02228479936956505,0.0445192649945276,169234.3167215,-90.01483154296875,-48.27754211425781,-548.2205200195312,169234.3348485,-0.1659491582110329,-1.500188526820574,-0.1150013376829941,0.04293655604124069,-0.02169304527342319,0.03781290352344513,0.001463174819946289,-0.003023169934749603,0.0211939811706543,1,-0.09830722212791443,-0.6747548580169678,-0.02149412781000137,0.7311494946479797,-0.9909194111824036,0.114748015999794,-0.0700831413269043,0,0,0,-1,169233.8643595,3,1,1561841417.810858,1561841239.621676,8,3.056457,0,0,7.575853,0,0,1561841413.282218,169231.12104,0,-0.4624023,75.19732,0,182478453,3,1,1,-37.54678,-42.29774,2
1561841418.07733,2,0,0,1561841417.997653,4.63449558243587,-74.15090127854994,2552.342,0.55,84.0234375,4,30,-9999,1561841418.045887,-17.39447784423828,-22.07303619384766,12.61090087890625,139.7460479736328,147.2392578125,15,169234.3601785,-0.99371337890625,0.109527587890625,-0.0558013916015625,169234.3601785,0.09822883259480965,-0.03219815021127601,0.02986735162523866,169234.3368015,-89.6588134765625,-48.25657653808594,-547.90771484375,169234.3551125,-0.1645341660481115,-1.500743983275497,-0.1157290685404997,0.09060873836278915,-0.0381801426410675,0.03614416718482971,0.001128554344177246,-0.002037070691585541,0.01210802793502808,1,-0.09809926152229309,-0.6749911904335022,-0.02070153132081032,0.7309821248054504,-0.9908745884895325,0.1154709085822105,-0.06952685862779617,0,0,0,-1,169233.8643595,3,1,1561841417.810858,1561841239.621676,8,3.056457,0,0,7.575853,0,0,1561841413.282218,169231.12104,0,-0.4624023,75.19732,0,182478453,3,1,1,-37.54678,-43.13334,2
1561841418.085731,3,0,0,1561841417.997653,4.63449558243587,-74.15090127854994,2552.342,0.55,84.0234375,4,30,-9999,1561841418.073602,-17.372314453125,-22.12531661987305,12.725341796875,139.6578216552734,147.1510314941406,15,169234.3804425,-0.994598388671875,0.103118896484375,-0.0520172119140625,169234.3804425,0.09966720589956145,-0.01748791361411433,-0.001251419396228234,169234.3569135,-89.81832885742188,-48.13179016113281,-547.87060546875,169234.3753765,-0.1624994958458458,-1.501317383038056,-0.1159190805569089,0.102564200758934,-0.03145166486501694,-0.0008452783804386854,-0.005948960781097412,-0.008039414882659912,0.01472741365432739,1,-0.09748705476522446,-0.6752908229827881,-0.0198651310056448,0.7308105230331421,-0.9908924698829651,0.1156596466898918,-0.06895715743303299,0,0,0,-1,169233.8643595,3,1,1561841417.810858,1561841239.621676,8,3.056457,0,0,7.575853,0,0,1561841413.282218,169231.12104,0,-0.4624023,75.19732,0,182478453,3,1,1,-37.54678,-43.13334,2
1561841418.105465,4,0,0,1561841417.997653,4.63449558243587,-74.15090127854994,2552.342,0.55,84.0234375,4,30,-9999,1561841418.073602,-17.372314453125,-22.12531661987305,12.725341796875,139.6578216552734,147.1510314941406,15,169234.4007055,-0.987518310546875,0.10736083984375,-0.0508270263671875,169234.4007055,0.03446183713784336,-0.001963548671715422,-0.007417436268088694,169234.3770245,-89.99563598632812,-48.14529418945312,-547.888427734375,169234.3956395,-0.1608594227717599,-1.50157454183782,-0.1156318468780076,0.04922427609562874,-0.007969777099788189,-0.0121184391900897,0.00229567289352417,-0.01166034489870071,0.01864051818847656,1,-0.09683170914649963,-0.6754785776138306,-0.01935134828090668,0.7307378053665161,-0.9909431338310242,0.1153743416070938,-0.06870462000370026,0,0,0,-1,169233.8643595,3,1,1561841417.810858,1561841239.621676,8,3.056457,0,0,7.575853,0,0,1561841413.282218,169231.12104,0,-0.4624023,75.19732,0,182478453,3,1,1,-37.54678,-43.98071,2
1561841418.126092,5,0,0,1561841417.997653,4.63449558243587,-74.15090127854994,2552.342,0.55,84.0234375,4,30,-9999,1561841418.109843,-17.41893005371094,-21.99348449707031,12.77874755859375,139.429931640625,146.9231414794922,15,169234.4209695,-0.9799652099609375,0.099456787109375,-0.052032470703125,169234.4209695,-0.02475275075174148,0.02069542483100576,0.003295928165082065,169234.3971355,-89.99575805664062,-48.09133911132812,-547.450927734375,169234.4158725,-0.160523065934632,-1.501589192853433,-0.1154487425776779,-0.01300420984625816,0.01055064424872398,-0.002024526242166758,0.006926119327545166,-0.01202777773141861,0.01844435930252075,1,-0.09665191173553467,-0.6755091547966003,-0.01929021812975407,0.7307351231575012,-0.9909654259681702,0.1151924580335617,-0.06869158148765564,0,0,0,-1,169233.8643595,3,1,1561841417.810858,1561841239.621676,8,3.056457,0,0,7.575853,0,0,1561841413.282218,169231.12104,0,-0.4624023,75.19732,0,182478453,3,1,1,-37.54678,-44.73856,2
1561841418.15775,6,0,0,1561841417.997653,4.63449558243587,-74.15090127854994,2552.342,0.55,84.0234375,4,30,-9999,1561841418.134269,-17.1612548828125,-22.14500045776367,12.90386962890625,139.4587554931641,146.9519653320312,15,169234.4412025,-0.989044189453125,0.1103363037109375,-0.0507354736328125,169234.4412025,-0.07045392663804624,0.02531867248338332,0.004224572437192695,169234.4172155,-89.94390869140625,-48.14533996582031,-547.670654296875,169234.4361365,-0.1613342536882302,-1.501322503603922,-0.1155247801620076,-0.06638354063034058,0.02391918003559113,0.00292442599311471,0.007509231567382812,-0.01224064826965332,0.01660233736038208,1,-0.09695082157850266,-0.6753687262535095,-0.01957358419895172,0.7308177351951599,-0.9909382462501526,0.1152679845690727,-0.06895524263381958,0,0,0,-1,169233.8643595,3,1,1561841417.810858,1561841239.621676,8,3.056457,0,0,7.575853,0,0,1561841413.282218,169231.12104,0,-0.4624023,75.19732,0,182478453,3,1,1,-37.54678,-45.10931,2
1561841418.166281,7,0,0,1561841417.997653,4.63449558243587,-74.15090127854994,2552.342,0.55,84.0234375,4,30,-9999,1561841418.161113,-17.39752197265625,-22.02199172973633,13.0137939453125,139.5628356933594,147.0560455322266,15,169234.4614665,-0.9930877685546875,0.111297607421875,-0.0605621337890625,169234.4614665,-0.05361262853660316,-0.02944071321860796,-0.01910205555081135,169234.4373265,-89.98074340820312,-48.303466796875,-547.8658447265625,169234.4564005,-0.1628120065921364,-1.501415257213355,-0.115505037238434,-0.06649140268564224,-0.02455274760723114,-0.01752279326319695,-0.002583324909210205,7.755309343338013e-05,0.01527458429336548,1,-0.097443588078022,-0.6753317713737488,-0.02011577971279621,0.7307716608047485,-0.9909469485282898,0.1152483746409416,-0.06886348873376846,0,0,0,-1,169233.8643595,3,1,1561841417.810858,1561841239.621676,8,3.056457,0,0,7.575853,0,0,1561841413.282218,169231.12104,0,-0.4624023,75.19732,0,182478453,3,1,1,-37.54678,-38.88917,2
1561841418.186639,8,0,0,1561841417.997653,4.63449558243587,-74.15090127854994,2552.342,0.55,84.0234375,4,30,-9999,1561841418.185007,-17.32201385498047,-22.04232788085938,12.71319580078125,139.6270141601562,147.1202239990234,15,169234.4817295,-1.0008544921875,0.1075592041015625,-0.0718536376953125,169234.4817295,-0.01135731678475192,-0.02664652460289682,-0.034752388012771,169234.4574375,-90.017333984375,-48.04176330566406,-547.8756103515625,169234.4766645,-0.163730048731284,-1.502363898237197,-0.1150049629341,-0.02085947059094906,-0.04188699647784233,-0.03186710923910141,-0.004124224185943604,-0.007253453135490417,0.0003461837768554688,1,-0.09758222848176956,-0.6756582260131836,-0.0205755066126585,0.7304385304450989,-0.9910691976547241,0.1147516220808029,-0.06792733818292618,0,0,0,-1,169233.8643595,3,1,1561841417.810858,1561841239.621676,8,3.056457,0,0,7.575853,0,0,1561841413.282218,169232.063679,0,-0.4624023,75.19732,0,182478453,3,1,1,-37.54678,-38.88917,2
1561841418.206901,9,0,0,1561841417.997653,4.63449558243587,-74.15090127854994,2552.342,0.55,84.0234375,4,30,-9999,1561841418.185007,-17.32201385498047,-22.04232788085938,12.71319580078125,139.6270141601562,147.1202239990234,15,169234.5019935,-0.99334716796875,0.106353759765625,-0.0721588134765625,169234.5019935,0.02215244026338811,0.02016199366466289,-0.05568137207137671,169234.4775495,-89.73252868652344,-48.251953125,-547.843505859375,169234.4969275,-0.1638968598159395,-1.502773624538432,-0.1141117857096005,0.0108643714338541,0.007399591617286205,-0.05423952639102936,-0.00811457633972168,-0.005114912986755371,-0.007407724857330322,1,-0.09731952846050262,-0.6758437752723694,-0.02092129550874233,0.730292022228241,-0.991198718547821,0.1138642951846123,-0.06752820312976837,0,0,0,-1,169233.8643595,3,1,1561841417.810858,1561841239.621676,8,3.056457,0,0,7.575853,0,0,1561841413.282218,169232.063679,0,-0.4624023,75.19732,0,182478453,3,1,1,-37.54678,-39.28743,2
1561841418.242532,10,0,0,1561841417.997653,4.63449558243587,-74.15090127854994,2552.342,0.55,84.0234375,4,30,-9999,1561841418.23655,-17.37237548828125,-22.01456069946289,12.77166748046875,139.569091796875,147.0623016357422,15,169234.5222575,-0.9835357666015625,0.1052703857421875,-0.06475830078125,169234.5222575,0.0548946742853673,0.02906840329821489,-0.03887336348355962,169234.4976605,-89.78547668457031,-48.21440124511719,-547.814697265625,169234.5171915,-0.1633993307127757,-1.502456604591677,-0.1129427344596265,0.04491634666919708,0.01896170526742935,-0.04680664464831352,0.004370927810668945,-0.00814954936504364,-0.002140581607818604,1,-0.09672486782073975,-0.6758095622062683,-0.02115399017930031,0.7303959727287292,-0.9913094043731689,0.1127027720212936,-0.0678514689207077,0,0,0,-1,169233.8643595,3,1,1561841417.810858,1561841239.621676,8,3.056457,0,0,7.575853,0,0,1561841413.282218,169232.063679,0,-0.4624023,75.19732,0,182478453,3,1,1,-37.54678,-40.49615,2
1561841418.247459,11,0,0,1561841417.997653,4.63449558243587,-74.15090127854994,2552.342,0.55,84.0234375,4,30,-9999,1561841418.23655,-17.37237548828125,-22.01456069946289,12.77166748046875,139.569091796875,147.0623016357422,15,169234.5425205,-0.9796142578125,0.1064300537109375,-0.049407958984375,169234.5425205,0.05930859747606464,0.01338930869648238,-0.01967303728852434,169234.5177405,-89.74191284179688,-48.15902709960938,-547.9698486328125,169234.5374555,-0.1623102349402138,-1.501918558425012,-0.1121276435558115,0.06011847034096718,0.01695581339299679,-0.0266324020922184,0.008911669254302979,-0.003646992146968842,0.01419192552566528,1,-0.09605604410171509,-0.6757053136825562,-0.02106026187539101,0.7305833697319031,-0.991364061832428,0.1118928343057632,-0.06839112937450409,0,0,0,-1,169233.8643595,3,1,1561841417.810858,1561841239.621676,8,3.056457,0,0,7.575853,0,0,1561841413.282218,169232.063679,0,-0.4624023,75.19732,0,182478453,3,1,1,-37.54678,-40.49615,2
1561841418.267859,12,0,0,1561841417.997653,4.63449558243587,-74.15090127854994,2552.342,0.55,84.0234375,4,30,-9999,1561841418.262224,-17.09736633300781,-22.16412734985352,12.80926513671875,139.4990844726562,146.9922943115234,15,169234.5627845,-0.9831085205078125,0.1059722900390625,-0.047576904296875,169234.5627845,0.0203742476035422,-0.01905198812231786,-0.0139344577716216,169234.5378515,-89.8489990234375,-48.09661865234375,-547.9299926757812,169234.5576885,-0.1613678946915964,-1.501879734722958,-0.1116748617946474,0.02822391875088215,-0.02228826284408569,-0.01424870174378157,0.01462054252624512,-0.006645530462265015,0.02082568407058716,1,-0.09557324647903442,-0.6757582426071167,-0.02087236568331718,0.7306031584739685,-0.9914118647575378,0.1114428862929344,-0.06843310594558716,0,0,0,-1,169233.8643595,3,1,1561841417.810858,1561841239.621676,8,3.056457,0,0,7.575853,0,0,1561841413.282218,169232.063679,0,-0.4624023,75.19732,0,182478453,3,1,1,-37.54678,-41.23889,2
1561841418.288065,13,0,0,1561841417.997653,4.63449558243587,-74.15090127854994,2552.342,0.55,84.0234375,4,30,-9999,1561841418.286449,-17.05330657958984,-22.21010971069336,12.8553466796875,139.4877166748047,146.9809265136719,15,169234.5830175,-0.9915618896484375,0.0992584228515625,-0.0525665283203125,169234.5830175,-0.001385110082950212,-0.004812332089773184,-0.05534341692904566,169234.5579625,-89.60281372070312,-48.36170959472656,-547.734130859375,169234.5779515,-0.1611432342506053,-1.502336668073554,-0.1110840253648261,0.00139656662940979,-0.02051592990756035,-0.04919390007853508,0.002250611782073975,-0.007721550762653351,0.01799678802490234,1,-0.09528811275959015,-0.6759644150733948,-0.02097009494900703,0.7304467558860779,-0.991508424282074,0.1108557060360909,-0.06798457354307175,0,0,0,-1,169233.8643595,3,1,1561841417.810858,1561841239.621676,8,3.056457,0,0,7.575853,0,0,1561841413.282218,169232.063679,0,-0.4624023,75.19732,0,182478453,3,1,1,-37.54678,-41.55552,2
1561841418.322976,14,0,0,1561841417.997653,4.63449558243587,-74.15090127854994,2552.342,0.55,84.0234375,4,30,-9999,1561841418.313121,-17.0057373046875,-22.05461502075195,12.75390625,139.5059051513672,146.9991149902344,15,169234.6032815,-0.987579345703125,0.1060333251953125,-0.05712890625,169234.6032815,-0.001416002751595131,0.02673334365443341,-0.05262353050774773,169234.5780735,-89.82600402832031,-48.48802185058594,-547.6658325195312,169234.5982155,-0.1612940296048401,-1.50242901142312,-0.1098060611519382,-0.00492497906088829,0.01172483153641224,-0.06339148432016373,0.003419816493988037,-0.008206143975257874,0.01393234729766846,1,-0.0948772057890892,-0.6760525107383728,-0.0214568879455328,0.7304046154022217,-0.9916552901268005,0.1095855310559273,-0.06790263950824738,0,0,0,-1,169233.8643595,3,1,1561841417.810858,1561841239.621676,8,3.056457,0,0,7.575853,0,0,1561841413.282218,169232.063679,0,-0.4624023,75.19732,0,182478453,3,1,1,-37.54678,-41.42405,2
1561841418.328629,15,0,0,1561841417.997653,4.63449558243587,-74.15090127854994,2552.342,0.55,84.0234375,4,30,-9999,1561841418.313121,-17.0057373046875,-22.05461502075195,12.75390625,139.5059051513672,146.9991149902344,15,169234.6235455,-0.9849700927734375,0.1119384765625,-0.054718017578125,169234.6235455,0.02787211133655129,0.0411482356867053,-0.005327653760703516,169234.5981855,-89.74453735351562,-48.29612731933594,-547.89697265625,169234.6184795,-0.1612896616182828,-1.501883525268761,-0.108895303645707,0.01750229857861996,0.03774178400635719,-0.02225975692272186,0.002749443054199219,0.001396693289279938,0.01126044988632202,1,-0.09453991055488586,-0.6758971810340881,-0.02179188281297684,0.7305822372436523,-0.9917173385620117,0.1086802110075951,-0.06845041364431381,0,0,0,-1,169233.8643595,3,1,1561841417.810858,1561841239.621676,8,3.056457,0,0,7.575853,0,0,1561841413.282218,169232.063679,0,-0.4624023,75.19732,0,182478453,3,1,1,-35.9348,-42.02618,2
1561841418.348725,16,0,0,1561841417.997653,4.63449558243587,-74.15090127854994,2552.342,0.55,84.0234375,4,30,-9999,1561841418.337086,-16.97975158691406,-22.13884735107422,12.734130859375,139.4818878173828,146.97509765625,15,169234.6438085,-0.977935791015625,0.1107330322265625,-0.0538177490234375,169234.6438085,0.06840489049533928,0.004371578929365069,0.03632604990089883,169234.6182655,-89.52735900878906,-48.4647216796875,-547.7264404296875,169234.6387425,-0.1605655860818171,-1.501325923478548,-0.1088999451781114,0.0545271635055542,0.00989976804703474,0.02554771304130554,0.01162171363830566,0.003848746418952942,0.01484990119934082,1,-0.09429088234901428,-0.6757274270057678,-0.02155208773910999,0.7307785153388977,-0.9916784763336182,0.1086848303675652,-0.06900335103273392,0,0,0,-1,169233.8643595,3,1,1561841417.810858,1561841239.621676,8,3.056457,0,0,7.575853,0,0,1561841413.282218,169232.063679,0,-0.4624023,75.19732,0,182478453,3,1,1,-35.9348,-42.02618,2
1561841418.369167,17,0,0,1561841417.997653,4.63449558243587,-74.15090127854994,2552.342,0.55,84.0234375,4,30,-9999,1561841418.365558,-17.14456939697266,-22.14653015136719,12.71453857421875,139.3822174072266,146.8754272460938,15,169234.6640725,-0.9781951904296875,0.1062774658203125,-0.0522918701171875,169234.6640725,0.09734492942901235,-0.01942536330714697,0.03777534216611995,169234.6383765,-89.57952880859375,-48.31849670410156,-547.8953857421875,169234.6590065,-0.1589910268634369,-1.501375888033239,-0.1094945026699937,0.08898527175188065,-0.02218333445489407,0.03731009736657143,0.01615333557128906,-0.0009994804859161377,0.01673370599746704,1,-0.09397488832473755,-0.6757914423942566,-0.02077161893248558,0.7307825088500977,-0.9916171431541443,0.1092758476734161,-0.06894929707050323,0,0,0,-1,169233.8643595,3,1,1561841417.810858,1561841239.621676,8,3.056457,0,0,7.575853,0,0,1561841413.282218,169232.063679,0,-0.4624023,75.19732,0,182478453,3,1,1,-35.9348,-37.8573,2
1561841418.413829,18,0,0,1561841417.997653,4.63449558243587,-74.15090127854994,2552.342,0.55,84.0234375,4,30,-9999,1561841418.388322,-17.10247039794922,-22.17068481445312,12.76947021484375,139.2477111816406,146.7409210205078,15,169234.6843365,-0.994293212890625,0.1006317138671875,-0.0543670654296875,169234.6843365,0.0877176020883759,-0.01321460532897318,-0.007435013131283217,169234.6584875,-90.07174682617188,-48.09053039550781,-547.734130859375,169234.6792705,-0.1570461395784388,-1.501722862134414,-0.1098371525350656,0.08951897174119949,-0.02447391860187054,0.002626684494316578,0.005824863910675049,-0.00517001748085022,0.01544106006622314,1,-0.09344533085823059,-0.6759930849075317,-0.01992788352072239,0.7306874394416809,-0.991603672504425,0.1096164360642433,-0.06860263645648956,0,0,0,-1,169233.8643595,3,1,1561841417.810858,1561841239.621676,8,3.056457,0,0,7.575853,0,0,1561841413.282218,169232.063679,0,-0.4624023,75.19732,0,182478453,3,1,1,-35.9348,-38.98141,2
1561841418.416408,19,0,0,1561841417.997653,4.63449558243587,-74.15090127854994,2552.342,0.55,84.0234375,4,30,-9999,1561841418.388322,-17.10247039794922,-22.17068481445312,12.76947021484375,139.2477111816406,146.7409210205078,15,169234.7045995,-0.995849609375,0.091888427734375,-0.053863525390625,169234.7045995,0.05712400643387264,0.001801095845220589,-0.03847815037779186,169234.6785985,-90.01766967773438,-48.25074768066406,-547.689208984375,169234.6995035,-0.1554747372787296,-1.501896354439574,-0.1093316582355111,0.06442719697952271,-0.007655257359147072,-0.03407939895987511,-0.003858387470245361,-0.01479940116405487,0.01415890455245972,1,-0.09273264557123184,-0.6761534214019775,-0.01951818354427814,0.7306410074234009,-0.9916707873344421,0.1091139763593674,-0.06843441724777222,0,0,0,-1,169233.8643595,3,1,1561841417.810858,1561841239.621676,8,3.056457,0,0,7.575853,0,0,1561841413.282218,169232.063679,0,-0.4624023,75.19732,0,182478453,3,1,1,-35.9348,-38.98141,2
1561841418.429972,20,0,0,1561841417.997653,4.63449558243587,-74.15090127854994,2552.342,0.55,84.0234375,4,30,-9999,1561841418.416931,-17.37781524658203,-21.87596893310547,12.6534423828125,139.1553344726562,146.6485443115234,15,169234.7248325,-0.998138427734375,0.093597412109375,-0.0501861572265625,169234.7248325,0.03666400504322988,0.007739412443879274,-0.0360261779621559,169234.6986795,-90.08067321777344,-48.13104248046875,-547.7008666992188,169234.7197675,-0.1545519200101837,-1.5018984523583,-0.1084027900029912,0.03899402916431427,-0.0005659088492393494,-0.04491785913705826,-0.005634427070617676,-0.01616483926773071,0.01564383506774902,1,-0.09208399802446365,-0.6762402653694153,-0.01949787139892578,0.7306432127952576,-0.9917715787887573,0.1081906035542488,-0.06843928247690201,0,0,0,-1,169233.8643595,3,1,1561841417.810858,1561841239.621676,8,3.056457,0,0,7.575853,0,0,1561841413.282218,169232.063679,0,-0.4624023,75.19732,0,182478453,3,1,1,-35.9348,-39.48962,2
1561841418.450223,21,0,0,1561841417.997653,4.63449558243587,-74.15090127854994,2552.342,0.55,84.0234375,4,30,-9999,1561841418.438452,-17.07579803466797,-22.09716033935547,12.85247802734375,139.1087646484375,146.6019744873047,15,169234.7450965,-0.99114990234375,0.1015167236328125,-0.05242919921875,169234.7450965,0.01791348675630899,0.02071646380361739,0.004871454265972942,169234.7187905,-89.60263061523438,-48.29115295410156,-547.6093139648438,169234.7400305,-0.1540008325346862,-1.50179724008232,-0.1077520341334225,0.01895746961236,0.009002296254038811,-0.009860804304480553,-0.004350483417510986,-0.01138275116682053,0.01846516132354736,1,-0.09166077524423599,-0.6762588620185852,-0.01952321268618107,0.7306786179542542,-0.991834819316864,0.1075436472892761,-0.06854450702667236,0,0,0,-1,169233.8643595,3,1,1561841417.810858,1561841239.621676,8,3.056457,0,0,7.575853,0,0,1561841413.282218,169232.063679,0,-0.4624023,75.19732,0,182478453,3,1,1,-35.9348,-39.71987,2
1561841418.490906,22,0,0,1561841417.997653,4.63449558243587,-74.15090127854994,2552.342,0.55,84.0234375,4,30,-9999,1561841418.466128,-17.14300537109375,-22.20135498046875,12.954833984375,139.0864868164062,146.5796966552734,15,169234.7653605,-0.98651123046875,0.1056365966796875,-0.0604705810546875,169234.7653605,0.02741404762905766,0.01664102838746913,0.01836196308387833,169234.7389015,-89.90129089355469,-48.3604736328125,-547.63134765625,169234.7602945,-0.1536700416798203,-1.5015216578304,-0.1078664598646919,0.01955481804907322,0.01117223966866732,0.01609782688319683,0.005032837390899658,-0.003104180097579956,0.01307660341262817,1,-0.09158774465322495,-0.6761680245399475,-0.01937593892216682,0.7307756543159485,-0.9918034672737122,0.1076574102044106,-0.06881697475910187,0,0,0,-1,169233.8643595,3,1,1561841417.810858,1561841239.621676,8,3.056457,0,0,7.575853,0,0,1561841413.282218,169232.063679,0,-0.4624023,75.19732,0,182478453,3,1,1,-35.9348,-41.33546,2
1561841418.494944,23,0,0,1561841417.997653,4.63449558243587,-74.15090127854994,2552.342,0.55,84.0234375,4,30,-9999,1561841418.489115,-17.03614044189453,-22.04233932495117,12.8206787109375,139.0390167236328,146.5322265625,15,169234.7856235,-0.986297607421875,0.1034698486328125,-0.053192138671875,169234.7856235,0.04629426186106542,0.0387484612284349,0.0007068029533070299,169234.7590125,-89.85279846191406,-48.14283752441406,-547.487548828125,169234.7805585,-0.1530001887968908,-1.501089154560305,-0.1080061637589034,0.04237464442849159,0.03094914183020592,0.001033121952787042,0.006193339824676514,-0.00425015389919281,0.0110173225402832,1,-0.09140779823064804,-0.676034152507782,-0.01910329423844814,0.7309291958808899,-0.9917585849761963,0.1077962964773178,-0.0692448765039444,0,0,0,-1,169233.8643595,3,1,1561841417.810858,1561841239.621676,8,3.056457,0,0,7.575853,0,0,1561841413.282218,169232.063679,0,-0.4624023,75.19732,0,182478453,3,1,1,-35.9348,-41.33546,2
1561841418.510936,24,0,0,1561841417.997653,4.63449558243587,-74.15090127854994,2552.342,0.55,84.0234375,4,30,-9999,1561841418.489115,-17.03614044189453,-22.04233932495117,12.8206787109375,139.0390167236328,146.5322265625,15,169234.805913625,-0.992218017578125,0.0988616943359375,-0.048492431640625,169234.805913625,0.04339967207225829,0.01443965943040963,-0.01524233618295951,169234.779119625,-89.63926696777344,-47.87313842773438,-547.730712890625,169234.800847625,-0.1520837248214356,-1.500457641703245,-0.1077665876251946,0.04480371624231339,0.01691481471061707,-0.01337697636336088,0.002177417278289795,-0.004546023905277252,0.02054131031036377,1,-0.09100516140460968,-0.6758561730384827,-0.01887879893183708,0.7311498522758484,-0.9917404055595398,0.1075581163167953,-0.06987299025058746,0,0,0,-1,169233.8643595,3,1,1561841417.810858,1561841239.621676,8,3.056457,0,0,7.575853,0,0,1561841413.282218,169232.063679,0,-0.4624023,75.19732,0,182478453,3,1,1,-35.9348,-41.33546,2
1561841418.531258,25,0,0,1561841417.997653,4.63449558243587,-74.15090127854994,2552.342,0.55,84.0234375,4,30,-9999,1561841418.515457,-17.49614715576172,-21.94077682495117,12.81182861328125,138.9800415039062,146.4732513427734,15,169234.826177625,-0.9922637939453125,0.093109130859375,-0.0458221435546875,169234.826177625,0.02099875887916578,-0.01807673853113085,-0.0478532763631978,169234.799230625,-89.90786743164062,-47.89985656738281,-547.86376953125,169234.821111625,-0.1513831839186045,-1.50048459840523,-0.107130460891397,0.02488966099917889,-0.01986636966466904,-0.04439720883965492,-0.0003771185874938965,-0.01239746809005737,0.02396786212921143,1,-0.09053788334131241,-0.6759270429611206,-0.01883834786713123,0.7311434149742126,-0.9918103814125061,0.1069256588816643,-0.06985104829072952,0,0,0,-1,169233.8643595,3,1,1561841417.810858,1561841239.621676,8,3.056457,0,0,7.575853,0,0,1561841413.282218,169232.063679,0,-0.4624023,75.19732,0,182478453,3,1,1,-35.9348,-42.0695,2
1561841418.572701,26,0,0,1561841417.997653,4.63449558243587,-74.15090127854994,2552.342,0.55,84.0234375,4,30,-9999,1561841418.566621,-17.02485656738281,-22.05899429321289,13.0054931640625,138.9954833984375,146.4886932373047,15,169234.846440625,-0.9963836669921875,0.08929443359375,-0.0576171875,169234.846440625,-0.01847408216577067,0.03462162680324811,-0.06132141462794653,169234.819341625,-89.64862060546875,-48.25556945800781,-547.4196166992188,169234.841344625,-0.1512364778074146,-1.500813855349317,-0.1059755893034732,-0.007130854763090611,0.008945037610828876,-0.06458796560764313,-0.003725886344909668,-0.01387365162372589,0.01652401685714722,1,-0.09007243812084198,-0.6761068105697632,-0.01916361041367054,0.7310262322425842,-0.9919558763504028,0.1057773381471634,-0.06953307241201401,0,0,0,-1,169233.8643595,3,1,1561841417.810858,1561841239.621676,8,3.056457,0,0,7.575853,0,0,1561841413.282218,169232.063679,0,-0.4624023,75.19732,0,182478453,3,1,1,-35.9348,-43.05526,2
1561841418.575949,27,0,0,1561841417.997653,4.63449558243587,-74.15090127854994,2552.342,0.55,84.0234375,4,30,-9999,1561841418.566621,-17.02485656738281,-22.05899429321289,13.0054931640625,138.9954833984375,146.4886932373047,15,169234.866674625,-0.994140625,0.09857177734375,-0.0624847412109375,169234.866674625,-0.03315342609428743,0.08565658172076358,-0.03451004035357379,169234.839452625,-89.74995422363281,-48.14280700683594,-547.4269409179688,169234.861608625,-0.1519409584852292,-1.500007681872604,-0.1048240235205357,-0.04711342602968216,0.07326463609933853,-0.0454249233007431,-0.001998245716094971,-0.0126064121723175,0.009885966777801514,1,-0.08988482505083084,-0.6758328676223755,-0.019849993288517,0.7312842607498169,-0.992020308971405,0.1046321615576744,-0.07034130394458771,0,0,0,-1,169234.837590625,3,1,1561841418.784089,1561841239.621676,8,3.056457,0,0,7.575853,0,0,1561841413.282218,169232.063679,0,-0.4624023,75.19732,0,182478453,3,1,1,-35.9348,-43.05526,2
1561841418.592064,28,0,0,1561841417.997653,4.63449558243587,-74.15090127854994,2552.342,0.55,84.0234375,4,30,-9999,1561841418.590242,-17.02330780029297,-22.20470428466797,12.82562255859375,139.0260314941406,146.5192413330078,15,169234.886937625,-0.9871673583984375,0.107177734375,-0.06024169921875,169234.886937625,0.02621349460964994,0.04970151015971279,-0.006800381843517334,169234.859563625,-89.89729309082031,-48.25399780273438,-547.5291748046875,169234.881871625,-0.1524212755917732,-1.498582932087716,-0.1042520526347926,0.007412668317556381,0.06182343140244484,-0.01453385315835476,-0.0009719133377075195,0.0003831014037132263,0.0107085108757019,1,-0.08982512354850769,-0.6753162145614624,-0.02028454840183258,0.7317567467689514,-0.9919785261154175,0.1040633097290993,-0.07175891846418381,0,0,0,-1,169234.837590625,3,1,1561841418.784089,1561841239.621676,8,3.056457,0,0,7.575853,0,0,1561841413.282218,169232.063679,0,-0.4624023,75.19732,0,182478453,3,1,1,-35.9348,-43.70057,2
1561841418.612158,29,0,0,1561841417.997653,4.63449558243587,-74.15090127854994,2552.342,0.55,84.0234375,4,30,-9999,1561841418.590242,-17.02330780029297,-22.20470428466797,12.82562255859375,139.0260314941406,146.5192413330078,15,169234.907201625,-0.992584228515625,0.105010986328125,-0.0565338134765625,169234.907201625,0.09314139596443127,-0.01341194556574805,-0.02392264343996378,169234.879644625,-89.7652587890625,-48.43794250488281,-547.7077026367188,169234.902135625,-0.1515684406215283,-1.498052920891337,-0.103924330505643,0.07984772324562073,-0.009568192064762115,-0.01986097358167171,0.004929125308990479,0.002891048789024353,0.01343399286270142,1,-0.08941278606653214,-0.6751753687858582,-0.02010782435536385,0.7319421768188477,-0.9919744729995728,0.1037373617291451,-0.07228714972734451,0,0,0,-1,169234.837590625,3,1,1561841418.784089,1561841239.621676,8,3.056457,0,0,7.575853,0,0,1561841413.282218,169232.063679,0,-0.4624023,75.19732,0,182478453,3,1,1,-35.9348,-44.11166,2
1561841418.654692,30,0,0,1561841417.997653,4.63449558243587,-74.15090127854994,2552.342,0.55,84.0234375,4,30,-9999,1561841418.641115,-17.26106262207031,-22.38810348510742,12.984375,138.8399353027344,146.3331451416016,15,169234.927465625,-0.9895782470703125,0.091583251953125,-0.05718994140625,169234.927465625,0.06922274726610261,-0.01265960255780067,-0.03093900764788654,169234.899755625,-89.8812255859375,-48.36865234375,-547.73974609375,169234.922399625,-0.1497618720469798,-1.498377537278942,-0.1031607540626983,0.08626300841569901,-0.02411277964711189,-0.03313283622264862,-0.0001721382141113281,-0.004970677196979523,0.01539123058319092,1,-0.08852864056825638,-0.6754089593887329,-0.01969226635992527,0.7318453192710876,-0.9920764565467834,0.102977879345417,-0.07197083532810211,0,0,0,-1,169234.837590625,3,1,1561841418.784089,1561841239.621676,8,3.056457,0,0,7.575853,0,0,1561841413.282218,169232.063679,0,-0.4624023,75.19732,0,182478453,3,1,1,-35.9348,-44.95405,2
1561841418.657155,31,0,0,1561841417.997653,4.63449558243587,-74.15090127854994,2552.342,0.55,84.0234375,4,30,-9999,1561841418.641115,-17.26106262207031,-22.38810348510742,12.984375,138.8399353027344,146.3331451416016,15,169234.947728625,-0.99420166015625,0.0895843505859375,-0.053192138671875,169234.947728625,-0.005594236185820447,0.03106550779966531,-0.02340385965961635,169234.919866625,-89.66650390625,-48.5731201171875,-547.617919921875,169234.942662625,-0.1488388586422412,-1.498467728291059,-0.1023806647142489,0.009067290462553501,0.01509587559849024,-0.02941399812698364,0.0006313920021057129,-0.0116409957408905,0.01671135425567627,1,-0.08793438225984573,-0.6755175590515137,-0.01961619220674038,0.7318187952041626,-0.9921627640724182,0.1022019013762474,-0.07188714295625687,0,0,0,-1,169234.837590625,3,1,1561841418.784089,1561841239.621676,8,3.056457,0,0,7.575853,0,0,1561841413.282218,169232.063679,0,-0.4624023,75.19732,0,182478453,3,1,1,-35.9348,-44.95405,2
1561841418.673029,32,0,0,1561841417.997653,4.63449558243587,-74.15090127854994,2552.342,0.55,84.0234375,4,30,-9999,1561841418.667249,-17.10975646972656,-21.87326431274414,12.85302734375,138.8638458251953,146.3570556640625,15,169234.967992625,-0.9929046630859375,0.0918731689453125,-0.05804443359375,169234.967992625,-0.06907307761284016,0.07380125381216684,-0.01248276866141941,169234.939977625,-89.91122436523438,-47.88433837890625,-547.719970703125,169234.962926625,-0.1493754746371868,-1.497744681740429,-0.1019709827892017,-0.05887847021222115,0.06346739828586578,-0.01626117900013924,-0.0009964704513549805,-0.01144706457853317,0.01779800653457642,1,-0.08795955777168274,-0.6752476096153259,-0.01998386345803738,0.7320550084114075,-0.9921523332595825,0.1017943546175957,-0.07260756194591522,0,0,0,-1,169234.837590625,3,1,1561841418.784089,1561841239.621676,8,3.056457,0,0,7.575853,0,0,1561841413.282218,169232.063679,0,-0.4624023,75.19732,0,182478453,3,1,1,-35.9348,-44.95405,2
1561841418.693455,33,0,0,1561841417.997653,4.63449558243587,-74.15090127854994,2552.342,0.55,84.0234375,4,30,-9999,1561841418.691653,-16.88542938232422,-22.10429382324219,12.91546630859375,138.9750366210938,146.4682464599609,15,169234.988256625,-0.9963226318359375,0.092376708984375,-0.059326171875,169234.988256625,-0.06581709686410929,0.07557811489146771,-0.0445395050188122,169234.960088625,-89.90702819824219,-47.97503662109375,-547.4410400390625,169234.983159625,-0.1509036280656118,-1.496497579409086,-0.1016477385587597,-0.07670380175113678,0.07362815737724304,-0.03570438548922539,-0.00100940465927124,-0.008714616298675537,0.01481097936630249,1,-0.08834511786699295,-0.6747381091117859,-0.02070832252502441,0.7324579954147339,-0.9920936226844788,0.1014727875590324,-0.07384724915027618,0,0,0,-1,169234.837590625,3,1,1561841418.784089,1561841239.621676,8,3.056457,0,0,7.575853,0,0,1561841413.282218,169232.063679,0,-0.4624023,75.19732,0,182478453,3,1,1,-35.9348,-42.50743,2
1561841418.732027,34,0,0,1561841417.997653,4.63449558243587,-74.15090127854994,2552.342,0.55,84.0234375,4,30,-9999,1561841418.718494,-17.20832061767578,-21.97399139404297,12.890869140625,139.0377655029297,146.5309753417969,15,169235.008489625,-0.994415283203125,0.090484619140625,-0.0592803955078125,169235.008489625,0.0001930791790307448,0.00362243171472578,-0.08295134268546109,169234.980169625,-89.59297180175781,-48.47053527832031,-547.693115234375,169235.003423625,-0.1520916280183392,-1.495599517149396,-0.1005251994467943,-0.02116411551833153,0.0168202705681324,-0.08190383762121201,-0.005189836025238037,-0.009108416736125946,0.01690065860748291,1,-0.08832805603742599,-0.6744070053100586,-0.02156491577625275,0.7327402234077454,-0.9921398758888245,0.1003559753298759,-0.07474669069051743,0,0,0,-1,169234.837590625,3,1,1561841418.784089,1561841239.621676,8,3.056457,0,0,7.575853,0,0,1561841413.282218,169232.063679,0,-0.4624023,75.19732,0,182478453,3,1,1,-35.9348,-39.77398,2
1561841418.734945,35,0,0,1561841417.997653,4.63449558243587,-74.15090127854994,2552.342,0.55,84.0234375,4,30,-9999,1561841418.718494,-17.20832061767578,-21.97399139404297,12.890869140625,139.0377655029297,146.5309753417969,15,169235.028752625,-0.9908905029296875,0.0888214111328125,-0.0575408935546875,169235.028752625,0.03892130038318104,-0.03668637559638654,-0.07512324697728218,169235.000280625,-89.72824096679688,-48.28408813476562,-547.6982421875,169235.023687625,-0.1519345108016621,-1.495983923561423,-0.09870098828958877,0.03893011435866356,-0.0440601222217083,-0.08564557880163193,-0.0004789829254150391,-0.01100113242864609,0.0167311429977417,1,-0.08761568367481232,-0.6746362447738647,-0.02211073972284794,0.7325984239578247,-0.99234938621521,0.09854081273078918,-0.0743788555264473,0,0,0,-1,169234.837590625,3,1,1561841418.784089,1561841239.621676,8,3.056457,0,0,7.575853,0,0,1561841413.282218,169232.063679,0,-0.4624023,75.19732,0,182478453,3,1,1,-35.9348,-39.77398,2
1561841418.754116,36,0,0,1561841417.997653,4.63449558243587,-74.15090127854994,2552.342,0.55,84.0234375,4,30,-9999,1561841418.744039,-17.05486297607422,-22.15812683105469,12.98431396484375,139.0042724609375,146.4974822998047,15,169235.049016625,-1.000534057617188,0.09075927734375,-0.069580078125,169235.049016625,-0.004678375086942198,0.02210796547318379,-0.03465598158131013,169235.020391625,-89.6846923828125,-48.20852661132812,-547.4629516601562,169235.043950625,-0.1514835018576401,-1.496675865790729,-0.0972949777438276,0.00827766302973032,-0.009803349152207375,-0.04675384238362312,-0.001831531524658203,-0.006000801920890808,0.01280456781387329,1,-0.08695981651544571,-0.6749716997146606,-0.02239358425140381,0.7323590517044067,-0.9925379753112793,0.09714154899120331,-0.07370238751173019,0,0,0,-1,169234.837590625,3,1,1561841418.784089,1561841239.621676,8,3.056457,0,0,7.575853,0,0,1561841413.282218,169232.063679,0,-0.4624023,75.19732,0,182478453,3,1,1,-35.9348,-40.1785,2
1561841418.774382,37,0,0,1561841417.997653,4.63449558243587,-74.15090127854994,2552.342,0.55,84.0234375,4,30,-9999,1561841418.76889,-16.96892547607422,-22.28039169311523,12.81781005859375,139.0346374511719,146.5278472900391,15,169235.069280625,-1.007217407226562,0.090423583984375,-0.0754852294921875,169235.069280625,-0.08947342419506514,0.1446703672641564,-0.0246560780041716,169235.040502625,-89.73481750488281,-48.34063720703125,-547.5679931640625,169235.064214625,-0.1521025414384183,-1.49574190470953,-0.09661736714108939,-0.07298070192337036,0.11339021474123,-0.02980042435228825,-0.01448500156402588,-0.004639729857444763,-0.000988304615020752,1,-0.08691162616014481,-0.6746326684951782,-0.02289135754108429,0.7326616644859314,-0.9925340414047241,0.09646711498498917,-0.07463426142930984,0,0,0,-1,169234.837590625,3,1,1561841418.784089,1561841239.621676,8,3.056457,0,0,7.575853,0,0,1561841413.282218,169232.063679,0,-0.4624023,75.19732,0,182478453,3,1,1,-35.9348,-41.04184,2
1561841418.813337,38,0,0,1561841417.997653,4.63449558243587,-74.15090127854994,2552.342,0.55,84.0234375,4,30,-9999,1561841418.79899,-16.94898223876953,-22.38245010375977,12.80450439453125,139.1946563720703,146.6878662109375,15,169235.089544625,-1.0030517578125,0.0808868408203125,-0.0731658935546875,169235.089544625,-0.1205724878244654,0.1520135013378319,-0.04965064378289228,169235.060582625,-89.61521911621094,-48.22163391113281,-547.5062255859375,169235.084478625,-0.154254645678948,-1.493063405617991,-0.09606840172170326,-0.1211722046136856,0.1546377837657928,-0.04233379289507866,-0.01040899753570557,-0.01062406599521637,0.003596663475036621,1,-0.08740575611591339,-0.6735814213752747,-0.02398345619440079,0.7335347533226013,-0.9923833608627319,0.09592069685459137,-0.07729660719633102,0,0,0,-1,169234.837590625,3,1,1561841418.784089,1561841239.621676,8,3.056457,0,0,7.575853,0,0,1561841413.282218,169232.063679,0,-0.4624023,75.19732,0,182478453,3,1,1,-35.9348,-41.28336,2
1561841418.816139,39,0,0,1561841417.997653,4.63449558243587,-74.15090127854994,2552.342,0.55,84.0234375,4,30,-9999,1561841418.79899,-16.94898223876953,-22.38245010375977,12.80450439453125,139.1946563720703,146.6878662109375,15,169235.109807625,-1.02716064453125,0.0768890380859375,-0.0723724365234375,169235.109807625,-0.108356301588163,0.07268166088989753,-0.1043959147311061,169235.080693625,-89.677734375,-48.32176208496094,-547.71533203125,169235.104741625,-0.1568054566054165,-1.490772283339654,-0.09491388741948005,-0.1147156357765198,0.0879647508263588,-0.09484786540269852,-0.02094662189483643,-0.01707369089126587,0.007069051265716553,1,-0.08781524002552032,-0.6726804971694946,-0.02541154995560646,0.734264075756073,-0.9923132658004761,0.09477144479751587,-0.07957886159420013,0,0,0,-1,169234.837590625,3,1,1561841418.784089,1561841239.621676,8,3.056457,0,0,7.575853,0,0,1561841413.282218,169232.063679,0,-0.4624023,75.19732,0,182478453,3,1,1,-35.9348,-42.14801,2
1561841418.835069,40,0,0,1561841417.997653,4.63449558243587,-74.15090127854994,2552.342,0.55,84.0234375,4,30,-9999,1561841418.819256,-17.13254547119141,-22.35703659057617,12.640869140625,139.3794708251953,146.8726806640625,15,169235.130071625,-1.035308837890625,0.0716705322265625,-0.084197998046875,169235.130071625,-0.07962958185780525,-0.00704858845711272,-0.1304893007755935,169235.120916625,-89.39593505859375,-48.29953002929688,-548.0442504882812,169235.124974625,-0.1590872025061859,-1.490126425400463,-0.09270836389300489,-0.08766191452741623,0.003152929246425629,-0.135038435459137,-0.04433667659759521,-0.01678520441055298,0.006902635097503662,1,-0.08776980638504028,-0.6724420189857483,-0.0270253662019968,0.7344302535057068,-0.9924675226211548,0.09257561713457108,-0.08023638278245926,0,0,0,-1,169234.837590625,3,1,1561841418.784089,1561841239.621676,8,3.056457,0,0,7.575853,0,0,1561841413.282218,169232.063679,0,-0.4624023,75.19732,0,182478453,3,1,1,-35.9348,-42.14801,2
1561841418.855636,41,0,0,1561841417.997653,4.63449558243587,-74.15090127854994,2552.342,0.55,84.0234375,4,30,-9999,1561841418.843757,-16.75650024414062,-22.38890075683594,12.656005859375,139.5236053466797,147.0168151855469,15,169235.150304625,-1.056442260742188,0.063934326171875,-0.101898193359375,169235.150304625,-0.04040787690366327,0.01188994900276777,-0.05648191829505453,169235.140996625,-89.55731201171875,-48.58171081542969,-547.832275390625,169235.145238625,-0.1607670393300414,-1.490425324738593,-0.09045068475620183,-0.05609440430998802,0.00216835830360651,-0.08383063226938248,-0.05010372400283813,-0.02192224562168121,-0.0142056941986084,1,-0.08751543611288071,-0.672579288482666,-0.02839428745210171,0.7342831492424011,-0.9926971793174744,0.09032740443944931,-0.0799563005566597,0,0,0,-1,169234.837590625,3,1,1561841418.784089,1561841239.621676,8,3.056457,0,0,7.575853,0,0,1561841413.282218,169232.063679,0,-0.4624023,75.19732,0,182478453,3,1,1,-35.9348,-42.86094,2
1561841418.887734,42,0,0,1561841417.997653,4.63449558243587,-74.15090127854994,2552.342,0.55,84.0234375,4,30,-9999,1561841418.870496,-16.83654022216797,-22.4098014831543,12.4010009765625,139.586181640625,147.0793914794922,15,169235.170568625,-1.080276489257812,0.0535736083984375,-0.1166839599609375,169235.170568625,0.02755386358628682,0.1071371064411247,-0.005722067918144252,169235.161107625,-89.61933898925781,-48.64744567871094,-547.8995971679688,169235.165502625,-0.161392012574627,-1.489980635407951,-0.08965415464580892,0.005044052377343178,0.06703869998455048,-0.009081830270588398,-0.07544326782226562,-0.02775126695632935,-0.02915459871292114,1,-0.08742869645357132,-0.67242431640625,-0.02891316823661327,0.7344152331352234,-0.9927330017089844,0.08953409641981125,-0.08040352165699005,0,0,0,-1,169234.837590625,3,1,1561841418.784089,1561841239.621676,8,3.056457,0,0,7.575853,0,0,1561841413.282218,169232.063679,0,-0.4624023,75.19732,0,182478453,3,1,1,-35.9348,-43.51936,2
1561841418.895609,43,0,0,1561841417.997653,4.63449558243587,-74.15090127854994,2552.342,0.55,84.0234375,4,30,-9999,1561841418.870496,-16.83654022216797,-22.4098014831543,12.4010009765625,139.586181640625,147.0793914794922,15,169235.190831625,-1.11883544921875,0.0255584716796875,-0.147491455078125,169235.190831625,0.06289401125163831,0.214665164930273,-0.09886559441144759,169235.181218625,-89.58723449707031,-48.75740051269531,-547.935791015625,169235.185765625,-0.1606495812066745,-1.487181550660378,-0.08910590166426104,0.05961595103144646,0.1962944269180298,-0.06101693212985992,-0.09878617525100708,-0.0518939197063446,-0.04718500375747681,1,-0.08693864941596985,-0.6714526414871216,-0.02894803136587143,0.7353605031967163,-0.9925529360771179,0.0889880359172821,-0.08318604528903961,0,0,0,-1,169234.837590625,3,1,1561841418.784089,1561841239.621676,8,3.056457,0,0,7.575853,0,0,1561841413.282218,169232.063679,0,-0.4624023,75.19732,0,182478453,3,1,1,-35.9348,-43.51936,2
1561841418.916037,44,0,0,1561841417.997653,4.63449558243587,-74.15090127854994,2552.342,0.55,84.0234375,4,30,-9999,1561841418.89456,-16.77835845947266,-22.53008651733398,12.5067138671875,139.5334625244141,147.0266723632812,15,169235.211095625,-1.204681396484375,-0.0026092529296875,-0.146881103515625,169235.211095625,0.1444088448451107,0.2558453585500593,-0.2480745208053171,169235.201299625,-89.625244140625,-48.66850280761719,-547.9590454101562,169235.206029625,-0.1593800404775791,-1.48269215299323,-0.08598344104830342,0.1119856834411621,0.2364008277654648,-0.2267606258392334,-0.1649988293647766,-0.06636154651641846,-0.0674099326133728,1,-0.08530519157648087,-0.6699928641319275,-0.02972928993403912,0.7368505597114563,-0.9924413561820984,0.08587753027677536,-0.08766517043113708,0,0,0,-1,169234.837590625,3,1,1561841418.784089,1561841239.621676,8,3.056457,0,0,7.575853,0,0,1561841413.282218,169232.063679,0,-0.4624023,75.19732,0,182478453,3,1,1,-35.9348,-39.9325,2
1561841418.936365,45,0,0,1561841417.997653,4.63449558243587,-74.15090127854994,2552.342,0.55,84.0234375,4,30,-9999,1561841418.920565,-16.99223327636719,-22.63839340209961,12.46343994140625,139.4171600341797,146.9103698730469,15,169235.231359625,-1.3092041015625,0.0038909912109375,-0.1459197998046875,169235.231359625,0.3633622317626293,0.1121470450837818,-0.3069660672546753,169235.221410625,-89.49871826171875,-48.59449768066406,-548.2041625976562,169235.226293625,-0.1561462724510321,-1.477752549760035,-0.08022297738182277,0.2803004086017609,0.1762091219425201,-0.2984212338924408,-0.2663776874542236,-0.09113854169845581,-0.04680877923965454,1,-0.08203649520874023,-0.6685541272163391,-0.03068481013178825,0.7384876012802124,-0.9924724102020264,0.08013695478439331,-0.09261078387498856,0,0,0,-1,169234.837590625,3,1,1561841418.784089,1561841239.621676,8,3.056457,0,0,7.575853,0,0,1561841413.282218,169232.063679,0,-0.4624023,75.19732,0,182478453,3,1,1,-35.9348,-40.68967,2
1561841418.96982,46,0,0,1561841417.997653,4.63449558243587,-74.15090127854994,2552.342,0.55,84.0234375,4,30,-9999,1561841418.947435,-16.84294891357422,-22.67744827270508,12.5296630859375,138.9879608154297,146.4811706542969,15,169235.251622625,-1.440353393554688,0.03125,-0.1855316162109375,169235.251622625,0.8796737996701444,-0.4657631725211571,-0.4190486638400772,169235.241521625,-89.53396606445312,-48.33274841308594,-547.8033447265625,169235.246556625,-0.147017561676838,-1.477439979361899,-0.07263377727967983,0.7334436178207397,-0.3064531087875366,-0.3834940493106842,-0.3723360300064087,-0.05709751695394516,-0.06702864170074463,1,-0.07619118690490723,-0.6691094040870667,-0.02988030016422272,0.7386438846588135,-0.9930203557014465,0.07256992906332016,-0.09297502040863037,0,0,0,-1,169234.837590625,3,1,1561841418.784089,1561841239.621676,8,3.056457,0,0,7.575853,0,0,1561841413.282218,169232.063679,0,-0.4624023,75.19732,0,182478453,3,1,1,-35.9348,-41.54383,2
1561841418.976883,47,0,0,1561841417.997653,4.63449558243587,-74.15090127854994,2552.342,0.55,84.0234375,4,30,-9999,1561841418.971485,-16.58770751953125,-22.46045684814453,12.73187255859375,137.7121887207031,145.2053985595703,15,169235.271886625,-1.501800537109375,0.0017547607421875,-0.220550537109375,169235.271886625,1.379334751810266,-0.7962036732043358,-0.6400055468456624,169235.261632625,-88.91275024414062,-48.39285278320312,-547.0662841796875,169235.266790625,-0.1272090254142445,-1.488362169587262,-0.06121005430357548,1.293839812278748,-0.8091682195663452,-0.5879347920417786,-0.506116509437561,-0.02363521978259087,-0.1279421448707581,1,-0.06549988687038422,-0.6742525100708008,-0.02605100348591805,0.7351291179656982,-0.994737982749939,0.06117184087634087,-0.08218663185834885,0,0,0,-1,169234.837590625,3,1,1561841418.784089,1561841239.621676,8,3.056457,0,0,7.575853,0,0,1561841413.282218,169232.063679,0,-0.4624023,75.19732,0,182478453,3,1,1,-35.9348,-41.54383,2
1561841418.997122,48,0,0,1561841417.997653,4.63449558243587,-74.15090127854994,2552.342,0.55,84.0234375,4,30,-9999,1561841418.995689,-16.09611511230469,-22.16296005249023,13.4342041015625,135.796875,143.2900848388672,15,169235.292119625,-1.63720703125,0.0831756591796875,-0.2084197998046875,169235.292119625,1.352565189165007,-0.5540642732043694,-0.8102185584408778,169235.281743625,-88.49653625488281,-48.10720825195312,-546.39404296875,169235.287053625,-0.1002738627885281,-1.502292468518436,-0.04499363292745209,1.379380464553833,-0.659675121307373,-0.792019248008728,-0.586195170879364,-0.01909954845905304,-0.131066620349884,1,-0.0506153516471386,-0.680622935295105,-0.02128784358501434,0.7305732369422913,-0.9966447949409485,0.04497845470905304,-0.06838101148605347,0,0,0,-1,169234.837590625,3,1,1561841418.784089,1561841239.621676,8,3.056457,0,0,7.575853,0,0,1561841413.282218,169232.063679,0,-0.4624023,75.19732,0,182478453,3,1,1,-35.9348,-41.81326,2
1561841419.017424,49,0,0,1561841417.997653,4.63449558243587,-74.15090127854994,2552.342,0.55,84.0234375,4,30,-9999,1561841418.995689,-16.09611511230469,-22.16296005249023,13.4342041015625,135.796875,143.2900848388672,15,169235.312383625,-1.645523071289062,0.1236114501953125,-0.180450439453125,169235.312383625,1.323474415313636,0.1433944467858995,-0.7766438202621399,169235.301824625,-87.7786865234375,-47.75540161132812,-545.8674926757812,169235.307317625,-0.07425353124187466,-1.509197055414415,-0.02679601360860505,1.321959018707275,-0.03336673229932785,-0.8023203611373901,-0.6556668281555176,0.08967752754688263,-0.1454625129699707,1,-0.03517762571573257,-0.6841004490852356,-0.01786895282566547,0.7283198237419128,-0.9977450370788574,0.02679280750453472,-0.0615382194519043,0,0,0,-1,169234.837590625,3,1,1561841418.784089,1561841239.621676,8,3.056457,0,0,7.575853,0,0,1561841413.282218,169232.063679,0,-0.4624023,75.19732,0,182478453,3,1,1,-35.9348,-42.00624,2
1561841419.051641,50,0,0,1561841417.997653,4.63449558243587,-74.15090127854994,2552.342,0.55,84.0234375,4,30,-9999,1561841419.021913,-15.16464996337891,-21.66230392456055,14.6793212890625,133.9538421630859,141.4470520019531,15,169235.332647625,-1.594207763671875,0.167816162109375,-0.1314544677734375,169235.332647625,1.388785777886739,0.4486390467119475,-0.6744242407738464,169235.321935625,-87.71771240234375,-47.64712524414062,-545.4119873046875,169235.327581625,-0.04824925289877803,-1.503784640197686,-0.009847750409008715,1.361211657524109,0.4285630881786346,-0.7025237083435059,-0.6184885501861572,0.1339664906263351,-0.09298431873321533,1,-0.02007118239998817,-0.6827283501625061,-0.01425652485340834,0.7302573919296265,-0.9977071285247803,0.009847591631114483,-0.06695829331874847,0,0,0,-1,169234.837590625,3,1,1561841418.784089,1561841239.621676,8,3.056457,0,0,7.575853,0,0,1561841413.282218,169232.063679,0,-0.4624023,75.19732,0,182478453,3,1,1,-35.9348,-41.93723,2
1561841419.057814,51,0,0,1561841417.997653,4.63449558243587,-74.15090127854994,2552.342,0.55,84.0234375,4,30,-9999,1561841419.021913,-15.16464996337891,-21.66230392456055,14.6793212890625,133.9538421630859,141.4470520019531,15,169235.352910625,-1.481826782226562,0.1666412353515625,-0.099517822265625,169235.352910625,1.535631415129272,0.3146671301788574,-0.5624620190697162,169235.342046625,-87.67311096191406,-47.19058227539062,-544.6802368164062,169235.347844625,-0.02045342927239074,-1.495297766369861,0.005376790750878321,1.493622660636902,0.3549117743968964,-0.5932962894439697,-0.5587254762649536,0.1773128062486649,-0.03549039363861084,1,-0.004981899634003639,-0.679898738861084,-0.009326770901679993,0.7332298159599304,-0.9971370100975037,-0.005376765038818121,-0.07542577385902405,0,0,0,-1,169234.837590625,3,1,1561841418.784089,1561841239.621676,8,3.056457,0,0,7.575853,0,0,1561841413.282218,169232.063679,0,-0.4624023,75.19732,0,182478453,3,1,1,-35.9348,-41.93723,2
1561841419.078124,52,0,0,1561841418.997639,4.634503084239209,-74.15090697824409,2552.251,0.58,59.4140625,4,30,-9999,1561841419.067947,-14.89692687988281,-21.30526733398438,15.32318115234375,132.0345764160156,139.5277862548828,15,169235.373174625,-1.36187744140625,0.1753692626953125,-0.0633392333984375,169235.373174625,1.498652624445195,0.2948955559300002,-0.6492174210562465,169235.362157625,-87.51095581054688,-46.98908996582031,-544.4422607421875,169235.368108625,0.009784569166511171,-1.489963149121636,0.01936269848743722,1.536227941513062,0.2594691514968872,-0.6071678996086121,-0.4136846661567688,0.1913890838623047,-0.004307150840759277,1,0.01043316349387169,-0.6778835654258728,-0.002967232372611761,0.7350892424583435,-0.9965479373931885,-0.01936148852109909,-0.08073004335165024,0,0,0,-1,169234.837590625,3,1,1561841418.784089,1561841239.621676,8,3.056457,0,0,7.575853,0,0,1561841413.282218,169232.063679,0,-0.4624023,75.19732,0,182478453,3,1,1,-35.9348,-42.63473,2
1561841419.098444,53,0,0,1561841418.997639,4.634503084239209,-74.15090697824409,2552.251,0.58,59.4140625,4,30,-9999,1561841419.096548,-14.74304962158203,-20.72971343994141,16.06475830078125,127.9393081665039,135.4325103759766,15,169235.393438625,-1.260818481445312,0.1343536376953125,-0.03448486328125,169235.393438625,1.222140603203903,0.409330522706269,-0.6665226418195813,169235.382268625,-87.43598937988281,-46.54129028320312,-544.0726318359375,169235.388372625,0.03769522863838903,-1.484107332655361,0.03553121695154185,1.310713529586792,0.3916711211204529,-0.7084508538246155,-0.3201951384544373,0.1927350461483002,0.04473197460174561,1,0.02582621201872826,-0.6753296256065369,0.001885937992483377,0.7370612621307373,-0.9956160187721252,-0.03552374243736267,-0.0865258052945137,0,0,0,-1,169234.837590625,3,1,1561841418.784089,1561841239.621676,8,3.056457,0,0,7.575853,0,0,1561841413.282218,169232.063679,0,-0.4624023,75.19732,0,182478453,3,1,1,-35.9348,-38.63855,2
1561841419.122183,54,0,0,1561841418.997639,4.634503084239209,-74.15090697824409,2552.251,0.58,59.4140625,4,30,-9999,1561841419.096548,-14.74304962158203,-20.72971343994141,16.06475830078125,127.9393081665039,135.4325103759766,15,169235.413701625,-1.192794799804688,0.0989532470703125,-0.09033203125,169235.413701625,0.7101747815631791,0.51640957223563,-0.3669353949971886,169235.402379625,-87.3458251953125,-46.315673828125,-544.0186767578125,169235.408605625,0.05887663920962432,-1.476588887561577,0.04960781098000297,0.8581464290618896,0.4567952752113342,-0.4564486742019653,-0.2217538952827454,0.1605646461248398,0.03848671913146973,1,0.03813941404223442,-0.6719889640808105,0.005078492220491171,0.7395610213279724,-0.9943410754203796,-0.04958746582269669,-0.09395243227481842,0,0,0,-1,169234.837590625,3,1,1561841418.784089,1561841239.621676,8,3.056457,0,0,7.575853,0,0,1561841413.282218,169232.063679,0,-0.4624023,75.19732,0,182478453,3,1,1,-35.9348,-39.19335,2
1561841419.139315,55,0,0,1561841418.997639,4.634503084239209,-74.15090697824409,2552.251,0.58,59.4140625,4,30,-9999,1561841419.126106,-14.58152008056641,-20.08230590820312,16.8536376953125,126.6550064086914,134.1482086181641,15,169235.433934625,-1.0828857421875,0.11602783203125,-0.1373443603515625,169235.433934625,0.1284605046571712,0.7093231026465718,-0.009143963602787065,169235.422490625,-87.29255676269531,-45.85978698730469,-543.700439453125,169235.428868625,0.06959264507916373,-1.465564634758729,0.05623692386387039,0.2600007057189941,0.6805939674377441,-0.08211209625005722,-0.1630486249923706,0.1620727628469467,-0.01162934303283691,1,0.04414826631546021,-0.6675441265106201,0.007053515408188105,0.7432268261909485,-0.9928961992263794,-0.05620728433132172,-0.104871541261673,0,0,0,-1,169234.837590625,3,1,1561841418.784089,1561841239.621676,8,3.056457,0,0,7.575853,0,0,1561841413.282218,169233.00624,0,-0.2695312,75.19551,0,182478453,3,1,1,-35.9348,-39.19335,2
1561841419.159274,56,0,0,1561841418.997639,4.634503084239209,-74.15090697824409,2552.251,0.58,59.4140625,4,30,-9999,1561841419.148039,-14.66652679443359,-19.92546463012695,16.91015625,126.3290939331055,133.8222961425781,15,169235.454198625,-0.96588134765625,0.1780853271484375,-0.1457366943359375,169235.454198625,-0.08836315233661111,0.5940050316528327,0.01687591919561412,169235.442571625,-87.64112854003906,-45.93278503417969,-543.809326171875,169235.449132625,0.07040199916150523,-1.451396955266612,0.05627171108175689,-0.09944027662277222,0.6702284216880798,0.02181403525173664,-0.02675759792327881,0.2029705345630646,-0.02363550662994385,1,0.04437818005681038,-0.6622438430786133,0.007657201495021582,0.7479338645935059,-0.9913088083267212,-0.05624201893806458,-0.1189273372292519,0,0,0,-1,169234.837590625,3,1,1561841418.784089,1561841239.621676,8,3.056457,0,0,7.575853,0,0,1561841413.282218,169233.00624,0,-0.2695312,75.19551,0,182478453,3,1,1,-35.9348,-39.97773,2
1561841419.179509,57,0,0,1561841418.997639,4.634503084239209,-74.15090697824409,2552.251,0.58,59.4140625,4,30,-9999,1561841419.174025,-14.90718841552734,-20.06056594848633,16.50360107421875,126.3873062133789,133.8805084228516,15,169235.474462625,-0.8766632080078125,0.1225433349609375,-0.1703033447265625,169235.474462625,0.2442832446774803,0.1388534908112054,0.009518137735943198,169235.462682625,-87.54786682128906,-45.95150756835938,-544.2483520507812,169235.469396625,0.07002901542822124,-1.442108014571653,0.05608799450715781,0.1365410983562469,0.2119500786066055,-0.0007328200154006481,0.07380503416061401,0.2150856852531433,-0.03789925575256348,1,0.04415041580796242,-0.6587753295898438,0.007783825509250164,0.7510028481483459,-0.9901716113090515,-0.05605859309434891,-0.1281316131353378,0,0,0,-1,169234.837590625,3,1,1561841418.784089,1561841239.621676,8,3.056457,0,0,7.575853,0,0,1561841413.282218,169233.00624,0,-0.2695312,75.19551,0,182478453,3,1,1,-35.9348,-40.35155,2
1561841419.206227,58,0,0,1561841418.997639,4.634503084239209,-74.15090697824409,2552.251,0.58,59.4140625,4,30,-9999,1561841419.198681,-15.12789154052734,-19.6188850402832,16.2578125,125.9105606079102,133.4037628173828,15,169235.494725625,-0.7939300537109375,0.073028564453125,-0.1475982666015625,169235.494725625,0.4918285953741986,0.4771649640961133,-0.1006688207855403,169235.482793625,-87.74440002441406,-45.92018127441406,-544.2214965820312,169235.489659625,0.07647766723844374,-1.439118762847482,0.05701871519996966,0.4602200984954834,0.298340916633606,-0.04744413122534752,0.134202241897583,0.1534386277198792,-0.02759212255477905,1,0.04660825431346893,-0.6574843525886536,0.009967680089175701,0.7519592046737671,-0.9897319674491882,-0.05698782578110695,-0.1310839951038361,0,0,0,-1,169234.837590625,3,1,1561841418.784089,1561841239.621676,8,3.056457,0,0,7.575853,0,0,1561841413.282218,169233.00624,0,-0.2695312,75.19551,0,182478453,3,1,1,-35.9348,-41.03706,2
1561841419.220105,59,0,0,1561841418.997639,4.634503084239209,-74.15090697824409,2552.251,0.58,59.4140625,4,30,-9999,1561841419.198681,-15.12789154052734,-19.6188850402832,16.2578125,125.9105606079102,133.4037628173828,15,169235.514989625,-0.6071319580078125,0.0345916748046875,-0.1736297607421875,169235.514989625,0.2744952093477752,0.7720527968589522,-0.1594919239948834,169235.502904625,-87.82742309570312,-45.95094299316406,-544.359619140625,169235.509923625,0.08504760966383397,-1.428156172776605,0.06105363338005833,0.3399125933647156,0.7329216003417969,-0.1893005967140198,0.3040703535079956,0.104655846953392,-0.007827162742614746,1,0.05087297037243843,-0.6530435681343079,0.01213899627327919,0.7555121779441833,-0.9879998564720154,-0.06101571023464203,-0.1418920755386353,0,0,0,-1,169234.837590625,3,1,1561841418.784089,1561841239.621676,8,3.056457,0,0,7.575853,0,0,1561841413.282218,169233.00624,0,-0.2695312,75.19551,0,182478453,3,1,1,-35.9348,-41.82755,2
1561841419.240205,60,0,0,1561841418.997639,4.634503084239209,-74.15090697824409,2552.251,0.58,59.4140625,4,30,-9999,1561841419.224331,-15.35224151611328,-19.72002792358398,16.305419921875,125.3966751098633,132.8898773193359,15,169235.535253625,-0.4919891357421875,0.067901611328125,-0.1415557861328125,169235.535253625,0.2051310482277894,0.6425880141547122,0.04520103423358789,169235.523015625,-88.17929077148438,-45.57089233398438,-544.2963256835938,169235.530156625,0.08954117587026451,-1.413184112093257,0.06387571049560214,0.190165713429451,0.7012936472892761,0.002979893004521728,0.4333752393722534,0.1194658279418945,-0.01207607984542847,1,0.05330536887049675,-0.6471772193908691,0.01331161893904209,0.760357141494751,-0.9855908155441284,-0.06383228302001953,-0.1566403657197952,0,0,0,-1,169234.837590625,3,1,1561841418.784089,1561841239.621676,8,3.056457,0,0,7.575853,0,0,1561841413.282218,169233.00624,0,-0.2695312,75.19551,0,182478453,3,1,1,-35.9348,-38.19231,2
1561841419.260596,61,0,0,1561841418.997639,4.634503084239209,-74.15090697824409,2552.251,0.58,59.4140625,4,30,-9999,1561841419.248824,-15.722412109375,-19.51245880126953,16.15667724609375,125.0898666381836,132.5830688476562,15,169235.555516625,-0.393157958984375,0.0510406494140625,-0.0540618896484375,169235.555516625,0.4066662963517537,0.354613214949501,0.08582196402445749,169235.543126625,-88.46110534667969,-45.71238708496094,-544.3173828125,169235.550420625,0.09477577930133456,-1.402038674155132,0.06360461609263741,0.3521381020545959,0.420572817325592,0.08398047089576721,0.5475062727928162,0.132256805896759,0.07295262813568115,1,0.05480963364243507,-0.6427960991859436,0.01569535210728645,0.7639127969741821,-0.9838008284568787,-0.06356173753738403,-0.1676181554794312,0,0,0,-1,169234.837590625,3,1,1561841418.784089,1561841239.621676,8,3.056457,0,0,7.575853,0,0,1561841413.282218,169233.00624,0,-0.2695312,75.19551,0,182478453,3,1,1,-36.49207,-38.45311,2
1561841419.286044,62,0,0,1561841418.997639,4.634503084239209,-74.15090697824409,2552.251,0.58,59.4140625,4,30,-9999,1561841419.277114,-15.83222198486328,-19.35821533203125,16.20587158203125,124.505241394043,131.9984436035156,15,169235.575750625,-0.363037109375,-0.0174407958984375,-0.0444793701171875,169235.575750625,0.3894628083420599,0.2781003305154154,0.05328585867085044,169235.563207625,-88.84797668457031,-45.23576354980469,-544.273193359375,169235.570684625,0.1034811523355236,-1.396065744579618,0.06368319667719949,0.4342438876628876,0.278805285692215,0.04881982132792473,0.6110426187515259,0.08382754027843475,0.1240977644920349,1,0.05757993832230568,-0.6402650475502014,0.01916696690022945,0.7657531499862671,-0.9827772378921509,-0.06364016234874725,-0.173490434885025,0,0,0,-1,169234.837590625,3,1,1561841418.784089,1561841239.621676,8,3.056457,0,0,7.575853,0,0,1561841413.282218,169233.00624,0,-0.2695312,75.19551,0,182478453,3,1,1,-37.04935,-39.19986,2
1561841419.301055,63,0,0,1561841418.997639,4.634503084239209,-74.15090697824409,2552.251,0.58,59.4140625,4,30,-9999,1561841419.299428,-16.29738616943359,-19.14114761352539,16.02508544921875,124.0483016967773,131.54150390625,15,169235.596013625,-0.3785858154296875,-0.0360260009765625,-0.0457763671875,169235.596013625,0.1784541635884656,0.2974932032572635,0.1864774690045473,169235.583318625,-88.89436340332031,-45.43797302246094,-544.5384521484375,169235.590947625,0.1102044061551262,-1.390725677318386,0.06339599252852504,0.2105985432863235,0.3003449440002441,0.1262387037277222,0.6076939702033997,0.02847194671630859,0.1233346462249756,1,0.05956380069255829,-0.6380301713943481,0.02199244685471058,0.7673891186714172,-0.9818547368049622,-0.06335353851318359,-0.1787393093109131,0,0,0,-1,169234.837590625,3,1,1561841418.784089,1561841239.621676,8,3.056457,0,0,7.575853,0,0,1561841413.282218,169233.00624,0,-0.2695312,75.19551,0,182478453,3,1,1,-37.04935,-39.19986,2
1561841419.321157,64,0,0,1561841418.997639,4.634503084239209,-74.15090697824409,2552.251,0.58,59.4140625,4,30,-9999,1561841419.299428,-16.29738616943359,-19.14114761352539,16.02508544921875,124.0483016967773,131.54150390625,15,169235.616277625,-0.3693695068359375,-0.0529937744140625,-0.01043701171875,169235.616277625,0.1579848411340076,0.01469692079171128,0.5026902978800868,169235.603429625,-89.0152587890625,-45.22044372558594,-544.3042602539062,169235.611211625,0.1145539825794921,-1.386327532724984,0.05879086697221682,0.1539877355098724,0.09543652087450027,0.4233537316322327,0.6064728498458862,0.01244658231735229,0.1614400148391724,1,0.05913416296243668,-0.6363563537597656,0.02526655793190002,0.7687102556228638,-0.9813355207443237,-0.05875700712203979,-0.1831074804067612,0,0,0,-1,169234.837590625,3,1,1561841418.784089,1561841239.621676,8,3.056457,0,0,7.575853,0,0,1561841413.282218,169233.00624,0,-0.2695312,75.19551,0,182478453,3,1,1,-37.60663,-40.16464,2
1561841419.341659,65,0,0,1561841418.997639,4.634503084239209,-74.15090697824409,2552.251,0.58,59.4140625,4,30,-9999,1561841419.327125,-16.48777770996094,-18.91864776611328,16.144775390625,123.7251052856445,131.2183074951172,15,169235.636541625,-0.4157867431640625,-0.0868682861328125,0.03167724609375,169235.636541625,0.09567885585105877,-0.2425569836588909,0.6980744428342951,169235.623540625,-89.12069702148438,-44.6746826171875,-544.4260864257812,169235.631475625,0.1195306100845271,-1.387940232555622,0.04831316985664133,0.1196465343236923,-0.202786386013031,0.6565648913383484,0.6047394871711731,-0.01368682086467743,0.1936810612678528,1,0.05672616139054298,-0.6371568441390991,0.03048028983175755,0.7680391669273376,-0.9821808934211731,-0.04829437658190727,-0.1816266030073166,0,0,0,-1,169234.837590625,3,1,1561841418.784089,1561841239.621676,8,3.056457,0,0,7.575853,0,0,1561841413.282218,169233.00624,0,-0.2695312,75.19551,0,182478453,3,1,1,-38.16391,-40.89851,2
1561841419.372655,66,0,0,1561841418.997639,4.634503084239209,-74.15090697824409,2552.251,0.58,59.4140625,4,30,-9999,1561841419.351185,-16.50190734863281,-18.72416305541992,16.145263671875,123.4021530151367,130.8953552246094,15,169235.656804625,-0.5264129638671875,-0.14215087890625,0.03997802734375,169235.656804625,-0.09286469352717204,-0.309510185044028,0.7657813188079247,169235.643651625,-89.51364135742188,-44.59736633300781,-544.2341918945312,169235.651738625,0.1232373314565277,-1.393659794334387,0.034142760879661,-0.03138159960508347,-0.3145986497402191,0.7652295827865601,0.5183549523353577,-0.08306662738323212,0.2149730920791626,1,0.05258168652653694,-0.6396723389625549,0.03628246486186981,0.7659882307052612,-0.9837785363197327,-0.03413612768054008,-0.1761089265346527,0,0,0,-1,169234.837590625,3,1,1561841418.784089,1561841239.621676,8,3.056457,0,0,7.575853,0,0,1561841413.282218,169233.00624,0,-0.2695312,75.19551,0,182478453,3,1,1,-38.72119,-41.3718,2
1561841419.382142,67,0,0,1561841418.997639,4.634503084239209,-74.15090697824409,2552.251,0.58,59.4140625,4,30,-9999,1561841419.376653,-16.84318542480469,-18.48518371582031,16.24761962890625,123.3822860717773,130.87548828125,15,169235.677068625,-0.6467742919921875,-0.18585205078125,0.02581787109375,169235.677068625,-0.3497377659418929,-0.3116795960680065,0.6890332772495851,169235.663732625,-89.48358154296875,-44.39559936523438,-544.220458984375,169235.671971625,0.1226136303022237,-1.399900596014268,0.01872283713150199,-0.2929290533065796,-0.3035883605480194,0.7085849642753601,0.3886260986328125,-0.1496742516756058,0.2040165662765503,1,0.04661289602518082,-0.6425026059150696,0.04084156081080437,0.7637732028961182,-0.985260009765625,-0.01872174255549908,-0.1700352728366852,0,0,0,-1,169234.837590625,3,1,1561841418.784089,1561841239.621676,8,3.056457,0,0,7.575853,0,0,1561841413.282218,169233.00624,0,-0.2695312,75.19551,0,182478453,3,1,1,-39.27847,-41.91493,2
1561841419.402312,68,0,0,1561841418.997639,4.634503084239209,-74.15090697824409,2552.251,0.58,59.4140625,4,30,-9999,1561841419.400733,-17.13320159912109,-18.07148742675781,16.26153564453125,123.7829208374023,131.276123046875,15,169235.697301625,-0.7247314453125,-0.1701507568359375,-0.0104827880859375,169235.697301625,-0.4426983332683078,-0.4006475522881747,0.6296559702173964,169235.683843625,-89.74490356445312,-44.30946350097656,-544.2342529296875,169235.692235625,0.1171914385381161,-1.40667648279289,0.003950239391346747,-0.4428399801254272,-0.3815590441226959,0.6471913456916809,0.2967050075531006,-0.181871309876442,0.1728280186653137,1,0.03937985002994537,-0.6455678343772888,0.04338930919766426,0.761451780796051,-0.9865548610687256,-0.003950228914618492,-0.1633827984333038,0,0,0,-1,169234.837590625,3,1,1561841418.784089,1561841239.621676,8,3.056457,0,0,7.575853,0,0,1561841413.282218,169233.00624,0,-0.2695312,75.19551,0,182478453,3,1,1,-39.83575,-39.92787,2
1561841419.422496,69,0,0,1561841418.997639,4.634503084239209,-74.15090697824409,2552.251,0.58,59.4140625,4,30,-9999,1561841419.400733,-17.13320159912109,-18.07148742675781,16.26153564453125,123.7829208374023,131.276123046875,15,169235.717565625,-0.7591705322265625,-0.1271514892578125,-0.036529541015625,169235.717565625,-0.3448993348734369,-0.4962294690755545,0.520209370478955,169235.703954625,-89.64588928222656,-44.38157653808594,-544.0902709960938,169235.712499625,0.110689509027773,-1.415372534040595,-0.009376779081070513,-0.3769938349723816,-0.4773952960968018,0.5422375798225403,0.2456234693527222,-0.1578599214553833,0.1281501054763794,1,0.03240252658724785,-0.6492719650268555,0.0450759194791317,0.7585275769233704,-0.9879025220870972,0.009376641362905502,-0.1547919809818268,0,0,0,-1,169234.837590625,3,1,1561841418.784089,1561841239.621676,8,3.056457,0,0,7.575853,0,0,1561841413.282218,169233.00624,0,-0.2695312,75.19551,0,182478453,3,1,1,-40.06054,-40.79755,2
1561841419.453568,70,0,0,1561841418.997639,4.634503084239209,-74.15090697824409,2552.251,0.58,59.4140625,4,30,-9999,1561841419.427121,-17.18919372558594,-18.18865203857422,16.391845703125,124.2185287475586,131.7117309570312,15,169235.737828625,-0.8832244873046875,-0.0792083740234375,-0.0398101806640625,169235.737828625,-0.3413304326966218,-0.4146219574761474,0.4274203107267412,169235.724065625,-89.58720397949219,-44.34381103515625,-544.2661743164062,169235.732763625,0.1055831366851929,-1.425680598046631,-0.02023908208527176,-0.312105655670166,-0.4859555065631866,0.4473491609096527,0.181760847568512,-0.1237685829401016,0.1020205616950989,1,0.02686238847672939,-0.6534445285797119,0.04652531817555428,0.7550655603408813,-0.989286482334137,0.02023770101368427,-0.1445773243904114,0,0,0,-1,169234.837590625,3,1,1561841418.784089,1561841239.621676,8,3.056457,0,0,7.575853,0,0,1561841413.282218,169233.00624,0,-0.2695312,75.19551,0,182478453,3,1,1,-40.06054,-41.20148,2
1561841419.463177,71,0,0,1561841418.997639,4.634503084239209,-74.15090697824409,2552.251,0.58,59.4140625,4,30,-9999,1561841419.451476,-16.97781372070312,-18.28592300415039,16.34381103515625,124.629524230957,132.1227264404297,15,169235.758092625,-1.002273559570312,-0.0588531494140625,-0.059417724609375,169235.758092625,-0.7958329611805968,0.03425890426277932,0.384258458939827,169235.744176625,-89.71453857421875,-44.37181091308594,-544.0292358398438,169235.753026625,0.09806133790795606,-1.432240497424108,-0.02969069232079811,-0.6415000557899475,-0.09923894703388214,0.3877300322055817,0.03641241788864136,-0.0978473424911499,0.09471708536148071,1,0.02098553627729416,-0.6561505794525146,0.04670115187764168,0.7528910636901855,-0.9899799227714539,0.02968632988631725,-0.1380520462989807,0,0,0,-1,169234.837590625,3,1,1561841418.784089,1561841239.621676,8,3.056457,0,0,7.575853,0,0,1561841413.282218,169233.00624,0,-0.2695312,75.19551,0,182478453,3,1,1,-40.06054,-41.20148,2
1561841419.483409,72,0,0,1561841418.997639,4.634503084239209,-74.15090697824409,2552.251,0.58,59.4140625,4,30,-9999,1561841419.478806,-17.01543426513672,-18.30054092407227,16.346923828125,125.7567672729492,133.2499694824219,15,169235.778356625,-1.01763916015625,-0.0198516845703125,-0.0843963623046875,169235.778356625,-1.214475492954437,0.4222130318473093,0.3465552884392482,169235.764287625,-89.95735168457031,-44.61631774902344,-544.5667724609375,169235.773290625,0.08035021281350307,-1.429881833887836,-0.03978753309829767,-1.169410705566406,0.3594580590724945,0.354710578918457,-0.03474336862564087,-0.07648967951536179,0.06076288223266602,1,0.01131610292941332,-0.6555175185203552,0.04335377365350723,0.7538496255874634,-0.9893044829368591,0.03977703675627708,-0.1403374522924423,0,0,0,-1,169234.837590625,3,1,1561841418.784089,1561841239.621676,8,3.056457,0,0,7.575853,0,0,1561841413.282218,169233.00624,0,-0.2695312,75.19551,0,182478453,3,1,1,-40.06054,-40.06054,2
1561841419.532437,73,0,0,1561841418.997639,4.634503084239209,-74.15090697824409,2552.251,0.58,59.4140625,4,30,-9999,1561841419.506141,-17.63454437255859,-18.5851936340332,15.544677734375,127.3754348754883,134.8686370849609,15,169235.79863475,-1.004959106445312,0.0089263916015625,-0.097747802734375,169235.79863475,-1.029526145783377,0.406844728144789,0.3237671516236582,169235.78441375,-90.17301940917969,-44.6890869140625,-544.8611450195312,169235.79356975,0.05739027522795561,-1.422410173458759,-0.05001877606459119,-1.120155811309814,0.4180648922920227,0.3261628150939941,-0.0180853009223938,-0.05741369351744652,0.05665385723114014,1,-0.0002144910686183721,-0.652817964553833,0.03804534673690796,0.7565588355064392,-0.9877740740776062,0.04999792203307152,-0.1476573199033737,0,0,0,-1,169234.837590625,3,1,1561841418.784089,1561841239.621676,8,3.056457,0,0,7.575853,0,0,1561841413.282218,169233.00624,0,-0.2695312,75.19551,0,182478453,3,1,1,-40.06054,-41.68416,2
1561841419.535284,74,0,0,1561841418.997639,4.634503084239209,-74.15090697824409,2552.251,0.58,59.4140625,4,30,-9999,1561841419.528357,-17.81578063964844,-18.82721328735352,14.93157958984375,128.4381408691406,135.9313507080078,15,169235.81889875,-1.01654052734375,0.0185394287109375,-0.0836639404296875,169235.81889875,-0.5961107931267583,0.4085856365493739,0.2352173116946325,169235.80449475,-90.6890869140625,-45.06947326660156,-545.2952880859375,169235.81380275,0.03991023314650714,-1.415275798708091,-0.05887910834820159,-0.6964187026023865,0.4010798037052155,0.2615705132484436,-0.02353119850158691,-0.04236560314893723,0.06310373544692993,1,-0.009398262016475201,-0.6500759124755859,0.03428663685917854,0.7590371966362,-0.9862191081047058,0.05884509533643723,-0.1546259671449661,0,0,0,-1,169234.837590625,3,1,1561841418.784089,1561841239.621676,8,3.056457,0,0,7.575853,0,0,1561841413.282218,169233.00624,0,-0.2695312,75.19551,0,182478453,3,1,1,-40.06054,-41.68416,2
1561841419.544269,75,0,0,1561841418.997639,4.634503084239209,-74.15090697824409,2552.251,0.58,59.4140625,4,30,-9999,1561841419.528357,-17.81578063964844,-18.82721328735352,14.93157958984375,128.4381408691406,135.9313507080078,15,169235.83913175,-1.039093017578125,0.041290283203125,-0.09979248046875,169235.83913175,-0.4092072183477983,0.3023486785566959,0.1691994124843313,169235.82460575,-90.42868041992188,-45.15458679199219,-545.7565307617188,169235.83406575,0.02984402789559682,-1.408178472329198,-0.06477836648736821,-0.4274769723415375,0.3304365277290344,0.170277863740921,-0.034260094165802,-0.04039530456066132,0.07179504632949829,1,-0.01502582710236311,-0.647296667098999,0.03232800588011742,0.7614040374755859,-0.9847370982170105,0.06473307311534882,-0.1615625023841858,0,0,0,-1,169234.837590625,3,1,1561841418.784089,1561841239.621676,8,3.056457,0,0,7.575853,0,0,1561841413.282218,169233.00624,0,-0.2695312,75.19551,0,182478453,3,1,1,-40.06054,-42.09019,2
1561841419.564406,76,0,0,1561841418.997639,4.634503084239209,-74.15090697824409,2552.251,0.58,59.4140625,4,30,-9999,1561841419.55348,-17.93544769287109,-19.09144973754883,14.6973876953125,129.0296325683594,136.5228424072266,15,169235.85939575,-1.07769775390625,0.0643310546875,-0.118072509765625,169235.85939575,-0.447611066531177,0.2326476275588151,0.1026691210802988,169235.84471675,-90.62667846679688,-45.28765869140625,-546.0087890625,169235.85432975,0.02207621836204714,-1.403128212036316,-0.06932588580426767,-0.4273914992809296,0.2362514436244965,0.1316998451948166,-0.08606356382369995,-0.01089024543762207,0.05625319480895996,1,-0.0193500891327858,-0.6452783942222595,0.03079212456941605,0.7630813121795654,-0.9836081266403198,0.06927036494016647,-0.1664827316999435,0,0,0,-1,169234.837590625,3,1,1561841418.784089,1561841239.621676,8,3.056457,0,0,7.575853,0,0,1561841413.282218,169233.00624,0,-0.2695312,75.19551,0,182478453,3,1,1,-40.06054,-42.56913,2
1561841419.610801,77,0,0,1561841418.997639,4.634503084239209,-74.15090697824409,2552.251,0.58,59.4140625,4,30,-9999,1561841419.605229,-18.36660766601562,-19.34671783447266,13.98291015625,130.3337707519531,137.8269805908203,15,169235.87965975,-1.07861328125,0.06884765625,-0.137237548828125,169235.87965975,-0.5029880392899576,0.1818470308172266,-0.06063032432507096,169235.86482775,-90.96565246582031,-45.37596130371094,-546.3814697265625,169235.87459375,0.01282305697892369,-1.399569115254515,-0.07203364608622369,-0.5095404386520386,0.1814475804567337,-0.02501680329442024,-0.09167248010635376,-0.006968922913074493,0.04580432176589966,1,-0.02341900393366814,-0.6437985897064209,0.02809273265302181,0.7643203735351562,-0.9828209280967712,0.07197136431932449,-0.169949859380722,0,0,0,-1,169234.837590625,3,1,1561841418.784089,1561841239.621676,8,3.056457,0,0,7.575853,0,0,1561841413.282218,169233.00624,0,-0.2695312,75.19551,0,182478453,3,1,1,-40.06054,-43.73206,2
1561841419.613479,78,0,0,1561841418.997639,4.634503084239209,-74.15090697824409,2552.251,0.58,59.4140625,4,30,-9999,1561841419.605229,-18.36660766601562,-19.34671783447266,13.98291015625,130.3337707519531,137.8269805908203,15,169235.89992275,-1.03070068359375,0.0598602294921875,-0.1676025390625,169235.89992275,-0.2845505066755873,0.1625252644764837,-0.1449212370388419,169235.88493875,-90.978271484375,-45.44711303710938,-546.4964599609375,169235.89485675,0.003253894705562926,-1.396784522799237,-0.07177955370609367,-0.3626207411289215,0.1676228493452072,-0.1357041746377945,-0.08457839488983154,-0.005067542195320129,0.02248156070709229,1,-0.02643578313291073,-0.6426169872283936,0.02431692183017731,0.7653451561927795,-0.982361912727356,0.07171793282032013,-0.1726891100406647,0,0,0,-1,169234.837590625,3,1,1561841418.784089,1561841239.621676,8,3.056457,0,0,7.575853,0,0,1561841413.282218,169233.00624,0,-0.2695312,75.19551,0,182478453,3,1,1,-40.06054,-43.73206,2
1561841419.626473,79,0,0,1561841418.997639,4.634503084239209,-74.15090697824409,2552.251,0.58,59.4140625,4,30,-9999,1561841419.605229,-18.36660766601562,-19.34671783447266,13.98291015625,130.3337707519531,137.8269805908203,15,169235.92018675,-0.986328125,0.056884765625,-0.1756439208984375,169235.92018675,0.0270523903530249,0.160687150692111,-0.1139119219381773,169235.90504975,-91.138671875,-45.86322021484375,-546.4788818359375,169235.91512075,-0.001214457959602527,-1.394104412013062,-0.06967160183190789,-0.03275363147258759,0.1432035267353058,-0.1290113776922226,-0.01919364929199219,-0.01360023766756058,-0.003134548664093018,1,-0.02709410153329372,-0.6415544748306274,0.02189336903393269,0.7662861943244934,-0.9820423126220703,0.06961525231599808,-0.1753475368022919,0,0,0,-1,169234.837590625,3,1,1561841418.784089,1561841239.621676,8,3.056457,0,0,7.575853,0,0,1561841413.282218,169233.00624,0,-0.2695312,75.19551,0,182478453,3,1,1,-40.06054,-43.73206,2
1561841419.645643,80,0,0,1561841418.997639,4.634503084239209,-74.15090697824409,2552.251,0.58,59.4140625,4,30,-9999,1561841419.630132,-18.51576995849609,-19.61380767822266,14.0189208984375,130.5128173828125,138.0060272216797,15,169235.94045075,-1.014480590820312,0.0561370849609375,-0.1744384765625,169235.94045075,0.06297257450379565,0.1999037956401818,-0.06798437735921577,169235.92516075,-90.94584655761719,-45.70133972167969,-546.7986450195312,169235.93538475,-0.0006085015220412915,-1.390680630100998,-0.06744994263859087,0.07995453476905823,0.1842913031578064,-0.07807149738073349,-0.009243607521057129,-0.005783818662166595,0.004953682422637939,1,-0.02608513459563255,-0.6402745842933655,0.02136821672320366,0.76740562915802,-0.9815858602523804,0.0673988088965416,-0.1787360459566116,0,0,0,-1,169234.837590625,3,1,1561841418.784089,1561841239.621676,8,3.056457,0,0,7.575853,0,0,1561841413.282218,169233.00624,0,-0.2695312,75.19551,0,182478453,3,1,1,-40.06054,-44.32762,2
1561841419.69208,81,0,0,1561841418.997639,4.634503084239209,-74.15090697824409,2552.251,0.58,59.4140625,4,30,-9999,1561841419.68058,-18.35102844238281,-19.85311126708984,13.62109375,130.5355682373047,138.0287780761719,15,169235.96071375,-1.023422241210938,0.036224365234375,-0.1715545654296875,169235.96071375,-0.03648157850855945,0.2777985943639095,-0.1109065446480229,169235.94524175,-90.71435546875,-45.7044677734375,-546.6673583984375,169235.95561775,-0.0002377985612891781,-1.386344129447101,-0.06576420569550694,-0.01774006150662899,0.2555314004421234,-0.09685317426919937,-0.04969733953475952,-0.02213770896196365,0.01374584436416626,1,-0.02536504529416561,-0.6386319994926453,0.02091582491993904,0.7688096165657043,-0.9809117913246155,0.06571681052446365,-0.1830115616321564,0,0,0,-1,169234.837590625,3,1,1561841418.784089,1561841239.621676,8,3.056457,0,0,7.575853,0,0,1561841413.282218,169233.00624,0,-0.2695312,75.19551,0,182478453,3,1,1,-40.06054,-44.862,2
1561841419.694685,82,0,0,1561841418.997639,4.634503084239209,-74.15090697824409,2552.251,0.58,59.4140625,4,30,-9999,1561841419.68058,-18.35102844238281,-19.85311126708984,13.62109375,130.5355682373047,138.0287780761719,15,169235.98094675,-0.978271484375,0.02545166015625,-0.186492919921875,169235.98094675,-0.03474599642615481,0.3119096931861894,-0.1650251737917411,169235.96535275,-90.99159240722656,-46.05088806152344,-546.74853515625,169235.97588175,-0.001578533355396455,-1.380702089533101,-0.06328551099176755,-0.04696265980601311,0.3072041571140289,-0.1646721661090851,-0.01895713806152344,-0.03332079201936722,0.007191896438598633,1,-0.02489555813372135,-0.6364696621894836,0.0195387527346611,0.7706521153450012,-0.9800205230712891,0.06324327737092972,-0.1885731667280197,0,0,0,-1,169234.837590625,3,1,1561841418.784089,1561841239.621676,8,3.056457,0,0,7.575853,0,0,1561841413.282218,169233.00624,0,-0.2695312,75.19551,0,182478453,3,1,1,-40.06054,-44.862,2
1561841419.706106,83,0,0,1561841418.997639,4.634503084239209,-74.15090697824409,2552.251,0.58,59.4140625,4,30,-9999,1561841419.704413,-18.21378326416016,-19.86687088012695,13.52838134765625,130.5867156982422,138.0799255371094,15,169236.00121075,-0.9669189453125,0.0418853759765625,-0.17864990234375,169236.00121075,0.07188697362061788,0.2802729373327021,-0.0755006169037464,169235.98546375,-91.02230834960938,-45.79293823242188,-546.6906127929688,169235.99614475,-0.002457412691169123,-1.374687862939347,-0.06027774518410142,0.03503420203924179,0.2894182503223419,-0.1143568009138107,0.009370088577270508,-0.02918961644172668,0.01057052612304688,1,-0.02407105825841427,-0.6341692209243774,0.01817052252590656,0.7726057767868042,-0.9790508151054382,0.06024124845862389,-0.1944999694824219,0,0,0,-1,169234.837590625,3,1,1561841418.784089,1561841239.621676,8,3.056457,0,0,7.575853,0,0,1561841413.282218,169233.00624,0,-0.2695312,75.19551,0,182478453,3,1,1,-40.06054,-45.38002,2
1561841419.7265,84,0,0,1561841418.997639,4.634503084239209,-74.15090697824409,2552.251,0.58,59.4140625,4,30,-9999,1561841419.704413,-18.21378326416016,-19.86687088012695,13.52838134765625,130.5867156982422,138.0799255371094,15,169236.02147475,-0.9650421142578125,0.0457611083984375,-0.1747589111328125,169236.02147475,0.1835578455014935,0.1717600418724425,0.09195282716992892,169236.00557475,-90.85101318359375,-45.96376037597656,-547.035400390625,169236.01640875,-0.0005652486308156617,-1.369515195481422,-0.05915347084052293,0.1613252907991409,0.2000790685415268,0.04846007749438286,0.01308590173721313,-0.01427339762449265,0.02223747968673706,1,-0.02308465912938118,-0.6322021484375,0.01848530396819115,0.7742388844490051,-0.9780974984169006,0.05911897867918015,-0.1995750814676285,0,0,0,-1,169234.837590625,3,1,1561841418.784089,1561841239.621676,8,3.056457,0,0,7.575853,0,0,1561841413.282218,169233.00624,0,-0.2695312,75.19551,0,182478453,3,1,1,-40.06054,-41.07575,2
1561841419.772237,85,0,0,1561841418.997639,4.634503084239209,-74.15090697824409,2552.251,0.58,59.4140625,4,30,-9999,1561841419.755465,-18.47959899902344,-19.61073303222656,13.626708984375,130.1217498779297,137.6149597167969,15,169236.04173775,-0.9765167236328125,0.047210693359375,-0.176025390625,169236.04173775,0.1615928917788469,0.06412758746856302,0.1092106436658604,169236.02565575,-91.10862731933594,-45.78512573242188,-547.0140380859375,169236.03667275,0.003586286602643554,-1.366677954408071,-0.06048351127529865,0.1849976032972336,0.07235198467969894,0.126182034611702,0.008455276489257812,-0.01296128705143929,0.02754378318786621,1,-0.02231628075242043,-0.6311381459236145,0.0204811654984951,0.7750787734985352,-0.9774494171142578,0.06044664233922958,-0.2023332417011261,0,0,0,-1,169234.837590625,3,1,1561841418.784089,1561841239.621676,8,3.056457,0,0,7.575853,0,0,1561841413.282218,169233.00624,0,-0.2695312,75.19551,0,182478453,3,1,1,-40.06054,-42.32597,2
1561841419.774769,86,0,0,1561841418.997639,4.634503084239209,-74.15090697824409,2552.251,0.58,59.4140625,4,30,-9999,1561841419.755465,-18.47959899902344,-19.61073303222656,13.626708984375,130.1217498779297,137.6149597167969,15,169236.06200175,-0.9942169189453125,0.05194091796875,-0.1807403564453125,169236.06200175,0.02880288613753398,0.01574434204843945,-0.05682120501793063,169236.04576675,-91.20280456542969,-45.77650451660156,-546.9575805664062,169236.05693575,0.006331421392174207,-1.365773989653791,-0.06121376934492287,0.05600899457931519,0.009619629010558128,-0.01415403559803963,-0.007991492748260498,-0.01524659246206284,0.02876925468444824,1,-0.02174285613000393,-0.6308116912841797,0.02176556922495365,0.7753258347511292,-0.977222740650177,0.06117554754018784,-0.203207716345787,0,0,0,-1,169234.837590625,3,1,1561841418.784089,1561841239.621676,8,3.056457,0,0,7.575853,0,0,1561841413.282218,169233.00624,0,-0.2695312,75.19551,0,182478453,3,1,1,-40.06054,-42.32597,2
1561841419.787348,87,0,0,1561841418.997639,4.634503084239209,-74.15090697824409,2552.251,0.58,59.4140625,4,30,-9999,1561841419.781625,-18.59510040283203,-19.44206237792969,13.47528076171875,130.1046142578125,137.5978240966797,15,169236.08226575,-0.9874725341796875,0.0541534423828125,-0.1981353759765625,169236.08226575,-0.01248383392585544,0.09306682745390905,-0.1561459284013079,169236.06587775,-91.01893615722656,-45.75987243652344,-547.1328125,169236.07719975,0.006216266628496859,-1.365296485406241,-0.0592378724879658,-0.01081797387450933,0.06133155524730682,-0.150626927614212,-0.0180736780166626,-0.003310289233922958,0.01592391729354858,1,-0.02101810090243816,-0.6306416988372803,0.02109283953905106,0.775502622127533,-0.9772419333457947,0.05920323356986046,-0.2036985754966736,0,0,0,-1,169234.837590625,3,1,1561841418.784089,1561841239.621676,8,3.056457,0,0,7.575853,0,0,1561841413.282218,169233.00624,0,-0.2695312,75.19551,0,182478453,3,1,1,-40.06054,-42.32597,2
1561841419.80752,88,0,0,1561841418.997639,4.634503084239209,-74.15090697824409,2552.251,0.58,59.4140625,4,30,-9999,1561841419.781625,-18.59510040283203,-19.44206237792969,13.47528076171875,130.1046142578125,137.5978240966797,15,169236.10252875,-0.9781341552734375,0.0463409423828125,-0.214080810546875,169236.10252875,-0.01363831425840479,0.2440193254134534,-0.1247834781400987,169236.08598875,-91.14794921875,-45.79563903808594,-546.9920654296875,169236.09743275,0.005213563777142579,-1.362875674038946,-0.05620187897557935,-0.01743912324309349,0.2034239917993546,-0.1427783221006393,-0.0084189772605896,-0.005680963397026062,-0.004456162452697754,1,-0.02018075995147228,-0.6297164559364319,0.01972248777747154,0.7763123512268066,-0.9769172668457031,0.05617229640483856,-0.2060998380184174,0,0,0,-1,169234.837590625,3,1,1561841418.784089,1561841239.621676,8,3.056457,0,0,7.575853,0,0,1561841413.282218,169233.00624,0,-0.2695312,75.19551,0,182478453,3,1,1,-37.88527,-42.85554,2
1561841419.851563,89,0,0,1561841418.997639,4.634503084239209,-74.15090697824409,2552.251,0.58,59.4140625,4,30,-9999,1561841419.836627,-18.55914306640625,-19.87479019165039,13.19439697265625,130.1830444335938,137.6762542724609,15,169236.12276275,-0.9597320556640625,0.046295166015625,-0.2159271240234375,169236.12276275,0.04756672022990528,0.3595970546134752,-0.05218730472119276,169236.10609975,-91.33598327636719,-45.763916015625,-547.1150512695312,169236.11769675,0.004718851200088472,-1.357480490135185,-0.05397957933752845,0.02872890420258045,0.3331350982189178,-0.07600195705890656,0.007145524024963379,-0.009260375052690506,-0.005403459072113037,1,-0.01952454075217247,-0.6276321411132812,0.01877825893461704,0.7780385613441467,-0.9759107232093811,0.05395336821675301,-0.2113933712244034,0,0,0,-1,169234.837590625,3,1,1561841418.784089,1561841239.621676,8,3.056457,0,0,7.575853,0,0,1561841413.282218,169233.00624,0,-0.2695312,75.19551,0,182478453,3,1,1,-37.88527,-39.81345,2
1561841419.854048,90,0,0,1561841418.997639,4.634503084239209,-74.15090697824409,2552.251,0.58,59.4140625,4,30,-9999,1561841419.836627,-18.55914306640625,-19.87479019165039,13.19439697265625,130.1830444335938,137.6762542724609,15,169236.14302575,-0.967041015625,0.0646209716796875,-0.2089996337890625,169236.14302575,0.08627336982922593,0.3177896865569753,0.02494476466633619,169236.12621075,-91.22021484375,-45.61973571777344,-547.28173828125,169236.13795975,0.005779693190150973,-1.350434085408409,-0.05306430814554729,0.08612880855798721,0.3322658538818359,0.009904962033033371,0.0161014199256897,-0.0006254687905311584,0.00582730770111084,1,-0.01890201307833195,-0.6249039769172668,0.01883728429675102,0.7802454829216003,-0.9744448661804199,0.05303940922021866,-0.2182754725217819,0,0,0,-1,169234.837590625,3,1,1561841418.784089,1561841239.621676,8,3.056457,0,0,7.575853,0,0,1561841413.282218,169233.00624,0,-0.2695312,75.19551,0,182478453,3,1,1,-37.88527,-39.81345,2
1561841419.868389,91,0,0,1561841418.997639,4.634503084239209,-74.15090697824409,2552.251,0.58,59.4140625,4,30,-9999,1561841419.856655,-18.69951629638672,-19.75632858276367,13.243408203125,130.0756530761719,137.5688629150391,15,169236.16328975,-1.005355834960938,0.0654296875,-0.1971435546875,169236.16328975,-0.0003872236224975212,0.2440022811824769,-0.003298591326172144,169236.14629175,-91.48832702636719,-45.80256652832031,-547.131103515625,169236.15822375,0.007221832573517745,-1.344489225900728,-0.05318952765337762,0.02922851219773293,0.2606595754623413,0.01483660377562046,-0.01233488321304321,0.01542380452156067,0.02148729562759399,1,-0.01855796575546265,-0.6225946545600891,0.01938393339514732,0.7820842266082764,-0.9731234908103943,0.05316445231437683,-0.2240629941225052,0,0,0,-1,169234.837590625,3,1,1561841418.784089,1561841239.621676,8,3.056457,0,0,7.575853,0,0,1561841413.282218,169233.00624,0,-0.2695312,75.19551,0,182478453,3,1,1,-37.88527,-40.6838,2
1561841419.888617,92,0,0,1561841418.997639,4.634503084239209,-74.15090697824409,2552.251,0.58,59.4140625,4,30,-9999,1561841419.883672,-18.95558166503906,-19.58335113525391,13.04296875,130.1031036376953,137.5963134765625,15,169236.18355375,-0.9967803955078125,0.0584869384765625,-0.20611572265625,169236.18355375,-0.08481715334517061,0.138673993753734,-0.131716219089793,169236.16640275,-91.65142822265625,-45.60429382324219,-547.366455078125,169236.17848775,0.006421308472694271,-1.340318527661433,-0.05251457977978419,-0.07925748825073242,0.1570082902908325,-0.1091612428426743,-0.03268283605575562,0.009475495666265488,0.02752047777175903,1,-0.01858248375356197,-0.6209595799446106,0.01882212050259113,0.7833961844444275,-0.9722152352333069,0.05249044671654701,-0.2281277775764465,0,0,0,-1,169234.837590625,3,1,1561841418.784089,1561841239.621676,8,3.056457,0,0,7.575853,0,0,1561841413.282218,169233.00624,0,-0.2695312,75.19551,0,182478453,3,1,1,-37.88527,-41.13561,2
1561841419.933858,93,0,0,1561841418.997639,4.634503084239209,-74.15090697824409,2552.251,0.58,59.4140625,4,30,-9999,1561841419.911879,-18.92539978027344,-19.63821029663086,12.9124755859375,130.2403869628906,137.7335968017578,15,169236.20381675,-0.983123779296875,0.0617523193359375,-0.21697998046875,169236.20381675,0.001625859845493375,0.1147883682529224,-0.1269952334254096,169236.18651375,-91.5078125,-45.75067138671875,-547.5755004882812,169236.19875075,0.00437712230589335,-1.338092575412859,-0.05004500211099052,-0.03327294811606407,0.09776919335126877,-0.1447988599538803,-0.01686513423919678,0.009195245802402496,0.0173078179359436,1,-0.0182688906788826,-0.6200854778289795,0.01723445393145084,0.7841320633888245,-0.9718281030654907,0.05002411454916,-0.2303204983472824,0,0,0,-1,169234.837590625,3,1,1561841418.784089,1561841239.621676,8,3.056457,0,0,7.575853,0,0,1561841413.282218,169233.00624,0,-0.2695312,75.19551,0,182478453,3,1,1,-37.61968,-39.53915,2
1561841419.936331,94,0,0,1561841418.997639,4.634503084239209,-74.15090697824409,2552.251,0.58,59.4140625,4,30,-9999,1561841419.934997,-18.84938812255859,-19.62391662597656,13.00421142578125,130.1799468994141,137.6731567382812,15,169236.22408075,-0.96337890625,0.06658935546875,-0.221343994140625,169236.22408075,0.1028981529340456,0.2135929762754071,-0.03659715969986889,169236.20662475,-91.47401428222656,-45.71749877929688,-547.4559326171875,169236.21901475,0.004484012986159731,-1.335451898657192,-0.0477761016569222,0.0875389501452446,0.1792584657669067,-0.0647096186876297,-0.003178060054779053,0.01501672714948654,0.01461958885192871,1,-0.01736796833574772,-0.6190657615661621,0.01655007340013981,0.7849726676940918,-0.9713245034217834,0.04775792732834816,-0.2329118698835373,0,0,0,-1,169234.837590625,3,1,1561841418.784089,1561841239.621676,8,3.056457,0,0,7.575853,0,0,1561841413.282218,169233.00624,0,-0.2695312,75.19551,0,182478453,3,1,1,-37.61968,-39.53915,2
1561841419.949225,95,0,0,1561841418.997639,4.634503084239209,-74.15090697824409,2552.251,0.58,59.4140625,4,30,-9999,1561841419.934997,-18.84938812255859,-19.62391662597656,13.00421142578125,130.1799468994141,137.6731567382812,15,169236.24434475,-0.946044921875,0.0733184814453125,-0.2216949462890625,169236.24434475,0.09764506768386427,0.2728461800007981,0.03646080585205683,169236.22673575,-91.53018188476562,-45.9127197265625,-547.6411743164062,169236.23924775,0.006412200405412834,-1.330809921989505,-0.04696988644809669,0.1027626469731331,0.2642814815044403,0.02130142599344254,0.01662617921829224,0.02442799508571625,0.01370292901992798,1,-0.01649420708417892,-0.6172635555267334,0.01701910607516766,0.7863994240760803,-0.9702699780464172,0.04695261642336845,-0.237427294254303,0,0,0,-1,169234.837590625,3,1,1561841418.784089,1561841239.621676,8,3.056457,0,0,7.575853,0,0,1561841413.282218,169233.00624,0,-0.2695312,75.19551,0,182478453,3,1,1,-37.61968,-39.53915,2
1561841419.969736,96,0,0,1561841418.997639,4.634503084239209,-74.15090697824409,2552.251,0.58,59.4140625,4,30,-9999,1561841419.957857,-18.76837921142578,-19.8118896484375,12.920654296875,130.0363006591797,137.5295104980469,15,169236.26457775,-0.9513092041015625,0.0688934326171875,-0.1992340087890625,169236.26457775,0.05241367341384949,0.223269039463992,0.03800730349706585,169236.24684675,-91.86514282226562,-45.82089233398438,-547.4625244140625,169236.25951175,0.008327192755810873,-1.325645009874872,-0.04727374505698299,0.06970403343439102,0.2324924021959305,0.03706308081746101,0.02518445253372192,0.02507052198052406,0.03111302852630615,1,-0.01606874912977219,-0.6152445077896118,0.01782439462840557,0.787971019744873,-0.9690168499946594,0.04725613817572594,-0.2424319833517075,0,0,0,-1,169234.837590625,3,1,1561841418.784089,1561841239.621676,8,3.056457,0,0,7.575853,0,0,1561841413.282218,169233.00624,0,-0.2695312,75.19551,0,182478453,3,1,1,-37.61968,-40.34298,2
1561841420.013092,97,0,0,1561841418.997639,4.634503084239209,-74.15090697824409,2552.251,0.58,59.4140625,4,30,-9999,1561841420.009181,-19.2371826171875,-19.45430755615234,12.6065673828125,130.0947418212891,137.5879516601562,15,169236.28484075,-0.9781951904296875,0.0577850341796875,-0.2048187255859375,169236.28484075,-0.05402382060891139,0.1450978046191141,0.03000184126028766,169236.26695775,-91.60675048828125,-45.70046997070312,-547.71484375,169236.27977575,0.009002058729965828,-1.321785027151544,-0.04788864171232392,-0.02697617001831532,0.1497655510902405,0.03458474203944206,0.002484560012817383,0.01592665910720825,0.04917240142822266,1,-0.01613869145512581,-0.6137245893478394,0.01824827305972576,0.7891442775726318,-0.9680454730987549,0.04787033796310425,-0.2461633384227753,0,0,0,-1,169234.837590625,3,1,1561841418.784089,1561841239.621676,8,3.056457,0,0,7.575853,0,0,1561841413.282218,169233.00624,0,-0.2695312,75.19551,0,182478453,3,1,1,-37.61968,-41.46838,2
1561841420.015789,98,0,0,1561841418.997639,4.634503084239209,-74.15090697824409,2552.251,0.58,59.4140625,4,30,-9999,1561841420.009181,-19.2371826171875,-19.45430755615234,12.6065673828125,130.0947418212891,137.5879516601562,15,169236.30510475,-0.978973388671875,0.0465240478515625,-0.2166748046875,169236.30510475,-0.1458751813413083,0.165357802611892,-0.009459814508070463,169236.28706875,-91.85121154785156,-45.87353515625,-547.9649047851562,169236.30003875,0.0074726309394644,-1.319079192170625,-0.04866577841164545,-0.1322565227746964,0.1477218419313431,-0.005508881527930498,-0.01216793060302734,0.00263822078704834,0.03733140230178833,1,-0.01693887263536453,-0.6126392483711243,0.01786031201481819,0.7899792194366455,-0.9673394560813904,0.04864656925201416,-0.248772457242012,0,0,0,-1,169234.837590625,3,1,1561841418.784089,1561841239.621676,8,3.056457,0,0,7.575853,0,0,1561841413.282218,169233.00624,0,-0.2695312,75.19551,0,182478453,3,1,1,-37.61968,-41.46838,2
1561841420.030354,99,0,0,1561841418.997639,4.634503084239209,-74.15090697824409,2552.251,0.58,59.4140625,4,30,-9999,1561841420.009181,-19.2371826171875,-19.45430755615234,12.6065673828125,130.0947418212891,137.5879516601562,15,169236.32536875,-0.96966552734375,0.043853759765625,-0.2234954833984375,169236.32536875,-0.1082793362326597,0.2046804413713479,0.008229434084453854,169236.30714975,-91.91058349609375,-45.66192626953125,-547.8433837890625,169236.32030275,0.004572031024036706,-1.315758172205912,-0.04922284234279323,-0.1361995935440063,0.197149857878685,-0.00571900513023138,-0.01038616895675659,-0.005944304168224335,0.02990031242370605,1,-0.01807543821632862,-0.6112977266311646,0.01685520447790623,0.7910146117210388,-0.9664815664291382,0.04920296743512154,-0.2519767284393311,0,0,0,-1,169234.837590625,3,1,1561841418.784089,1561841239.621676,8,3.056457,0,0,7.575853,0,0,1561841413.282218,169233.00624,0,-0.2695312,75.19551,0,182478453,3,1,1,-37.61968,-42.48895,2
1561841420.050667,100,0,0,1561841418.997639,4.634503084239209,-74.15090697824409,2552.251,0.58,59.4140625,4,30,-9999,1561841420.035096,-19.34723663330078,-19.68497848510742,12.65985107421875,130.2882690429688,137.7814788818359,15,169236.34563275,-0.9523162841796875,0.047821044921875,-0.22406005859375,169236.34563275,0.0084864291296465,0.142368597134001,0.04146355395977069,169236.32726075,-91.83442687988281,-46.07395935058594,-548.0919799804688,169236.34056675,0.003115922417948009,-1.312082628148865,-0.0500512546665916,-0.01908202841877937,0.1672587990760803,0.03699357062578201,0.001565694808959961,-0.002285607159137726,0.03235703706741333,1,-0.0188785083591938,-0.6098238825798035,0.01649780198931694,0.7921402454376221,-0.9655091762542725,0.05003035813570023,-0.2555168569087982,0,0,0,-1,169234.837590625,3,1,1561841418.784089,1561841239.621676,8,3.056457,0,0,7.575853,0,0,1561841413.282218,169233.00624,0,-0.2695312,75.19551,0,182478453,3,1,1,-37.61968,-42.8418,2
1561841420.085742,101,0,0,1561841419.997625,4.634511885237539,-74.15090848698667,2552.437,0.58,74.1796875,4,10,-9999,1561841420.035096,-19.34723663330078,-19.68497848510742,12.65985107421875,130.2882690429688,137.7814788818359,15,169236.36589575,-0.9396514892578125,0.0516510009765625,-0.21612548828125,169236.36589575,0.04787032059417431,0.02381638331246962,0.01780749294492383,169236.34737175,-92.30126953125,-46.06576538085938,-548.0721435546875,169236.36082975,0.003697998753911756,-1.310079151457025,-0.05062363721454193,0.04610629752278328,0.04511663690209389,0.02189025096595287,0.02446156740188599,-0.0009346604347229004,0.03637397289276123,1,-0.01894466578960419,-0.6090315580368042,0.01688387989997864,0.7927399277687073,-0.9649675488471985,0.0506020188331604,-0.2574433088302612,0,0,0,-1,169234.837590625,3,1,1561841418.784089,1561841239.621676,8,3.056457,0,0,7.575853,0,0,1561841413.282218,169233.948852,0,-0.1293945,75.19416,0,182478453,3,1,1,-37.61968,-43.12166,2
1561841420.091002,102,0,0,1561841419.997625,4.634511885237539,-74.15090848698667,2552.437,0.58,74.1796875,4,10,-9999,1561841420.08134,-19.14541625976562,-19.83649063110352,12.58154296875,130.3025817871094,137.7957916259766,15,169236.38615975,-0.9684295654296875,0.0482940673828125,-0.2175140380859375,169236.38615975,-0.03678331466006543,-0.01419811071953944,-0.001332113177257635,169236.36748275,-91.92271423339844,-45.69851684570312,-548.1055908203125,169236.38106275,0.004310966622744466,-1.310028705751608,-0.05067917265357805,-0.01038654148578644,-0.01604818366467953,0.0004997425712645054,0.01098763942718506,-0.0001508891582489014,0.04351729154586792,1,-0.01878045313060284,-0.6090169548988342,0.01714327558875084,0.7927495241165161,-0.9649518728256226,0.0506574809551239,-0.2574912905693054,0,0,0,-1,169234.837590625,3,1,1561841418.784089,1561841239.621676,8,3.056457,0,0,7.575853,0,0,1561841413.282218,169233.948852,0,-0.1293945,75.19416,0,182478453,3,1,1,-37.61968,-43.12166,2
1561841420.111455,103,0,0,1561841419.997625,4.634511885237539,-74.15090848698667,2552.437,0.58,74.1796875,4,10,-9999,1561841420.109902,-19.62941741943359,-19.7303352355957,12.263427734375,130.3576049804688,137.8508148193359,15,169236.40639275,-0.976470947265625,0.0413360595703125,-0.2332000732421875,169236.40639275,-0.1185804433290862,0.01251685712337242,-0.01015703008145321,169236.38759375,-92.1209716796875,-45.85600280761719,-548.0146484375,169236.40132675,0.00304185534328606,-1.310503332281971,-0.05079754844442274,-0.1048523262143135,-0.005804600659757853,-0.01614927500486374,-0.008015334606170654,-0.005304515361785889,0.03283435106277466,1,-0.01920987106859684,-0.6091921925544739,0.01668083108961582,0.7926144003868103,-0.9650681614875793,0.05077570676803589,-0.2570317089557648,0,0,0,-1,169234.837590625,3,1,1561841418.784089,1561841239.621676,8,3.056457,0,0,7.575853,0,0,1561841413.282218,169233.948852,0,-0.1293945,75.19416,0,182478453,3,1,1,-37.61968,-43.11815,2
1561841420.131766,104,0,0,1561841419.997625,4.634511885237539,-74.15090848698667,2552.437,0.58,74.1796875,4,10,-9999,1561841420.109902,-19.62941741943359,-19.7303352355957,12.263427734375,130.3576049804688,137.8508148193359,15,169236.42665675,-0.9761199951171875,0.0453948974609375,-0.25421142578125,169236.42665675,-0.1294093889535664,0.0948191874511812,-0.002113750957195891,169236.40767475,-92.33523559570312,-45.76603698730469,-547.9126586914062,169236.42159075,0.0005098026113618627,-1.310124901512264,-0.05122773591648521,-0.1361138522624969,0.07251230627298355,-0.006542720831930637,-0.01529020071029663,-0.009609870612621307,0.01357108354568481,1,-0.02015459164977074,-0.609014093875885,0.01580455899238586,0.7927457690238953,-0.9649496078491211,0.05120533332228661,-0.2573912441730499,0,0,0,-1,169234.837590625,3,1,1561841418.784089,1561841239.621676,8,3.056457,0,0,7.575853,0,0,1561841413.282218,169233.948852,0,-0.1293945,75.19416,0,182478453,3,1,1,-37.61968,-39.82568,2
1561841420.168937,105,0,0,1561841419.997625,4.634511885237539,-74.15090848698667,2552.437,0.58,74.1796875,4,10,-9999,1561841420.160596,-19.56114959716797,-19.76923370361328,12.3033447265625,130.6260986328125,138.1193084716797,15,169236.44691975,-0.95574951171875,0.0503082275390625,-0.2671661376953125,169236.44691975,-0.03893355092419541,0.07508329956093099,0.01597763495993039,169236.42778575,-92.21730041503906,-45.80535888671875,-548.3129272460938,169236.44185375,-0.001718483140367265,-1.308416822318159,-0.05177628674785242,-0.07081500440835953,0.09062659740447998,0.006820222828537226,-1.150369644165039e-05,-0.004054181277751923,-0.003739833831787109,1,-0.02106341347098351,-0.6083095073699951,0.01507037505507469,0.7932772040367126,-0.9644812345504761,0.05175315588712692,-0.259031742811203,0,0,0,-1,169234.837590625,3,1,1561841418.784089,1561841239.621676,8,3.056457,0,0,7.575853,0,0,1561841413.282218,169233.948852,0,-0.1293945,75.19416,0,182478453,3,1,1,-37.61968,-40.81278,2
1561841420.172102,106,0,0,1561841419.997625,4.634511885237539,-74.15090848698667,2552.437,0.58,74.1796875,4,10,-9999,1561841420.160596,-19.56114959716797,-19.76923370361328,12.3033447265625,130.6260986328125,138.1193084716797,15,169236.46718375,-0.9562530517578125,0.0572662353515625,-0.2598114013671875,169236.46718375,0.0806493062391966,-0.00550022659934065,0.02941567950436122,169236.44789675,-92.17192077636719,-45.85647583007812,-548.35302734375,169236.46211775,-0.001783636854136358,-1.307580962778522,-0.05217529548176054,0.054229736328125,0.00359955383464694,0.02578485757112503,0.01185190677642822,0.001544050872325897,-0.005807816982269287,1,-0.02124782279133797,-0.6079739332199097,0.01515701971948147,0.7935279011726379,-0.9642444252967834,0.0521516278386116,-0.2598324418067932,0,0,0,-1,169234.837590625,3,1,1561841418.784089,1561841239.621676,8,3.056457,0,0,7.575853,0,0,1561841413.282218,169233.948852,0,-0.1293945,75.19416,0,182478453,3,1,1,-37.61968,-40.81278,2
1561841420.192564,107,0,0,1561841419.997625,4.634511885237539,-74.15090848698667,2552.437,0.58,74.1796875,4,10,-9999,1561841420.186622,-19.261474609375,-19.61264038085938,12.25909423828125,130.5172576904297,138.0104675292969,15,169236.48744775,-0.9730072021484375,0.0472869873046875,-0.25811767578125,169236.48744775,0.07530247771864451,0.002223473194107156,0.00714472857246458,169236.46800775,-91.93338012695312,-45.654052734375,-548.1260986328125,169236.48238175,2.595283828761017e-05,-1.30788733491868,-0.05214260966100977,0.09122130274772644,-0.01392830722033978,0.0117673110216856,0.001618146896362305,0.000783238559961319,0.003082990646362305,1,-0.02068232372403145,-0.6081147193908691,0.01586822606623173,0.7934210300445557,-0.9643256068229675,0.05211898311972618,-0.2595374584197998,0,0,0,-1,169234.837590625,3,1,1561841418.784089,1561841239.621676,8,3.056457,0,0,7.575853,0,0,1561841413.282218,169233.948852,0,-0.1293945,75.19416,0,182478453,3,1,1,-37.61968,-38.38564,2
1561841420.213082,108,0,0,1561841419.997625,4.634511885237539,-74.15090848698667,2552.437,0.58,74.1796875,4,10,-9999,1561841420.186622,-19.261474609375,-19.61264038085938,12.25909423828125,130.5172576904297,138.0104675292969,15,169236.50771075,-0.9724884033203125,0.0395050048828125,-0.263519287109375,169236.50771075,-0.03167244221209436,0.05641853506111064,-0.03491990084533698,169236.48811875,-92.04093933105469,-45.74797058105469,-548.1600341796875,169236.50264475,0.0009016113773529606,-1.30768182015407,-0.05174055996985932,-0.008177715353667736,0.03802517056465149,-0.02895268797874451,-0.01194953918457031,-0.009954169392585754,-0.002618551254272461,1,-0.02025822550058365,-0.6080452799797058,0.01609127968549728,0.7934807538986206,-0.9642924666404724,0.05171747878193855,-0.2597410976886749,0,0,0,-1,169234.837590625,3,1,1561841418.784089,1561841239.621676,8,3.056457,0,0,7.575853,0,0,1561841413.282218,169233.948852,0,-0.1293945,75.19416,0,182478453,3,1,1,-37.61968,-38.84977,2
1561841420.24944,109,0,0,1561841419.997625,4.634511885237539,-74.15090848698667,2552.437,0.58,74.1796875,4,10,-9999,1561841420.239149,-19.48711395263672,-19.75735473632812,12.20928955078125,130.5756988525391,138.0689086914062,15,169236.52797475,-0.9694976806640625,0.0446929931640625,-0.2609710693359375,169236.52797475,-0.07131838872788597,0.07907031802888861,-0.04047312435037021,169236.50822975,-92.24928283691406,-45.85653686523438,-548.22119140625,169236.52287875,-0.0002675122831199048,-1.306497304708484,-0.05114581355610854,-0.07263074070215225,0.07522393763065338,-0.04739747568964958,-0.007574558258056641,-0.009375467896461487,0.0001031160354614258,1,-0.02038684487342834,-0.6075679659843445,0.01543455384671688,0.7938559651374817,-0.9640135765075684,0.05112351849675179,-0.2608910799026489,0,0,0,-1,169234.837590625,3,1,1561841418.784089,1561841239.621676,8,3.056457,0,0,7.575853,0,0,1561841413.282218,169233.948852,0,-0.1293945,75.19416,0,182478453,3,1,1,-37.61968,-39.62311,2
1561841420.253247,110,0,0,1561841419.997625,4.634511885237539,-74.15090848698667,2552.437,0.58,74.1796875,4,10,-9999,1561841420.239149,-19.48711395263672,-19.75735473632812,12.20928955078125,130.5756988525391,138.0689086914062,15,169236.54820775,-0.96661376953125,0.0494842529296875,-0.2637481689453125,169236.54820775,-0.01199301333695383,0.08410182827637531,-0.0145126300442778,169236.52831075,-92.09983825683594,-45.86148071289062,-548.2172241210938,169236.54314175,-0.001677222038596305,-1.305003581932386,-0.05074099138391538,-0.03484448045492172,0.08158356696367264,-0.02434302307665348,-0.004252851009368896,-0.001952130347490311,-0.002358078956604004,1,-0.02066541649401188,-0.6069636344909668,0.01473658438771963,0.7943241596221924,-0.9636426568031311,0.05071922019124031,-0.2623361647129059,0,0,0,-1,169234.837590625,3,1,1561841418.784089,1561841239.621676,8,3.056457,0,0,7.575853,0,0,1561841413.282218,169233.948852,0,-0.1293945,75.19416,0,182478453,3,1,1,-37.61968,-39.62311,2
1561841420.273425,111,0,0,1561841419.997625,4.634511885237539,-74.15090848698667,2552.437,0.58,74.1796875,4,10,-9999,1561841420.261851,-19.30112457275391,-19.8618278503418,12.33709716796875,130.6220245361328,138.115234375,15,169236.56847175,-0.96270751953125,0.04534912109375,-0.264923095703125,169236.56847175,0.09204124411811955,0.05107277180499459,0.00674445546062567,169236.54842175,-92.06727600097656,-45.88749694824219,-548.1653442382812,169236.56340575,-0.001492003549964817,-1.30356739854654,-0.05043174226140748,0.06544510275125504,0.05267655104398727,-0.001786314998753369,-0.0005413293838500977,-0.002345182001590729,0.0007693171501159668,1,-0.02049694955348969,-0.6063974499702454,0.01470157317817211,0.7947615385055542,-0.9632800817489624,0.05041036754846573,-0.2637240290641785,0,0,0,-1,169234.837590625,3,1,1561841418.784089,1561841239.621676,8,3.056457,0,0,7.575853,0,0,1561841413.282218,169233.948852,0,-0.1293945,75.19416,0,182478453,3,1,1,-37.61968,-40.07224,2
1561841420.293799,112,0,0,1561841419.997625,4.634511885237539,-74.15090848698667,2552.437,0.58,74.1796875,4,10,-9999,1561841420.288122,-19.41545104980469,-19.80150604248047,12.17572021484375,130.5010375976562,137.9942474365234,15,169236.58873575,-0.9653472900390625,0.03936767578125,-0.2566986083984375,169236.58873575,0.1256356896889241,0.05596686294023321,0.007559915386407934,169236.56853275,-91.98310852050781,-45.95956420898438,-548.3230590820312,169236.58366975,0.0005585651747712315,-1.302490951080017,-0.04995011117931886,0.1262709051370621,0.05037877708673477,0.005987185519188643,0.0005707144737243652,-0.008181296288967133,0.003109455108642578,1,-0.01969208940863609,-0.605993926525116,0.01535979472100735,0.7950770854949951,-0.9630188345909119,0.04992934316396713,-0.2647671699523926,0,0,0,-1,169234.837590625,3,1,1561841418.784089,1561841239.621676,8,3.056457,0,0,7.575853,0,0,1561841413.282218,169233.948852,0,-0.1293945,75.19416,0,182478453,3,1,1,-37.61968,-40.41805,2
1561841420.327942,113,0,0,1561841419.997625,4.634511885237539,-74.15090848698667,2552.437,0.58,74.1796875,4,10,-9999,1561841420.315091,-19.41383361816406,-19.82059860229492,12.30230712890625,130.3509063720703,137.8441162109375,15,169236.60899875,-0.96978759765625,0.0352783203125,-0.2469940185546875,169236.60899875,0.06899850910231795,0.07725670532654465,-0.0193758285108715,169236.58864375,-92.01747131347656,-45.93940734863281,-548.145263671875,169236.60393275,0.002796118575961976,-1.30127744630574,-0.04926290501382227,0.09206712245941162,0.06578116863965988,-0.01615992747247219,-0.004295945167541504,-0.01191998273134232,0.0130150318145752,1,-0.0187506340444088,-0.6055378317832947,0.0160297118127346,0.7954341173171997,-0.9627297520637512,0.04924298077821732,-0.2659446895122528,0,0,0,-1,169234.837590625,3,1,1561841418.784089,1561841239.621676,8,3.056457,0,0,7.575853,0,0,1561841413.282218,169233.948852,0,-0.1293945,75.19416,0,182478453,3,1,1,-37.61968,-40.0859,2
1561841420.334355,114,0,0,1561841419.997625,4.634511885237539,-74.15090848698667,2552.437,0.58,74.1796875,4,10,-9999,1561841420.315091,-19.41383361816406,-19.82059860229492,12.30230712890625,130.3509063720703,137.8441162109375,15,169236.62926275,-0.976806640625,0.0377197265625,-0.2326202392578125,169236.62926275,-0.01207610396296431,0.08934292930165126,-0.06517980241525333,169236.60875475,-92.01777648925781,-45.68251037597656,-548.1070556640625,169236.62419675,0.003509545762220449,-1.299680628651335,-0.04834067689051953,0.003325275843963027,0.08401583135128021,-0.05563170462846756,-0.01276576519012451,-0.01249421387910843,0.02738136053085327,1,-0.01818061619997025,-0.6049153804779053,0.01601974852383137,0.7959209680557251,-0.962347149848938,0.04832185059785843,-0.2674936950206757,0,0,0,-1,169234.837590625,3,1,1561841418.784089,1561841239.621676,8,3.056457,0,0,7.575853,0,0,1561841413.282218,169233.948852,0,-0.1293945,75.19416,0,182478453,3,1,1,-37.61968,-40.0859,2
1561841420.354579,115,0,0,1561841419.997625,4.634511885237539,-74.15090848698667,2552.437,0.58,74.1796875,4,10,-9999,1561841420.338756,-19.37618255615234,-19.73608779907227,12.22900390625,130.3433685302734,137.8365783691406,15,169236.64952675,-0.9608001708984375,0.0442657470703125,-0.2251129150390625,169236.64952675,0.01568575250445771,0.06419816123745012,-0.1023825649470062,169236.62886575,-92.31690979003906,-45.84779357910156,-548.3201293945312,169236.64446075,0.002867452707060575,-1.298160768461957,-0.04683667318832916,-0.001455098274163902,0.06734204292297363,-0.0997815877199173,-0.01040375232696533,-0.005575045943260193,0.04255008697509766,1,-0.01778787560760975,-0.6043144464492798,0.01529585104435682,0.7964004278182983,-0.9620084166526794,0.04681955277919769,-0.2689752876758575,0,0,0,-1,169234.837590625,3,1,1561841418.784089,1561841239.621676,8,3.056457,0,0,7.575853,0,0,1561841413.282218,169233.948852,0,-0.1293945,75.19416,0,182478453,3,1,1,-37.61968,-40.78061,2
1561841420.374855,116,0,0,1561841419.997625,4.634511885237539,-74.15090848698667,2552.437,0.58,74.1796875,4,10,-9999,1561841420.363715,-19.52642059326172,-19.65492248535156,12.1390380859375,130.3741455078125,137.8673553466797,15,169236.66978975,-0.9457244873046875,0.045654296875,-0.228271484375,169236.66978975,0.0592904879806521,0.02636476215956644,-0.06583707057228488,169236.64894675,-92.39768981933594,-45.92050170898438,-548.2818603515625,169236.66469375,0.002924274575202758,-1.297179963352703,-0.04473571172486489,0.05808892101049423,0.03150362148880959,-0.0829128623008728,0.01393020153045654,0.0009487643837928772,0.04408407211303711,1,-0.01694124937057495,-0.6039376258850098,0.01467539928853512,0.7967163324356079,-0.9618366956710815,0.04472079128026962,-0.2699446678161621,0,0,0,-1,169234.837590625,3,1,1561841418.784089,1561841239.621676,8,3.056457,0,0,7.575853,0,0,1561841413.282218,169233.948852,0,-0.1293945,75.19416,0,182478453,3,1,1,-37.61968,-41.40392,2
1561841420.412131,117,0,0,1561841419.997625,4.634511885237539,-74.15090848698667,2552.437,0.58,74.1796875,4,10,-9999,1561841420.389504,-19.47233581542969,-19.72455978393555,12.165283203125,130.3322448730469,137.8254547119141,15,169236.69002275,-0.9542236328125,0.0484466552734375,-0.2348175048828125,169236.69002275,0.01549933122815216,0.03608556645446467,-0.001404284842798782,169236.66905775,-92.11819458007812,-45.64649963378906,-548.2861328125,169236.68495675,0.003611328029223354,-1.296786888823977,-0.04340539069764484,0.03326107189059258,0.02208348922431469,-0.02076346799731255,0.01146972179412842,0.003742635250091553,0.03838980197906494,1,-0.0162066612392664,-0.6037946939468384,0.01454422436654568,0.7968424558639526,-0.9617870450019836,0.04339176416397095,-0.2703386247158051,0,0,0,-1,169234.837590625,3,1,1561841418.784089,1561841239.621676,8,3.056457,0,0,7.575853,0,0,1561841413.282218,169233.948852,0,-0.1293945,75.19416,0,182478453,3,1,1,-37.61968,-42.17255,2
1561841420.415302,118,0,0,1561841419.997625,4.634511885237539,-74.15090848698667,2552.437,0.58,74.1796875,4,10,-9999,1561841420.389504,-19.47233581542969,-19.72455978393555,12.165283203125,130.3322448730469,137.8254547119141,15,169236.71028675,-0.96038818359375,0.04986572265625,-0.2448272705078125,169236.71028675,-0.05782841254219859,0.06949545496172672,0.02428163755490646,169236.68916875,-92.20068359375,-45.90242004394531,-548.1595458984375,169236.70522075,0.003565406917205898,-1.296004919883734,-0.04351937316900524,-0.04285473376512527,0.06154061853885651,0.02265351451933384,0.005271673202514648,0.005063086748123169,0.03236550092697144,1,-0.01627163216471672,-0.6034820675849915,0.01455397717654705,0.7970776557922363,-0.9615705013275146,0.04350563883781433,-0.2710892558097839,0,0,0,-1,169234.837590625,3,1,1561841418.784089,1561841239.621676,8,3.056457,0,0,7.575853,0,0,1561841413.282218,169233.948852,0,-0.1293945,75.19416,0,182478453,3,1,1,-37.61968,-42.17255,2
1561841420.435642,119,0,0,1561841419.997625,4.634511885237539,-74.15090848698667,2552.437,0.58,74.1796875,4,10,-9999,1561841420.41625,-19.58839416503906,-19.75489807128906,12.2313232421875,130.3457794189453,137.8389892578125,15,169236.73055075,-0.95849609375,0.0455474853515625,-0.2420654296875,169236.73055075,-0.1003013045551093,0.04275092603071499,-0.01878726990996398,169236.70927975,-92.22175598144531,-45.76763916015625,-548.0341186523438,169236.72548475,0.002171964713148729,-1.294975511404499,-0.04409912995564562,-0.09881898015737534,0.04523219168186188,-0.01058579050004482,0.002999246120452881,0.003522582352161407,0.02553576231002808,1,-0.01693044602870941,-0.6030566692352295,0.01416484359651804,0.7973927855491638,-0.9612664580345154,0.04408483952283859,-0.2720720171928406,0,0,0,-1,169234.837590625,3,1,1561841418.784089,1561841239.621676,8,3.056457,0,0,7.575853,0,0,1561841413.282218,169233.948852,0,-0.1293945,75.19416,0,182478453,3,1,1,-37.61968,-42.7277,2
1561841420.455751,120,0,0,1561841419.997625,4.634511885237539,-74.15090848698667,2552.437,0.58,74.1796875,4,10,-9999,1561841420.439988,-19.36964416503906,-19.81090927124023,12.224609375,130.4718780517578,137.965087890625,15,169236.75081375,-0.96246337890625,0.0440826416015625,-0.245574951171875,169236.75081375,-0.08553460894283794,-0.0223369973269306,-0.03129746913061121,169236.72939075,-91.81695556640625,-46.12525939941406,-548.3002319335938,169236.74574775,9.12322184915088e-05,-1.294795087118734,-0.04411594064746702,-0.09245216101408005,-0.01537629403173923,-0.03529060259461403,0.001911938190460205,0.002315603196620941,0.03165996074676514,1,-0.01756574213504791,-0.6029666662216187,0.01333873718976974,0.7974614500999451,-0.9612167477607727,0.04410163313150406,-0.2722452878952026,0,0,0,-1,169234.837590625,3,1,1561841418.784089,1561841239.621676,8,3.056457,0,0,7.575853,0,0,1561841413.282218,169233.948852,0,-0.1293945,75.19416,0,182478453,3,1,1,-37.61968,-42.99088,2
1561841420.485607,121,0,0,1561841419.997625,4.634511885237539,-74.15090848698667,2552.437,0.58,74.1796875,4,10,-9999,1561841420.467272,-19.45789337158203,-19.8234977722168,12.0653076171875,130.6183471679688,138.1115570068359,15,169236.77107775,-0.97113037109375,0.032318115234375,-0.2569122314453125,169236.77107775,-0.07912917388897936,0.0124524086249925,-0.02211329179536395,169236.74947175,-91.97671508789062,-46.10047912597656,-548.3966064453125,169236.76601175,-0.001780056080677576,-1.295404964010474,-0.04397380475467465,-0.08351992070674896,-0.006763364654034376,-0.02819647639989853,-0.007102012634277344,-0.007735267281532288,0.02192008495330811,1,-0.01806939579546452,-0.6031941175460815,0.012555249966681,0.7972908616065979,-0.9613885879516602,0.04395963251590729,-0.271660715341568,0,0,0,-1,169234.837590625,3,1,1561841418.784089,1561841239.621676,8,3.056457,0,0,7.575853,0,0,1561841413.282218,169233.948852,0,-0.1293945,75.19416,0,182478453,3,1,1,-37.61968,-43.32687,2
