loggingTime,loggingSample,identifierForVendor,deviceID,locationTimestamp_since1970,locationLatitude,locationLongitude,locationAltitude,locationSpeed,locationCourse,locationVerticalAccuracy,locationHorizontalAccuracy,locationFloor,locationHeadingTimestamp_since1970,locationHeadingX,locationHeadingY,locationHeadingZ,locationTrueHeading,locationMagneticHeading,locationHeadingAccuracy,accelerometerTimestamp_sinceReboot,accelerometerAccelerationX,accelerometerAccelerationY,accelerometerAccelerationZ,gyroTimestamp_sinceReboot,gyroRotationX,gyroRotationY,gyroRotationZ,magnetometerTimestamp_sinceReboot,magnetometerX,magnetometerY,magnetometerZ,motionTimestamp_sinceReboot,motionYaw,motionRoll,motionPitch,motionRotationRateX,motionRotationRateY,motionRotationRateZ,motionUserAccelerationX,motionUserAccelerationY,motionUserAccelerationZ,motionAttitudeReferenceFrame,motionQuaternionX,motionQuaternionY,motionQuaternionZ,motionQuaternionW,motionGravityX,motionGravityY,motionGravityZ,motionMagneticFieldX,motionMagneticFieldY,motionMagneticFieldZ,motionMagneticFieldCalibrationAccuracy,activityTimestamp_sinceReboot,activity,activityActivityConfidence,activityActivityStartDate,pedometerStartDate,pedometerNumberofSteps,pedometerAverageActivePace,pedometerCurrentPace,pedometerCurrentCadence,pedometerDistance,pedometerFloorAscended,pedometerFloorDescended,pedometerEndDate,altimeterTimestamp_sinceReboot,altimeterReset,altimeterRelativeAltitude,altimeterPressure,IP_en0,IP_pdp_ip0,deviceOrientation,batteryState,batteryLevel,avAudioRecorderPeakPower,avAudioRecorderAveragePower,label
1561841423.860049,1,0,0,1561841422.997582,4.634549687620843,-74.15094033821872,2552.68,0.64,87.5390625,4,30,-9999,1561841423.857915,-20.58814239501953,-19.50201416015625,10.9505615234375,131.5458374023438,139.0390472412109,15,169240.154402,-0.9458465576171875,0.068939208984375,-0.30548095703125,169240.154402,-0.04308808222471902,0.0655321386274708,0.005877862841913887,169240.126936,-93.3736572265625,-45.79605102539062,-549.4581298828125,169240.149336,-0.01560951485992808,-1.244792782371815,-0.08530751938423758,-0.0503576435148716,0.06482243537902832,0.01344587840139866,-0.001610696315765381,-0.01718040555715561,0.01369035243988037,1,-0.03918978571891785,-0.5821654796600342,0.01852274872362614,0.8119140863418579,-0.9438849091529846,0.08520408719778061,-0.3190950155258179,0,0,0,-1,169234.837590625,3,1,1561841418.784089,1561841239.621676,8,3.056457,0,0,7.575853,0,0,1561841413.282218,169237.718956,0,-0.04492188,75.19337,0,182478453,3,1,1,-35.85878,-38.33306,3
1561841423.879491,2,0,0,1561841422.997582,4.634549687620843,-74.15094033821872,2552.68,0.64,87.5390625,4,30,-9999,1561841423.857915,-20.58814239501953,-19.50201416015625,10.9505615234375,131.5458374023438,139.0390472412109,15,169240.174666,-0.9427032470703125,0.07220458984375,-0.2998199462890625,169240.174666,0.01925998100345305,0.02482678663004568,-0.01197996384761245,169240.147047,-93.47036743164062,-45.52604675292969,-549.59375,169240.169569,-0.01619997575777076,-1.24390513944856,-0.08543229123495819,0.00106240133754909,0.02674722671508789,-0.01278359536081553,0.0008269548416137695,-0.01597720384597778,0.01704233884811401,1,-0.03942041099071503,-0.5817915201187134,0.01830190606415272,0.8121759295463562,-0.9435911774635315,0.08532840758562088,-0.319929301738739,0,0,0,-1,169234.837590625,3,1,1561841418.784089,1561841239.621676,8,3.056457,0,0,7.575853,0,0,1561841413.282218,169237.718956,0,-0.04492188,75.19337,0,182478453,3,1,1,-35.85878,-39.01932,3
1561841423.899651,3,0,0,1561841422.997582,4.634549687620843,-74.15094033821872,2552.68,0.64,87.5390625,4,30,-9999,1561841423.883645,-21.00439453125,-19.83906173706055,10.843505859375,131.5674438476562,139.0606536865234,15,169240.194899,-0.942626953125,0.0832366943359375,-0.3076629638671875,169240.194899,0.04278075343492387,0.01790762780191081,-0.007237939210617354,169240.167158,-93.525390625,-45.89897155761719,-549.6580810546875,169240.189833,-0.0157678341706871,-1.24355416320989,-0.08498680372249869,0.04242448881268501,0.01150995120406151,-0.009392059408128262,0.0007047057151794434,-0.006774790585041046,0.02043747901916504,1,-0.03911710157990456,-0.5816644430160522,0.018340814858675,0.8122807145118713,-0.9435147643089294,0.08488453179597855,-0.3202726542949677,0,0,0,-1,169234.837590625,3,1,1561841418.784089,1561841239.621676,8,3.056457,0,0,7.575853,0,0,1561841413.282218,169237.718956,0,-0.04492188,75.19337,0,182478453,3,1,1,-35.85878,-39.01932,3
1561841423.91985,4,0,0,1561841422.997582,4.634549687620843,-74.15094033821872,2552.68,0.64,87.5390625,4,30,-9999,1561841423.908128,-21.02012634277344,-19.80612564086914,10.91619873046875,131.5242004394531,139.0174102783203,15,169240.215162,-0.9447021484375,0.08990478515625,-0.3110198974609375,169240.215162,-0.005052282903989323,0.05596180293416206,-0.030315827952808,169240.187269,-93.48301696777344,-45.97465515136719,-549.3223876953125,169240.210096,-0.01525194217705164,-1.243120098386189,-0.08441152724333691,0.009531253017485142,0.03648853674530983,-0.0298435389995575,0.002259612083435059,0.001961871981620789,0.009220123291015625,1,-0.03873751685023308,-0.5815070867538452,0.01837446913123131,0.8124107718467712,-0.9434216618537903,0.08431132137775421,-0.3206978142261505,0,0,0,-1,169234.837590625,3,1,1561841418.784089,1561841239.621676,8,3.056457,0,0,7.575853,0,0,1561841413.282218,169237.718956,0,-0.04492188,75.19337,0,182478453,3,1,1,-35.85878,-39.90442,3
1561841423.940124,5,0,0,1561841422.997582,4.634549687620843,-74.15094033821872,2552.68,0.64,87.5390625,4,30,-9999,1561841423.934887,-20.87713623046875,-19.68199157714844,10.84039306640625,131.5499420166016,139.0431518554688,15,169240.235426,-0.94439697265625,0.088287353515625,-0.310028076171875,169240.235426,-0.02766145529432602,0.0619962596481726,-0.01581917687507068,169240.20738,-93.64906311035156,-45.87577819824219,-549.598388671875,169240.23036,-0.01576562065724015,-1.242086087428735,-0.0838766370259424,-0.03246626257896423,0.06182399019598961,-0.02562429197132587,-0.003553628921508789,0.003898680210113525,0.01104927062988281,1,-0.03867899999022484,-0.5810852646827698,0.01799014769494534,0.8127239942550659,-0.943132221698761,0.08377832174301147,-0.3216876983642578,0,0,0,-1,169234.837590625,3,1,1561841418.784089,1561841239.621676,8,3.056457,0,0,7.575853,0,0,1561841413.282218,169237.718956,0,-0.04492188,75.19337,0,182478453,3,1,1,-35.85878,-40.6757,3
1561841423.960474,6,0,0,1561841422.997582,4.634549687620843,-74.15094033821872,2552.68,0.64,87.5390625,4,30,-9999,1561841423.9589,-20.95633697509766,-19.64464569091797,10.54437255859375,131.5799560546875,139.0731658935547,15,169240.25569,-0.93804931640625,0.09613037109375,-0.3085174560546875,169240.25569,0.0157123841153585,0.04321910975035092,0.01322046428337135,169240.227461,-93.48585510253906,-45.70335388183594,-549.9071655273438,169240.250624,-0.01623122097828528,-1.241123769349135,-0.08376015188462103,-0.001021788455545902,0.03856047615408897,0.002769531449303031,0.001455724239349365,0.008149884641170502,0.01150214672088623,1,-0.03877550736069679,-0.5806869268417358,0.01774841360747814,0.8130093812942505,-0.9428314566612244,0.083662249147892,-0.3225983083248138,0,0,0,-1,169234.837590625,3,1,1561841418.784089,1561841239.621676,8,3.056457,0,0,7.575853,0,0,1561841413.282218,169237.718956,0,-0.04492188,75.19337,0,182478453,3,1,1,-35.85878,-41.39415,3
1561841423.980697,7,0,0,1561841422.997582,4.634549687620843,-74.15094033821872,2552.68,0.64,87.5390625,4,30,-9999,1561841423.9589,-20.95633697509766,-19.64464569091797,10.54437255859375,131.5799560546875,139.0731658935547,15,169240.275953,-0.9427032470703125,0.1009674072265625,-0.311981201171875,169240.275953,0.01954147713067443,0.04225637701628727,0.03830690911969976,169240.247572,-93.7652587890625,-46.06930541992188,-549.77587890625,169240.270887,-0.01578117915856446,-1.240420824051685,-0.08393303173469997,0.02210456877946854,0.03264639526605606,0.03007492050528526,0.001932144165039062,0.01574433594942093,0.01519656181335449,1,-0.03872140124440193,-0.5804072022438049,0.01796799339354038,0.8132067918777466,-0.9425906538963318,0.08383452147245407,-0.323256254196167,0,0,0,-1,169234.837590625,3,1,1561841418.784089,1561841239.621676,8,3.056457,0,0,7.575853,0,0,1561841413.282218,169237.718956,0,-0.04492188,75.19337,0,182478453,3,1,1,-35.85878,-41.80312,3
1561841424.000904,8,0,0,1561841422.997582,4.634549687620843,-74.15094033821872,2552.68,0.64,87.5390625,4,30,-9999,1561841423.985036,-21.03596496582031,-19.77196884155273,10.726806640625,131.5453033447266,139.0385131835938,15,169240.296217,-0.934356689453125,0.09893798828125,-0.30810546875,169240.296217,0.006309294938506723,0.0646346533401141,0.05475512464424715,169240.267683,-93.73100280761719,-45.81663513183594,-549.9556274414062,169240.291151,-0.01526774580004543,-1.239504890175591,-0.08462178086596349,0.004526641219854355,0.05825987830758095,0.04904914647340775,0.00145876407623291,0.01548527926206589,0.01161593198776245,1,-0.03886072710156441,-0.580034077167511,0.01835902035236359,0.8134576082229614,-0.9422394037246704,0.08452082425355911,-0.3241006135940552,0,0,0,-1,169234.837590625,3,1,1561841418.784089,1561841239.621676,8,3.056457,0,0,7.575853,0,0,1561841413.282218,169237.718956,0,-0.04492188,75.19337,0,182478453,3,1,1,-35.85878,-41.85473,3
1561841424.021138,9,0,0,1561841422.997582,4.634549687620843,-74.15094033821872,2552.68,0.64,87.5390625,4,30,-9999,1561841424.009813,-21.24273681640625,-19.77116775512695,10.60931396484375,131.5166931152344,139.0099029541016,15,169240.316481,-0.932861328125,0.0909576416015625,-0.3018341064453125,169240.316481,0.002939064579011447,0.05524195049151364,0.03647332270918021,169240.287794,-93.73493957519531,-45.97178649902344,-549.6077270507812,169240.311384,-0.01487172141883422,-1.238384605098445,-0.08552453956952813,0.003195327008143067,0.04890632629394531,0.04014167189598083,0.0108797550201416,0.009519875049591064,0.01821571588516235,1,-0.03912339359521866,-0.5795721411705017,0.01876022852957249,0.8137651085853577,-0.9418032169342041,0.08542031794786453,-0.3251309990882874,0,0,0,-1,169234.837590625,3,1,1561841418.784089,1561841239.621676,8,3.056457,0,0,7.575853,0,0,1561841413.282218,169237.718956,0,-0.04492188,75.19337,0,182478453,3,1,1,-35.85878,-42.58121,3
1561841424.041472,10,0,0,1561841422.997582,4.634549687620843,-74.15094033821872,2552.68,0.64,87.5390625,4,30,-9999,1561841424.035629,-21.02414703369141,-19.7484130859375,10.6685791015625,131.5037994384766,138.9970092773438,15,169240.336714,-0.9335174560546875,0.074310302734375,-0.2993316650390625,169240.336714,-0.006786799721957931,0.04085688586345063,0.02101633574236031,169240.307875,-93.67861938476562,-45.56488037109375,-549.95849609375,169240.331648,-0.01470997640726104,-1.237438493414936,-0.08609862706967107,-0.004902813117951155,0.03973732888698578,0.02146705240011215,0.008373677730560303,-0.003457501530647278,0.02882558107376099,1,-0.0393189825117588,-0.579181432723999,0.01897395402193069,0.814028799533844,-0.9414486885070801,0.08599229156970978,-0.326005756855011,0,0,0,-1,169234.837590625,3,1,1561841418.784089,1561841239.621676,8,3.056457,0,0,7.575853,0,0,1561841413.282218,169237.718956,0,-0.04492188,75.19337,0,182478453,3,1,1,-35.85878,-40.4101,3
1561841424.061753,11,0,0,1561841423.997567,4.634557776157403,-74.15094628936997,2552.766,0.65,87.1875,4,30,-9999,1561841424.060245,-21.02042388916016,-19.48662567138672,10.656005859375,131.5254821777344,139.0186920166016,15,169240.356978,-0.942047119140625,0.0682220458984375,-0.302459716796875,169240.356978,-0.04632488821360133,0.02926015089670059,0.01130325461462331,169240.327986,-93.87165832519531,-45.53604125976562,-549.9693603515625,169240.351912,-0.01491182358467554,-1.236871040811065,-0.08658516644045043,-0.03356081992387772,0.02749823778867722,0.01390181109309196,0.00422745943069458,-0.01642391830682755,0.0276828408241272,1,-0.03958076983690262,-0.578938901424408,0.01902158930897713,0.8141875863075256,-0.9412239789962769,0.08647701889276505,-0.3265262246131897,0,0,0,-1,169240.347456,2,0,1561841424.293955,1561841239.621676,8,3.056457,0,0,7.575853,0,0,1561841413.282218,169237.718956,0,-0.04492188,75.19337,0,182478453,3,1,1,-35.85878,-40.4101,3
1561841424.082006,12,0,0,1561841423.997567,4.634557776157403,-74.15094628936997,2552.766,0.65,87.1875,4,30,-9999,1561841424.060245,-21.02042388916016,-19.48662567138672,10.656005859375,131.5254821777344,139.0186920166016,15,169240.377241,-0.9504547119140625,0.0780029296875,-0.307098388671875,169240.377241,-0.07256048706029893,0.05229010273926981,-0.01223988837000418,169240.348097,-93.85240173339844,-45.68061828613281,-549.9009399414062,169240.372175,-0.01601213146321822,-1.236423523258093,-0.08700104796363296,-0.07336363196372986,0.04097782820463181,-0.01264005061239004,-0.004589259624481201,-0.01628892123699188,0.02223283052444458,1,-0.04007267206907272,-0.5787282586097717,0.01868519000709057,0.8143210411071777,-0.9410436749458313,0.08689133822917938,-0.3269355595111847,0,0,0,-1,169240.347456,2,0,1561841424.293955,1561841239.621676,8,3.056457,0,0,7.575853,0,0,1561841413.282218,169237.718956,0,-0.04492188,75.19337,0,182478453,3,1,1,-35.85878,-41.16558,3
1561841424.102134,13,0,0,1561841423.997567,4.634557776157403,-74.15094628936997,2552.766,0.65,87.1875,4,30,-9999,1561841424.086225,-21.1871337890625,-19.50606536865234,10.50628662109375,131.6236267089844,139.1168365478516,15,169240.397505,-0.937713623046875,0.0915679931640625,-0.314971923828125,169240.397505,-0.02872485551759466,0.01466949023248347,-0.007460845793856986,169240.388289,-93.6314697265625,-45.62904357910156,-550.0308837890625,169240.392439,-0.01742759807305886,-1.235793717004856,-0.08717107826728671,-0.04630058631300926,0.02285821177065372,-0.01690270751714706,-0.005572259426116943,-0.002359181642532349,0.01763254404067993,1,-0.04055715724825859,-0.5784405469894409,0.01814534515142441,0.814513623714447,-0.9408235549926758,0.08706071972846985,-0.3275232911109924,0,0,0,-1,169240.347456,2,0,1561841424.293955,1561841239.621676,8,3.056457,0,0,7.575853,0,0,1561841413.282218,169237.718956,0,-0.04492188,75.19337,0,182478453,3,1,1,-35.85878,-41.79357,3
1561841424.122275,14,0,0,1561841423.997567,4.634557776157403,-74.15094628936997,2552.766,0.65,87.1875,4,30,-9999,1561841424.111161,-21.08863830566406,-19.38534164428711,10.40814208984375,131.6873016357422,139.1805114746094,15,169240.417769,-0.9329071044921875,0.098785400390625,-0.321075439453125,169240.417769,0.009585782027631211,0.002741990658345583,0.01144386952017949,169240.4084,-93.61494445800781,-45.68510437011719,-549.7847900390625,169240.412703,-0.01775122340521574,-1.235874566737254,-0.08720161170651308,0.006955710239708424,-0.01276103407144547,0.007769882678985596,0.008153975009918213,0.009023971855640411,0.007515311241149902,1,-0.04066245630383492,-0.5784664154052734,0.01802403293550014,0.8144926428794861,-0.9408474564552307,0.08709114044904709,-0.3274463415145874,0,0,0,-1,169240.347456,2,0,1561841424.293955,1561841239.621676,8,3.056457,0,0,7.575853,0,0,1561841413.282218,169237.718956,0,-0.04492188,75.19337,0,182478453,3,1,1,-35.85878,-42.24379,3
1561841424.151321,15,0,0,1561841423.997567,4.634557776157403,-74.15094628936997,2552.766,0.65,87.1875,4,30,-9999,1561841424.136981,-20.94699859619141,-19.54047775268555,10.50299072265625,131.6917266845703,139.1849365234375,15,169240.438032,-0.9399871826171875,0.0927581787109375,-0.3190765380859375,169240.438032,-0.05595141660591075,0.04941122560089416,-0.01956970663822927,169240.428511,-93.67967224121094,-45.68943786621094,-550.1865844726562,169240.432966,-0.01787080203862651,-1.235652601328944,-0.08724825048814956,-0.03835797309875488,0.04400930553674698,-0.01385045703500509,0.005361378192901611,0.009923554956912994,0.007875382900238037,1,-0.04071802273392677,-0.5783728361129761,0.01798432320356369,0.8145571351051331,-0.9407708644866943,0.08713760226964951,-0.3276537954807281,0,0,0,-1,169240.347456,2,0,1561841424.293955,1561841239.621676,8,3.056457,0,0,7.575853,0,0,1561841413.282218,169237.718956,0,-0.04492188,75.19337,0,182478453,3,1,1,-35.85878,-42.6923,3
1561841424.162949,16,0,0,1561841423.997567,4.634557776157403,-74.15094628936997,2552.766,0.65,87.1875,4,30,-9999,1561841424.161875,-20.96913909912109,-19.4741325378418,10.34405517578125,131.8108062744141,139.3040161132812,15,169240.458296,-0.950164794921875,0.0886993408203125,-0.3097076416015625,169240.458296,-0.07637866111514553,0.04650704843216275,-0.06629247111868843,169240.448591,-93.90586853027344,-45.32107543945312,-549.8821411132812,169240.453199,-0.0194632068636412,-1.235014246096697,-0.08698377630435314,-0.08481203019618988,0.0398545078933239,-0.06133382022380829,-0.004820764064788818,0.003396868705749512,0.01080280542373657,1,-0.04107636585831642,-0.5780845880508423,0.01724608428776264,0.8147597312927246,-0.9405832886695862,0.08687412738800049,-0.3282618820667267,0,0,0,-1,169240.347456,2,0,1561841424.293955,1561841239.621676,8,3.056457,0,0,7.575853,0,0,1561841413.282218,169237.718956,0,-0.04492188,75.19337,0,182478453,3,1,1,-35.85878,-38.63449,3
1561841424.183207,17,0,0,1561841423.997567,4.634557776157403,-74.15094628936997,2552.766,0.65,87.1875,4,30,-9999,1561841424.161875,-20.96913909912109,-19.4741325378418,10.34405517578125,131.8108062744141,139.3040161132812,15,169240.478529,-0.9382476806640625,0.0896148681640625,-0.3060302734375,169240.478529,-0.03544081515455649,0.03464506262084081,-0.05324857441558933,169240.468702,-93.77890014648438,-45.68571472167969,-550.1159057617188,169240.473463,-0.02128555159019562,-1.23443725725957,-0.08608483916387895,-0.04937866702675819,0.03268128260970116,-0.06736321747303009,-0.005562543869018555,0.002751298248767853,0.02344083786010742,1,-0.04124178737401962,-0.577826976776123,0.01623163558542728,0.8149549961090088,-0.9404671192169189,0.08597855269908905,-0.32883021235466,0,0,0,-1,169240.347456,2,0,1561841424.293955,1561841239.621676,8,3.056457,0,0,7.575853,0,0,1561841413.282218,169237.718956,0,-0.04492188,75.19337,0,182478453,3,1,1,-35.85878,-36.78574,3
1561841424.203443,18,0,0,1561841423.997567,4.634557776157403,-74.15094628936997,2552.766,0.65,87.1875,4,30,-9999,1561841424.187534,-21.06117248535156,-19.58457183837891,10.49853515625,131.9247131347656,139.4179229736328,15,169240.498793,-0.9310760498046875,0.0983734130859375,-0.3066558837890625,169240.498793,0.01979394480201394,0.01656219881920278,0.02524809871449622,169240.488813,-93.31388854980469,-45.89718627929688,-550.15087890625,169240.493727,-0.02194750305687326,-1.234045079093605,-0.08554149803041283,0.007993544451892376,0.01481253653764725,0.0007593778427690268,0.005552351474761963,0.009365640580654144,0.02158194780349731,1,-0.04121487587690353,-0.5776626467704773,0.01579663716256618,0.8150814175605774,-0.9403820633888245,0.08543721586465836,-0.3292143940925598,0,0,0,-1,169240.347456,2,0,1561841424.293955,1561841239.621676,8,3.056457,0,0,7.575853,0,0,1561841413.282218,169237.718956,0,-0.04492188,75.19337,0,182478453,3,1,1,-34.04573,-37.12681,3
1561841424.232639,19,0,0,1561841423.997567,4.634557776157403,-74.15094628936997,2552.766,0.65,87.1875,4,30,-9999,1561841424.211945,-21.08535003662109,-19.5784797668457,10.45098876953125,131.9141082763672,139.4073181152344,15,169240.519056,-0.9224700927734375,0.1027984619140625,-0.305877685546875,169240.519056,0.008830509542484738,0.008178301391524333,0.08372365940158406,169240.508925,-93.76679992675781,-45.72433471679688,-549.9799194335938,169240.51399,-0.02132810240697135,-1.233787419416629,-0.08619528516902007,0.01638223603367805,0.008942397311329842,0.07059144973754883,0.01276934146881104,0.01500087976455688,0.02258396148681641,1,-0.0413043312728405,-0.5775594115257263,0.01623282581567764,0.815141499042511,-0.9402443170547485,0.08608859032392502,-0.3294381499290466,0,0,0,-1,169240.347456,2,0,1561841424.293955,1561841239.621676,8,3.056457,0,0,7.575853,0,0,1561841413.282218,169237.718956,0,-0.04492188,75.19337,0,182478453,3,1,1,-34.04573,-35.14897,3
1561841424.244204,20,0,0,1561841423.997567,4.634557776157403,-74.15094628936997,2552.766,0.65,87.1875,4,30,-9999,1561841424.23832,-21.10447692871094,-19.56649017333984,10.520751953125,131.8796081542969,139.3728179931641,15,169240.53932,-0.9256439208984375,0.1018218994140625,-0.3051910400390625,169240.53932,-0.05750004477979182,-0.02602307859170928,0.08975518663839553,169240.529036,-93.6531982421875,-45.45672607421875,-549.8722534179688,169240.534254,-0.02095445467779624,-1.233916432634398,-0.08788384326419038,-0.04360466822981834,-0.02611838467419147,0.09041788429021835,0.01850217580795288,0.01441735029220581,0.02482497692108154,1,-0.04188308864831924,-0.5775912404060364,0.01687605865299702,0.8150763511657715,-0.9401482939720154,0.08777076005935669,-0.3292683362960815,0,0,0,-1,169240.347456,2,0,1561841424.293955,1561841239.621676,8,3.056457,0,0,7.575853,0,0,1561841413.282218,169237.718956,0,-0.04492188,75.19337,0,182478453,3,1,1,-34.04573,-35.14897,3
1561841424.264266,21,0,0,1561841423.997567,4.634557776157403,-74.15094628936997,2552.766,0.65,87.1875,4,30,-9999,1561841424.262636,-21.05284118652344,-19.64177322387695,10.48614501953125,131.9576721191406,139.4508819580078,15,169240.559584,-0.935272216796875,0.0992279052734375,-0.321624755859375,169240.559584,-0.1244359356178434,0.004639226618918033,0.04060681503709219,169240.549116,-93.81050109863281,-45.615966796875,-550.2207641601562,169240.554518,-0.02189939211249611,-1.234661466597633,-0.08984045525039998,-0.1075943037867546,-0.01872092112898827,0.05342685058712959,0.01280015707015991,0.01370441913604736,0.01701760292053223,1,-0.042946457862854,-0.5778411030769348,0.01707275956869125,0.814839780330658,-0.9402294158935547,0.08971964567899704,-0.3285105228424072,0,0,0,-1,169240.347456,2,0,1561841424.293955,1561841239.621676,8,3.056457,0,0,7.575853,0,0,1561841413.282218,169237.718956,0,-0.04492188,75.19337,0,182478453,3,1,1,-34.04573,-35.79045,3
1561841424.284512,22,0,0,1561841423.997567,4.634557776157403,-74.15094628936997,2552.766,0.65,87.1875,4,30,-9999,1561841424.262636,-21.05284118652344,-19.64177322387695,10.48614501953125,131.9576721191406,139.4508819580078,15,169240.579847,-0.9423980712890625,0.086517333984375,-0.3450775146484375,169240.579847,-0.1411371514459483,0.07037083601203578,0.02278147891286483,169240.569227,-93.63722229003906,-45.66770935058594,-550.2032470703125,169240.574781,-0.02432773499006728,-1.234553197477244,-0.09132316816845425,-0.151097297668457,0.05522653833031654,0.01578653044998646,-0.003078639507293701,-0.00104735791683197,-0.006530225276947021,1,-0.04425254091620445,-0.577717661857605,0.01651000417768955,0.8148689270019531,-0.9400671124458313,0.09119628369808197,-0.3285680413246155,0,0,0,-1,169240.347456,2,0,1561841424.293955,1561841239.621676,8,3.056457,0,0,7.575853,0,0,1561841413.282218,169237.718956,0,-0.04492188,75.19337,0,182478453,3,1,1,-34.04573,-36.36073,3
1561841424.311658,23,0,0,1561841423.997567,4.634557776157403,-74.15094628936997,2552.766,0.65,87.1875,4,30,-9999,1561841424.288812,-21.09105682373047,-19.57217025756836,10.3756103515625,132.1467437744141,139.6399536132812,15,169240.600111,-0.9406280517578125,0.091400146484375,-0.342041015625,169240.600111,-0.05100805699050567,0.06320320425419651,0.06449670159564799,169240.589338,-93.83726501464844,-45.84349060058594,-549.9515991210938,169240.595015,-0.02647442630348368,-1.233458654763963,-0.09270666281681385,-0.07858848571777344,0.06088655814528465,0.04870293661952019,-0.001895487308502197,-0.004347607493400574,-0.01485139131546021,1,-0.04544457420706749,-0.5771979093551636,0.01601076684892178,0.8151816129684448,-0.9395870566368103,0.09257392585277557,-0.3295547366142273,0,0,0,-1,169240.347456,2,0,1561841424.293955,1561841239.621676,8,3.056457,0,0,7.575853,0,0,1561841413.282218,169237.718956,0,-0.04492188,75.19337,0,182478453,3,1,1,-34.04573,-36.72975,3
1561841424.324996,24,0,0,1561841423.997567,4.634557776157403,-74.15094628936997,2552.766,0.65,87.1875,4,30,-9999,1561841424.313343,-21.33186340332031,-19.68947601318359,10.4163818359375,132.2215881347656,139.7147979736328,15,169240.620344,-0.9298095703125,0.08697509765625,-0.33782958984375,169240.620344,0.01916357457199218,0.0341877978616742,0.08510131263348206,169240.609449,-94.1407470703125,-45.51507568359375,-550.0491333007812,169240.615278,-0.02664948282467011,-1.232534093141419,-0.09429844814185973,0.003239269135519862,0.03324826806783676,0.08380073308944702,0.004266321659088135,-0.004955872893333435,-0.008859395980834961,1,-0.04615088552236557,-0.5767868757247925,0.0163782611489296,0.8154255747795105,-0.9391418099403381,0.09415875375270844,-0.330374002456665,0,0,0,-1,169240.347456,2,0,1561841424.293955,1561841239.621676,8,3.056457,0,0,7.575853,0,0,1561841413.282218,169237.718956,0,-0.04492188,75.19337,0,182478453,3,1,1,-34.04573,-37.71538,3
1561841424.345325,25,0,0,1561841423.997567,4.634557776157403,-74.15094628936997,2552.766,0.65,87.1875,4,30,-9999,1561841424.339651,-21.27631378173828,-19.7662239074707,10.1962890625,132.1596221923828,139.65283203125,15,169240.640608,-0.9346771240234375,0.085906982421875,-0.3318634033203125,169240.640608,0.05793893372743688,-0.002116147802176963,0.03976658771317219,169240.62953,-93.96360778808594,-45.74565124511719,-550.1182861328125,169240.635542,-0.02560068359562355,-1.232094856176209,-0.09556543962130411,0.04901288449764252,-0.00195472571067512,0.05472434312105179,0.00660175085067749,-0.006385006010532379,-0.00369560718536377,1,-0.04636829718947411,-0.5766079425811768,0.01716171763837337,0.8155235648155212,-0.9388831853866577,0.09542004019021988,-0.3307465314865112,0,0,0,-1,169240.347456,2,0,1561841424.293955,1561841239.621676,8,3.056457,0,0,7.575853,0,0,1561841413.282218,169237.718956,0,-0.04492188,75.19337,0,182478453,3,1,1,-34.04573,-38.62166,3
1561841424.365556,26,0,0,1561841423.997567,4.634557776157403,-74.15094628936997,2552.766,0.65,87.1875,4,30,-9999,1561841424.363832,-21.26891326904297,-19.46516418457031,10.23095703125,132.0960845947266,139.5892944335938,15,169240.660872,-0.94793701171875,0.0769500732421875,-0.3209075927734375,169240.660872,0.02030740226018122,0.006266418044956448,-0.04342443947039603,169240.649641,-94.13055419921875,-45.39752197265625,-550.194091796875,169240.655806,-0.02454778993168329,-1.232124386260142,-0.09550248608017152,0.03170846402645111,-0.003718803636729717,-0.0295971967279911,-0.001195371150970459,-0.01494355499744415,0.005327105522155762,1,-0.04603882879018784,-0.5766454935073853,0.01757354289293289,0.8155069351196289,-0.9388986825942993,0.09535737335681915,-0.3307208120822906,0,0,0,-1,169240.347456,2,0,1561841424.293955,1561841239.621676,8,3.056457,0,0,7.575853,0,0,1561841413.282218,169237.718956,0,-0.04492188,75.19337,0,182478453,3,1,1,-34.04573,-39.48063,3
1561841424.393783,27,0,0,1561841423.997567,4.634557776157403,-74.15094628936997,2552.766,0.65,87.1875,4,30,-9999,1561841424.390226,-21.04230499267578,-19.59293746948242,10.19293212890625,132.1205291748047,139.6137390136719,15,169240.681135,-0.942840576171875,0.0709991455078125,-0.32232666015625,169240.681135,0.0008008125397868269,0.01325295484867032,-0.04730120306922438,169240.669752,-93.69136047363281,-45.62782287597656,-550.34521484375,169240.676069,-0.02474034235718859,-1.23204699705082,-0.09445735785662562,-0.003888415172696114,0.001993144396692514,-0.05664106458425522,-0.007810771465301514,-0.02173089981079102,0.009354233741760254,1,-0.04566920548677444,-0.576629102230072,0.01719142310321331,0.8155474662780762,-0.9389665722846985,0.09431695938110352,-0.3308264017105103,0,0,0,-1,169240.671675,3,1,1561841424.618174,1561841239.621676,8,3.056457,0,0,7.575853,0,0,1561841413.282218,169237.718956,0,-0.04492188,75.19337,0,182478453,3,1,1,-34.04573,-40.15785,3
1561841424.406038,28,0,0,1561841423.997567,4.634557776157403,-74.15094628936997,2552.766,0.65,87.1875,4,30,-9999,1561841424.390226,-21.04230499267578,-19.59293746948242,10.19293212890625,132.1205291748047,139.6137390136719,15,169240.701399,-0.931884765625,0.07952880859375,-0.319671630859375,169240.701399,0.06588420852357928,-0.007215568657460688,0.002657568451790072,169240.689863,-93.7398681640625,-45.62428283691406,-550.1904296875,169240.696333,-0.02473089962450701,-1.231942734976601,-0.09362299535825833,0.04461520537734032,-0.002790425671264529,-0.01522677857428789,0.0003615021705627441,-0.02041193842887878,0.008745729923248291,1,-0.04532741382718086,-0.5766023397445679,0.01695195399224758,0.8155904412269592,-0.9390059113502502,0.09348628669977188,-0.3309503495693207,0,0,0,-1,169240.671675,3,1,1561841424.618174,1561841239.621676,8,3.056457,0,0,7.575853,0,0,1561841413.282218,169237.718956,0,-0.04492188,75.19337,0,182478453,3,1,1,-34.04573,-40.15785,3
1561841424.426929,29,0,0,1561841423.997567,4.634557776157403,-74.15094628936997,2552.766,0.65,87.1875,4,30,-9999,1561841424.414534,-21.14311981201172,-19.53755187988281,10.43426513671875,132.0534515380859,139.5466613769531,15,169240.721663,-0.9254608154296875,0.0889434814453125,-0.31829833984375,169240.721663,0.1525471988202838,-0.06126149350341974,0.06323862429669456,169240.709944,-93.90438842773438,-45.64205932617188,-550.2734985351562,169240.716597,-0.02290824987099762,-1.23232683055011,-0.0933170581839651,0.1352098286151886,-0.05823104828596115,0.05002040043473244,0.01252412796020508,-0.007747717201709747,0.01184302568435669,1,-0.04467387869954109,-0.576805591583252,0.01761545427143574,0.8154686689376831,-0.9391598701477051,0.09318168461322784,-0.3305990993976593,0,0,0,-1,169240.671675,3,1,1561841424.618174,1561841239.621676,8,3.056457,0,0,7.575853,0,0,1561841413.282218,169237.718956,0,-0.04492188,75.19337,0,182478453,3,1,1,-34.04573,-40.93108,3
1561841424.447136,30,0,0,1561841423.997567,4.634557776157403,-74.15094628936997,2552.766,0.65,87.1875,4,30,-9999,1561841424.440849,-21.28095245361328,-19.58568572998047,10.31097412109375,131.8292236328125,139.3224334716797,15,169240.741926,-0.94049072265625,0.0994720458984375,-0.3117523193359375,169240.741926,0.1295848912694026,-0.03824112904077481,0.03965633284404291,169240.730055,-93.87550354003906,-45.59884643554688,-550.0451049804688,169240.73683,-0.01958594159548697,-1.23335449199804,-0.09337875182514885,0.1493024379014969,-0.05889685079455376,0.04966118559241295,0.01130151748657227,0.002170100808143616,0.01467519998550415,1,-0.04373103007674217,-0.5772968530654907,0.01901034079492092,0.8151407241821289,-0.9394936561584473,0.09324310719966888,-0.329631894826889,0,0,0,-1,169240.671675,3,1,1561841424.618174,1561841239.621676,8,3.056457,0,0,7.575853,0,0,1561841413.282218,169237.718956,0,-0.04492188,75.19337,0,182478453,3,1,1,-34.04573,-40.25874,3
1561841424.471,31,0,0,1561841423.997567,4.634557776157403,-74.15094628936997,2552.766,0.65,87.1875,4,30,-9999,1561841424.465285,-21.32087707519531,-19.58362197875977,10.5997314453125,131.6826324462891,139.1758422851562,15,169240.762159,-0.9539337158203125,0.095001220703125,-0.308868408203125,169240.762159,0.06130889777082315,0.02399135299608782,-0.0258960458077125,169240.750166,-93.93569946289062,-45.58946228027344,-549.8939819335938,169240.757093,-0.01735891668032263,-1.2337030194152,-0.09294674933301772,0.0744234099984169,0.006452059838920832,-0.01665392145514488,-0.01004528999328613,0.006903208792209625,0.01881664991378784,1,-0.04290875792503357,-0.5774945616722107,0.01980062201619148,0.8150256276130676,-0.9396464824676514,0.09281297773122787,-0.3293177485466003,0,0,0,-1,169240.671675,3,1,1561841424.618174,1561841239.621676,8,3.056457,0,0,7.575853,0,0,1561841413.282218,169237.718956,0,-0.04492188,75.19337,0,182478453,3,1,1,-34.04573,-36.76556,3
1561841424.48709,32,0,0,1561841423.997567,4.634557776157403,-74.15094628936997,2552.766,0.65,87.1875,4,30,-9999,1561841424.465285,-21.32087707519531,-19.58362197875977,10.5997314453125,131.6826324462891,139.1758422851562,15,169240.782423,-0.942352294921875,0.079742431640625,-0.3048553466796875,169240.782423,0.02932459939508051,0.01856276543007031,-0.006462693017295287,169240.770277,-93.74440002441406,-45.64231872558594,-550.1189575195312,169240.777357,-0.01659527055355259,-1.233217027050799,-0.09200709781696413,0.03187248483300209,0.02380548231303692,-0.02447056584060192,-0.01181721687316895,-0.005985617637634277,0.02548182010650635,1,-0.04231036081910133,-0.5773285627365112,0.01982990466058254,0.815173864364624,-0.9395682811737061,0.09187734127044678,-0.3298031389713287,0,0,0,-1,169240.671675,3,1,1561841424.618174,1561841239.621676,8,3.056457,0,0,7.575853,0,0,1561841413.282218,169237.718956,0,-0.04492188,75.19337,0,182478453,3,1,1,-34.04573,-37.52007,3
1561841424.507352,33,0,0,1561841423.997567,4.634557776157403,-74.15094628936997,2552.766,0.65,87.1875,4,30,-9999,1561841424.492105,-21.2396240234375,-19.51648712158203,10.49066162109375,131.6413269042969,139.1345367431641,15,169240.802702875,-0.9473114013671875,0.0699462890625,-0.29888916015625,169240.802702875,0.04325319821230393,0.03704137496969411,0.116256835277992,169240.790403875,-94.06257629394531,-45.49955749511719,-549.7453002929688,169240.797636875,-0.01587674946316308,-1.232910699398915,-0.09209232592311789,0.03962840884923935,0.01677846536040306,0.07107353955507278,0.001868247985839844,-0.01604972779750824,0.02526348829269409,1,-0.04214075207710266,-0.5772174596786499,0.02014093846082687,0.8152536749839783,-0.9394598007202148,0.09196221083402634,-0.3300883173942566,0,0,0,-1,169240.671675,3,1,1561841424.618174,1561841239.621676,8,3.056457,0,0,7.575853,0,0,1561841413.282218,169237.718956,0,-0.04492188,75.19337,0,182478453,3,1,1,-34.04573,-37.9007,3
1561841424.527795,34,0,0,1561841423.997567,4.634557776157403,-74.15094628936997,2552.766,0.65,87.1875,4,30,-9999,1561841424.515807,-21.17391967773438,-19.5390739440918,10.45513916015625,131.5440521240234,139.0372619628906,15,169240.822965875,-0.9963531494140625,0.0408935546875,-0.2930755615234375,169240.822965875,0.005701295261641633,0.2190271564797138,0.3422521527498982,169240.810514875,-94.09756469726562,-45.46142578125,-550.135009765625,169240.817900875,-0.01394809371490019,-1.231342891956723,-0.09501139082773223,0.02732327207922935,0.1589004546403885,0.2807196974754333,-0.02825015783309937,-0.035115085542202,0.03921842575073242,1,-0.04279043152928352,-0.5765708684921265,0.02173683047294617,0.8156363368034363,-0.9386840462684631,0.09486851096153259,-0.3314700126647949,0,0,0,-1,169240.671675,3,1,1561841424.618174,1561841239.621676,8,3.056457,0,0,7.575853,0,0,1561841413.282218,169237.718956,0,-0.04492188,75.19337,0,182478453,3,1,1,-34.04573,-37.9007,3
1561841424.552432,35,0,0,1561841423.997567,4.634557776157403,-74.15094628936997,2552.766,0.65,87.1875,4,30,-9999,1561841424.542456,-21.56226348876953,-19.42721939086914,10.40020751953125,131.3718414306641,138.8650512695312,15,169240.843229875,-1.0345458984375,-0.0349578857421875,-0.29986572265625,169240.843229875,-0.02551414850739513,0.3481366734945373,0.5372871572851972,169240.830625875,-94.31227111816406,-45.21681213378906,-550.2113647460938,169240.838163875,-0.01150476877243205,-1.226014610926397,-0.1023697982990171,-0.032667625695467,0.3225990831851959,0.4811329543590546,-0.08066940307617188,-0.09265435487031937,0.03440290689468384,1,-0.04515142738819122,-0.5743260979652405,0.02473604679107666,0.8170060515403748,-0.9362220764160156,0.1021910905838013,-0.3362217545509338,0,0,0,-1,169240.671675,3,1,1561841424.618174,1561841239.621676,8,3.056457,0,0,7.575853,0,0,1561841413.282218,169237.718956,0,-0.04492188,75.19337,0,182478453,3,1,1,-34.04573,-38.64757,3
1561841424.568698,36,0,0,1561841423.997567,4.634557776157403,-74.15094628936997,2552.766,0.65,87.1875,4,30,-9999,1561841424.56641,-21.9100341796875,-18.99186325073242,10.1688232421875,131.0544738769531,138.5476837158203,15,169240.863493875,-1.09332275390625,-0.15264892578125,-0.246185302734375,169240.863493875,0.1699328470485391,0.2711207179305358,0.5972620776659996,169240.850736875,-94.57627868652344,-45.11628723144531,-550.359130859375,169240.858427875,-0.007374813425282928,-1.218856212331376,-0.1129469338934964,0.09946697950363159,0.3095264434814453,0.6052072644233704,-0.1434625387191772,-0.2012079209089279,0.06745302677154541,1,-0.04838922992348671,-0.5713115334510803,0.02928917296230793,0.8187819719314575,-0.9327245950698853,0.1127069443464279,-0.3425232172012329,0,0,0,-1,169240.671675,3,1,1561841424.618174,1561841239.621676,8,3.056457,0,0,7.575853,0,0,1561841413.282218,169237.718956,0,-0.04492188,75.19337,0,182478453,3,1,1,-34.04573,-38.64757,3
1561841424.588411,37,0,0,1561841423.997567,4.634557776157403,-74.15094628936997,2552.766,0.65,87.1875,4,30,-9999,1561841424.56641,-21.9100341796875,-18.99186325073242,10.1688232421875,131.0544738769531,138.5476837158203,15,169240.883756875,-1.0960693359375,-0.317474365234375,-0.2048187255859375,169240.883756875,0.5096222398814541,-0.01538428266906073,0.3158327957879851,169240.870817875,-94.59335327148438,-45.07301330566406,-550.1458740234375,169240.878660875,0.001260498965886966,-1.213757833880344,-0.1213152596648542,0.4248386919498444,0.07073064893484116,0.4111400246620178,-0.1603127717971802,-0.3533634841442108,0.1174553632736206,1,-0.0494367852807045,-0.5692889094352722,0.03508898243308067,0.8198992609977722,-0.9300497174263,0.1210179030895233,-0.3469322919845581,0,0,0,-1,169240.671675,3,1,1561841424.618174,1561841239.621676,8,3.056457,0,0,7.575853,0,0,1561841413.282218,169237.718956,0,-0.04492188,75.19337,0,182478453,3,1,1,-34.04573,-38.85344,3
1561841424.610174,38,0,0,1561841423.997567,4.634557776157403,-74.15094628936997,2552.766,0.65,87.1875,4,30,-9999,1561841424.592716,-22.18531799316406,-18.6224479675293,10.27264404296875,130.3316192626953,137.8248291015625,15,169240.903990875,-1.196792602539062,-0.4768218994140625,-0.1779022216796875,169240.903990875,0.6813612427812848,-0.3896998296790769,-0.2024010417943491,169240.890928875,-94.90986633300781,-44.57815551757812,-549.8370361328125,169240.898924875,0.01342380447159292,-1.214651703601624,-0.1209635074092153,0.6622520089149475,-0.3058424592018127,-0.05814517289400101,-0.203969419002533,-0.5219901204109192,0.161682665348053,1,-0.04581156000494957,-0.5699504017829895,0.03999505564570427,0.819425642490387,-0.930399477481842,0.1206687316298485,-0.3461156785488129,0,0,0,-1,169240.671675,3,1,1561841424.618174,1561841239.621676,8,3.056457,0,0,7.575853,0,0,1561841413.282218,169237.718956,0,-0.04492188,75.19337,0,182478453,3,1,1,-34.04573,-38.88953,3
1561841424.632627,39,0,0,1561841423.997567,4.634557776157403,-74.15094628936997,2552.766,0.65,87.1875,4,30,-9999,1561841424.617091,-22.19074249267578,-18.49101257324219,10.4613037109375,129.5054473876953,136.9986572265625,15,169240.924253875,-1.318496704101562,-0.6024322509765625,-0.1970062255859375,169240.924253875,0.4990114071502513,-0.5525281618876116,-0.8967843433577944,169240.911039875,-94.90287780761719,-44.36457824707031,-549.9525756835938,169240.919187875,0.02324094016196322,-1.222618299881279,-0.1092195083844128,0.5751889944076538,-0.5428131818771362,-0.7270683646202087,-0.3287277221679688,-0.6528409719467163,0.1584886908531189,1,-0.03803518041968346,-0.5735651254653931,0.04082660749554634,0.817257285118103,-0.9343948364257812,0.1090024933218956,-0.3391527533531189,0,0,0,-1,169240.671675,3,1,1561841424.618174,1561841239.621676,8,3.056457,0,0,7.575853,0,0,1561841413.282218,169237.718956,0,-0.04492188,75.19337,0,182478453,3,1,1,-34.04573,-39.7063,3
1561841424.649218,40,0,0,1561841423.997567,4.634557776157403,-74.15094628936997,2552.766,0.65,87.1875,4,30,-9999,1561841424.644226,-21.92435455322266,-18.37057876586914,10.81048583984375,129.3353118896484,136.8285217285156,15,169240.944517875,-1.421768188476562,-0.698883056640625,-0.2873382568359375,169240.944517875,0.1505335827200749,-0.5312577605772577,-1.446308992168015,169240.931150875,-94.40966796875,-44.78958129882812,-549.12353515625,169240.939451875,0.02385127484143509,-1.233817927928058,-0.08636896797598748,0.2288473397493362,-0.5510308742523193,-1.339722156524658,-0.4313724040985107,-0.7412604093551636,0.09875261783599854,1,-0.02831827662885189,-0.578356146812439,0.03469149768352509,0.8145542740821838,-0.9402401447296143,0.08626163005828857,-0.3294044733047485,0,0,0,-1,169240.671675,3,1,1561841424.618174,1561841239.621676,8,3.056457,0,0,7.575853,0,0,1561841413.282218,169237.718956,0,-0.04492188,75.19337,0,182478453,3,1,1,-34.04573,-40.48378,3
1561841424.669473,41,0,0,1561841423.997567,4.634557776157403,-74.15094628936997,2552.766,0.65,87.1875,4,30,-9999,1561841424.667788,-20.59065246582031,-19.16983795166016,11.29345703125,129.970947265625,137.4641571044922,15,169240.964781875,-1.522369384765625,-0.7576904296875,-0.3994140625,169240.964781875,-0.03320642299998001,-0.5041624933306825,-1.793462692904204,169240.951261875,-93.45257568359375,-45.01397705078125,-549.1467895507812,169240.959715875,0.01545263672579413,-1.244905347981612,-0.05637403326813761,-0.01599756814539433,-0.4901055097579956,-1.705978512763977,-0.5345467925071716,-0.7881098985671997,-0.02319008111953735,1,-0.01839401386678219,-0.5829575061798096,0.02270589582622051,0.8119770288467407,-0.9458609223365784,0.0563441775739193,-0.319644421339035,0,0,0,-1,169240.671675,3,1,1561841424.618174,1561841239.621676,8,3.056457,0,0,7.575853,0,0,1561841413.282218,169237.718956,0,-0.04492188,75.19337,0,182478453,3,1,1,-34.04573,-40.9896,3
1561841424.689694,42,0,0,1561841423.997567,4.634557776157403,-74.15094628936997,2552.766,0.65,87.1875,4,30,-9999,1561841424.667788,-20.59065246582031,-19.16983795166016,11.29345703125,129.970947265625,137.4641571044922,15,169240.985044875,-1.568588256835938,-0.8296356201171875,-0.527618408203125,169240.985044875,0.03282132990635455,-0.7093998016859661,-2.241064172055456,169240.971342875,-92.50537109375,-45.84356689453125,-549.0119018554688,169240.979978875,0.002802656032537983,-1.256567800697334,-0.01991536488436903,0.0004605001304298639,-0.6471771001815796,-2.122034311294556,-0.5856525301933289,-0.8110669851303101,-0.1572107076644897,1,-0.007232396397739649,-0.5877388119697571,0.006986267864704132,0.8089882135391235,-0.9508464932441711,0.0199140477925539,-0.3090215623378754,0,0,0,-1,169240.671675,3,1,1561841424.618174,1561841239.621676,8,3.056457,0,0,7.575853,0,0,1561841413.282218,169237.718956,0,-0.04492188,75.19337,0,182478453,3,1,1,-34.04573,-40.9896,3
1561841424.712708,43,0,0,1561841423.997567,4.634557776157403,-74.15094628936997,2552.766,0.65,87.1875,4,30,-9999,1561841424.694334,-19.6077880859375,-19.83725738525391,11.49029541015625,130.9117584228516,138.4049682617188,15,169241.005308875,-1.6783447265625,-0.819305419921875,-0.6426849365234375,169241.005308875,0.1393712093271168,-0.9046949970597657,-2.882773609366551,169240.991453875,-91.49658203125,-46.3516845703125,-548.369384765625,169241.000242875,-0.01065700946008561,-1.272245808376037,0.0265782512495919,0.1143644377589226,-0.88510662317276,-2.691397428512573,-0.6629666686058044,-0.8152217268943787,-0.2955836057662964,1,0.007524104323238134,-0.5940772294998169,-0.01218035258352757,0.8042805790901184,-0.9554262757301331,-0.02657512202858925,-0.2940312623977661,0,0,0,-1,169240.671675,3,1,1561841424.618174,1561841239.621676,8,3.056457,0,0,7.575853,0,0,1561841413.282218,169237.718956,0,-0.04492188,75.19337,0,182478453,3,1,1,-34.04573,-39.59426,3
1561841424.7304,44,0,0,1561841423.997567,4.634557776157403,-74.15094628936997,2552.766,0.65,87.1875,4,30,-9999,1561841424.718949,-18.55297088623047,-20.56241607666016,11.9847412109375,131.9303588867188,139.4235687255859,15,169241.025572875,-1.797119140625,-0.7601318359375,-0.731475830078125,169241.025572875,0.2816183663154101,-0.9944674942452468,-3.784382002722916,169241.011564875,-90.15353393554688,-47.38662719726562,-548.317626953125,169241.020475875,-0.02546919062372294,-1.290191135636959,0.08785770366739437,0.223825141787529,-0.9723866581916809,-3.566512584686279,-0.7869739532470703,-0.6993646621704102,-0.4099372029304504,1,0.02743748016655445,-0.6010928750038147,-0.03656806424260139,0.7978705167770386,-0.9571818709373474,-0.08774472028017044,-0.2758690714836121,0,0,0,-1,169240.671675,3,1,1561841424.618174,1561841239.621676,8,3.056457,0,0,7.575853,0,0,1561841413.282218,169237.718956,0,-0.04492188,75.19337,0,182478453,3,1,1,-34.04573,-37.02076,3
1561841424.75054,45,0,0,1561841423.997567,4.634557776157403,-74.15094628936997,2552.766,0.65,87.1875,4,30,-9999,1561841424.74509,-16.79411315917969,-21.70689392089844,12.42462158203125,133.0023651123047,140.4955749511719,15,169241.045805875,-1.886184692382812,-0.6676025390625,-0.80194091796875,169241.045805875,0.6593361016180025,-1.040616613826903,-4.458060824707649,169241.031675875,-88.19480895996094,-48.54818725585938,-547.8192138671875,169241.040739875,-0.0399278265023995,-1.309221809092572,0.1673650331419147,0.5535383224487305,-1.065401554107666,-4.320264339447021,-0.8878912925720215,-0.5476791262626648,-0.5178234577178955,1,0.05418170988559723,-0.6079227924346924,-0.06666116416454315,0.7893355488777161,-0.952486515045166,-0.166584774851799,-0.254988431930542,0,0,0,-1,169240.671675,3,1,1561841424.618174,1561841239.621676,8,3.056457,0,0,7.575853,0,0,1561841413.282218,169237.718956,0,-0.04492188,75.19337,0,182478453,3,1,1,-34.04573,-37.86271,3
1561841424.770736,46,0,0,1561841423.997567,4.634557776157403,-74.15094628936997,2552.766,0.65,87.1875,4,30,-9999,1561841424.769083,-12.07558441162109,-23.40588760375977,13.39556884765625,133.6183319091797,141.1115417480469,15,169241.066068875,-1.899826049804688,-0.6035614013671875,-0.8420257568359375,169241.066068875,0.9831631743661875,-0.6646781364485924,-4.980200720660802,169241.051786875,-85.69111633300781,-49.47354125976562,-547.2286376953125,169241.061003875,-0.04870852512549243,-1.327112624910034,0.2611739539778854,0.9126282930374146,-0.7971208095550537,-4.84887170791626,-0.9729008674621582,-0.3820591568946838,-0.5918849110603333,1,0.08768359571695328,-0.6129952669143677,-0.09920045733451843,0.7789145112037659,-0.9375452995300293,-0.2582148611545563,-0.2330967783927917,0,0,0,-1,169240.671675,3,1,1561841424.618174,1561841239.621676,8,3.056457,0,0,7.575853,0,0,1561841413.282218,169237.718956,0,-0.04492188,75.19337,0,182478453,3,1,1,-34.04573,-38.52693,3
1561841424.791156,47,0,0,1561841423.997567,4.634557776157403,-74.15094628936997,2552.766,0.65,87.1875,4,30,-9999,1561841424.769083,-12.07558441162109,-23.40588760375977,13.39556884765625,133.6183319091797,141.1115417480469,15,169241.086332875,-1.814651489257812,-0.483306884765625,-0.836181640625,169241.086332875,1.23542658125009,-0.2586648471961261,-5.494583360990773,169241.071897875,-83.09220886230469,-50.1234130859375,-546.776123046875,169241.081266875,-0.05273425370459234,-1.336993958816054,0.3670601816929861,1.175516963005066,-0.3290295600891113,-5.390822410583496,-0.9613324403762817,-0.1814254522323608,-0.6276116371154785,1,0.1271028220653534,-0.6129618883132935,-0.1334182769060135,0.7683242559432983,-0.9079912900924683,-0.3588730096817017,-0.2162451893091202,0,0,0,-1,169240.671675,3,1,1561841424.618174,1561841239.621676,8,3.056457,0,0,7.575853,0,0,1561841413.282218,169238.661324,0,-0.04492188,75.19337,0,182478453,3,1,1,-34.04573,-39.37159,3
1561841424.811534,48,0,0,1561841423.997567,4.634557776157403,-74.15094628936997,2552.766,0.65,87.1875,4,30,-9999,1561841424.795362,-9.826728820800781,-23.90526580810547,14.1466064453125,133.8411865234375,141.3343963623047,15,169241.106596875,-1.698974609375,-0.40814208984375,-0.7951812744140625,169241.106596875,1.47696650368868,-0.1349855156439743,-5.787009101325833,169241.092008875,-80.39010620117188,-50.32405090332031,-545.8948974609375,169241.101530875,-0.05317211249742926,-1.341397552756523,0.4831788088281337,1.416095972061157,-0.155454009771347,-5.738465309143066,-0.8963268399238586,0.02114546298980713,-0.6200807690620422,1,0.1713138818740845,-0.6082525253295898,-0.1688669174909592,0.7564155459403992,-0.8623248338699341,-0.4645964205265045,-0.2013608366250992,0,0,0,-1,169240.671675,3,1,1561841424.618174,1561841239.621676,8,3.056457,0,0,7.575853,0,0,1561841413.282218,169238.661324,0,-0.04492188,75.19337,0,182478453,3,1,1,-34.04573,-38.53368,3
1561841424.831614,49,0,0,1561841423.997567,4.634557776157403,-74.15094628936997,2552.766,0.65,87.1875,4,30,-9999,1561841424.819743,-7.138580322265625,-24.20055389404297,14.76800537109375,133.7093353271484,141.2025451660156,15,169241.126859875,-1.565902709960938,-0.3427581787109375,-0.7375946044921875,169241.126859875,1.680574223772944,-0.2431266338160588,-5.880331059612172,169241.112119875,-77.91969299316406,-50.42814636230469,-545.4896850585938,169241.121794875,-0.04889134039189354,-1.346866062099078,0.6051450301279359,1.632872223854065,-0.202905684709549,-5.877638816833496,-0.8394564390182495,0.1936066746711731,-0.5879242420196533,1,0.2183024138212204,-0.6008571982383728,-0.2040235698223114,0.7414102554321289,-0.801885724067688,-0.5688813328742981,-0.1826293617486954,0,0,0,-1,169240.671675,3,1,1561841424.618174,1561841239.621676,8,3.056457,0,0,7.575853,0,0,1561841413.282218,169238.661324,0,-0.04492188,75.19337,0,182478453,3,1,1,-32.06387,-38.97482,3
1561841424.851775,50,0,0,1561841423.997567,4.634557776157403,-74.15094628936997,2552.766,0.65,87.1875,4,30,-9999,1561841424.846141,-4.26031494140625,-24.13292694091797,15.33587646484375,133.0561981201172,140.5494079589844,15,169241.147123875,-1.37115478515625,-0.3600616455078125,-0.6523895263671875,169241.147123875,1.881700144037363,-0.3530800331099423,-5.845045773065277,169241.132231875,-75.39060974121094,-50.091552734375,-544.6488037109375,169241.142057875,-0.03815903728334603,-1.359333680929714,0.7288182414424315,1.827733397483826,-0.3446646928787231,-5.845867156982422,-0.7448211908340454,0.3210026025772095,-0.5409549474716187,1,0.2659450173377991,-0.5924425721168518,-0.2378314286470413,0.7223027348518372,-0.7293456196784973,-0.665988564491272,-0.156570091843605,0,0,0,-1,169240.671675,3,1,1561841424.618174,1561841239.621676,8,3.056457,0,0,7.575853,0,0,1561841413.282218,169238.661324,0,-0.04492188,75.19337,0,182478453,3,1,1,-32.06387,-38.97482,3
1561841424.872073,51,0,0,1561841423.997567,4.634557776157403,-74.15094628936997,2552.766,0.65,87.1875,4,30,-9999,1561841424.870407,1.036895751953125,-22.95156097412109,16.715087890625,131.5592041015625,139.0524139404297,15,169241.167387875,-1.117645263671875,-0.3808135986328125,-0.5408782958984375,169241.167387875,1.994573699466518,-0.426505781208408,-5.809114936270145,169241.152311875,-72.30580139160156,-49.17849731445312,-544.162353515625,169241.162290875,-0.01761777791029815,-1.38157643380583,0.8524449831321447,1.98064911365509,-0.4117451906204224,-5.8307785987854,-0.5998491048812866,0.3944628238677979,-0.4760003089904785,1,0.3135292530059814,-0.5829265117645264,-0.2695891857147217,0.6994410157203674,-0.6463972330093384,-0.7528917789459229,-0.1237921789288521,0,0,0,-1,169240.671675,3,1,1561841424.618174,1561841239.621676,8,3.056457,0,0,7.575853,0,0,1561841413.282218,169238.661324,0,-0.04492188,75.19337,0,182478453,3,1,1,-27.92108,-33.43741,3
1561841424.893611,52,0,0,1561841423.997567,4.634557776157403,-74.15094628936997,2552.766,0.65,87.1875,4,30,-9999,1561841424.870407,1.036895751953125,-22.95156097412109,16.715087890625,131.5592041015625,139.0524139404297,15,169241.187620875,-0.8791046142578125,-0.4068756103515625,-0.38873291015625,169241.187620875,1.860297649936941,-0.3606822927576825,-5.750630320835351,169241.172422875,-69.46049499511719,-48.31588745117188,-543.182861328125,169241.182554875,0.01422520378562311,-1.415516840511355,0.9749574256705841,1.937774181365967,-0.4045394957065582,-5.754751205444336,-0.4459608793258667,0.4184067249298096,-0.3826431035995483,1,0.3599765002727509,-0.5718567371368408,-0.2997393310070038,0.6734635233879089,-0.554451048374176,-0.8276780247688293,-0.08679357916116714,0,0,0,-1,169240.671675,3,1,1561841424.618174,1561841239.621676,8,3.056457,0,0,7.575853,0,0,1561841413.282218,169238.661324,0,-0.04492188,75.19337,0,182478453,3,1,1,-24.48368,-28.46917,3
1561841424.912675,53,0,0,1561841423.997567,4.634557776157403,-74.15094628936997,2552.766,0.65,87.1875,4,30,-9999,1561841424.896583,3.878547668457031,-21.61381912231445,17.2620849609375,129.1334381103516,136.6266479492188,15,169241.207884875,-0.5572052001953125,-0.3102874755859375,-0.2898101806640625,169241.207884875,1.239170719426633,-0.05603477354803023,-5.70698164320117,169241.192533875,-67.09245300292969,-46.86830139160156,-542.9141235351562,169241.202818875,0.05051088812823096,-1.452756700661085,1.095258114723383,1.409825325012207,-0.1496240943670273,-5.747254848480225,-0.2769820094108582,0.5272300243377686,-0.278619647026062,1,0.4034359753131866,-0.5570294857025146,-0.3295798599720001,0.6467879414558411,-0.4546311497688293,-0.8890464305877686,-0.05391513183712959,0,0,0,-1,169240.671675,3,1,1561841424.618174,1561841239.621676,8,3.056457,0,0,7.575853,0,0,1561841413.282218,169238.661324,0,-0.04492188,75.19337,0,182478453,3,1,1,-20.71,-25.5519,3
1561841424.932868,54,0,0,1561841423.997567,4.634557776157403,-74.15094628936997,2552.766,0.65,87.1875,4,30,-9999,1561841424.921027,6.216354370117188,-20.44717788696289,17.916748046875,211.4300384521484,218.9232482910156,15,169241.228147875,-0.240386962890625,-0.2459564208984375,-0.1848907470703125,169241.228147875,0.8340029838202665,0.02982261051892533,-5.226676279547636,169241.212644875,-64.84544372558594,-45.5677490234375,-542.390625,169241.223081875,0.07599717306448715,-1.476208501256997,1.210733554751934,0.8872368931770325,0.05895921215415001,-5.390609741210938,-0.04104194045066833,0.6597058773040771,-0.2093685865402222,1,0.4416784048080444,-0.5369188189506531,-0.359530508518219,0.6223955154418945,-0.3507580161094666,-0.9358747005462646,-0.03327673673629761,0,0,0,-1,169240.671675,3,1,1561841424.618174,1561841239.621676,8,3.056457,0,0,7.575853,0,0,1561841413.282218,169238.661324,0,-0.04492188,75.19337,0,182478453,3,1,1,-20.35509,-26.3242,3
1561841424.953117,55,0,0,1561841423.997567,4.634557776157403,-74.15094628936997,2552.766,0.65,87.1875,4,30,-9999,1561841424.94751,9.844150543212891,-17.68921661376953,18.45379638671875,211.078369140625,218.5715789794922,15,169241.248411875,0.0289764404296875,-0.18603515625,-0.062591552734375,169241.248411875,0.7477040476445758,-0.3616548791877795,-4.48026359871564,169241.232725875,-63.32806396484375,-44.18009948730469,-542.00244140625,169241.243345875,0.1021771381223081,-1.50257590085574,1.313977189887423,0.7614872455596924,-0.2541696727275848,-4.672618389129639,0.1514707207679749,0.7552735209465027,-0.1028938293457031,1,0.4733500778675079,-0.5169934630393982,-0.3867807686328888,0.5992146134376526,-0.253414660692215,-0.9672028422355652,-0.01731492578983307,0,0,0,-1,169240.671675,3,1,1561841424.618174,1561841239.621676,8,3.056457,0,0,7.575853,0,0,1561841413.282218,169238.661324,0,-0.04492188,75.19337,0,182478453,3,1,1,-18.63399,-18.63399,3
1561841424.973351,56,0,0,1561841423.997567,4.634557776157403,-74.15094628936997,2552.766,0.65,87.1875,4,30,-9999,1561841424.971682,11.35646057128906,-16.38403701782227,18.3857421875,211.5909423828125,219.0841522216797,15,169241.268675875,0.19671630859375,-0.156768798828125,0.0157928466796875,169241.268675875,0.6957598895309073,-0.7913979990172878,-3.679558650636852,169241.252836875,-61.48171997070312,-42.80339050292969,-541.855712890625,169241.263609875,0.1562412037801577,-1.565253593603757,1.401378388191817,0.6971609592437744,-0.7039269804954529,-3.889364719390869,0.3029593229293823,0.8156543970108032,-0.01676565408706665,1,0.4978358149528503,-0.5016893744468689,-0.4109528362751007,0.5758341550827026,-0.1686056703329086,-0.9856830835342407,-0.0009345458238385618,0,0,0,-1,169240.671675,3,1,1561841424.618174,1561841239.621676,8,3.056457,0,0,7.575853,0,0,1561841413.282218,169238.661324,0,-0.04492188,75.19337,0,182478453,3,1,1,-18.63399,-19.49782,3
1561841424.99375,57,0,0,1561841423.997567,4.634557776157403,-74.15094628936997,2552.766,0.65,87.1875,4,30,-9999,1561841424.971682,11.35646057128906,-16.38403701782227,18.3857421875,211.5909423828125,219.0841522216797,15,169241.288938875,0.3071136474609375,-0.1548004150390625,0.0780792236328125,169241.288938875,0.747207634417385,-1.216295763559506,-3.044909519691665,169241.272947875,-60.10488891601562,-41.64530944824219,-542.1376342773438,169241.283872875,0.3025340257038484,-1.728342335940728,1.471351150958788,0.7296635508537292,-1.082096576690674,-3.17406177520752,0.3453660607337952,0.8467897176742554,0.03181707859039307,1,0.5157109498977661,-0.4917627274990082,-0.4320371150970459,0.5527707934379578,-0.09805160760879517,-0.9950594305992126,0.01557672768831253,0,0,0,-1,169240.671675,3,1,1561841424.618174,1561841239.621676,8,3.056457,0,0,7.575853,0,0,1561841413.282218,169238.661324,0,-0.04492188,75.19337,0,182478453,3,1,1,-18.63399,-20.4511,3
1561841425.013932,58,0,0,1561841423.997567,4.634557776157403,-74.15094628936997,2552.766,0.65,87.1875,4,30,-9999,1561841424.997868,12.77899169921875,-15.2905387878418,18.20697021484375,212.9573822021484,220.4505920410156,15,169241.309202875,0.3592987060546875,-0.1886749267578125,0.1206207275390625,169241.309202875,0.9330414173864602,-1.92391098099901,-2.688235550690661,169241.293058875,-58.94729614257812,-40.77751159667969,-542.3104248046875,169241.304106875,0.8389439058568868,-2.291834461780685,1.520552901515142,0.8626381158828735,-1.75525963306427,-2.771239757537842,0.378298282623291,0.8270614147186279,0.07271122932434082,1,0.5283279418945312,-0.4872850179672241,-0.4517626166343689,0.5285199880599976,-0.03772211819887161,-0.9987380504608154,0.0331542044878006,0,0,0,-1,169240.671675,3,1,1561841424.618174,1561841239.621676,8,3.056457,0,0,7.575853,0,0,1561841413.282218,169238.661324,0,-0.04492188,75.19337,0,182478453,3,1,1,-18.63399,-20.4511,3
1561841425.034271,59,0,0,1561841423.997567,4.634557776157403,-74.15094628936997,2552.766,0.65,87.1875,4,30,-9999,1561841425.022281,13.95117568969727,-14.18226623535156,17.89776611328125,215.5172424316406,223.0104522705078,15,169241.329435875,0.31500244140625,-0.1984405517578125,0.1524505615234375,169241.329435875,1.291543646475804,-2.326228068974555,-2.3961320528475,169241.313169875,-57.65701293945312,-39.64498901367188,-542.681396484375,169241.324369875,1.952977949319616,2.836795787054057,1.51395758470892,1.20032000541687,-2.291659593582153,-2.464529514312744,0.3353227972984314,0.7975946664810181,0.08515250682830811,1,0.5369202494621277,-0.4886839687824249,-0.4714976251125336,0.5005943179130554,0.01704840920865536,-0.9983851313591003,0.0541907511651516,0,0,0,-1,169240.671675,3,1,1561841424.618174,1561841239.621676,8,3.056457,0,0,7.575853,0,0,1561841413.282218,169238.661324,0,-0.04492188,75.19337,0,182478453,3,1,1,-18.63399,-21.29949,3
1561841425.054363,60,0,0,1561841424.997553,4.634564146403814,-74.15095358162573,2552.786,-1,-1,4,30,-9999,1561841425.04909,16.73342514038086,-11.57191467285156,17.26678466796875,218.9059600830078,226.399169921875,15,169241.349699875,0.1945037841796875,-0.207794189453125,0.1425323486328125,169241.349699875,1.50880113241116,-2.182612579818179,-2.220828142512489,169241.333280875,-56.22206115722656,-38.13671875,-543.1345825195312,169241.344633875,2.307183485574756,2.436873491667512,1.46621071962264,1.472421288490295,-2.23978853225708,-2.257439851760864,0.1853607296943665,0.7964005470275879,0.07084691524505615,1,0.5440418720245361,-0.493743509054184,-0.4889535009860992,0.4702769219875336,0.06763000041246414,-0.9945359230041504,0.07952842116355896,0,0,0,-1,169240.671675,3,1,1561841424.618174,1561841239.621676,8,3.056457,0,0,7.575853,0,0,1561841413.282218,169238.661324,0,-0.04492188,75.19337,0,182478453,3,1,1,-18.63399,-22.19437,3
1561841425.074718,61,0,0,1561841424.997553,4.634564146403814,-74.15095358162573,2552.786,-1,-1,4,30,-9999,1561841425.072923,17.98773956298828,-10.40502548217773,16.72467041015625,222.156494140625,229.6497039794922,15,169241.369962875,0.1360931396484375,-0.20684814453125,0.14739990234375,169241.369962875,1.543105044096362,-1.873325833989609,-2.081601542832564,169241.353391875,-55.08895874023438,-36.89480590820312,-543.5536499023438,169241.364897875,2.388212680565561,2.313508187396815,1.413159435116313,1.542647004127502,-1.977442860603333,-2.129154920578003,0.04665172100067139,0.7763278484344482,0.03442764282226562,1,0.5514184236526489,-0.4990201890468597,-0.5031784176826477,0.4401454627513885,0.115640752017498,-0.9876010417938232,0.1061668545007706,0,0,0,-1,169240.671675,3,1,1561841424.618174,1561841239.621676,8,3.056457,0,0,7.575853,0,0,1561841413.282218,169238.661324,0,-0.04492188,75.19337,0,182478453,3,1,1,-18.63399,-22.74043,3
1561841425.094928,62,0,0,1561841424.997553,4.634564146403814,-74.15095358162573,2552.786,-1,-1,4,30,-9999,1561841425.072923,17.98773956298828,-10.40502548217773,16.72467041015625,222.156494140625,229.6497039794922,15,169241.390226875,0.0859832763671875,-0.2225494384765625,0.1714324951171875,169241.390226875,1.527401182096491,-1.206263369417069,-1.668547654606255,169241.373472875,-53.79901123046875,-35.33955383300781,-543.923095703125,169241.385160875,2.405299975460738,2.261701260633349,1.362066637094339,1.534879922866821,-1.402809977531433,-1.819092512130737,-0.04211196303367615,0.763161301612854,0.02650797367095947,1,0.5593405961990356,-0.5031512379646301,-0.5137200951576233,0.4123937487602234,0.1596961617469788,-0.9782949090003967,0.1320461481809616,0,0,0,-1,169240.671675,3,1,1561841424.618174,1561841239.621676,8,3.056457,0,0,7.575853,0,0,1561841413.282218,169238.661324,0,-0.04492188,75.19337,0,182478453,3,1,1,-18.63399,-23.35947,3
1561841425.115244,63,0,0,1561841424.997553,4.634564146403814,-74.15095358162573,2552.786,-1,-1,4,30,-9999,1561841425.099187,18.8591423034668,-8.891864776611328,16.34271240234375,224.6834869384766,232.1766967773438,15,169241.410490875,-0.0548248291015625,-0.1508026123046875,0.2179107666015625,169241.410490875,1.410308646868432,-0.4287526902201079,-0.6825231799648864,169241.393583875,-53.02885437011719,-34.26010131835938,-544.31982421875,169241.405424875,2.384371422268116,2.261442014558649,1.319988926541384,1.45668363571167,-0.6209364533424377,-0.9869641065597534,-0.1656602919101715,0.7691121101379395,0.03196036815643311,1,0.5675632357597351,-0.5068762302398682,-0.5177414417266846,0.3910143077373505,0.1913103014230728,-0.968712329864502,0.1581030786037445,0,0,0,-1,169240.671675,3,1,1561841424.618174,1561841239.621676,8,3.056457,0,0,7.575853,0,0,1561841413.282218,169238.661324,0,-0.04492188,75.19337,0,182478453,3,1,1,-18.63399,-23.50219,3
1561841425.135419,64,0,0,1561841424.997553,4.634564146403814,-74.15095358162573,2552.786,-1,-1,4,30,-9999,1561841425.123545,19.58935165405273,-7.601642608642578,16.23321533203125,225.9127655029297,233.4059753417969,15,169241.430754875,-0.23236083984375,-0.150390625,0.2701873779296875,169241.430754875,0.8370054316332218,0.2208679334251766,0.6764714127037903,169241.413694875,-52.655517578125,-33.38328552246094,-544.6648559570312,169241.425688875,2.325392946657797,2.312867974177394,1.297390786905632,1.04578959941864,0.04808232933282852,0.3298587501049042,-0.3431222438812256,0.8342711329460144,0.06373691558837891,1,0.5730010271072388,-0.5127468109130859,-0.5139537453651428,0.3802791237831116,0.1990182250738144,-0.9628569483757019,0.1824789345264435,0,0,0,-1,169240.671675,3,1,1561841424.618174,1561841239.621676,8,3.056457,0,0,7.575853,0,0,1561841413.282218,169238.661324,0,-0.04492188,75.19337,0,182478453,3,1,1,-18.63399,-24.50177,3
1561841425.156167,65,0,0,1561841424.997553,4.634564146403814,-74.15095358162573,2552.786,-1,-1,4,30,-9999,1561841425.149896,19.7486457824707,-6.988254547119141,16.03228759765625,225.7365264892578,233.229736328125,15,169241.451017875,-0.3489837646484375,-0.262451171875,0.3182220458984375,169241.451017875,-0.1349988314494247,0.8352709148152532,2.097328840650027,169241.433805875,-52.83860778808594,-32.66264343261719,-544.43017578125,169241.445921875,2.239319504172593,2.403536490986757,1.303451802782335,0.09786801785230637,0.7021129131317139,1.716965436935425,-0.4715867638587952,0.7637311220169067,0.09784555435180664,1,0.5719372630119324,-0.5201941728591919,-0.5047358274459839,0.3840932846069336,0.1777482777833939,-0.9644758105278015,0.1954284161329269,0,0,0,-1,169240.671675,3,1,1561841424.618174,1561841239.621676,8,3.056457,0,0,7.575853,0,0,1561841413.282218,169238.661324,0,-0.04492188,75.19337,0,182478453,3,1,1,-18.63399,-25.37739,3
1561841425.177026,66,0,0,1561841424.997553,4.634564146403814,-74.15095358162573,2552.786,-1,-1,4,30,-9999,1561841425.174202,19.17366027832031,-7.939785003662109,16.42327880859375,224.4233856201172,231.9165954589844,15,169241.471250875,-0.5179595947265625,-0.434539794921875,0.4084625244140625,169241.471250875,-0.8728294756686407,0.7372087961046825,3.355036759160265,169241.453916875,-53.4345703125,-33.50730895996094,-544.4134521484375,169241.466184875,2.097456679598684,2.558443483620082,1.339243491520326,-0.7103534340858459,0.8523250222206116,3.107470512390137,-0.5533562898635864,0.6310718655586243,0.1670650243759155,1,0.5619521141052246,-0.5291417241096497,-0.4918192028999329,0.4029054045677185,0.1263695657253265,-0.973311185836792,0.1915622800588608,0,0,0,-1,169240.671675,3,1,1561841424.618174,1561841239.621676,8,3.056457,0,0,7.575853,0,0,1561841413.282218,169238.661324,0,-0.04492188,75.19337,0,182478453,3,1,1,-18.63399,-25.37739,3
1561841425.196248,67,0,0,1561841424.997553,4.634564146403814,-74.15095358162573,2552.786,-1,-1,4,30,-9999,1561841425.174202,19.17366027832031,-7.939785003662109,16.42327880859375,224.4233856201172,231.9165954589844,15,169241.491514875,-0.6950531005859375,-0.70050048828125,0.4724884033203125,169241.491514875,-1.646339021643866,0.03563655749467731,3.640480223749356,169241.474027875,-54.07539367675781,-34.81387329101562,-543.9017944335938,169241.486448875,1.831865507932839,2.829813622258058,1.389308510551138,-1.429125666618347,0.2114289104938507,3.665127992630005,-0.6739580631256104,0.4352210760116577,0.2808756828308105,1,0.5414236783981323,-0.541069507598877,-0.4797439873218536,0.4288938343524933,0.05536675825715065,-0.983576238155365,0.1717916280031204,0,0,0,-1,169240.671675,3,1,1561841424.618174,1561841239.621676,8,3.056457,0,0,7.575853,0,0,1561841413.282218,169238.661324,0,-0.04492188,75.19337,0,182478453,3,1,1,-18.63399,-26.46032,3
1561841425.216469,68,0,0,1561841424.997553,4.634564146403814,-74.15095358162573,2552.786,-1,-1,4,30,-9999,1561841425.200474,18.22087478637695,-9.276885986328125,16.5714111328125,223.8095245361328,231.302734375,15,169241.511778875,-0.8204803466796875,-1.011947631835938,0.3885955810546875,169241.511778875,-2.472580222467097,-0.4365466974663338,3.047767890489648,169241.494108875,-55.07392883300781,-36.54307556152344,-544.1009521484375,169241.506712875,1.403206937633177,-3.032327931174535,1.435088910547077,-2.28789210319519,-0.3757850527763367,3.254237174987793,-0.7655049562454224,0.1437904834747314,0.3163212537765503,1,0.5129904747009277,-0.5514371991157532,-0.4749284982681274,0.455193042755127,-0.01475316192954779,-0.9908058643341064,0.1344844251871109,0,0,0,-1,169240.671675,3,1,1561841424.618174,1561841239.621676,8,3.056457,0,0,7.575853,0,0,1561841413.282218,169238.661324,0,-0.04492188,75.19337,0,182478453,3,1,1,-18.63399,-27.52905,3
1561841425.236666,69,0,0,1561841424.997553,4.634564146403814,-74.15095358162573,2552.786,-1,-1,4,30,-9999,1561841425.224861,17.56804275512695,-11.07256317138672,16.18902587890625,224.4322967529297,231.9255065917969,15,169241.532041875,-0.741668701171875,-1.322769165039062,0.18292236328125,169241.532041875,-2.895999133655994,-0.7465429094093012,2.177804242470041,169241.514219875,-55.35409545898438,-38.38986206054688,-544.5402221679688,169241.526975875,0.7908815353688953,-2.434679896741046,1.462184886740351,-2.852011680603027,-0.6683905124664307,2.380597829818726,-0.7102965116500854,-0.1972376704216003,0.2114912271499634,1,0.482321709394455,-0.5554975867271423,-0.4788022935390472,0.4790998697280884,-0.07040416449308395,-0.9941075444221497,0.08242359757423401,0,0,0,-1,169240.671675,3,1,1561841424.618174,1561841239.621676,8,3.056457,0,0,7.575853,0,0,1561841413.282218,169238.661324,0,-0.04492188,75.19337,0,182478453,3,1,1,-18.63399,-28.45317,3
1561841425.256957,70,0,0,1561841424.997553,4.634564146403814,-74.15095358162573,2552.786,-1,-1,4,30,-9999,1561841425.2512,17.01145553588867,-14.57820129394531,14.5819091796875,225.8261871337891,233.3193969726562,15,169241.552305875,-0.6456756591796875,-1.361068725585938,0.0240631103515625,169241.552305875,-2.950228017668842,-0.5727482124640382,1.30346368919889,169241.534330875,-55.70437622070312,-40.17755126953125,-545.4987182617188,169241.547239875,0.134526544182506,-1.7971864346484,1.458529800844997,-2.945903301239014,-0.6869964599609375,1.534504532814026,-0.5843095183372498,-0.4021082520484924,0.065521240234375,1,0.4532026946544647,-0.5542387366294861,-0.4889765977859497,0.4983257949352264,-0.1091718971729279,-0.9937047362327576,0.02514651976525784,0,0,0,-1,169240.671675,3,1,1561841424.618174,1561841239.621676,8,3.056457,0,0,7.575853,0,0,1561841413.282218,169238.661324,0,-0.04492188,75.19337,0,182478453,3,1,1,-18.63399,-29.47825,3
1561841425.277259,71,0,0,1561841424.997553,4.634564146403814,-74.15095358162573,2552.786,-1,-1,4,30,-9999,1561841425.276151,16.97552871704102,-16.13348007202148,13.6905517578125,226.8660430908203,234.3592529296875,15,169241.572569875,-0.51507568359375,-0.9781341552734375,-0.0291595458984375,169241.572569875,-2.343239010437436,0.08424324213025852,0.4071483285090581,169241.554441875,-55.71797180175781,-41.72465515136719,-546.409423828125,169241.567503875,-0.3413095571301383,-1.33345729971084,1.435970494399578,-2.637437582015991,-0.09915346652269363,0.6121463775634766,-0.4673417806625366,-0.1944085359573364,0.01654362678527832,1,0.4303781092166901,-0.5467839241027832,-0.5014402866363525,0.5141592621803284,-0.1306501924991608,-0.9909247756004333,-0.03160404786467552,0,0,0,-1,169240.671675,3,1,1561841424.618174,1561841239.621676,8,3.056457,0,0,7.575853,0,0,1561841413.282218,169238.661324,0,-0.04492188,75.19337,0,182478453,3,1,1,-18.63399,-30.55339,3
1561841425.297565,72,0,0,1561841424.997553,4.634564146403814,-74.15095358162573,2552.786,-1,-1,4,30,-9999,1561841425.276151,16.97552871704102,-16.13348007202148,13.6905517578125,226.8660430908203,234.3592529296875,15,169241.592832875,-0.2319793701171875,-0.7483673095703125,-0.003448486328125,169241.592832875,-0.2972788187895121,0.2722131466096863,-0.0895762222131422,169241.574552875,-56.30484008789062,-42.54106140136719,-547.0918579101562,169241.587736875,-0.5784263936628645,-1.095193223743446,1.417838577268212,-0.9029436707496643,0.3138071894645691,-0.02578270621597767,-0.2413027286529541,0.162122368812561,0.0561211109161377,1,0.4200277328491211,-0.5373038649559021,-0.5096946954727173,0.524492621421814,-0.1354520171880722,-0.988324761390686,-0.06976252049207687,0,0,0,-1,169240.671675,3,1,1561841424.618174,1561841239.621676,8,3.056457,0,0,7.575853,0,0,1561841413.282218,169238.661324,0,-0.04492188,75.19337,0,182478453,3,1,1,-18.63399,-31.61836,3
1561841425.317689,73,0,0,1561841424.997553,4.634564146403814,-74.15095358162573,2552.786,-1,-1,4,30,-9999,1561841425.301734,16.6942138671875,-16.76763153076172,13.10595703125,226.7615051269531,234.2547149658203,15,169241.613066875,-0.093231201171875,-0.7696685791015625,0.05084228515625,169241.613066875,1.699298909397291,-0.06848558427636868,-0.1621921030241148,169241.594663875,-55.98075866699219,-43.07682800292969,-547.3980712890625,169241.608000875,-0.552408165862179,-1.117453656681404,1.422481184951607,1.344276905059814,-0.003626673482358456,-0.1649781465530396,-0.002545386552810669,0.2559586763381958,0.08377867937088013,1,0.4230137467384338,-0.5373073220252991,-0.5080971121788025,0.5236388444900513,-0.1328458487987518,-0.9890214800834656,-0.06472042202949524,0,0,0,-1,169240.671675,3,1,1561841424.618174,1561841239.621676,8,3.056457,0,0,7.575853,0,0,1561841413.282218,169238.661324,0,-0.04492188,75.19337,0,182478453,3,1,1,-18.63399,-32.62158,3
1561841425.338048,74,0,0,1561841424.997553,4.634564146403814,-74.15095358162573,2552.786,-1,-1,4,30,-9999,1561841425.326279,16.75005340576172,-16.81389236450195,13.090576171875,226.4955596923828,233.98876953125,15,169241.633329875,-0.1248321533203125,-0.8903045654296875,0.1115570068359375,169241.633329875,2.17087070257202,0.1033016218391926,-0.07616720612459324,169241.614775875,-55.76528930664062,-42.59483337402344,-547.0138549804688,169241.628263875,-0.3015052219803241,-1.36719189409697,1.437727693077555,2.181093215942383,0.0005531576462090015,-0.1069089770317078,0.03876462578773499,0.1611118316650391,0.09193646907806396,1,0.4333901405334473,-0.5465888381004333,-0.498825877904892,0.514379620552063,-0.1299358904361725,-0.9911594390869141,-0.02682725712656975,0,0,0,-1,169240.671675,3,1,1561841424.618174,1561841239.621676,8,3.056457,0,0,7.575853,0,0,1561841413.282218,169238.661324,0,-0.04492188,75.19337,0,182478453,3,1,1,-18.63399,-32.62158,3
1561841425.358322,75,0,0,1561841424.997553,4.634564146403814,-74.15095358162573,2552.786,-1,-1,4,30,-9999,1561841425.352502,16.80577087402344,-15.70908355712891,14.15625,225.8876190185547,233.3808288574219,15,169241.653593875,-0.1707916259765625,-1.056396484375,0.18707275390625,169241.653593875,1.597750180187589,0.5553572379136028,-0.0206967564115508,169241.634855875,-55.67323303222656,-41.95036315917969,-546.472412109375,169241.648527875,0.01625842375142723,-1.677862028942642,1.441107478583362,1.787889242172241,0.4499450623989105,-0.04027296602725983,-0.02861148118972778,0.01883912086486816,0.1379441022872925,1,0.4454472661018372,-0.5554157495498657,-0.4867470562458038,0.5061297416687012,-0.1285845637321472,-0.9916021823883057,0.01381984353065491,0,0,0,-1,169240.671675,3,1,1561841424.618174,1561841239.621676,8,3.056457,0,0,7.575853,0,0,1561841413.282218,169238.661324,0,-0.04492188,75.19337,0,182478453,3,1,1,-18.63399,-33.57966,3
1561841425.378519,76,0,0,1561841424.997553,4.634564146403814,-74.15095358162573,2552.786,-1,-1,4,30,-9999,1561841425.377092,16.78264236450195,-15.27394485473633,14.8367919921875,224.7265777587891,232.2197875976562,15,169241.673857875,-0.1832122802734375,-1.15313720703125,0.233123779296875,169241.673857875,0.9281704957527053,0.7181594711434547,0.07457809790214295,169241.654966875,-55.85714721679688,-41.41268920898438,-545.9176635742188,169241.668791875,0.2296268292646599,-1.876870562081425,1.435123885125553,1.083122849464417,0.7216588854789734,0.04934506863355637,-0.05184623599052429,-0.1252782344818115,0.1695414781570435,1,0.4557086527347565,-0.5592023134231567,-0.4758954346179962,0.5031360983848572,-0.1289703994989395,-0.9908106327056885,0.04075520858168602,0,0,0,-1,169240.671675,3,1,1561841424.618174,1561841239.621676,8,3.056457,0,0,7.575853,0,0,1561841413.282218,169238.661324,0,-0.04492188,75.19337,0,182478453,3,1,1,-18.63399,-34.31055,3
1561841425.398873,77,0,0,1561841424.997553,4.634564146403814,-74.15095358162573,2552.786,-1,-1,4,30,-9999,1561841425.377092,16.78264236450195,-15.27394485473633,14.8367919921875,224.7265777587891,232.2197875976562,15,169241.694120875,-0.165313720703125,-1.194549560546875,0.2335662841796875,169241.694120875,0.4280386967318576,0.4374556343463778,0.1251491301577666,169241.675077875,-56.19474792480469,-40.92105102539062,-545.2537231445312,169241.689054875,0.3333401249865984,-1.966467144396587,1.427953127311727,0.5277813076972961,0.5124508142471313,0.1165534034371376,-0.02763813734054565,-0.1918559074401855,0.1781944036483765,1,0.4623260498046875,-0.5600792765617371,-0.4679679572582245,0.5035590529441833,-0.1313584297895432,-0.9898152351379395,0.05486834421753883,0,0,0,-1,169240.671675,3,1,1561841424.618174,1561841239.621676,8,3.056457,0,0,7.575853,0,0,1561841413.282218,169238.661324,0,-0.04492188,75.19337,0,182478453,1,1,1,-18.63399,-35.2672,3
1561841425.419041,78,0,0,1561841424.997553,4.634564146403814,-74.15095358162573,2552.786,-1,-1,4,30,-9999,1561841425.403074,16.49375534057617,-14.87813949584961,15.51751708984375,223.7978363037109,231.2910461425781,15,169241.714384875,-0.1752471923828125,-1.198745727539062,0.2047576904296875,169241.714384875,0.1314264671631924,0.07599223644097503,0.09052830230284553,169241.695188875,-56.30647277832031,-40.92243957519531,-544.9652099609375,169241.709318875,0.370961913891655,-1.997006429642982,1.422956603349118,0.1939639300107956,0.1403273046016693,0.10609170794487,-0.04194769263267517,-0.2061750888824463,0.1696320772171021,1,0.4649717807769775,-0.5605801343917847,-0.4638538360595703,0.5043715834617615,-0.1341234892606735,-0.9890915751457214,0.06089768931269646,0,0,0,-1,169240.671675,3,1,1561841424.618174,1561841239.621676,8,3.056457,0,0,7.575853,0,0,1561841413.282218,169238.661324,0,-0.04492188,75.19337,0,182478453,1,1,1,-18.63399,-36.19945,3
1561841425.439346,79,0,0,1561841424.997553,4.634564146403814,-74.15095358162573,2552.786,-1,-1,4,30,-9999,1561841425.428725,16.30507659912109,-14.82379913330078,15.37884521484375,223.5624084472656,231.0556182861328,15,169241.734648875,-0.181365966796875,-1.195510864257812,0.161712646484375,169241.734648875,-0.1143247119071396,-0.01446442682854737,0.05965347683722989,169241.715299875,-56.2969970703125,-41.08544921875,-544.7982177734375,169241.729551875,0.3752792696389385,-2.000535024826953,1.421026938063073,-0.05766749009490013,-0.01755978539586067,0.05573128163814545,-0.0435396134853363,-0.2102148532867432,0.1226174831390381,1,0.4650745689868927,-0.5610604882240295,-0.4629170596599579,0.5046035647392273,-0.1356443464756012,-0.9888055324554443,0.06216645240783691,0,0,0,-1,169240.671675,3,1,1561841424.618174,1561841239.621676,8,3.056457,0,0,7.575853,0,0,1561841413.282218,169238.661324,0,-0.04492188,75.19337,0,182478453,1,1,1,-18.63399,-36.94835,3
1561841425.46037,80,0,0,1561841424.997553,4.634564146403814,-74.15095358162573,2552.786,-1,-1,4,30,-9999,1561841425.4538,16.09555053710938,-14.65047836303711,15.5469970703125,223.6133880615234,231.1065979003906,15,169241.754881875,-0.17352294921875,-1.1824951171875,0.1097259521484375,169241.754881875,-0.21842687997001,-0.02739673708197215,0.050044525308115,169241.735410875,-56.30685424804688,-41.06137084960938,-545.042236328125,169241.749815875,0.353092282666071,-1.979040445551268,1.421338919180449,-0.2205591946840286,-0.02961218543350697,0.04349219426512718,-0.04110026359558105,-0.2077422142028809,0.07424819469451904,1,0.4638793170452118,-0.5606895685195923,-0.4636359214782715,0.5054551362991333,-0.1366646140813828,-0.9888520240783691,0.05911362543702126,0,0,0,-1,169240.671675,3,1,1561841424.618174,1561841239.621676,8,3.056457,0,0,7.575853,0,0,1561841413.282218,169238.661324,0,-0.04492188,75.19337,0,182478453,1,1,1,-18.63399,-37.7391,3
1561841425.479829,81,0,0,1561841424.997553,4.634564146403814,-74.15095358162573,2552.786,-1,-1,4,30,-9999,1561841425.478227,16.29006958007812,-14.95919036865234,15.39569091796875,223.6813507080078,231.174560546875,15,169241.775144875,-0.1767578125,-1.137954711914062,0.076171875,169241.775144875,-0.1125294750163171,0.02179211456790039,0.06250545604859575,169241.755522875,-56.46055603027344,-40.88037109375,-545.2531127929688,169241.770078875,0.325743543678581,-1.95252493916458,1.421881157380569,-0.1442881375551224,-0.005860251374542713,0.06025732681155205,-0.03572988510131836,-0.171269416809082,0.03577935695648193,1,0.4624564647674561,-0.5601508021354675,-0.4645991921424866,0.506470799446106,-0.1376862525939941,-0.9889326095581055,0.05526980757713318,0,0,0,-1,169240.671675,3,1,1561841424.618174,1561841239.621676,8,3.056457,0,0,7.575853,0,0,1561841413.282218,169238.661324,0,-0.04492188,75.19337,0,182478453,1,1,1,-18.63399,-37.7391,3
1561841425.500087,82,0,0,1561841424.997553,4.634564146403814,-74.15095358162573,2552.786,-1,-1,4,30,-9999,1561841425.478227,16.29006958007812,-14.95919036865234,15.39569091796875,223.6813507080078,231.174560546875,15,169241.795424125,-0.17767333984375,-1.095184326171875,0.0608978271484375,169241.795424125,0.001667405158498611,0.0868270410198534,0.05856557553193253,169241.775602875,-56.33555603027344,-41.09689331054688,-545.022216796875,169241.790342875,0.3127758738053512,-1.939050224139303,1.421355861909503,-0.01677784882485867,0.06663498282432556,0.05926822498440742,-0.0348181426525116,-0.1298283338546753,0.0139082670211792,1,0.4618674218654633,-0.5598899722099304,-0.4645942151546478,0.5073006153106689,-0.1389031857252121,-0.9888545274734497,0.05359659343957901,0,0,0,-1,169240.671675,3,1,1561841424.618174,1561841239.621676,8,3.056457,0,0,7.575853,0,0,1561841413.282218,169238.661324,0,-0.04492188,75.19337,0,182478453,1,1,1,-18.63399,-38.16177,3
1561841425.520345,83,0,0,1561841424.997553,4.634564146403814,-74.15095358162573,2552.786,-1,-1,4,30,-9999,1561841425.504405,16.39802551269531,-15.00439834594727,15.43865966796875,223.6120910644531,231.1053009033203,15,169241.815688125,-0.18023681640625,-1.055450439453125,0.05462646484375,169241.815688125,0.03874393385458177,0.1402130345476908,0.03180533395048932,169241.795729125,-56.5074462890625,-41.05667114257812,-545.082275390625,169241.810622125,0.3113364859450689,-1.935637663595575,1.420318181060352,0.02310378663241863,0.1256785988807678,0.04083302617073059,-0.039460688829422,-0.08233016729354858,0.002557277679443359,1,0.4620798826217651,-0.5596662759780884,-0.4638213813304901,0.5080605745315552,-0.1400436758995056,-0.9886994957923889,0.05348831787705421,0,0,0,-1,169240.671675,3,1,1561841424.618174,1561841239.621676,8,3.056457,0,0,7.575853,0,0,1561841413.282218,169238.661324,0,-0.04492188,75.19337,0,182478453,1,1,1,-18.63399,-38.8828,3
1561841425.540559,84,0,0,1561841424.997553,4.634564146403814,-74.15095358162573,2552.786,-1,-1,4,30,-9999,1561841425.528922,16.08754348754883,-14.91390609741211,15.5865478515625,223.4227142333984,230.9159240722656,15,169241.835951125,-0.1649169921875,-1.0501708984375,0.0569305419921875,169241.835951125,0.1584455680025913,0.1687938130503122,-0.02987720532127195,169241.815840125,-56.47288513183594,-41.31698608398438,-544.9185180664062,169241.830885125,0.3183469292353414,-1.939689833323643,1.419636589603427,0.1163743436336517,0.156953439116478,-0.01771470531821251,-0.03734111785888672,-0.06047517061233521,0.001564145088195801,1,0.4629864692687988,-0.5592787265777588,-0.4627465307712555,0.50864177942276,-0.1404542922973633,-0.9885970950126648,0.05429833009839058,0,0,0,-1,169240.671675,3,1,1561841424.618174,1561841239.621676,8,3.056457,0,0,7.575853,0,0,1561841413.282218,169238.661324,0,-0.04492188,75.19337,0,182478453,1,1,1,-18.63399,-39.78339,3
1561841425.560989,85,0,0,1561841424.997553,4.634564146403814,-74.15095358162573,2552.786,-1,-1,4,30,-9999,1561841425.555105,16.3021240234375,-14.92121505737305,15.8177490234375,223.15478515625,230.6479949951172,15,169241.856215125,-0.1475067138671875,-1.034347534179688,0.0602874755859375,169241.856215125,0.3042634913804629,0.1803194416159571,-0.07104488208393483,169241.835951125,-56.44651794433594,-41.25288391113281,-544.6802978515625,169241.851149125,0.345138975604648,-1.962858763951872,1.41894484890631,0.2744254767894745,0.1662673056125641,-0.06322626769542694,-0.01423212885856628,-0.05632233619689941,-0.0002883672714233398,1,0.4650126099586487,-0.559162437915802,-0.4610743224620819,0.5084397792816162,-0.1397901028394699,-0.9884927272796631,0.05779871717095375,0,0,0,-1,169240.671675,3,1,1561841424.618174,1561841239.621676,8,3.056457,0,0,7.575853,0,0,1561841413.282218,169238.661324,0,-0.04492188,75.19337,0,182478453,1,1,1,-18.63399,-40.55494,3
1561841425.581156,86,0,0,1561841424.997553,4.634564146403814,-74.15095358162573,2552.786,-1,-1,4,30,-9999,1561841425.579445,15.95729064941406,-14.9764404296875,15.748046875,222.8010711669922,230.2942810058594,15,169241.876479125,-0.1517486572265625,-1.012313842773438,0.07159423828125,169241.876479125,0.3055934740288485,0.2493586970829533,-0.08971950027978846,169241.856062125,-56.46430969238281,-41.0665283203125,-544.52001953125,169241.871382125,0.3870293633458347,-2.000288615428037,1.417845942113371,0.3166232705116272,0.2310673445463181,-0.08302100747823715,-0.009294182062149048,-0.03440976142883301,0.001880884170532227,1,0.4679476320743561,-0.559237003326416,-0.4587832391262054,0.5077371001243591,-0.1385176926851273,-0.9883258938789368,0.06344202160835266,0,0,0,-1,169240.671675,3,1,1561841424.618174,1561841239.621676,8,3.056457,0,0,7.575853,0,0,1561841413.282218,169238.661324,0,-0.04492188,75.19337,0,182478453,1,1,1,-18.63399,-41.2235,3
1561841425.601472,87,0,0,1561841424.997553,4.634564146403814,-74.15095358162573,2552.786,-1,-1,4,30,-9999,1561841425.579445,15.95729064941406,-14.9764404296875,15.748046875,222.8010711669922,230.2942810058594,15,169241.896712125,-0.1479949951171875,-1.01373291015625,0.08636474609375,169241.896712125,0.2443889721727564,0.2024790724142884,-0.101129281338015,169241.876143125,-56.8052978515625,-40.98622131347656,-544.6991577148438,169241.891646125,0.427439979457163,-2.035377954052032,1.41715747121246,0.2575801908969879,0.2175677865743637,-0.1099090799689293,-0.01684033870697021,-0.0200037956237793,0.01051867008209229,1,0.4711162447929382,-0.558867871761322,-0.4565258622169495,0.5072479248046875,-0.1368156373500824,-0.988220751285553,0.06856762617826462,0,0,0,-1,169240.671675,3,1,1561841424.618174,1561841239.621676,8,3.056457,0,0,7.575853,0,0,1561841413.282218,169238.661324,0,-0.04492188,75.19337,0,182478453,1,1,1,-18.63399,-41.77904,3
1561841425.621695,88,0,0,1561841424.997553,4.634564146403814,-74.15095358162573,2552.786,-1,-1,4,30,-9999,1561841425.605697,16.014404296875,-14.70690155029297,15.8494873046875,222.4220428466797,229.9152526855469,15,169241.916976125,-0.13641357421875,-1.01593017578125,0.088348388671875,169241.916976125,0.1851496168850338,0.110036756236003,-0.04207767890714296,169241.896254125,-56.53593444824219,-40.91496276855469,-544.5816650390625,169241.911910125,0.4598287899929166,-2.063974490581486,1.416613891351952,0.2028144299983978,0.1154866814613342,-0.05854016542434692,-0.002836167812347412,-0.03047823905944824,0.01793205738067627,1,0.473578006029129,-0.5586380362510681,-0.4548777639865875,0.5066888332366943,-0.1352711021900177,-0.988137423992157,0.07270516455173492,0,0,0,-1,169240.671675,3,1,1561841424.618174,1561841239.621676,8,3.056457,0,0,7.575853,0,0,1561841413.282218,169238.661324,0,-0.04492188,75.19337,0,182478453,1,1,1,-18.63399,-42.70015,3
1561841425.641844,89,0,0,1561841424.997553,4.634564146403814,-74.15095358162573,2552.786,-1,-1,4,30,-9999,1561841425.630206,15.93532943725586,-14.51132583618164,15.96038818359375,222.2091369628906,229.7023468017578,15,169241.937239125,-0.15411376953125,-1.014205932617188,0.0951995849609375,169241.937239125,0.08545551305846259,0.1024920208678085,-0.07399513193952462,169241.916365125,-56.645263671875,-40.53109741210938,-544.2630004882812,169241.932173125,0.4813496392999853,-2.08318352741794,1.415860674979817,0.1129351407289505,0.09695374965667725,-0.05747649818658829,-0.009712159633636475,-0.02685582637786865,0.01527202129364014,1,0.47513347864151,-0.5586373805999756,-0.453715056180954,0.5062757134437561,-0.134498655796051,-0.9880214333534241,0.07565508782863617,0,0,0,-1,169240.671675,3,1,1561841424.618174,1561841239.621676,8,3.056457,0,0,7.575853,0,0,1561841413.282218,169238.661324,0,-0.04492188,75.19337,0,182478453,1,1,1,-18.63399,-42.70015,3
1561841425.662214,90,0,0,1561841424.997553,4.634564146403814,-74.15095358162573,2552.786,-1,-1,4,30,-9999,1561841425.656385,15.8673210144043,-14.50863265991211,16.08447265625,222.0591888427734,229.5523986816406,15,169241.957503125,-0.15643310546875,-1.011383056640625,0.09161376953125,169241.957503125,-0.03902649524623917,0.05976426433857719,-0.1386793200759142,169241.936476125,-56.75337219238281,-40.32339477539062,-544.3280639648438,169241.952437125,0.4932711241598425,-2.093101660286743,1.417131583578594,-0.01684362813830376,0.07606124877929688,-0.1348426640033722,-0.02945601940155029,-0.02585184574127197,0.01993930339813232,1,0.476360946893692,-0.5579065084457397,-0.453512042760849,0.5061100721359253,-0.1326533555984497,-0.988216757774353,0.0763588473200798,0,0,0,-1,169240.671675,3,1,1561841424.618174,1561841239.621676,8,3.056457,0,0,7.575853,0,0,1561841413.282218,169238.661324,0,-0.04492188,75.19337,0,182478453,1,1,1,-18.63399,-42.98833,3
1561841425.682433,91,0,0,1561841424.997553,4.634564146403814,-74.15095358162573,2552.786,-1,-1,4,30,-9999,1561841425.680702,15.79177093505859,-14.41801071166992,16.19281005859375,222.0183258056641,229.5115356445312,15,169241.977767125,-0.1301116943359375,-0.986083984375,0.068878173828125,169241.977767125,-0.1140056652085481,0.02639006218992219,-0.1214294930632529,169241.956587125,-56.77803039550781,-40.54164123535156,-544.2455444335938,169241.972701125,0.4948791464660785,-2.093880527580041,1.420220030984252,-0.1080116257071495,0.01420959644019604,-0.1323656588792801,-0.008707284927368164,-0.01398551464080811,0.004713773727416992,1,0.4769878387451172,-0.5567325949668884,-0.4543975293636322,0.5060181021690369,-0.1299493461847305,-0.9886847734451294,0.07493716478347778,0,0,0,-1,169240.671675,3,1,1561841424.618174,1561841239.621676,8,3.056457,0,0,7.575853,0,0,1561841413.282218,169238.661324,0,-0.04492188,75.19337,0,182478453,1,1,1,-18.63399,-43.26122,3
1561841425.702666,92,0,0,1561841424.997553,4.634564146403814,-74.15095358162573,2552.786,-1,-1,4,30,-9999,1561841425.680702,15.79177093505859,-14.41801071166992,16.19281005859375,222.0183258056641,229.5115356445312,15,169241.998030125,-0.1174163818359375,-0.96148681640625,0.0612945556640625,169241.998030125,-0.05497883017581381,0.05975600853919795,-0.06978813636552644,169241.976698125,-56.52798461914062,-40.50856018066406,-544.4871826171875,169241.992964125,0.4896772701934778,-2.088193850726999,1.423285345413894,-0.08669994026422501,0.04171179607510567,-0.08777208626270294,0.006980478763580322,0.01698726415634155,-0.00931239128112793,1,0.4771888852119446,-0.5555533170700073,-0.4554542303085327,0.5061745643615723,-0.1277385205030441,-0.9891399741172791,0.07269743829965591,0,0,0,-1,169240.671675,3,1,1561841424.618174,1561841239.621676,8,3.056457,0,0,7.575853,0,0,1561841413.282218,169238.661324,0,-0.04492188,75.19337,0,182478453,1,1,1,-18.63399,-43.82653,3
1561841425.72291,93,0,0,1561841424.997553,4.634564146403814,-74.15095358162573,2552.786,-1,-1,4,30,-9999,1561841425.706961,15.99721527099609,-14.38868713378906,16.29296875,221.9815673828125,229.4747772216797,15,169242.018294125,-0.11529541015625,-0.956512451171875,0.0650787353515625,169242.018294125,0.07028881065046133,0.03633137622307898,-0.03909440585403619,169241.996779125,-56.68392944335938,-40.6080322265625,-544.2364501953125,169242.013197125,0.4915423960083227,-2.088905558882008,1.424573653296803,0.04262715578079224,0.04784825071692467,-0.04373591765761375,0.009393095970153809,0.03092396259307861,-0.008116602897644043,1,0.4776939153671265,-0.5548760294914246,-0.4556119441986084,0.5062993168830872,-0.1265805959701538,-0.9893285036087036,0.07215777039527893,0,0,0,-1,169240.671675,3,1,1561841424.618174,1561841239.621676,8,3.056457,0,0,7.575853,0,0,1561841413.282218,169239.603875,0,-0.01831055,75.19312,0,182478453,1,1,1,-18.63399,-40.27503,3
1561841425.744798,94,0,0,1561841424.997553,4.634564146403814,-74.15095358162573,2552.786,-1,-1,4,30,-9999,1561841425.731294,15.87249374389648,-14.51268768310547,16.10687255859375,221.9122924804688,229.4055023193359,15,169242.038527125,-0.1287689208984375,-0.9553985595703125,0.069427490234375,169242.038527125,0.1125965866757871,0.01586338534916599,-0.06714281845475073,169242.016890125,-56.642822265625,-40.67068481445312,-544.4652099609375,169242.033461125,0.5052259129807473,-2.102021318938553,1.42448024146438,0.1118823885917664,0.003473595716059208,-0.06075245141983032,0.007980197668075562,0.03351962566375732,-0.007848262786865234,1,0.4784932732582092,-0.5549532175064087,-0.4552521407604218,0.5057830810546875,-0.1257017254829407,-0.9893149137496948,0.07385776937007904,0,0,0,-1,169240.671675,3,1,1561841424.618174,1561841239.621676,8,3.056457,0,0,7.575853,0,0,1561841413.282218,169239.603875,0,-0.01831055,75.19312,0,182478453,1,1,1,-18.63399,-40.58608,3
1561841425.763516,95,0,0,1561841424.997553,4.634564146403814,-74.15095358162573,2552.786,-1,-1,4,30,-9999,1561841425.757632,15.98627090454102,-14.3253173828125,16.2425537109375,221.862548828125,229.3557586669922,15,169242.058791125,-0.137451171875,-0.9593963623046875,0.0802154541015625,169242.058791125,0.08995945109400461,0.08553620683949199,-0.1425265225866427,169242.037001125,-56.58489990234375,-40.50016784667969,-544.2703247070312,169242.053725125,0.523827006141677,-2.11985726829006,1.424892401034037,0.09052170813083649,0.06427356600761414,-0.1268411874771118,-0.01343429088592529,0.02987170219421387,-0.003991127014160156,1,0.4796401262283325,-0.5548720359802246,-0.4549718797206879,0.5050375461578369,-0.1240168809890747,-0.9893748760223389,0.07587525248527527,0,0,0,-1,169240.671675,3,1,1561841424.618174,1561841239.621676,8,3.056457,0,0,7.575853,0,0,1561841413.282218,169239.603875,0,-0.01831055,75.19312,0,182478453,1,1,1,-18.63399,-41.08287,3
1561841425.783736,96,0,0,1561841424.997553,4.634564146403814,-74.15095358162573,2552.786,-1,-1,4,30,-9999,1561841425.782046,15.96524810791016,-14.17150497436523,16.22802734375,221.7231750488281,229.2163848876953,15,169242.079054125,-0.1224212646484375,-0.94757080078125,0.0955963134765625,169242.079054125,0.1223104667518512,0.08322564827773925,-0.1532433491292305,169242.057112125,-56.62522888183594,-40.33894348144531,-544.24462890625,169242.073989125,0.5460899266170562,-2.140165384580399,1.426520104310231,0.1089776828885078,0.09116882085800171,-0.1639952212572098,-0.009475350379943848,0.03344875574111938,0.01033508777618408,1,0.4813581109046936,-0.5541202425956726,-0.4548204243183136,0.5043644309043884,-0.1210940778255463,-0.9896102547645569,0.07750974595546722,0,0,0,-1,169240.671675,3,1,1561841424.618174,1561841239.621676,8,3.056457,0,0,7.575853,0,0,1561841413.282218,169239.603875,0,-0.01831055,75.19312,0,182478453,1,1,1,-18.63399,-41.78306,3
1561841425.803955,97,0,0,1561841424.997553,4.634564146403814,-74.15095358162573,2552.786,-1,-1,4,30,-9999,1561841425.782046,15.96524810791016,-14.17150497436523,16.22802734375,221.7231750488281,229.2163848876953,15,169242.099318125,-0.1000213623046875,-0.9333343505859375,0.1014404296875,169242.099318125,0.1708814650288253,0.03006762133921262,-0.07166167019239718,169242.077193125,-56.72514343261719,-40.55821228027344,-544.3319091796875,169242.094252125,0.5726444164728427,-2.165193140299142,1.427400471088872,0.1612989455461502,0.03170683234930038,-0.09963194280862808,0.01066836714744568,0.05260264873504639,0.02028274536132812,1,0.4831051528453827,-0.5537360906600952,-0.454483687877655,0.5034187436103821,-0.1183954328298569,-0.9897364377975464,0.08002849668264389,0,0,0,-1,169240.671675,3,1,1561841424.618174,1561841239.621676,8,3.056457,0,0,7.575853,0,0,1561841413.282218,169239.603875,0,-0.01831055,75.19312,0,182478453,1,1,1,-18.63399,-41.78306,3
1561841425.833351,98,0,0,1561841424.997553,4.634564146403814,-74.15095358162573,2552.786,-1,-1,4,30,-9999,1561841425.808305,16.06613540649414,-14.25199508666992,16.2066650390625,221.6327209472656,229.1259307861328,15,169242.119582125,-0.100677490234375,-0.9400177001953125,0.1009674072265625,169242.119582125,0.1469265973396716,0.01176051937378992,0.01464552178267275,169242.097304125,-56.53559875488281,-40.2635498046875,-544.083251953125,169242.114516125,0.5960034104313991,-2.187884582212737,1.426352350435072,0.158793717622757,0.01040340773761272,-0.006483355071395636,0.01810625195503235,0.05551934242248535,0.02005326747894287,1,0.4843342304229736,-0.5541368126869202,-0.4537155628204346,0.5024888515472412,-0.1173951849341393,-0.9895861148834229,0.08329451084136963,0,0,0,-1,169240.671675,3,1,1561841424.618174,1561841239.621676,8,3.056457,0,0,7.575853,0,0,1561841413.282218,169239.603875,0,-0.01831055,75.19312,0,182478453,1,1,1,-18.63399,-42.81467,3
1561841425.844544,99,0,0,1561841424.997553,4.634564146403814,-74.15095358162573,2552.786,-1,-1,4,30,-9999,1561841425.835794,15.87155914306641,-14.01423645019531,16.5740966796875,221.5876007080078,229.080810546875,15,169242.139845125,-0.1145477294921875,-0.9673919677734375,0.1052703857421875,169242.139845125,0.05735516881649151,0.03034965009865201,0.007157778061805968,169242.117415125,-56.67303466796875,-40.00460815429688,-544.0234985351562,169242.134780125,0.6089356122337143,-2.200456379727727,1.424592553124715,0.08233994245529175,0.01727915555238724,0.01670958288013935,0.0120774507522583,0.03658771514892578,0.01551508903503418,1,0.4849318563938141,-0.5547387599945068,-0.4528713822364807,0.5020093321800232,-0.1177445501089096,-0.9893312454223633,0.08578799664974213,0,0,0,-1,169240.671675,3,1,1561841424.618174,1561841239.621676,8,3.056457,0,0,7.575853,0,0,1561841413.282218,169239.603875,0,-0.01831055,75.19312,0,182478453,1,1,1,-18.63399,-42.81467,3
1561841425.865273,100,0,0,1561841424.997553,4.634564146403814,-74.15095358162573,2552.786,-1,-1,4,30,-9999,1561841425.859123,15.87653732299805,-14.0760383605957,16.50543212890625,221.5390014648438,229.0322113037109,15,169242.160109125,-0.121337890625,-0.9774017333984375,0.1069488525390625,169242.160109125,-0.01086809409250436,0.04861147832554336,-0.03780037588036669,169242.137526125,-56.76828002929688,-40.02508544921875,-543.9700927734375,169242.155013125,0.6134264754279168,-2.204269473726163,1.424341831900383,-0.003704923205077648,0.04054133594036102,-0.03613339364528656,-0.005169659852981567,0.01352566480636597,0.02161753177642822,1,0.485295295715332,-0.5546895861625671,-0.4525766670703888,0.5019784569740295,-0.1176177933812141,-0.989294707775116,0.0863841250538826,0,0,0,-1,169240.671675,3,1,1561841424.618174,1561841239.621676,8,3.056457,0,0,7.575853,0,0,1561841413.282218,169239.603875,0,-0.01831055,75.19312,0,182478453,1,1,1,-18.63399,-43.36368,3
1561841425.884983,101,0,0,1561841424.997553,4.634564146403814,-74.15095358162573,2552.786,-1,-1,4,30,-9999,1561841425.883283,15.9933967590332,-13.89329528808594,16.484619140625,221.4538269042969,228.9470367431641,15,169242.180342125,-0.094879150390625,-0.9572296142578125,0.10107421875,169242.180342125,-0.0196448077809695,0.1261827029768264,-0.002038649814455657,169242.157637125,-56.66072082519531,-40.02456665039062,-543.8021850585938,169242.175276125,0.6153075876185614,-2.205052959467238,1.425069101450904,-0.01590113528072834,0.08708779513835907,-0.02689515240490437,0.00254446268081665,0.02039110660552979,0.02015149593353271,1,0.4856938123703003,-0.5541898012161255,-0.4525612890720367,0.5021588206291199,-0.1169701591134071,-0.9894005656242371,0.0860496312379837,0,0,0,-1,169240.671675,3,1,1561841424.618174,1561841239.621676,8,3.056457,0,0,7.575853,0,0,1561841413.282218,169239.603875,0,-0.01831055,75.19312,0,182478453,1,1,1,-19.19127,-43.92366,3
1561841425.912575,102,0,0,1561841424.997553,4.634564146403814,-74.15095358162573,2552.786,-1,-1,4,30,-9999,1561841425.910095,16.09113693237305,-13.96688461303711,16.34625244140625,221.1116333007812,228.6048431396484,15,169242.200606125,-0.0716400146484375,-0.9497528076171875,0.073944091796875,169242.200606125,-0.04383509891048624,0.338113334099806,0.1966720496573707,169242.177748125,-56.58766174316406,-40.03446960449219,-543.9833374023438,169242.195540125,0.6091687698419386,-2.195440307107224,1.424791380233806,-0.03698831051588058,0.2843505144119263,0.1329986304044724,0.04263660311698914,0.03722703456878662,0.001328468322753906,1,0.4861460030078888,-0.5533562302589417,-0.451667308807373,0.5034437775611877,-0.1180149912834167,-0.9893602132797241,0.08508210629224777,0,0,0,-1,169240.671675,3,1,1561841424.618174,1561841239.621676,8,3.056457,0,0,7.575853,0,0,1561841413.282218,169239.603875,0,-0.01831055,75.19312,0,182478453,1,1,1,-19.74854,-44.27161,3
1561841425.927093,103,0,0,1561841424.997553,4.634564146403814,-74.15095358162573,2552.786,-1,-1,4,30,-9999,1561841425.910095,16.09113693237305,-13.96688461303711,16.34625244140625,221.1116333007812,228.6048431396484,15,169242.220870125,-0.0828094482421875,-0.9573822021484375,0.05804443359375,169242.220870125,-0.04646843259635659,0.3863679488392788,0.3824035672405868,169242.197859125,-56.77078247070312,-40.32618713378906,-544.1572265625,169242.215804125,0.5840207372726084,-2.163434844128111,1.421225716308014,-0.05385677143931389,0.3808858394622803,0.3525666892528534,0.05060431361198425,0.03935700654983521,-0.02366149425506592,1,0.4861051440238953,-0.5525556206703186,-0.4489368200302124,0.5067936778068542,-0.1236023977398872,-0.9888351559638977,0.0832318514585495,0,0,0,-1,169240.671675,3,1,1561841424.618174,1561841239.621676,8,3.056457,0,0,7.575853,0,0,1561841413.282218,169239.603875,0,-0.01831055,75.19312,0,182478453,1,1,1,-20.30582,-44.68565,3
1561841425.945818,104,0,0,1561841424.997553,4.634564146403814,-74.15095358162573,2552.786,-1,-1,4,30,-9999,1561841425.93394,15.67915344238281,-14.13769912719727,16.65899658203125,220.5736999511719,228.0669097900391,15,169242.241133125,-0.1532135009765625,-0.992919921875,0.0881500244140625,169242.241133125,-0.03454972145381598,0.405229520943656,0.3046893308387665,169242.217940125,-56.86288452148438,-40.19032287597656,-543.681396484375,169242.236067125,0.5523243409846138,-2.124297073627474,1.415307498077543,-0.03636246547102928,0.398381233215332,0.3501216471195221,0.01865673065185547,0.01634776592254639,-0.0101017951965332,1,0.485543429851532,-0.5522233843803406,-0.4453423917293549,0.5108492374420166,-0.1317396461963654,-0.9879359602928162,0.08140617609024048,0,0,0,-1,169240.671675,3,1,1561841424.618174,1561841239.621676,8,3.056457,0,0,7.575853,0,0,1561841413.282218,169239.603875,0,-0.01831055,75.19312,0,182478453,1,1,1,-20.8631,-45.52689,3
1561841425.966056,105,0,0,1561841424.997553,4.634564146403814,-74.15095358162573,2552.786,-1,-1,4,30,-9999,1561841425.960528,15.32881164550781,-14.20752716064453,16.72589111328125,220.0176544189453,227.5108642578125,15,169242.261397125,-0.1811981201171875,-1.028030395507812,0.1065521240234375,169242.261397125,-0.0314719061820114,0.3253693093354498,0.05684437451941431,169242.238051125,-57.26156616210938,-40.37991333007812,-543.8531494140625,169242.256331125,0.532667582740883,-2.097035145910912,1.411580729482646,-0.03727646544575691,0.3528808355331421,0.1104214191436768,-0.03675010800361633,-0.02725070714950562,0.02334737777709961,1,0.4857803881168365,-0.5512118339538574,-0.4424117803573608,0.5142516493797302,-0.137093260884285,-0.9873519539833069,0.07963414490222931,0,0,0,-1,169240.671675,3,1,1561841424.618174,1561841239.621676,8,3.056457,0,0,7.575853,0,0,1561841413.282218,169239.603875,0,-0.01831055,75.19312,0,182478453,1,1,1,-20.8631,-45.52689,3
1561841425.990856,106,0,0,1561841424.997553,4.634564146403814,-74.15095358162573,2552.786,-1,-1,4,30,-9999,1561841425.985231,15.20038604736328,-14.33419799804688,16.98309326171875,219.6445007324219,227.1377105712891,15,169242.281661125,-0.1720123291015625,-1.02911376953125,0.1156463623046875,169242.281661125,0.02213592866462962,0.1425081467751211,-0.02670538046298758,169242.258162125,-57.39421081542969,-40.24325561523438,-543.449462890625,169242.276595125,0.5295758514551876,-2.088400300674491,1.411512546573976,0.004391086287796497,0.1882133483886719,-0.03253546357154846,-0.04173082113265991,-0.04615187644958496,0.03447985649108887,1,0.4868291020393372,-0.5497616529464722,-0.4410837590694427,0.5159503221511841,-0.1378345787525177,-0.9873411655426025,0.07848089933395386,0,0,0,-1,169240.671675,3,1,1561841424.618174,1561841239.621676,8,3.056457,0,0,7.575853,0,0,1561841413.282218,169239.603875,0,-0.01831055,75.19312,0,182478453,1,1,1,-21.42038,-45.80737,3
1561841426.006534,107,0,0,1561841424.997553,4.634564146403814,-74.15095358162573,2552.786,-1,-1,4,30,-9999,1561841425.985231,15.20038604736328,-14.33419799804688,16.98309326171875,219.6445007324219,227.1377105712891,15,169242.301924125,-0.14862060546875,-0.9989471435546875,0.099090576171875,169242.301924125,0.07078309334878004,-0.02056546256980989,0.05858741345287118,169242.278273125,-57.4359130859375,-40.54298400878906,-543.61962890625,169242.296828125,0.5348606201477077,-2.091744644624298,1.411400783571667,0.07039779424667358,0.008613229729235172,0.03523506224155426,-0.0287909209728241,-0.02685201168060303,0.03115677833557129,1,0.487531840801239,-0.5493732094764709,-0.4404943883419037,0.5162039995193481,-0.1376672089099884,-0.9873234033584595,0.0789964348077774,0,0,0,-1,169242.301406125,3,2,1561841426.247905,1561841239.621676,8,3.056457,0,0,7.575853,0,0,1561841413.282218,169239.603875,0,-0.01831055,75.19312,0,182478453,1,1,1,-21.97766,-46.50085,3
1561841426.027069,108,0,0,1561841424.997553,4.634564146403814,-74.15095358162573,2552.786,-1,-1,4,30,-9999,1561841426.011018,15.23812484741211,-14.25565338134766,17.05377197265625,219.5764617919922,227.0696716308594,15,169242.322157125,-0.131500244140625,-0.9984588623046875,0.0828704833984375,169242.322157125,0.02230290886497759,-0.06502560538813773,0.07053009304522251,169242.298354125,-57.4888916015625,-40.44882202148438,-543.5670776367188,169242.317092125,0.5373947559997192,-2.095164325026034,1.409835144605151,0.03477908670902252,-0.07502014935016632,0.0701669454574585,0.0090484619140625,-0.006868541240692139,0.00588071346282959,1,0.4873043596744537,-0.5501403212547302,-0.4401095807552338,0.5159297585487366,-0.1387328952550888,-0.9870737195014954,0.08023982495069504,0,0,0,-1,169242.301406125,3,2,1561841426.247905,1561841239.621676,8,3.056457,0,0,7.575853,0,0,1561841413.282218,169239.603875,0,-0.01831055,75.19312,0,182478453,1,1,1,-22.53494,-45.53359,3
1561841426.047124,109,0,0,1561841425.997539,4.634577766996468,-74.15096942342272,2552.825,-1,-1,4,30,-9999,1561841426.038648,15.07630920410156,-14.29817581176758,16.91461181640625,219.6612548828125,227.1544647216797,15,169242.342421125,-0.145111083984375,-1.004547119140625,0.091796875,169242.342421125,-0.01874625722917677,-0.01593475806638011,0.04128672006338942,169242.318465125,-57.60458374023438,-40.45388793945312,-543.5728759765625,169242.337355125,0.5342631926137222,-2.093168499749309,1.408618628043601,-0.01517196279019117,-0.02803106792271137,0.04893516376614571,-0.0005986392498016357,-0.01457154750823975,0.004855990409851074,1,0.4867483973503113,-0.550778865814209,-0.4399915635585785,0.5158742070198059,-0.1399348378181458,-0.986877977848053,0.08056272566318512,0,0,0,-1,169242.301406125,3,2,1561841426.247905,1561841239.621676,8,3.056457,0,0,7.575853,0,0,1561841413.282218,169239.603875,0,-0.01831055,75.19312,0,182478453,1,1,1,-23.09222,-45.61292,3
1561841426.071554,110,0,0,1561841425.997539,4.634577766996468,-74.15096942342272,2552.825,-1,-1,4,30,-9999,1561841426.062099,15.29302597045898,-14.32522964477539,17.0264892578125,219.6986083984375,227.1918182373047,15,169242.362685125,-0.1469879150390625,-1.008758544921875,0.10418701171875,169242.362685125,0.01345695298817039,-0.03893594776917648,-0.005921272367682178,169242.338576125,-57.43692016601562,-40.25074768066406,-543.5547485351562,169242.357619125,0.5306834665100862,-2.090050494999567,1.408213545036077,-0.003403986105695367,-0.0288862083107233,0.006397290155291557,-0.003709167242050171,-0.02118313312530518,0.01797294616699219,1,0.4864035844802856,-0.5509752035140991,-0.4400103688240051,0.515973687171936,-0.1405321806669235,-0.9868125319480896,0.08032424747943878,0,0,0,-1,169242.301406125,3,2,1561841426.247905,1561841239.621676,8,3.056457,0,0,7.575853,0,0,1561841413.282218,169239.603875,0,-0.01831055,75.19312,0,182478453,1,1,1,-23.6495,-46.43843,3
1561841426.087592,111,0,0,1561841425.997539,4.634577766996468,-74.15096942342272,2552.825,-1,-1,4,30,-9999,1561841426.085931,15.16651153564453,-14.13539123535156,17.2301025390625,219.779296875,227.2725067138672,15,169242.382948125,-0.1499176025390625,-1.000289916992188,0.108978271484375,169242.382948125,0.08477614066438338,-0.08264055178624884,-0.05373140552122069,169242.358687125,-57.25801086425781,-40.157470703125,-543.3905029296875,169242.377883125,0.5358378853079395,-2.096325053310752,1.40823659563942,0.06877646595239639,-0.0803816169500351,-0.04978635534644127,-0.01050743460655212,-0.01707476377487183,0.0270226001739502,1,0.486445814371109,-0.5513318777084351,-0.4402159452438354,0.5153771042823792,-0.1400052458047867,-0.9868162274360657,0.0811927393078804,0,0,0,-1,169242.301406125,3,2,1561841426.247905,1561841239.621676,8,3.056457,0,0,7.575853,0,0,1561841413.282218,169239.603875,0,-0.01831055,75.19312,0,182478453,1,1,1,-24.20677,-45.42035,3
1561841426.107876,112,0,0,1561841425.997539,4.634577766996468,-74.15096942342272,2552.825,-1,-1,4,30,-9999,1561841426.085931,15.16651153564453,-14.13539123535156,17.2301025390625,219.779296875,227.2725067138672,15,169242.403212125,-0.14483642578125,-0.9917144775390625,0.0992889404296875,169242.403212125,0.08803611615474938,-0.06268495310606709,-0.06186043843257856,169242.378768125,-57.48381042480469,-40.45149230957031,-543.4835815429688,169242.398146125,0.5493779366312789,-2.111411331259285,1.408397754187426,0.09496013075113297,-0.07827213406562805,-0.06880185753107071,-0.01162603497505188,-0.01025855541229248,0.019539475440979,1,0.4868758618831635,-0.551868200302124,-0.4404604732990265,0.5141865611076355,-0.1386272758245468,-0.9868423342704773,0.08321323245763779,0,0,0,-1,169242.301406125,3,2,1561841426.247905,1561841239.621676,8,3.056457,0,0,7.575853,0,0,1561841413.282218,169239.603875,0,-0.01831055,75.19312,0,182478453,1,1,1,-24.76405,-45.99237,3
1561841426.128497,113,0,0,1561841425.997539,4.634577766996468,-74.15096942342272,2552.825,-1,-1,4,30,-9999,1561841426.112233,15.17780685424805,-14.18638229370117,17.09429931640625,219.8754577636719,227.3686676025391,15,169242.423476125,-0.130401611328125,-0.9878997802734375,0.100006103515625,169242.423476125,0.08019443832501107,-0.01404631053740493,-0.02381984542188672,169242.398879125,-57.26142883300781,-40.31452941894531,-543.3966064453125,169242.418379125,0.5619232183794274,-2.124927328867497,1.408563784874834,0.0764349177479744,-0.03351691365242004,-0.03988471999764442,0.002570420503616333,-0.0002219080924987793,0.01366984844207764,1,0.4873785376548767,-0.5522308349609375,-0.4405902028083801,0.5132090449333191,-0.1373513042926788,-0.9868691563606262,0.08499346673488617,0,0,0,-1,169242.301406125,3,2,1561841426.247905,1561841239.621676,8,3.056457,0,0,7.575853,0,0,1561841413.282218,169239.603875,0,-0.01831055,75.19312,0,182478453,1,1,1,-24.76405,-45.99237,3
1561841426.151526,114,0,0,1561841425.997539,4.634577766996468,-74.15096942342272,2552.825,-1,-1,4,30,-9999,1561841426.137001,15.35828018188477,-14.34315872192383,17.086181640625,219.9028625488281,227.3960723876953,15,169242.443739125,-0.133392333984375,-0.98394775390625,0.1067962646484375,169242.443739125,0.1210585147234049,-0.00620330112712157,-0.001539040793956792,169242.418990125,-57.236572265625,-40.51741027832031,-543.466796875,169242.438643125,0.5725479326256522,-2.135734257640375,1.407893002624614,0.1085494458675385,-0.007563076447695494,-0.002136809984222054,0.00574338436126709,-0.001230716705322266,0.01520812511444092,1,0.4878677129745483,-0.5526289939880371,-0.4402560293674469,0.5126021504402161,-0.1369842141866684,-0.9867605566978455,0.08682741969823837,0,0,0,-1,169242.301406125,3,2,1561841426.247905,1561841239.621676,8,3.056457,0,0,7.575853,0,0,1561841413.282218,169239.603875,0,-0.01831055,75.19312,0,182478453,1,1,1,-25.32133,-46.2457,3
1561841426.168644,115,0,0,1561841425.997539,4.634577766996468,-74.15096942342272,2552.825,-1,-1,4,30,-9999,1561841426.162829,15.22087478637695,-13.91254043579102,17.318603515625,219.8986206054688,227.3918304443359,15,169242.463973125,-0.1404266357421875,-0.9839324951171875,0.1190185546875,169242.463973125,0.1282599686270882,-0.04204412307740796,-0.0411413114678711,169242.439101125,-57.35646057128906,-39.85858154296875,-543.2664184570312,169242.458907125,0.5866973075874755,-2.150033384022157,1.406737272325445,0.1312531679868698,-0.0360674224793911,-0.03352829068899155,0.0007117390632629395,0.003997981548309326,0.0255126953125,1,0.4885254204273224,-0.55321204662323,-0.4397009015083313,0.5118227005004883,-0.1366828382015228,-0.9865724444389343,0.08940131217241287,0,0,0,-1,169242.301406125,3,2,1561841426.247905,1561841239.621676,8,3.056457,0,0,7.575853,0,0,1561841413.282218,169239.603875,0,-0.01831055,75.19312,0,182478453,1,1,1,-25.87861,-46.28093,3
1561841426.188891,116,0,0,1561841425.997539,4.634577766996468,-74.15096942342272,2552.825,-1,-1,4,30,-9999,1561841426.187197,15.35717391967773,-14.080322265625,17.15252685546875,219.9571380615234,227.4503479003906,15,169242.484236125,-0.1377716064453125,-0.99322509765625,0.118927001953125,169242.484236125,0.09275710181913284,-0.06758650109235793,-0.05154601553070167,169242.459181125,-57.23818969726562,-39.92660522460938,-543.59814453125,169242.479170125,0.6024752430365863,-2.166746287679246,1.40618995675969,0.1033541485667229,-0.07026641070842743,-0.05908691138029099,-0.005420833826065063,-0.001401603221893311,0.02719521522521973,1,0.4891698360443115,-0.5538057684898376,-0.439552366733551,0.5106914043426514,-0.1356161683797836,-0.9864829182624817,0.09197591245174408,0,0,0,-1,169242.301406125,3,2,1561841426.247905,1561841239.621676,8,3.056457,0,0,7.575853,0,0,1561841413.282218,169239.603875,0,-0.01831055,75.19312,0,182478453,1,1,1,-26.43589,-46.8319,3
1561841426.210209,117,0,0,1561841425.997539,4.634577766996468,-74.15096942342272,2552.825,-1,-1,4,30,-9999,1561841426.187197,15.35717391967773,-14.080322265625,17.15252685546875,219.9571380615234,227.4503479003906,15,169242.504500125,-0.1356201171875,-1.000900268554688,0.1104583740234375,169242.504500125,0.05661481003344949,-0.06062659589954485,-0.0425194973319871,169242.479292125,-57.44621276855469,-40.25753784179688,-543.47021484375,169242.499434125,0.6144987516104174,-2.180080900778851,1.406048735899319,0.06684673577547073,-0.06967465579509735,-0.04330022633075714,-0.002424538135528564,-0.01126664876937866,0.0178685188293457,1,0.4895577728748322,-0.5543115735054016,-0.4396959543228149,0.5096463561058044,-0.1344926059246063,-0.9864597916603088,0.09385626763105392,0,0,0,-1,169242.301406125,3,2,1561841426.247905,1561841239.621676,8,3.056457,0,0,7.575853,0,0,1561841413.282218,169239.603875,0,-0.01831055,75.19312,0,182478453,1,1,1,-26.99317,-47.54017,3
1561841426.232376,118,0,0,1561841425.997539,4.634577766996468,-74.15096942342272,2552.825,-1,-1,4,30,-9999,1561841426.213953,15.49321746826172,-14.04843902587891,16.86322021484375,220.0455932617188,227.5388031005859,15,169242.524764125,-0.1426239013671875,-1.001724243164062,0.1157073974609375,169242.524764125,0.01153947700331334,-0.02609365236059638,-0.05657672682986135,169242.499404125,-57.04124450683594,-40.3814697265625,-543.3770141601562,169242.519698125,0.6226693951590843,-2.189296725433712,1.406384521262929,0.02112612314522266,-0.03718994557857513,-0.05850687623023987,-0.005060464143753052,-0.01627755165100098,0.01914453506469727,1,0.4898228645324707,-0.554547905921936,-0.4399954378604889,0.5088754892349243,-0.1333520263433456,-0.9865148067474365,0.09489963948726654,0,0,0,-1,169242.301406125,3,2,1561841426.247905,1561841239.621676,8,3.056457,0,0,7.575853,0,0,1561841413.282218,169239.603875,0,-0.01831055,75.19312,0,182478453,1,1,1,-27.55045,-48.07605,3
1561841426.249705,119,0,0,1561841425.997539,4.634577766996468,-74.15096942342272,2552.825,-1,-1,4,30,-9999,1561841426.237868,15.44031143188477,-13.84061813354492,17.068603515625,220.0951843261719,227.5883941650391,15,169242.545027125,-0.135986328125,-0.9980316162109375,0.1132965087890625,169242.545027125,-0.02088317768785635,-0.02622601146677331,-0.06248548234042016,169242.519515125,-57.20703125,-39.81098937988281,-543.3302001953125,169242.539961125,0.6273326258317482,-2.194425719866701,1.407385798380889,-0.01840157806873322,-0.02262751385569572,-0.06507902592420578,-0.008654594421386719,-0.01307767629623413,0.01942002773284912,1,0.4900642931461334,-0.5543823838233948,-0.4404343962669373,0.5084435343742371,-0.1320619285106659,-0.9866781830787659,0.09500567615032196,0,0,0,-1,169242.301406125,3,2,1561841426.247905,1561841239.621676,8,3.056457,0,0,7.575853,0,0,1561841413.282218,169239.603875,0,-0.01831055,75.19312,0,182478453,1,1,1,-28.10773,-48.56479,3
1561841426.269972,120,0,0,1561841425.997539,4.634577766996468,-74.15096942342272,2552.825,-1,-1,4,30,-9999,1561841426.2641,15.41428375244141,-13.82904815673828,16.92877197265625,220.1474761962891,227.6406860351562,15,169242.565291125,-0.132843017578125,-0.9953155517578125,0.10552978515625,169242.565291125,-0.0001954760240118161,-0.05195587602246487,-0.04368116819947967,169242.539595125,-57.29913330078125,-39.64640808105469,-543.27880859375,169242.560195125,0.6302783887715511,-2.198110105598892,1.408576385219587,-0.009981994517147541,-0.05306664481759071,-0.05512119829654694,-0.003608971834182739,-0.008612215518951416,0.01350486278533936,1,0.4901591539382935,-0.5542066693305969,-0.4410271346569061,0.5080296993255615,-0.1307599246501923,-0.9868711829185486,0.09480205923318863,0,0,0,-1,169242.301406125,3,2,1561841426.247905,1561841239.621676,8,3.056457,0,0,7.575853,0,0,1561841413.282218,169239.603875,0,-0.01831055,75.19312,0,182478453,1,1,1,-28.66501,-49.08084,3
1561841426.290188,121,0,0,1561841425.997539,4.634577766996468,-74.15096942342272,2552.825,-1,-1,4,30,-9999,1561841426.288962,15.49296951293945,-13.79265594482422,16.9522705078125,220.2312469482422,227.7244567871094,15,169242.585555125,-0.130828857421875,-0.99273681640625,0.096221923828125,169242.585555125,0.02995576857342929,-0.04889270813665573,-0.02233806259136664,169242.559706125,-57.16110229492188,-39.83485412597656,-543.5113525390625,169242.580458125,0.6341156345504255,-2.203115664763284,1.409108312239861,0.02247421629726887,-0.06188703328371048,-0.02810103259980679,-0.002296805381774902,-0.006939530372619629,0.00515139102935791,1,0.4901578724384308,-0.5543622970581055,-0.4414759874343872,0.5074708461761475,-0.1298595517873764,-0.9869569540023804,0.09514459222555161,0,0,0,-1,169242.301406125,3,2,1561841426.247905,1561841239.621676,8,3.056457,0,0,7.575853,0,0,1561841413.282218,169239.603875,0,-0.01831055,75.19312,0,182478453,1,1,1,-28.66501,-49.08084,3
1561841426.312424,122,0,0,1561841425.997539,4.634577766996468,-74.15096942342272,2552.825,-1,-1,4,30,-9999,1561841426.288962,15.49296951293945,-13.79265594482422,16.9522705078125,220.2312469482422,227.7244567871094,15,169242.605788125,-0.1300811767578125,-0.9890899658203125,0.0916900634765625,169242.605788125,0.03849892303429447,-0.02477858341431525,0.006240585382382679,169242.579817125,-57.22013854980469,-40.14712524414062,-543.2677001953125,169242.600722125,0.6388957047061962,-2.208813942924955,1.408994056656459,0.03715276345610619,-0.03350306302309036,-0.005456706508994102,-0.0002785325050354004,-0.005538880825042725,-0.00236809253692627,1,0.490216851234436,-0.5546733736991882,-0.4416182041168213,0.5069499611854553,-0.1294059157371521,-0.9869385361671448,0.09595022350549698,0,0,0,-1,169242.301406125,3,2,1561841426.247905,1561841239.621676,8,3.056457,0,0,7.575853,0,0,1561841413.282218,169239.603875,0,-0.01831055,75.19312,0,182478453,1,1,1,-29.22228,-44.91963,3
1561841426.330762,123,0,0,1561841425.997539,4.634577766996468,-74.15096942342272,2552.825,-1,-1,4,30,-9999,1561841426.314829,15.54166030883789,-13.68149948120117,17.067138671875,220.2805480957031,227.7737579345703,15,169242.626051125,-0.13140869140625,-0.9744720458984375,0.0948028564453125,169242.626051125,0.02667209094936158,0.009527458799758476,0.01907835341710965,169242.599928125,-57.0740966796875,-39.9041748046875,-543.4519653320312,169242.620986125,0.641634202151698,-2.212014117117885,1.408409855269581,0.02471819519996643,-0.009084274061024189,0.01745979487895966,-0.002412408590316772,0.005704104900360107,-0.004408836364746094,1,0.4902283549308777,-0.5550051927566528,-0.4414928555488586,0.5066848993301392,-0.1295608729124069,-0.9868442416191101,0.09670920670032501,0,0,0,-1,169242.301406125,3,2,1561841426.247905,1561841239.621676,8,3.056457,0,0,7.575853,0,0,1561841413.282218,169239.603875,0,-0.01831055,75.19312,0,182478453,1,1,1,-29.77956,-42.1894,3
