loggingTime,loggingSample,identifierForVendor,deviceID,locationTimestamp_since1970,locationLatitude,locationLongitude,locationAltitude,locationSpeed,locationCourse,locationVerticalAccuracy,locationHorizontalAccuracy,locationFloor,locationHeadingTimestamp_since1970,locationHeadingX,locationHeadingY,locationHeadingZ,locationTrueHeading,locationMagneticHeading,locationHeadingAccuracy,accelerometerTimestamp_sinceReboot,accelerometerAccelerationX,accelerometerAccelerationY,accelerometerAccelerationZ,gyroTimestamp_sinceReboot,gyroRotationX,gyroRotationY,gyroRotationZ,magnetometerTimestamp_sinceReboot,magnetometerX,magnetometerY,magnetometerZ,motionTimestamp_sinceReboot,motionYaw,motionRoll,motionPitch,motionRotationRateX,motionRotationRateY,motionRotationRateZ,motionUserAccelerationX,motionUserAccelerationY,motionUserAccelerationZ,motionAttitudeReferenceFrame,motionQuaternionX,motionQuaternionY,motionQuaternionZ,motionQuaternionW,motionGravityX,motionGravityY,motionGravityZ,motionMagneticFieldX,motionMagneticFieldY,motionMagneticFieldZ,motionMagneticFieldCalibrationAccuracy,activityTimestamp_sinceReboot,activity,activityActivityConfidence,activityActivityStartDate,pedometerStartDate,pedometerNumberofSteps,pedometerAverageActivePace,pedometerCurrentPace,pedometerCurrentCadence,pedometerDistance,pedometerFloorAscended,pedometerFloorDescended,pedometerEndDate,altimeterTimestamp_sinceReboot,altimeterReset,altimeterRelativeAltitude,altimeterPressure,IP_en0,IP_pdp_ip0,deviceOrientation,batteryState,batteryLevel,avAudioRecorderPeakPower,avAudioRecorderAveragePower,label
1561841442.980036,1,0,0,1561841441.997311,4.634668626826848,-74.15095735348216,2553.354,0,324.84375,4,10,-9999,1561841442.963961,12.83294677734375,-17.12031555175781,16.64617919921875,215.9830322265625,223.4762420654297,15,169259.2388151667,-0.238006591796875,-0.976043701171875,0.000274658203125,169259.2388151667,0.06834736621579357,0.0192850147176998,-0.07101558731194396,169259.2258151667,-59.92364501953125,-43.0859375,-543.8343505859375,169259.2337491667,0.04992110344655085,-1.550189328872636,1.330129679124806,0.07586071640253067,0.01206948049366474,-0.07758216559886932,-0.008008062839508057,-0.007305800914764404,0.006360888481140137,1,0.4544412195682526,-0.5394696593284607,-0.4176800847053528,0.5727119445800781,-0.2382993400096893,-0.9711793065071106,-0.004911329131573439,0,0,0,-1,169255.2675034167,3,1,1561841439.214002,1561841239.621676,8,3.056457,0,0,7.575853,0,0,1561841413.282218,169256.572962,0,0.1665039,75.19139,0,182478453,1,1,1,-36.91964,-38.828,5
1561841442.983138,2,0,0,1561841441.997311,4.634668626826848,-74.15095735348216,2553.354,0,324.84375,4,10,-9999,1561841442.963961,12.83294677734375,-17.12031555175781,16.64617919921875,215.9830322265625,223.4762420654297,15,169259.2590791667,-0.23284912109375,-0.9765167236328125,-0.0013275146484375,169259.2590791667,0.05453195174489851,0.04989272512598048,-0.03804165827512787,169259.2458951667,-59.99299621582031,-43.07815551757812,-543.745361328125,169259.2540131667,0.05485554176906876,-1.554459852243304,1.331501782823777,0.05320360139012337,0.04181991890072823,-0.05163871124386787,0.003175050020217896,-0.002783536911010742,0.002910614013671875,1,0.455257385969162,-0.5392631888389587,-0.4176247119903564,0.5722984075546265,-0.2369854599237442,-0.9715054035186768,-0.003871851367875934,0,0,0,-1,169255.2675034167,3,1,1561841439.214002,1561841239.621676,8,3.056457,0,0,7.575853,0,0,1561841413.282218,169256.572962,0,0.1665039,75.19139,0,182478453,1,1,1,-36.91964,-38.828,5
1561841442.985035,3,0,0,1561841441.997311,4.634668626826848,-74.15095735348216,2553.354,0,324.84375,4,10,-9999,1561841442.963961,12.83294677734375,-17.12031555175781,16.64617919921875,215.9830322265625,223.4762420654297,15,169259.2793431667,-0.2292633056640625,-0.970001220703125,0.007232666015625,169259.2793431667,0.06652469876574334,0.04262735535613531,-0.01047314730284561,169259.2660071667,-59.86979675292969,-43.1143798828125,-543.679443359375,169259.2742771667,0.05931618218950077,-1.557838728569345,1.332189469395582,0.06300004571676254,0.04466497525572777,-0.01965867727994919,0.005433708429336548,-0.00191885232925415,0.00472557544708252,1,0.455942839384079,-0.5390592813491821,-0.4173119068145752,0.5721731185913086,-0.2363297045230865,-0.9716681838035583,-0.003062436822801828,0,0,0,-1,169255.2675034167,3,1,1561841439.214002,1561841239.621676,8,3.056457,0,0,7.575853,0,0,1561841413.282218,169256.572962,0,0.1665039,75.19139,0,182478453,1,1,1,-36.91964,-38.828,5
1561841443.004677,4,0,0,1561841441.997311,4.634668626826848,-74.15095735348216,2553.354,0,324.84375,4,10,-9999,1561841443.002507,12.67940902709961,-16.85342407226562,16.70062255859375,215.8470458984375,223.3402557373047,15,169259.2996061667,-0.2366180419921875,-0.9603424072265625,0.0106658935546875,169259.2996061667,0.03354198129732999,0.01922003358710186,-0.00474868253972029,169259.2861181667,-60.15180969238281,-43.16021728515625,-543.6708984375,169259.2945401667,0.06455108175122669,-1.562361551271734,1.332414884397462,0.04847542569041252,0.01167932897806168,-0.007370051927864552,0.002905786037445068,0.006419897079467773,0.01255077123641968,1,0.4564720690250397,-0.5391079783439636,-0.4169104397296906,0.5719977021217346,-0.2361211031675339,-0.9717214107513428,-0.001991675700992346,0,0,0,-1,169255.2675034167,3,1,1561841439.214002,1561841239.621676,8,3.056457,0,0,7.575853,0,0,1561841413.282218,169256.572962,0,0.1665039,75.19139,0,182478453,1,1,1,-36.91964,-39.68397,5
1561841443.045223,5,0,0,1561841441.997311,4.634668626826848,-74.15095735348216,2553.354,0,324.84375,4,10,-9999,1561841443.031819,12.70223999023438,-16.80181121826172,16.662841796875,215.8089904785156,223.3022003173828,15,169259.3198701667,-0.2361602783203125,-0.9601593017578125,0.0059661865234375,169259.3198701667,-0.01794784153437101,0.0441429603324994,-0.006136455783760581,169259.3062291667,-59.77908325195312,-42.96298217773438,-543.8389892578125,169259.3147741667,0.06610889403959218,-1.563461653367017,1.332559786928308,-0.0105812344700098,0.03297769278287888,-0.006428890861570835,-0.0005897581577301025,0.01315271854400635,0.01100820302963257,1,0.4567020535469055,-0.5390341281890869,-0.4167571067810059,0.5719954967498779,-0.2359825372695923,-0.9717556238174438,-0.001730885822325945,0,0,0,-1,169255.2675034167,3,1,1561841439.214002,1561841239.621676,8,3.056457,0,0,7.575853,0,0,1561841413.282218,169256.572962,0,0.1665039,75.19139,0,182478453,1,1,1,-36.91964,-37.64638,5
1561841443.048744,6,0,0,1561841441.997311,4.634668626826848,-74.15095735348216,2553.354,0,324.84375,4,10,-9999,1561841443.031819,12.70223999023438,-16.80181121826172,16.662841796875,215.8089904785156,223.3022003173828,15,169259.3401031667,-0.227630615234375,-0.96624755859375,0.0082244873046875,169259.3198701667,-0.01794784153437101,0.0441429603324994,-0.006136455783760581,169259.3263401667,-59.89848327636719,-42.94096374511719,-543.7252807617188,169259.3350371667,0.06484873737753696,-1.56148393148347,1.332774936377827,0.000968095613643527,0.03229512274265289,-0.01198504399508238,0.003409117460250854,0.01062476634979248,0.00697171688079834,1,0.4568330943584442,-0.538707435131073,-0.4167267978191376,0.5722207427024841,-0.2357699573040009,-0.9718064069747925,-0.002195646520704031,0,0,0,-1,169255.2675034167,3,1,1561841439.214002,1561841239.621676,8,3.056457,0,0,7.575853,0,0,1561841413.282218,169256.572962,0,0.1665039,75.19139,0,182478453,1,1,1,-36.91964,-37.64638,5
1561841443.065435,7,0,0,1561841442.997296,4.634670680393125,-74.15095542564443,2553.398,0.5,344.1796875,4,10,-9999,1561841443.031819,12.70223999023438,-16.80181121826172,16.662841796875,215.8089904785156,223.3022003173828,15,169259.3603671667,-0.2285919189453125,-0.97320556640625,0.0121307373046875,169259.3603671667,0.09161487202759785,-0.01378505443446815,-0.01350249304281075,169259.3464511667,-60.32029724121094,-42.79173278808594,-543.552978515625,169259.3553011667,0.06853911176778915,-1.56476921698564,1.332982428972071,0.08126319944858551,-0.006323640234768391,-0.01181486807763577,0.007333964109420776,0.001533627510070801,0.01164323091506958,1,0.4571991562843323,-0.5387569069862366,-0.4164804220199585,0.57206130027771,-0.2355749607086182,-0.9718552827835083,-0.001419853302650154,0,0,0,-1,169255.2675034167,3,1,1561841439.214002,1561841239.621676,8,3.056457,0,0,7.575853,0,0,1561841413.282218,169256.572962,0,0.1665039,75.19139,0,182478453,1,1,1,-36.91964,-38.42397,5
1561841443.085162,8,0,0,1561841442.997296,4.634670680393125,-74.15095542564443,2553.398,0.5,344.1796875,4,10,-9999,1561841443.064753,12.61541748046875,-16.77037811279297,16.7745361328125,215.766357421875,223.2595672607422,15,169259.3806311667,-0.234283447265625,-0.9723968505859375,0.0142669677734375,169259.3806311667,0.07767029424383395,-0.01642477970695469,-0.02312422774515803,169259.3665621667,-59.95590209960938,-42.73207092285156,-543.7886962890625,169259.3755651667,0.07648770632865877,-1.572958369338062,1.333442655174122,0.08690883964300156,-0.02742626331746578,-0.03030546195805073,0.003914535045623779,-0.001959145069122314,0.01397228240966797,1,0.4577606916427612,-0.5391746759414673,-0.4162128567695618,0.5714129209518433,-0.2351309806108475,-0.9719635844230652,0.0005083639989607036,0,0,0,-1,169255.2675034167,3,1,1561841439.214002,1561841239.621676,8,3.056457,0,0,7.575853,0,0,1561841413.282218,169256.572962,0,0.1665039,75.19139,0,182478453,1,1,1,-36.91964,-39.14163,5
1561841443.116974,9,0,0,1561841442.997296,4.634670680393125,-74.15095542564443,2553.398,0.5,344.1796875,4,10,-9999,1561841443.103949,12.69244766235352,-16.82855606079102,16.81878662109375,215.7574462890625,223.2506561279297,15,169259.4008941667,-0.2312469482421875,-0.962066650390625,0.0082244873046875,169259.4008941667,0.008407066929162139,0.02336923856544532,0.004935636448243852,169259.3866431667,-59.898193359375,-42.79109191894531,-543.6214599609375,169259.3958281667,0.08178237096028355,-1.578360386125002,1.333828709557769,0.02560686320066452,0.007462745998054743,-0.004632855299860239,0.003365546464920044,0.003899335861206055,0.009515762329101562,1,0.4581679701805115,-0.5394163131713867,-0.4160483181476593,0.5709781646728516,-0.2347498387098312,-0.9720543026924133,0.001775695593096316,0,0,0,-1,169255.2675034167,3,1,1561841439.214002,1561841239.621676,8,3.056457,0,0,7.575853,0,0,1561841413.282218,169256.572962,0,0.1665039,75.19139,0,182478453,1,1,1,-36.91964,-39.4001,5
1561841443.127079,10,0,0,1561841442.997296,4.634670680393125,-74.15095542564443,2553.398,0.5,344.1796875,4,10,-9999,1561841443.103949,12.69244766235352,-16.82855606079102,16.81878662109375,215.7574462890625,223.2506561279297,15,169259.4211581667,-0.233428955078125,-0.9601287841796875,0.003570556640625,169259.4211581667,-0.06894977325436949,0.07201347377239666,0.02697702289417566,169259.4067541667,-59.95381164550781,-42.98806762695312,-543.6900634765625,169259.4160921667,0.08067234110463571,-1.576593293673189,1.333672075958967,-0.05371379479765892,0.06057044118642807,0.0184495598077774,0.0009109079837799072,0.01338410377502441,0.002880096435546875,1,0.4581942558288574,-0.539202094078064,-0.4159156382083893,0.5712559223175049,-0.2349044680595398,-0.9720175266265869,0.001361748669296503,0,0,0,-1,169255.2675034167,3,1,1561841439.214002,1561841239.621676,8,3.056457,0,0,7.575853,0,0,1561841413.282218,169256.572962,0,0.1665039,75.19139,0,182478453,1,1,1,-36.91964,-39.9117,5
1561841443.146292,11,0,0,1561841442.997296,4.634670680393125,-74.15095542564443,2553.398,0.5,344.1796875,4,10,-9999,1561841443.130199,12.5571174621582,-16.87619781494141,16.80291748046875,215.7034912109375,223.1967010498047,15,169259.4414221667,-0.2337646484375,-0.96685791015625,0.007110595703125,169259.4414221667,-0.0740385414652929,0.0533215450294575,0.03719557199680969,169259.4268651667,-59.89326477050781,-42.99049377441406,-543.813720703125,169259.4363561667,0.07421528500199163,-1.569052379542236,1.333136186821763,-0.08083382248878479,0.05608221143484116,0.03392625600099564,0.00135919451713562,0.007291913032531738,0.005415439605712891,1,0.4578783512115479,-0.5386484265327454,-0.4158807396888733,0.5720564126968384,-0.2354290038347244,-0.9718915224075317,-0.0004105761763639748,0,0,0,-1,169255.2675034167,3,1,1561841439.214002,1561841239.621676,8,3.056457,0,0,7.575853,0,0,1561841413.282218,169256.572962,0,0.1665039,75.19139,0,182478453,1,1,1,-36.91964,-39.9117,5
1561841443.166428,12,0,0,1561841442.997296,4.634670680393125,-74.15095542564443,2553.398,0.5,344.1796875,4,10,-9999,1561841443.1553,12.72761535644531,-16.87702560424805,16.76043701171875,215.6568145751953,223.1500244140625,15,169259.4616851667,-0.2335968017578125,-0.9624481201171875,0.0027618408203125,169259.4616851667,-0.01472301977039406,0.03298165220397731,0.01773665285992772,169259.4469761667,-60.15451049804688,-42.80760192871094,-543.949951171875,169259.4565891667,0.06897550238376017,-1.563110688375897,1.332557621938389,-0.03363941609859467,0.0329156406223774,0.02027755416929722,0.003700315952301025,0.005324482917785645,0.007703602313995361,1,0.4575465619564056,-0.5382789969444275,-0.4158555567264557,0.5726876258850098,-0.2359848767518997,-0.9717551469802856,-0.001813730224967003,0,0,0,-1,169255.2675034167,3,1,1561841439.214002,1561841239.621676,8,3.056457,0,0,7.575853,0,0,1561841413.282218,169256.572962,0,0.1665039,75.19139,0,182478453,1,1,1,-36.91964,-40.57841,5
1561841443.207997,13,0,0,1561841442.997296,4.634670680393125,-74.15095542564443,2553.398,0.5,344.1796875,4,10,-9999,1561841443.205358,12.60334777832031,-17.06545639038086,16.84735107421875,215.5766754150391,223.0698852539062,15,169259.4819181667,-0.235870361328125,-0.956573486328125,-0.0018463134765625,169259.4819181667,0.07713872729025414,0.02457032421707105,-0.009252886891371305,169259.4670871667,-60.16574096679688,-43.10246276855469,-543.9296264648438,169259.4768521667,0.06978327169892963,-1.563342639559991,1.332434729461711,0.05263927951455116,0.02503987401723862,-0.007710138335824013,-0.001887112855911255,0.01269596815109253,0.001088500022888184,1,0.4576824009418488,-0.5381885170936584,-0.4156425595283508,0.5728186368942261,-0.2361042499542236,-0.97172611951828,-0.001759879873134196,0,0,0,-1,169255.2675034167,3,1,1561841439.214002,1561841239.621676,8,3.056457,0,0,7.575853,0,0,1561841413.282218,169256.572962,0,0.1665039,75.19139,0,182478453,1,1,1,-36.91964,-40.97549,5
1561841443.211334,14,0,0,1561841442.997296,4.634670680393125,-74.15095542564443,2553.398,0.5,344.1796875,4,10,-9999,1561841443.205358,12.60334777832031,-17.06545639038086,16.84735107421875,215.5766754150391,223.0698852539062,15,169259.5021821667,-0.2362518310546875,-0.9523468017578125,0.0042877197265625,169259.5021821667,0.1225243185873845,-0.004836034223474888,-0.002976881466490573,169259.4871981667,-59.85285949707031,-43.12101745605469,-543.5759887695312,169259.4971161667,0.07760692026018871,-1.5707075113537,1.332694338070527,0.1177809983491898,-0.003745433874428272,-0.009397250600159168,0.001178503036499023,0.01893705129623413,0.0009975433349609375,1,0.4583286643028259,-0.5384462475776672,-0.4151631593704224,0.5724072456359863,-0.2358587086200714,-0.9717873930931091,-2.094789670081809e-05,0,0,0,-1,169255.2675034167,3,1,1561841439.214002,1561841239.621676,8,3.056457,0,0,7.575853,0,0,1561841413.282218,169256.572962,0,0.1665039,75.19139,0,182478453,1,1,1,-36.91964,-40.97549,5
1561841443.227263,15,0,0,1561841442.997296,4.634670680393125,-74.15095542564443,2553.398,0.5,344.1796875,4,10,-9999,1561841443.205358,12.60334777832031,-17.06545639038086,16.84735107421875,215.5766754150391,223.0698852539062,15,169259.5224461667,-0.2366485595703125,-0.9603424072265625,0.01007080078125,169259.5224461667,0.03920812283258258,0.01615313727576661,0.0008183894029813499,169259.5072781667,-60.00163269042969,-43.0068359375,-543.6884765625,169259.5173801667,0.08655714865929789,-1.579604398425255,1.332812288431467,0.06655403226613998,-0.001368029974400997,-0.005688532255589962,-0.001600116491317749,0.01647770404815674,0.004973173141479492,1,0.458925187587738,-0.538911759853363,-0.4146768152713776,0.5718435049057007,-0.2357351034879684,-0.9718152284622192,0.002076425356790423,0,0,0,-1,169255.2675034167,3,1,1561841439.214002,1561841239.621676,8,3.056457,0,0,7.575853,0,0,1561841413.282218,169256.572962,0,0.1665039,75.19139,0,182478453,1,1,1,-36.91964,-41.81886,5
1561841443.247418,16,0,0,1561841442.997296,4.634670680393125,-74.15095542564443,2553.398,0.5,344.1796875,4,10,-9999,1561841443.231991,12.74314880371094,-16.84519577026367,16.9285888671875,215.5547180175781,223.0479278564453,15,169259.5427091667,-0.231536865234375,-0.974395751953125,0.0145111083984375,169259.5427091667,-0.04633154611632653,0.04974465336937207,0.01606312243092193,169259.5273901667,-60.06878662109375,-43.22175598144531,-543.619140625,169259.5376431667,0.08754961066565918,-1.580155584850153,1.332819627081854,-0.03587700426578522,0.04081830382347107,0.00753166526556015,0.0008474588394165039,0.004333436489105225,0.009924411773681641,1,0.459080308675766,-0.5388398766517639,-0.4145219922065735,0.5718988180160522,-0.2357260137796402,-0.9718169569969177,0.002206285018473864,0,0,0,-1,169255.2675034167,3,1,1561841439.214002,1561841239.621676,8,3.056457,0,0,7.575853,0,0,1561841413.282218,169256.572962,0,0.1665039,75.19139,0,182478453,1,1,1,-36.91964,-42.22084,5
1561841443.287263,17,0,0,1561841442.997296,4.634670680393125,-74.15095542564443,2553.398,0.5,344.1796875,4,10,-9999,1561841443.282146,12.59651184082031,-16.94778823852539,16.82550048828125,215.4731292724609,222.9663391113281,15,169259.5629731667,-0.2332611083984375,-0.9747467041015625,0.0166778564453125,169259.5629731667,-0.02153538583881675,0.04506201722468575,0.02694399969665867,169259.5475011667,-59.91107177734375,-43.07768249511719,-543.5523681640625,169259.5579071667,0.08344407444908526,-1.575223774022872,1.332480099763792,-0.03825733810663223,0.04535580053925514,0.02346855401992798,0.005291104316711426,-0.0031777024269104,0.01454925537109375,1,0.4589059054851532,-0.5384495854377747,-0.4144664704799652,0.5724465847015381,-0.2360650300979614,-0.9717368483543396,0.001045172335579991,0,0,0,-1,169255.2675034167,3,1,1561841439.214002,1561841239.621676,8,3.056457,0,0,7.575853,0,0,1561841413.282218,169256.572962,0,0.1665039,75.19139,0,182478453,1,1,1,-36.91964,-42.47162,5
1561841443.290421,18,0,0,1561841442.997296,4.634670680393125,-74.15095542564443,2553.398,0.5,344.1796875,4,10,-9999,1561841443.282146,12.59651184082031,-16.94778823852539,16.82550048828125,215.4731292724609,222.9663391113281,15,169259.5832371667,-0.23858642578125,-0.9720306396484375,0.0172271728515625,169259.5832371667,0.04106807453789391,0.006714361740307775,0.003277818669669526,169259.5676121667,-60.02632141113281,-42.9127197265625,-543.7026977539062,169259.5781711667,0.08308835643490019,-1.574323418112431,1.332107253967989,0.02929054759442806,0.006568456534296274,0.008403318002820015,0.0006484091281890869,-0.001877248287200928,0.01613390445709229,1,0.4588967561721802,-0.5383592844009399,-0.4142549932003021,0.5726916790008545,-0.2364272177219391,-0.9716487526893616,0.000833903846796602,0,0,0,-1,169255.2675034167,3,1,1561841439.214002,1561841239.621676,8,3.056457,0,0,7.575853,0,0,1561841413.282218,169256.572962,0,0.1665039,75.19139,0,182478453,1,1,1,-36.91964,-43.0532,5
1561841443.308132,19,0,0,1561841442.997296,4.634670680393125,-74.15095542564443,2553.398,0.5,344.1796875,4,10,-9999,1561841443.282146,12.59651184082031,-16.94778823852539,16.82550048828125,215.4731292724609,222.9663391113281,15,169259.6035001667,-0.2474517822265625,-0.9700469970703125,0.015045166015625,169259.6035001667,0.01263936253351606,0.01884612577005474,-0.01746820622204774,169259.5876921667,-60.174560546875,-42.86680603027344,-543.8505859375,169259.5984041667,0.08628249623114002,-1.577410543552511,1.332228086256355,0.02739997021853924,0.006073108408600092,-0.01831218227744102,-0.008092969655990601,0.0005011558532714844,0.01491641998291016,1,0.4591496884822845,-0.5384821891784668,-0.4140833914279938,0.5724976658821106,-0.2363070696592331,-0.971677303314209,0.001563008991070092,0,0,0,-1,169255.2675034167,3,1,1561841439.214002,1561841239.621676,8,3.056457,0,0,7.575853,0,0,1561841413.282218,169256.572962,0,0.1665039,75.19139,0,182478453,1,1,1,-36.91964,-43.0532,5
1561841443.328559,20,0,0,1561841442.997296,4.634670680393125,-74.15095542564443,2553.398,0.5,344.1796875,4,10,-9999,1561841443.307085,12.58087921142578,-16.71271896362305,16.865478515625,215.4582672119141,222.9514770507812,15,169259.6237341667,-0.2424468994140625,-0.972808837890625,0.008270263671875,169259.6237341667,-0.05905240137919901,0.03642991318341191,-0.0222326014121995,169259.6078031667,-60.05342102050781,-42.85586547851562,-543.8062744140625,169259.6186681667,0.08557921610666647,-1.576350901015458,1.332658208377502,-0.04823140799999237,0.02643430605530739,-0.02487421222031116,-0.009577780961990356,0.00112152099609375,0.01036274433135986,1,0.4592948257923126,-0.5382410287857056,-0.4141653478145599,0.5725486874580383,-0.2358903884887695,-0.9717788696289062,0.001310284133069217,0,0,0,-1,169255.2675034167,3,1,1561841439.214002,1561841239.621676,8,3.056457,0,0,7.575853,0,0,1561841413.282218,169256.572962,0,0.1665039,75.19139,0,182478453,1,1,1,-36.91964,-43.73626,5
1561841443.373295,21,0,0,1561841442.997296,4.634670680393125,-74.15095542564443,2553.398,0.5,344.1796875,4,10,-9999,1561841443.357317,12.3394775390625,-16.69270324707031,16.87066650390625,215.3857574462891,222.8789672851562,15,169259.6439971667,-0.2382965087890625,-0.982452392578125,0.0056304931640625,169259.6439971667,-0.03599741582238305,0.05347467679213706,-0.01160072970838516,169259.6279141667,-60.29901123046875,-42.79908752441406,-543.8133544921875,169259.6389311667,0.08062433831834842,-1.570792089525864,1.333135954880354,-0.05019202828407288,0.04633397608995438,-0.01714358665049076,-0.003187507390975952,-0.007326126098632812,0.006119787693023682,1,0.4592417180538177,-0.537676990032196,-0.4144450724124908,0.5729186534881592,-0.2354294210672379,-0.971891462802887,-9.97577785710746e-07,0,0,0,-1,169255.2675034167,3,1,1561841439.214002,1561841239.621676,8,3.056457,0,0,7.575853,0,0,1561841413.282218,169256.572962,0,0.1665039,75.19139,0,182478453,1,1,1,-36.91964,-44.91193,5
1561841443.377277,22,0,0,1561841442.997296,4.634670680393125,-74.15095542564443,2553.398,0.5,344.1796875,4,10,-9999,1561841443.357317,12.3394775390625,-16.69270324707031,16.87066650390625,215.3857574462891,222.8789672851562,15,169259.6642611667,-0.2411041259765625,-0.9824981689453125,0.00262451171875,169259.6642611667,0.01685754338409257,0.05820977721029794,-0.02319826362346223,169259.6480261667,-60.15826416015625,-42.70059204101562,-543.5004272460938,169259.6591951667,0.07884930806133482,-1.5680856949793,1.333483979553673,0.001849601976573467,0.0519588403403759,-0.02270586602389812,-0.003724753856658936,-0.01110470294952393,0.004177331924438477,1,0.4594191908836365,-0.5372293591499329,-0.4144316017627716,0.5732060074806213,-0.2350905239582062,-0.9719732999801636,-0.0006372454226948321,0,0,0,-1,169255.2675034167,3,1,1561841439.214002,1561841239.621676,8,3.056457,0,0,7.575853,0,0,1561841413.282218,169256.572962,0,0.1665039,75.19139,0,182478453,1,1,1,-36.91964,-44.91193,5
1561841443.38947,23,0,0,1561841442.997296,4.634670680393125,-74.15095542564443,2553.398,0.5,344.1796875,4,10,-9999,1561841443.383666,12.45693588256836,-16.58196258544922,16.937255859375,215.3123931884766,222.8056030273438,15,169259.6845251667,-0.243896484375,-0.9936981201171875,0.001251220703125,169259.6845251667,0.007673898681063325,0.04643780624382068,-0.02435114605935753,169259.6681061667,-60.260009765625,-42.93508911132812,-543.716552734375,169259.6794591667,0.08061776730100455,-1.568822129670128,1.333976081243319,0.01886800117790699,0.04276960343122482,-0.02482707425951958,-0.006705254316329956,-0.01449865102767944,0.001989066600799561,1,0.4598740041255951,-0.5369211435317993,-0.4142347574234009,0.5732723474502563,-0.2346124947071075,-0.9720888733863831,-0.000463171920273453,0,0,0,-1,169255.2675034167,3,1,1561841439.214002,1561841239.621676,8,3.056457,0,0,7.575853,0,0,1561841413.282218,169256.572962,0,0.1665039,75.19139,0,182478453,1,1,1,-36.91964,-45.54758,5
1561841443.409487,24,0,0,1561841442.997296,4.634670680393125,-74.15095542564443,2553.398,0.5,344.1796875,4,10,-9999,1561841443.407833,12.42778396606445,-16.75254821777344,16.79815673828125,215.2515716552734,222.7447814941406,15,169259.7047881667,-0.25726318359375,-0.99853515625,-0.00634765625,169259.7047881667,-0.05446883482706363,0.07880613244875276,-0.07157005745089845,169259.6882171667,-60.16207885742188,-42.76608276367188,-543.5784912109375,169259.6997221667,0.07968807180328695,-1.567012482154031,1.33469393401745,-0.04537703469395638,0.05941116064786911,-0.05710005760192871,-0.01704820990562439,-0.02525573968887329,-0.002059817314147949,1,0.4601925909519196,-0.536451518535614,-0.4142903983592987,0.5734160542488098,-0.2339130789041519,-0.9722570776939392,-0.0008850949816405773,0,0,0,-1,169255.2675034167,3,1,1561841439.214002,1561841239.621676,8,3.056457,0,0,7.575853,0,0,1561841413.282218,169256.572962,0,0.1665039,75.19139,0,182478453,1,1,1,-36.91964,-45.59159,5
1561841443.45424,25,0,0,1561841442.997296,4.634670680393125,-74.15095542564443,2553.398,0.5,344.1796875,4,10,-9999,1561841443.435756,12.35442352294922,-16.57350921630859,16.697998046875,215.1215667724609,222.6147766113281,15,169259.7250521667,-0.2637481689453125,-1.000106811523438,-0.014739990234375,169259.7250521667,-0.03138721765934688,0.1302123320222253,-0.1444312153982673,169259.7083281667,-60.45185852050781,-42.95726013183594,-543.7797241210938,169259.7199861667,0.07465990163153505,-1.560323026050582,1.336530496903947,-0.05297929421067238,0.11606565117836,-0.1295148730278015,-0.03074705600738525,-0.02763545513153076,-0.009272336959838867,1,0.4607276022434235,-0.5352705121040344,-0.4147155284881592,0.5737826824188232,-0.2321161180734634,-0.9726850390434265,-0.00243111071176827,0,0,0,-1,169255.2675034167,3,1,1561841439.214002,1561841239.621676,8,3.056457,0,0,7.575853,0,0,1561841413.282218,169256.572962,0,0.1665039,75.19139,0,182478453,1,1,1,-36.91964,-41.65868,5
1561841443.457622,26,0,0,1561841442.997296,4.634670680393125,-74.15095542564443,2553.398,0.5,344.1796875,4,10,-9999,1561841443.435756,12.35442352294922,-16.57350921630859,16.697998046875,215.1215667724609,222.6147766113281,15,169259.7453161667,-0.245513916015625,-0.9912261962890625,-0.0127716064453125,169259.7453161667,0.1091187646082527,0.09759446762315277,-0.1656044113288333,169259.7284391667,-60.29762268066406,-42.86138916015625,-543.6847534179688,169259.7402191667,0.07449104256702044,-1.557744122496098,1.339739146605878,0.06832636892795563,0.1038420125842094,-0.1746189594268799,-0.02884000539779663,-0.02425587177276611,-0.01037770509719849,1,0.4620858132839203,-0.5338372588157654,-0.4150791168212891,0.5737629532814026,-0.2289877384901047,-0.9734248518943787,-0.00298896455205977,0,0,0,-1,169255.2675034167,3,1,1561841439.214002,1561841239.621676,8,3.056457,0,0,7.575853,0,0,1561841413.282218,169256.572962,0,0.1665039,75.19139,0,182478453,1,1,1,-36.91964,-41.65868,5
1561841443.470287,27,0,0,1561841442.997296,4.634670680393125,-74.15095542564443,2553.398,0.5,344.1796875,4,10,-9999,1561841443.45918,12.21389770507812,-16.67118072509766,16.6400146484375,214.9546661376953,222.4478759765625,15,169259.7655491667,-0.21722412109375,-0.9787139892578125,-0.0110321044921875,169259.7655491667,0.2376732788519036,0.05654077415514528,-0.125262580820204,169259.7485501667,-60.14468383789062,-42.65927124023438,-543.4359130859375,169259.7604831667,0.08714299044393628,-1.568468509932983,1.342957765093398,0.2104374319314957,0.05444676429033279,-0.1390007883310318,-0.006366938352584839,-0.01079797744750977,-0.013191819190979,1,0.4641015827655792,-0.5332418084144592,-0.4148518145084381,0.5728532671928406,-0.2258718609809875,-0.9741568565368652,-0.0005257892771624029,0,0,0,-1,169255.2675034167,3,1,1561841439.214002,1561841239.621676,8,3.056457,0,0,7.575853,0,0,1561841413.282218,169256.572962,0,0.1665039,75.19139,0,182478453,1,1,1,-36.91964,-41.65868,5
1561841443.490503,28,0,0,1561841442.997296,4.634670680393125,-74.15095542564443,2553.398,0.5,344.1796875,4,10,-9999,1561841443.484834,12.30733871459961,-16.58418655395508,17.03216552734375,214.8097991943359,222.3030090332031,15,169259.7858121667,-0.2136077880859375,-0.9573211669921875,0.0037384033203125,169259.7858121667,0.2898789593846179,0.04167074789257885,-0.0950245171712263,169259.7686311667,-60.23774719238281,-42.72453308105469,-543.6774291992188,169259.7807471667,0.1098948168346443,-1.58975431907735,1.345371019344012,0.2804498672485352,0.03658335655927658,-0.108393982052803,0.011383056640625,0.004942059516906738,-0.009394645690917969,1,0.4663962721824646,-0.5334727168083191,-0.41399085521698,0.5713955163955688,-0.2234802544116974,-0.9746991395950317,0.004237244371324778,0,0,0,-1,169255.2675034167,3,1,1561841439.214002,1561841239.621676,8,3.056457,0,0,7.575853,0,0,1561841413.282218,169256.572962,0,0.1665039,75.19139,0,182478453,1,1,1,-36.91964,-42.27082,5
1561841443.529923,29,0,0,1561841442.997296,4.634670680393125,-74.15095542564443,2553.398,0.5,344.1796875,4,10,-9999,1561841443.509268,12.47314453125,-16.62765121459961,17.270263671875,214.6684112548828,222.16162109375,15,169259.8060761667,-0.2109832763671875,-0.9245758056640625,0.0309600830078125,169259.8060761667,0.2898605835730964,0.02969957247656366,-0.04916222003897174,169259.7887421667,-60.24900817871094,-42.47984313964844,-543.3847045898438,169259.8010101667,0.1363366213247936,-1.614826171181126,1.346866932011859,0.2889173626899719,0.02797255851328373,-0.06155483424663544,0.008575141429901123,0.03161203861236572,0.007544517517089844,1,0.4686570763587952,-0.5340858101844788,-0.4127464294433594,0.5698712468147278,-0.2218472212553024,-0.9750323891639709,0.009774215519428253,0,0,0,-1,169255.2675034167,3,1,1561841439.214002,1561841239.621676,8,3.056457,0,0,7.575853,0,0,1561841413.282218,169256.572962,0,0.1665039,75.19139,0,182478453,1,1,1,-36.91964,-43.83211,5
1561841443.533589,30,0,0,1561841442.997296,4.634670680393125,-74.15095542564443,2553.398,0.5,344.1796875,4,10,-9999,1561841443.509268,12.47314453125,-16.62765121459961,17.270263671875,214.6684112548828,222.16162109375,15,169259.8263570417,-0.2017059326171875,-0.9313507080078125,0.0575103759765625,169259.8263570417,0.2968593709178246,-0.006831274512162254,-0.0009835053905662627,169259.8088700417,-60.12677001953125,-42.62889099121094,-543.4120483398438,169259.8212910417,0.162681933995825,-1.640168734801877,1.347286518251464,0.2917051613330841,-0.0003187344409525394,-0.01672264747321606,0.0137227475643158,0.05225867033004761,0.03071725368499756,1,0.4705827534198761,-0.535008430480957,-0.4113252758979797,0.5684446692466736,-0.221120223402977,-0.9751254916191101,0.01536429673433304,0,0,0,-1,169255.2675034167,3,1,1561841439.214002,1561841239.621676,8,3.056457,0,0,7.575853,0,0,1561841413.282218,169256.572962,0,0.1665039,75.19139,0,182478453,1,1,1,-36.91964,-43.83211,5
1561841443.5514,31,0,0,1561841442.997296,4.634670680393125,-74.15095542564443,2553.398,0.5,344.1796875,4,10,-9999,1561841443.535472,12.58791732788086,-16.27923202514648,17.30908203125,214.5691223144531,222.0623321533203,15,169259.8466200417,-0.1973114013671875,-0.9506072998046875,0.07470703125,169259.8466200417,0.2945232460096071,-0.07826444548303063,0.03911358061388476,169259.8289810417,-60.17417907714844,-42.33285522460938,-543.15087890625,169259.8415550417,0.1894634004490736,-1.666916213451649,1.346615956628852,0.3019436895847321,-0.06880884617567062,0.03003953211009502,0.02468645572662354,0.03315842151641846,0.04574239253997803,1,0.4721025228500366,-0.5364576578140259,-0.4098228514194489,0.566901683807373,-0.2212806940078735,-0.974976658821106,0.02133522182703018,0,0,0,-1,169255.2675034167,3,1,1561841439.214002,1561841239.621676,8,3.056457,0,0,7.575853,0,0,1561841413.282218,169256.572962,0,0.1665039,75.19139,0,182478453,1,1,1,-36.91964,-44.68032,5
1561841443.571525,32,0,0,1561841442.997296,4.634670680393125,-74.15095542564443,2553.398,0.5,344.1796875,4,10,-9999,1561841443.559951,12.63784408569336,-16.17059326171875,17.27880859375,214.5735321044922,222.0667419433594,15,169259.8668840417,-0.210693359375,-0.9688873291015625,0.0775604248046875,169259.8668840417,0.177593163608043,-0.07863861961618678,0.06996390499747167,169259.8490920417,-60.08773803710938,-42.19735717773438,-543.1292724609375,169259.8618180417,0.213051994730948,-1.691667140996101,1.345172493270394,0.2152122408151627,-0.09011972695589066,0.05873482301831245,0.01898783445358276,0.01580774784088135,0.05316436290740967,1,0.4730351865291595,-0.5382611751556396,-0.4085456430912018,0.5653344988822937,-0.2220822870731354,-0.9746547341346741,0.02697475999593735,0,0,0,-1,169255.2675034167,3,1,1561841439.214002,1561841239.621676,8,3.056457,0,0,7.575853,0,0,1561841413.282218,169256.572962,0,0.1665039,75.19139,0,182478453,1,1,1,-36.91964,-45.16393,5
1561841443.616214,33,0,0,1561841442.997296,4.634670680393125,-74.15095542564443,2553.398,0.5,344.1796875,4,10,-9999,1561841443.586572,12.62331008911133,-15.97160720825195,17.44683837890625,214.6329498291016,222.1261596679688,15,169259.8871480417,-0.227294921875,-0.9771728515625,0.068511962890625,169259.8871480417,-0.01362020476299225,-0.02605903126642535,0.07035112861996919,169259.8691730417,-60.09422302246094,-42.25753784179688,-543.1038818359375,169259.8820510417,0.2236542159917241,-1.70343006514388,1.34341340875432,0.03603983297944069,-0.04807720333337784,0.07600115984678268,0.006025731563568115,-1.394748687744141e-05,0.04286575317382812,1,0.4730840027332306,-0.5395344495773315,-0.4077802300453186,0.5646319985389709,-0.2234482169151306,-0.9742596745491028,0.029811792075634,0,0,0,-1,169255.2675034167,3,1,1561841439.214002,1561841239.621676,8,3.056457,0,0,7.575853,0,0,1561841413.282218,169256.572962,0,0.1665039,75.19139,0,182478453,1,1,1,-36.91964,-41.60255,5
1561841443.619502,34,0,0,1561841442.997296,4.634670680393125,-74.15095542564443,2553.398,0.5,344.1796875,4,10,-9999,1561841443.612545,12.54879760742188,-16.13759231567383,17.25433349609375,214.6691436767578,222.162353515625,15,169259.9073810417,-0.2474212646484375,-0.9833831787109375,0.0560302734375,169259.9073810417,-0.1552953147491366,0.04280898294247872,0.02961062289615502,169259.8892840417,-60.18145751953125,-42.07290649414062,-543.16064453125,169259.9023150417,0.2178787091196777,-1.698096103904635,1.342439211073114,-0.1347497552633286,0.01973992958664894,0.03436636924743652,-0.01748895645141602,-0.006139159202575684,0.0344618558883667,1,0.4723884463310242,-0.5396472811698914,-0.4078434705734253,0.5650607943534851,-0.224545955657959,-0.974039614200592,0.02874006517231464,0,0,0,-1,169255.2675034167,3,1,1561841439.214002,1561841239.621676,8,3.056457,0,0,7.575853,0,0,1561841413.282218,169256.572962,0,0.1665039,75.19139,0,182478453,1,1,1,-36.91964,-41.60255,5
1561841443.63232,35,0,0,1561841442.997296,4.634670680393125,-74.15095542564443,2553.398,0.5,344.1796875,4,10,-9999,1561841443.612545,12.54879760742188,-16.13759231567383,17.25433349609375,214.6691436767578,222.162353515625,15,169259.9276450417,-0.2422943115234375,-0.9730072021484375,0.03900146484375,169259.9276450417,-0.1415424845638584,0.05587525019873448,0.04189205657916444,169259.9093950417,-60.15324401855469,-42.10284423828125,-542.9339599609375,169259.9225790417,0.2038095502675745,-1.683534460188936,1.342297277782741,-0.1566103100776672,0.05016760900616646,0.03111225180327892,-0.02130547165870667,-0.007834553718566895,0.0224602222442627,1,0.4715329706668854,-0.5388860106468201,-0.4083414673805237,0.5661411881446838,-0.2250781953334808,-0.9740074872970581,0.02548294886946678,0,0,0,-1,169255.2675034167,3,1,1561841439.214002,1561841239.621676,8,3.056457,0,0,7.575853,0,0,1561841413.282218,169257.515911,0,0.5048828,75.18819,0,182478453,1,1,1,-36.91964,-41.60255,5
1561841443.652896,36,0,0,1561841442.997296,4.634670680393125,-74.15095542564443,2553.398,0.5,344.1796875,4,10,-9999,1561841443.63683,12.68215179443359,-16.09865570068359,17.42950439453125,214.6510925292969,222.1443023681641,15,169259.9479080417,-0.2481689453125,-0.9606170654296875,-0.011932373046875,169259.9479080417,-0.159073541387632,0.1304810449762143,0.1301550740587886,169259.9295060417,-60.12574768066406,-42.31979370117188,-543.4010009765625,169259.9428420417,0.1911948752692786,-1.669851580084986,1.34141430505089,-0.1453496664762497,0.1115108579397202,0.1026455536484718,-0.01456755399703979,0.009115934371948242,-0.0009710788726806641,1,0.4707200825214386,-0.5382059216499329,-0.4084190130233765,0.5674073100090027,-0.2262618839740753,-0.9738070964813232,0.02248601987957954,0,0,0,-1,169255.2675034167,3,1,1561841439.214002,1561841239.621676,8,3.056457,0,0,7.575853,0,0,1561841413.282218,169257.515911,0,0.5048828,75.18819,0,182478453,1,1,1,-36.91964,-42.34575,5
1561841443.690293,37,0,0,1561841442.997296,4.634670680393125,-74.15095542564443,2553.398,0.5,344.1796875,4,10,-9999,1561841443.688647,12.25495910644531,-16.38938522338867,17.31304931640625,214.1415405273438,221.6347503662109,15,169259.9681720417,-0.254486083984375,-0.950653076171875,-0.0541839599609375,169259.9681720417,-0.04959311950334656,0.2827787056023576,0.1963775040408079,169259.9496170417,-60.36099243164062,-42.3475341796875,-543.2529296875,169259.9631060417,0.1778370312529792,-1.653930448826269,1.33869869740506,-0.09368007630109787,0.2104257345199585,0.1840876936912537,-0.03032737970352173,0.01769596338272095,-0.06325936317443848,1,0.4697188436985016,-0.5375075936317444,-0.4076377153396606,0.569456934928894,-0.2292246222496033,-0.9731860160827637,0.01910041086375713,0,0,0,-1,169255.2675034167,3,1,1561841439.214002,1561841239.621676,8,3.056457,0,0,7.575853,0,0,1561841413.282218,169257.515911,0,0.5048828,75.18819,0,182478453,1,1,1,-36.91964,-39.20304,5
1561841443.693682,38,0,0,1561841442.997296,4.634670680393125,-74.15095542564443,2553.398,0.5,344.1796875,4,10,-9999,1561841443.688647,12.25495910644531,-16.38938522338867,17.31304931640625,214.1415405273438,221.6347503662109,15,169259.9884360417,-0.284759521484375,-0.961700439453125,-0.053436279296875,169259.9884360417,0.1279137576853779,0.5226722618550603,0.1273302590905415,169259.9697280417,-60.31442260742188,-42.54435729980469,-543.1278686523438,169259.9833700417,0.1763814965598015,-1.645669522626989,1.334978086174888,0.08160998672246933,0.4647554755210876,0.1566150635480881,-0.0316946804523468,0.02250969409942627,-0.07317149639129639,1,0.4700942635536194,-0.5364232063293457,-0.4049746096134186,0.5720639228820801,-0.2329842448234558,-0.972323477268219,0.01747694611549377,0,0,0,-1,169255.2675034167,3,1,1561841439.214002,1561841239.621676,8,3.056457,0,0,7.575853,0,0,1561841413.282218,169257.515911,0,0.5048828,75.18819,0,182478453,1,1,1,-36.91964,-39.20304,5
1561841443.713357,39,0,0,1561841442.997296,4.634670680393125,-74.15095542564443,2553.398,0.5,344.1796875,4,10,-9999,1561841443.711787,12.15053558349609,-16.29488754272461,17.51385498046875,213.2887268066406,220.7819366455078,15,169260.0086990417,-0.337554931640625,-1.026260375976562,-0.0457763671875,169260.0086990417,0.2283072076142039,0.6431134558377848,-0.007489075301411826,169259.9898090417,-60.59255981445312,-42.55732727050781,-542.8687133789062,169260.0036330417,0.1898522550787746,-1.647453865620925,1.33289990322161,0.2195345610380173,0.6246074438095093,0.02024043165147305,-0.07168874144554138,-0.02033638954162598,-0.06490707397460938,1,0.4728309810161591,-0.534279465675354,-0.4008970558643341,0.5746807456016541,-0.2349671423435211,-0.9718358516693115,0.01804736815392971,0,0,0,-1,169255.2675034167,3,1,1561841439.214002,1561841239.621676,8,3.056457,0,0,7.575853,0,0,1561841413.282218,169257.515911,0,0.5048828,75.18819,0,182478453,1,1,1,-36.91964,-39.86216,5
1561841443.733628,40,0,0,1561841442.997296,4.634670680393125,-74.15095542564443,2553.398,0.5,344.1796875,4,10,-9999,1561841443.711787,12.15053558349609,-16.29488754272461,17.51385498046875,213.2887268066406,220.7819366455078,15,169260.0289630417,-0.396728515625,-1.083816528320312,-0.07562255859375,169260.0289630417,0.2260834681039878,0.7411627913751231,-0.16045385778062,169260.0099200417,-60.839111328125,-42.67387390136719,-542.6802368164062,169260.0238670417,0.2096189426815543,-1.653603430578236,1.333399228626195,0.2272603809833527,0.6808563470840454,-0.1163722798228264,-0.1341319382190704,-0.08627414703369141,-0.07822871208190918,1,0.4769911468029022,-0.5312300324440002,-0.3968205749988556,0.5768947601318359,-0.234367847442627,-0.9719533920288086,0.01945180259644985,0,0,0,-1,169255.2675034167,3,1,1561841439.214002,1561841239.621676,8,3.056457,0,0,7.575853,0,0,1561841413.282218,169257.515911,0,0.5048828,75.18819,0,182478453,1,1,1,-36.91964,-36.91964,5
1561841443.778941,41,0,0,1561841442.997296,4.634670680393125,-74.15095542564443,2553.398,0.5,344.1796875,4,10,-9999,1561841443.762501,11.3341178894043,-16.29951858520508,17.9088134765625,210.8057098388672,218.2989196777344,15,169260.0491960417,-0.5188140869140625,-1.0643310546875,-0.0965423583984375,169260.0491960417,0.3015068533361219,1.017500375565015,-0.2897974666552615,169260.0300310417,-61.28549194335938,-42.46044921875,-542.7191162109375,169260.0441300417,0.2305484058138359,-1.657611333703408,1.33708030319142,0.2498613148927689,0.939038872718811,-0.2588013410568237,-0.2157955765724182,-0.1187249422073364,-0.103240966796875,1,0.4826136827468872,-0.5264260172843933,-0.3928748667240143,0.5793178081512451,-0.2307223677635193,-0.9728125333786011,0.02008063718676567,0,0,0,-1,169255.2675034167,3,1,1561841439.214002,1561841239.621676,8,3.056457,0,0,7.575853,0,0,1561841413.282218,169257.515911,0,0.5048828,75.18819,0,182478453,1,1,1,-36.91964,-37.97086,5
1561841443.782527,42,0,0,1561841442.997296,4.634670680393125,-74.15095542564443,2553.398,0.5,344.1796875,4,10,-9999,1561841443.762501,11.3341178894043,-16.29951858520508,17.9088134765625,210.8057098388672,218.2989196777344,15,169260.0694600417,-0.6370086669921875,-1.087081909179688,-0.0955963134765625,169260.0694600417,0.5255828306104079,1.018160573199246,-0.6661338203004298,169260.0501420417,-61.29672241210938,-42.14825439453125,-542.2337036132812,169260.0643940417,0.2650428275249534,-1.669918957254109,1.344050572162879,0.4646330177783966,1.072624444961548,-0.5533184409141541,-0.3322038054466248,-0.1025621891021729,-0.1147153377532959,1,0.4908607304096222,-0.5197877287864685,-0.3880422711372375,0.5816353559494019,-0.2237044125795364,-0.9744031429290771,0.0222470797598362,0,0,0,-1,169255.2675034167,3,1,1561841439.214002,1561841239.621676,8,3.056457,0,0,7.575853,0,0,1561841413.282218,169257.515911,0,0.5048828,75.18819,0,182478453,1,1,1,-36.91964,-37.97086,5
1561841443.794481,43,0,0,1561841442.997296,4.634670680393125,-74.15095542564443,2553.398,0.5,344.1796875,4,10,-9999,1561841443.789239,10.88829803466797,-15.71841430664062,18.57391357421875,209.2305450439453,216.7237548828125,15,169260.0897230417,-0.8536529541015625,-0.9365692138671875,-0.1133880615234375,169260.0897230417,0.778934937747935,0.8916700088004063,-1.150678403777153,169260.0702230417,-61.64881896972656,-41.79904174804688,-542.0797729492188,169260.0846580417,0.3281482886901912,-1.712158805435794,1.358595634947714,0.7148047685623169,0.862005352973938,-1.041445970535278,-0.5246281623840332,-0.0492856502532959,-0.1362409591674805,1,0.5022062659263611,-0.5124701261520386,-0.3848403096199036,0.5805696845054626,-0.2085108160972595,-0.9775698184967041,0.02967352792620659,0,0,0,-1,169255.2675034167,3,1,1561841439.214002,1561841239.621676,8,3.056457,0,0,7.575853,0,0,1561841413.282218,169257.515911,0,0.5048828,75.18819,0,182478453,1,1,1,-36.91964,-37.97086,5
1561841443.814629,44,0,0,1561841442.997296,4.634670680393125,-74.15095542564443,2553.398,0.5,344.1796875,4,10,-9999,1561841443.813011,10.82584381103516,-15.0297966003418,19.21881103515625,207.4593811035156,214.9525909423828,15,169260.1099870417,-0.9735870361328125,-0.782073974609375,-0.1157989501953125,169260.1099870417,1.11365806778007,1.526924209945258,-1.626530163139748,169260.0903340417,-61.74148559570312,-41.36431884765625,-541.430419921875,169260.1049210417,0.4362063367621382,-1.797461575046055,1.380684695266745,1.000591993331909,1.307843089103699,-1.498522758483887,-0.7685017585754395,0.1265907287597656,-0.1721664667129517,1,0.5176356434822083,-0.503275990486145,-0.3826440870761871,0.5764981508255005,-0.184134915471077,-0.9819831252098083,0.04246676340699196,0,0,0,-1,169255.2675034167,3,1,1561841439.214002,1561841239.621676,8,3.056457,0,0,7.575853,0,0,1561841413.282218,169257.515911,0,0.5048828,75.18819,0,182478453,1,1,1,-36.91508,-38.51421,5
1561841443.857725,45,0,0,1561841442.997296,4.634670680393125,-74.15095542564443,2553.398,0.5,344.1796875,4,10,-9999,1561841443.839336,10.54753112792969,-14.24648666381836,19.6400146484375,204.5643310546875,212.0575408935547,15,169260.1302510417,-0.998504638671875,-0.6241912841796875,-0.0268402099609375,169260.1302510417,1.895676679754208,1.861657193673427,-2.125207343573194,169260.1104450417,-61.94015502929688,-40.78169250488281,-541.0275268554688,169260.1251850417,0.6390143184750274,-1.963363834937389,1.406917183779282,1.650623083114624,1.884925007820129,-2.025698184967041,-0.828787624835968,0.2820425033569336,-0.1380816698074341,1,0.5403784513473511,-0.4890784919261932,-0.3775101006031036,0.571208655834198,-0.1507350951433182,-0.9866018295288086,0.0624132826924324,0,0,0,-1,169255.2675034167,3,1,1561841439.214002,1561841239.621676,8,3.056457,0,0,7.575853,0,0,1561841413.282218,169257.515911,0,0.5048828,75.18819,0,182478453,1,1,1,-36.91508,-39.25684,5
1561841443.860898,46,0,0,1561841442.997296,4.634670680393125,-74.15095542564443,2553.398,0.5,344.1796875,4,10,-9999,1561841443.839336,10.54753112792969,-14.24648666381836,19.6400146484375,204.5643310546875,212.0575408935547,15,169260.1505140417,-1.032806396484375,-0.5012054443359375,0.076019287109375,169260.1505140417,2.909586847853687,1.324459784916965,-2.299898993173596,169260.1305250417,-62.33912658691406,-39.55270385742188,-540.2186279296875,169260.1454490417,1.029534082735936,-2.314320233044864,1.420990080853447,2.676975727081299,1.456137180328369,-2.273796796798706,-0.9234507083892822,0.4366149306297302,-0.06286120414733887,1,0.569909930229187,-0.4750941097736359,-0.3698042929172516,0.5592254996299744,-0.1098592057824135,-0.9887999892234802,0.1010234802961349,0,0,0,-1,169255.2675034167,3,1,1561841439.214002,1561841239.621676,8,3.056457,0,0,7.575853,0,0,1561841413.282218,169257.515911,0,0.5048828,75.18819,0,182478453,1,1,1,-36.91508,-39.25684,5
1561841443.875419,47,0,0,1561841442.997296,4.634670680393125,-74.15095542564443,2553.398,0.5,344.1796875,4,10,-9999,1561841443.863835,10.29672622680664,-13.26121139526367,20.62481689453125,202.0625305175781,209.5557403564453,15,169260.1707780417,-0.996734619140625,-0.4882965087890625,0.1250762939453125,169260.1707780417,3.432915578917452,1.109908336965238,-2.364741905710954,169260.1506370417,-62.31590270996094,-38.26422119140625,-539.5087280273438,169260.1656820417,1.493195490783972,-2.747020702771378,1.396343217310819,3.371527194976807,1.11004900932312,-2.34920597076416,-0.9476058483123779,0.509846031665802,-0.05276453495025635,1,0.6026296019554138,-0.4657828509807587,-0.3607073128223419,0.5383066534996033,-0.06672220677137375,-0.984821617603302,0.160232201218605,0,0,0,-1,169255.2675034167,3,1,1561841439.214002,1561841239.621676,8,3.056457,0,0,7.575853,0,0,1561841413.282218,169257.515911,0,0.5048828,75.18819,0,182478453,1,1,1,-36.91508,-40.03312,5
1561841443.896165,48,0,0,1561841442.997296,4.634670680393125,-74.15095542564443,2553.398,0.5,344.1796875,4,10,-9999,1561841443.889979,10.27606964111328,-9.724700927734375,22.477783203125,200.136962890625,207.6301727294922,15,169260.1910110417,-0.9481353759765625,-0.5046844482421875,0.2328338623046875,169260.1910110417,3.38649428427239,1.040800638258227,-2.486852102748832,169260.1707480417,-62.44058227539062,-36.37956237792969,-538.4163818359375,169260.1859450417,1.81261541603589,-3.037483281915263,1.340048649081374,3.433994293212891,1.110263705253601,-2.431887626647949,-0.9566861391067505,0.4847414493560791,-0.07233023643493652,1,0.6361271142959595,-0.4572477638721466,-0.350322961807251,0.513361930847168,-0.02376732043921947,-0.9734956622123718,0.2274664491415024,0,0,0,-1,169255.2675034167,3,1,1561841439.214002,1561841239.621676,8,3.056457,0,0,7.575853,0,0,1561841413.282218,169257.515911,0,0.5048828,75.18819,0,182478453,1,1,1,-36.91508,-40.26715,5
1561841443.935349,49,0,0,1561841442.997296,4.634670680393125,-74.15095542564443,2553.398,0.5,344.1796875,4,10,-9999,1561841443.914636,10.32522964477539,-7.319652557373047,23.1461181640625,198.8760681152344,206.3692779541016,15,169260.2112750417,-0.7371673583984375,-0.529632568359375,0.397552490234375,169260.2112750417,3.009687350062605,0.4126935625308211,-2.622380903255182,169260.1908590417,-62.23385620117188,-34.13363647460938,-537.4775390625,169260.2062090417,2.014399058225626,3.068897093900824,1.27381936828633,3.106571435928345,0.5867077708244324,-2.619956016540527,-0.8871294856071472,0.4434844255447388,0.02935445308685303,1,0.6676052212715149,-0.4474733471870422,-0.342200756072998,0.4867952167987823,0.02125425264239311,-0.9562255144119263,0.2918582558631897,0,0,0,-1,169255.2675034167,3,1,1561841439.214002,1561841239.621676,8,3.056457,0,0,7.575853,0,0,1561841413.282218,169257.515911,0,0.5048828,75.18819,0,182478453,1,1,1,-36.91508,-40.79172,5
1561841443.938993,50,0,0,1561841442.997296,4.634670680393125,-74.15095542564443,2553.398,0.5,344.1796875,4,10,-9999,1561841443.914636,10.32522964477539,-7.319652557373047,23.1461181640625,198.8760681152344,206.3692779541016,15,169260.2315390417,-0.5173492431640625,-0.5274658203125,0.486175537109375,169260.2315390417,2.66459946338399,0.1127981879703061,-2.45399242332278,169260.2109700417,-62.52565002441406,-32.05314636230469,-537.0284423828125,169260.2264730417,2.150505765874349,2.946111208231565,1.207957376036501,2.752542734146118,0.1178587675094604,-2.504838705062866,-0.6746234893798828,0.4075949788093567,0.1052908897399902,1,0.6942653059959412,-0.4382699728012085,-0.339422345161438,0.4590289294719696,0.06894112378358841,-0.9348929524421692,0.3481697738170624,0,0,0,-1,169255.2675034167,3,1,1561841439.214002,1561841239.621676,8,3.056457,0,0,7.575853,0,0,1561841413.282218,169257.515911,0,0.5048828,75.18819,0,182478453,1,1,1,-36.91508,-40.79172,5
1561841443.956914,51,0,0,1561841442.997296,4.634670680393125,-74.15095542564443,2553.398,0.5,344.1796875,4,10,-9999,1561841443.941816,10.23628616333008,-5.288442611694336,23.51727294921875,198.8469543457031,206.3401641845703,15,169260.2518020417,-0.2584686279296875,-0.516448974609375,0.513671875,169260.2518020417,2.25758056450391,0.1235722724763307,-2.27755533794394,169260.2310500417,-62.26185607910156,-30.22291564941406,-536.607177734375,169260.2467360417,2.243075628001551,2.862935484365141,1.145810937694999,2.367767810821533,0.1272424310445786,-2.3428635597229,-0.509087085723877,0.378055214881897,0.1086169481277466,1,0.7169129252433777,-0.4292289316654205,-0.3382639288902283,0.4328694641590118,0.1134113669395447,-0.9110447764396667,0.3964032232761383,0,0,0,-1,169255.2675034167,3,1,1561841439.214002,1561841239.621676,8,3.056457,0,0,7.575853,0,0,1561841413.282218,169257.515911,0,0.5048828,75.18819,0,182478453,1,1,1,-36.91508,-40.98926,5
1561841443.976887,52,0,0,1561841442.997296,4.634670680393125,-74.15095542564443,2553.398,0.5,344.1796875,4,10,-9999,1561841443.964981,10.13608169555664,-3.577770233154297,23.89697265625,199.1359710693359,206.6291809082031,15,169260.2720660417,0.0093536376953125,-0.5065460205078125,0.4197540283203125,169260.2720660417,1.748549013752235,-0.05374445501056208,-1.91296645418322,169260.2511610417,-62.39863586425781,-28.30899047851562,-536.6199340820312,169260.2670000417,2.310273277241842,2.803953321007111,1.09130914175149,1.860187768936157,-0.0189741775393486,-2.019218683242798,-0.2798480093479156,0.38700270652771,0.03626465797424316,1,0.735675573348999,-0.4200241267681122,-0.337971955537796,0.4100441038608551,0.1528185904026031,-0.8872315883636475,0.4352776408195496,0,0,0,-1,169255.2675034167,3,1,1561841439.214002,1561841239.621676,8,3.056457,0,0,7.575853,0,0,1561841413.282218,169257.515911,0,0.5048828,75.18819,0,182478453,1,1,1,-36.91508,-41.76994,5
1561841444.011642,53,0,0,1561841442.997296,4.634670680393125,-74.15095542564443,2553.398,0.5,344.1796875,4,10,-9999,1561841443.991348,10.44997406005859,-0.4485950469970703,24.1021728515625,199.7205200195312,207.2137298583984,15,169260.2923300417,0.342559814453125,-0.587677001953125,0.3756561279296875,169260.2923300417,1.363133677634878,-0.07941120264841876,-1.385236583101991,169260.2712730417,-62.10598754882812,-26.9793701171875,-536.2699584960938,169260.2872640417,2.356680363297148,2.761823033133521,1.047146882930859,1.464586615562439,-0.08436650037765503,-1.541294932365417,-0.0226498544216156,0.3357418775558472,-0.0645744800567627,1,0.7497204542160034,-0.4124647676944733,-0.3388175964355469,0.3911454081535339,0.1853695660829544,-0.8660000562667847,0.4644158780574799,0,0,0,-1,169255.2675034167,3,1,1561841439.214002,1561841239.621676,8,3.056457,0,0,7.575853,0,0,1561841413.282218,169257.515911,0,0.5048828,75.18819,0,182478453,1,1,1,-36.91508,-43.13381,5
1561841444.017162,54,0,0,1561841442.997296,4.634670680393125,-74.15095542564443,2553.398,0.5,344.1796875,4,10,-9999,1561841443.991348,10.44997406005859,-0.4485950469970703,24.1021728515625,199.7205200195312,207.2137298583984,15,169260.3125930417,0.6046600341796875,-0.688568115234375,0.26641845703125,169260.3125930417,0.9464232692318904,-0.1189080121431659,-1.040560154811793,169260.2913840417,-62.21591186523438,-25.89140319824219,-536.5968017578125,169260.3074970417,2.384101928942066,2.736663977506919,1.013944428599439,1.028447151184082,-0.08324557542800903,-1.078320145606995,0.2770186960697174,0.1938786506652832,-0.1587340831756592,1,0.7595706582069397,-0.4073576629161835,-0.3391939699649811,0.3769080638885498,0.2082107961177826,-0.8489231467247009,0.4857757091522217,0,0,0,-1,169255.2675034167,3,1,1561841439.214002,1561841239.621676,8,3.056457,0,0,7.575853,0,0,1561841413.282218,169257.515911,0,0.5048828,75.18819,0,182478453,1,1,1,-36.91508,-43.13381,5
1561841444.037742,55,0,0,1561841442.997296,4.634670680393125,-74.15095542564443,2553.398,0.5,344.1796875,4,10,-9999,1561841444.016123,10.34146118164062,0.4330863952636719,24.10797119140625,200.3040618896484,207.7972717285156,15,169260.3328270417,0.7857208251953125,-0.7891693115234375,0.117034912109375,169260.3328270417,0.9144552161387972,-0.5374991449079675,-0.8787062732461185,169260.3114640417,-62.18013000488281,-24.87545776367188,-536.19482421875,169260.3277610417,2.405178626299028,2.71418732414539,0.9887618907830712,0.8743241429328918,-0.4439571499824524,-0.9460611939430237,0.4885029494762421,0.103687047958374,-0.3003222942352295,1,0.7663597464561462,-0.4035212993621826,-0.3410763442516327,0.3654177188873291,0.2278666943311691,-0.835345983505249,0.5002734065055847,0,0,0,-1,169255.2675034167,3,1,1561841439.214002,1561841239.621676,8,3.056457,0,0,7.575853,0,0,1561841413.282218,169257.515911,0,0.5048828,75.18819,0,182478453,1,1,1,-36.91508,-42.60181,5
1561841444.057757,56,0,0,1561841443.997282,4.634674703706647,-74.15095953277698,2553.017,0.5,47.109375,4,10,-9999,1561841444.041953,10.65000534057617,1.442586898803711,24.17901611328125,201.2734985351562,208.7667083740234,15,169260.3530900417,0.79693603515625,-0.888641357421875,-0.0109405517578125,169260.3530900417,1.221793060681648,-0.3757312834455023,-0.4089848443967767,169260.3315750417,-61.69219970703125,-24.05377197265625,-536.106689453125,169260.3480240417,2.415538389718157,2.694217834421817,0.9642478000937625,1.113484025001526,-0.5270123481750488,-0.5475582480430603,0.5547179579734802,-0.002934098243713379,-0.4750105142593384,1,0.7711084485054016,-0.4029386937618256,-0.3442787826061249,0.3528517186641693,0.2465973347425461,-0.8216203451156616,0.5139356851577759,0,0,0,-1,169255.2675034167,3,1,1561841439.214002,1561841239.621676,8,3.056457,0,0,7.575853,0,0,1561841413.282218,169257.515911,0,0.5048828,75.18819,0,182478453,1,1,1,-36.91508,-40.91793,5
1561841444.084336,57,0,0,1561841443.997282,4.634674703706647,-74.15095953277698,2553.017,0.5,47.109375,4,10,-9999,1561841444.080662,11.1959228515625,2.888481140136719,24.25006103515625,202.5312042236328,210.0244140625,15,169260.3733540417,0.7869415283203125,-1.042861938476562,0.004180908203125,169260.3530900417,1.221793060681648,-0.3757312834455023,-0.4089848443967767,169260.3516860417,-61.62925720214844,-23.394775390625,-536.38037109375,169260.3682880417,2.40545619519764,2.698279146646372,0.9379986618607982,1.396896243095398,0.1429436206817627,-0.1032346338033676,0.5576058030128479,-0.1899617910385132,-0.5428107976913452,1,0.7761607766151428,-0.4058227241039276,-0.3416276276111603,0.3408415019512177,0.2536734640598297,-0.8063760995864868,0.5342352986335754,0,0,0,-1,169255.2675034167,3,1,1561841439.214002,1561841239.621676,8,3.056457,0,0,7.575853,0,0,1561841413.282218,169257.515911,0,0.5048828,75.18819,0,182478453,1,1,1,-36.91508,-41.29024,5
1561841444.098372,58,0,0,1561841443.997282,4.634674703706647,-74.15095953277698,2553.017,0.5,47.109375,4,10,-9999,1561841444.080662,11.1959228515625,2.888481140136719,24.25006103515625,202.5312042236328,210.0244140625,15,169260.3936180417,0.7161712646484375,-0.997589111328125,0.067352294921875,169260.3936180417,0.9063323084979465,0.7226194670210104,-0.1867264745664698,169260.3717970417,-61.41847229003906,-22.47502136230469,-536.365234375,169260.3885520417,2.389774874694262,2.719521150627106,0.9142262821863971,1.041956782341003,0.6446083188056946,-0.1076882407069206,0.5052880644798279,-0.2487267255783081,-0.5176515579223633,1,0.7822149395942688,-0.4081149995326996,-0.3332777619361877,0.3324273228645325,0.2500525414943695,-0.7920905351638794,0.5568361282348633,0,0,0,-1,169255.2675034167,3,1,1561841439.214002,1561841239.621676,8,3.056457,0,0,7.575853,0,0,1561841413.282218,169257.515911,0,0.5048828,75.18819,0,182478453,1,1,1,-36.91508,-41.29024,5
1561841444.118461,59,0,0,1561841443.997282,4.634674703706647,-74.15095953277698,2553.017,0.5,47.109375,4,10,-9999,1561841444.116903,10.75238800048828,4.085872650146484,24.3441162109375,201.57177734375,209.0649871826172,15,169260.4138810417,0.5999755859375,-0.7877197265625,0.2072296142578125,169260.4138810417,0.5749197540168889,1.331300646809052,-0.6915033591606337,169260.3918780417,-61.66877746582031,-22.15518188476562,-536.2185668945312,169260.4088150417,2.388522022043249,2.737604905742707,0.8967979797304682,0.6249576807022095,1.134538650512695,-0.5591603517532349,0.4077287912368774,-0.1157774925231934,-0.4578003883361816,1,0.7889932990074158,-0.4054954349994659,-0.3242903649806976,0.3284793198108673,0.2453321218490601,-0.7813324928283691,0.5738739371299744,0,0,0,-1,169255.2675034167,3,1,1561841439.214002,1561841239.621676,8,3.056457,0,0,7.575853,0,0,1561841413.282218,169257.515911,0,0.5048828,75.18819,0,182478453,1,1,1,-36.91508,-41.78596,5
1561841444.138857,60,0,0,1561841443.997282,4.634674703706647,-74.15095953277698,2553.017,0.5,47.109375,4,10,-9999,1561841444.116903,10.75238800048828,4.085872650146484,24.3441162109375,201.57177734375,209.0649871826172,15,169260.4341450417,0.5737762451171875,-0.4852447509765625,0.4678497314453125,169260.4341450417,0.8936034637518038,1.951559653120104,-1.046978639354993,169260.4119890417,-62.49858093261719,-21.85530090332031,-535.955810546875,169260.4290790417,2.404936918818252,2.755405681228346,0.8793002076967993,0.7142378091812134,1.840794324874878,-1.004041433334351,0.3329588770866394,0.1174150109291077,-0.2762572765350342,1,0.7991125583648682,-0.3959570229053497,-0.3124002516269684,0.3271746039390564,0.2401917576789856,-0.7702928185462952,0.5907256603240967,0,0,0,-1,169255.2675034167,3,1,1561841439.214002,1561841239.621676,8,3.056457,0,0,7.575853,0,0,1561841413.282218,169257.515911,0,0.5048828,75.18819,0,182478453,1,1,1,-36.91508,-39.19752,5
1561841444.171796,61,0,0,1561841443.997282,4.634674703706647,-74.15095953277698,2553.017,0.5,47.109375,4,10,-9999,1561841444.148888,10.00198364257812,4.451986312866211,24.49761962890625,199.0252685546875,206.5184783935547,15,169260.4544090417,0.641632080078125,-0.150665283203125,0.8083648681640625,169260.4544090417,1.715103438886366,1.588055208555264,-0.8404856505457373,169260.4321000417,-63.43583679199219,-21.07920837402344,-535.75,169260.4493120417,2.42218161902997,2.781073591992823,0.8505435887150024,1.555920839309692,1.795619606971741,-0.9622814059257507,0.3546850681304932,0.4286104440689087,0.02822792530059814,1,0.8127764463424683,-0.3846829533576965,-0.2957337498664856,0.3224205076694489,0.2326714992523193,-0.7516390681266785,0.6171730756759644,0,0,0,-1,169255.2675034167,3,1,1561841439.214002,1561841239.621676,8,3.056457,0,0,7.575853,0,0,1561841413.282218,169257.515911,0,0.5048828,75.18819,0,182478453,1,1,1,-29.98249,-29.98249,5
1561841444.179323,62,0,0,1561841443.997282,4.634674703706647,-74.15095953277698,2553.017,0.5,47.109375,4,10,-9999,1561841444.170484,7.863784790039062,6.298969268798828,25.08502197265625,196.9287567138672,204.4219665527344,15,169260.4746420417,0.71044921875,0.405517578125,1.105850219726562,169260.4746420417,1.904745542214255,0.904634276986912,-0.2943077962774197,169260.4522110417,-64.64924621582031,-20.23878479003906,-535.5158081054688,169260.4695760417,2.423721056871583,2.807415508268723,0.8114873258631177,1.928656220436096,0.9715124368667603,-0.429360568523407,0.4767641425132751,0.7920385599136353,0.2928848266601562,1,0.8252146244049072,-0.3797228038311005,-0.2797900140285492,0.3107231557369232,0.2257962822914124,-0.7253118753433228,0.6503371596336365,0,0,0,-1,169260.4577650417,3,1,1561841444.404263,1561841239.621676,8,3.056457,0,0,7.575853,0,0,1561841413.282218,169257.515911,0,0.5048828,75.18819,0,182478453,1,1,1,-29.98249,-29.98249,5
1561841444.19968,63,0,0,1561841443.997282,4.634674703706647,-74.15095953277698,2553.017,0.5,47.109375,4,10,-9999,1561841444.195206,7.134544372558594,7.296649932861328,24.7999267578125,196.1887512207031,203.6819610595703,15,169260.4949050417,0.7995758056640625,1.271636962890625,1.414596557617188,169260.4949050417,1.442417581183191,1.121138620965994,0.7162164288121329,169260.4723220417,-65.56425476074219,-19.26092529296875,-535.538818359375,169260.4898390417,2.410410864102641,2.835924763672429,0.7763261373312481,1.568232536315918,1.042036175727844,0.3276728093624115,0.5316265821456909,1.525858163833618,0.5933541059494019,1,0.8337592482566833,-0.3808609545230865,-0.2653342187404633,0.2989783883094788,0.2147113233804703,-0.7006628513336182,0.6804190874099731,0,0,0,-1,169260.4577650417,3,1,1561841444.404263,1561841239.621676,8,3.056457,0,0,7.575853,0,0,1561841413.282218,169257.515911,0,0.5048828,75.18819,0,182478453,1,1,1,-24.07866,-28.28542,5
1561841444.219753,64,0,0,1561841443.997282,4.634674703706647,-74.15095953277698,2553.017,0.5,47.109375,4,10,-9999,1561841444.218379,6.501716613769531,8.171596527099609,24.58111572265625,349.2987670898438,356.7919616699219,15,169260.5151690417,0.81982421875,2.048324584960938,1.662322998046875,169260.5151690417,1.02599532681015,0.3179007403744317,3.779023722609676,169260.4924330417,-65.82615661621094,-18.11712646484375,-535.546875,169260.5101030417,2.363174625495367,2.889429336794231,0.7578872132480855,1.113088488578796,0.7447751760482788,2.794966220855713,0.6474807262420654,2.391215324401855,0.8475215435028076,1,0.8350962996482849,-0.3927779793739319,-0.2473509013652802,0.295223742723465,0.1812088787555695,-0.6873884797096252,0.7033207416534424,0,0,0,-1,169260.4577650417,3,1,1561841444.404263,1561841239.621676,8,3.056457,0,0,7.575853,0,0,1561841413.282218,169257.515911,0,0.5048828,75.18819,0,182478453,1,1,1,-24.07866,-29.29619,5
1561841444.25876,65,0,0,1561841443.997282,4.634674703706647,-74.15095953277698,2553.017,0.5,47.109375,4,10,-9999,1561841444.24801,6.669975280761719,8.30156135559082,24.3843994140625,336.6554260253906,344.1486206054688,15,169260.5354330417,0.656494140625,2.210037231445312,1.6800537109375,169260.5354330417,0.449526411987162,-1.984277119743945,8.098646243320063,169260.5125140417,-66.45584106445312,-17.8052978515625,-535.816650390625,169260.5303670417,2.224634682504273,2.978004521003392,0.7593597494015843,0.6844929456710815,-1.525179028511047,7.054235458374023,0.6631011962890625,2.891582250595093,1.000165104866028,1,0.8166784644126892,-0.4368448257446289,-0.2315312176942825,0.2976512908935547,0.1181182637810707,-0.6884572505950928,0.7155942320823669,0,0,0,-1,169260.4577650417,3,1,1561841444.404263,1561841239.621676,8,3.056457,0,0,7.575853,0,0,1561841413.282218,169257.515911,0,0.5048828,75.18819,0,182478453,1,1,1,-24.07866,-29.74032,5
1561841444.262537,66,0,0,1561841443.997282,4.634674703706647,-74.15095953277698,2553.017,0.5,47.109375,4,10,-9999,1561841444.24801,6.669975280761719,8.30156135559082,24.3843994140625,336.6554260253906,344.1486206054688,15,169260.5556960417,-0.061737060546875,2.047622680664062,1.517791748046875,169260.5556960417,-0.977029648059626,-2.024505499590137,10.78450598800226,169260.5326250417,-65.06698608398438,-17.95967102050781,-536.2274169921875,169260.5506300417,1.974763741338863,3.108061507761014,0.7745002489909024,-0.5382628440856934,-2.270636320114136,10.3663158416748,0.3266233503818512,2.859789848327637,0.8763753175735474,1,0.7691900134086609,-0.5152970552444458,-0.2209614515304565,0.3065805435180664,0.02396258153021336,-0.6993589401245117,0.7143686413764954,0,0,0,-1,169260.4577650417,3,1,1561841444.404263,1561841239.621676,8,3.056457,0,0,7.575853,0,0,1561841413.282218,169257.515911,0,0.5048828,75.18819,0,182478453,1,1,1,-24.07866,-29.74032,5
1561841444.280694,67,0,0,1561841443.997282,4.634674703706647,-74.15095953277698,2553.017,0.5,47.109375,4,10,-9999,1561841444.268803,11.94838714599609,5.712734222412109,23.693359375,201.8889465332031,209.3821563720703,15,169260.5759600417,-0.827667236328125,1.735626220703125,1.453765869140625,169260.5759600417,-2.605184605780431,-1.979099401952613,11.2591526669716,169260.5527360417,-61.75004577636719,-19.57240295410156,-536.6343994140625,169260.5708940417,1.659240759166345,-2.990522570548506,0.7909997041390733,-2.299005270004272,-1.749405384063721,11.24798583984375,-0.3557288646697998,2.635937690734863,0.7696870565414429,1,0.6984178423881531,-0.5998129844665527,-0.2080052047967911,0.3304097354412079,-0.105819009244442,-0.7110565304756165,0.6951261758804321,0,0,0,-1,169260.4577650417,3,1,1561841444.404263,1561841239.621676,8,3.056457,0,0,7.575853,0,0,1561841413.282218,169257.515911,0,0.5048828,75.18819,0,182478453,1,1,1,-24.07866,-30.5178,5
1561841444.300954,68,0,0,1561841443.997282,4.634674703706647,-74.15095953277698,2553.017,0.5,47.109375,4,10,-9999,1561841444.295156,14.35274887084961,1.434711456298828,23.0230712890625,207.2057342529297,214.6989440917969,15,169260.5962240417,-1.296005249023438,1.117340087890625,1.391403198242188,169260.5962240417,-3.157378807267347,-3.200578209625631,11.34876697238833,169260.5728470417,-58.92707824707031,-23.41548156738281,-537.2527465820312,169260.5911270417,1.325154503830924,-2.800592486159917,0.7891840942832982,-3.053295612335205,-3.065434217453003,11.30730819702148,-0.8762204647064209,2.154755592346191,0.8073878288269043,1,0.6110711693763733,-0.6771442294120789,-0.2023397982120514,0.3565479218959808,-0.2355806976556778,-0.7097787857055664,0.6638645529747009,0,0,0,-1,169260.4577650417,3,1,1561841444.404263,1561841239.621676,8,3.056457,0,0,7.575853,0,0,1561841413.282218,169257.515911,0,0.5048828,75.18819,0,182478453,1,1,1,-24.07866,-30.89793,5
1561841444.32543,69,0,0,1561841443.997282,4.634674703706647,-74.15095953277698,2553.017,0.5,47.109375,4,10,-9999,1561841444.32015,15.82546234130859,-3.507173538208008,22.10205078125,214.8541870117188,222.3473968505859,15,169260.6164570417,-1.531814575195312,0.5356292724609375,0.9683074951171875,169260.6164570417,-4.027040985451556,-2.022860731300904,11.67491685423928,169260.5929580417,-56.99557495117188,-27.96441650390625,-537.843505859375,169260.6113910417,0.9919592682115849,-2.628362454624277,0.7545451844184219,-3.707091808319092,-2.465056419372559,11.56767177581787,-1.085904240608215,1.518072009086609,0.5846304893493652,1,0.5101708173751831,-0.7463799715042114,-0.2010963559150696,0.3770979940891266,-0.3577297925949097,-0.6849573850631714,0.634714663028717,0,0,0,-1,169260.4577650417,3,1,1561841444.404263,1561841239.621676,8,3.056457,0,0,7.575853,0,0,1561841413.282218,169257.515911,0,0.5048828,75.18819,0,182478453,1,1,1,-24.07866,-31.75902,5
1561841444.341486,70,0,0,1561841443.997282,4.634674703706647,-74.15095953277698,2553.017,0.5,47.109375,4,10,-9999,1561841444.32015,15.82546234130859,-3.507173538208008,22.10205078125,214.8541870117188,222.3473968505859,15,169260.6367210417,-1.828033447265625,0.08544921875,0.6410675048828125,169260.6367210417,-4.946786571095796,-2.357150831339792,12.20498817655091,169260.6130690417,-56.48139953613281,-33.3206787109375,-539.047607421875,169260.6316550417,0.6631190131221264,-2.448091063244934,0.6915787876853935,-4.898229598999023,-1.81129515171051,11.96112632751465,-1.150794267654419,0.9167457222938538,0.1346348524093628,1,0.3969354927539825,-0.7991272807121277,-0.1973278820514679,0.4060783684253693,-0.4923637211322784,-0.6377540230751038,0.5923243761062622,0,0,0,-1,169260.4577650417,3,1,1561841444.404263,1561841239.621676,8,3.056457,0,0,7.575853,0,0,1561841413.282218,169257.515911,0,0.5048828,75.18819,0,182478453,1,1,1,-24.07866,-30.76836,5
1561841444.362137,71,0,0,1561841443.997282,4.634674703706647,-74.15095953277698,2553.017,0.5,47.109375,4,10,-9999,1561841444.346072,15.67715835571289,-9.122158050537109,20.95538330078125,222.6768341064453,230.1700439453125,15,169260.6569840417,-2.788009643554688,-0.378265380859375,0.4682159423828125,169260.6569840417,-2.773511833007761,-5.499116593798306,12.92788407969307,169260.6331810417,-57.80606079101562,-39.07856750488281,-540.6138305664062,169260.6519180417,0.3542858567458708,-2.330786271921603,0.5829547551576097,-3.551516056060791,-5.1854567527771,13.07430458068848,-1.533803462982178,0.3948992490768433,-0.01187014579772949,1,0.266665130853653,-0.846437394618988,-0.1933750361204147,0.4183774590492249,-0.6051278710365295,-0.550493061542511,0.5751330852508545,0,0,0,-1,169260.4577650417,3,1,1561841444.404263,1561841239.621676,8,3.056457,0,0,7.575853,0,0,1561841413.282218,169257.515911,0,0.5048828,75.18819,0,182478453,1,1,1,-24.07866,-26.95613,5
1561841444.416665,72,0,0,1561841443.997282,4.634674703706647,-74.15095953277698,2553.017,0.5,47.109375,4,10,-9999,1561841444.399842,9.248519897460938,-22.45954895019531,15.32293701171875,130.9623413085938,138.4555511474609,15,169260.6772480417,-4.462020874023438,-1.2532958984375,0.68109130859375,169260.6772480417,-2.326787066487363,-0.681097057201149,8.108950546209797,169260.6532920417,-59.725341796875,-44.48020935058594,-543.0816650390625,169260.6721820417,0.1250942778487059,-2.310407066638214,0.4371785069039757,-1.793908953666687,-2.322788000106812,9.755922317504883,-3.12188458442688,-0.2025762796401978,-0.0126338005065918,1,0.1432041078805923,-0.8858881592750549,-0.1733702719211578,0.4057554006576538,-0.6692531108856201,-0.4233850240707397,0.6106104850769043,0,0,0,-1,169260.4577650417,3,1,1561841444.404263,1561841239.621676,8,3.056457,0,0,7.575853,0,0,1561841413.282218,169257.515911,0,0.5048828,75.18819,0,182478453,1,1,1,-23.40198,-28.12928,5
1561841444.419395,73,0,0,1561841443.997282,4.634674703706647,-74.15095953277698,2553.017,0.5,47.109375,4,10,-9999,1561841444.399842,9.248519897460938,-22.45954895019531,15.32293701171875,130.9623413085938,138.4555511474609,15,169260.6975120417,-4.4219970703125,-2.006011962890625,-0.044586181640625,169260.6975120417,-3.566446209657916,2.38706425565189,3.756801773841837,169260.6733720417,-62.49983215332031,-47.85002136230469,-544.7393798828125,169260.6924460417,-0.02135446455391702,-2.243168378532277,0.3730311105083755,-3.793953657150269,2.507841348648071,4.338362693786621,-3.826954126358032,-1.559266328811646,-0.3690863847732544,1,0.07107115536928177,-0.8859758377075195,-0.1715854555368423,0.424916535615921,-0.7285420298576355,-0.3644397556781769,0.5800085663795471,0,0,0,-1,169260.4577650417,3,1,1561841444.404263,1561841239.621676,8,3.056457,0,0,7.575853,0,0,1561841413.282218,169257.515911,0,0.5048828,75.18819,0,182478453,1,1,1,-23.40198,-28.12928,5
1561841444.422559,74,0,0,1561841443.997282,4.634674703706647,-74.15095953277698,2553.017,0.5,47.109375,4,10,-9999,1561841444.420888,6.568702697753906,-24.125,14.15972900390625,136.9785919189453,144.4718017578125,15,169260.7177750417,-4.068389892578125,-2.12371826171875,-0.43756103515625,169260.7177750417,0.1996659753548377,-2.49139998294236,2.159632961720213,169260.6934830417,-65.49336242675781,-50.00250244140625,-546.1726684570312,169260.7127090417,-0.1126256792094448,-2.187502774979131,0.3495382715132236,-0.834391713142395,-1.348081707954407,2.722648143768311,-3.419684171676636,-1.651462912559509,-0.7303144931793213,1,0.03047412075102329,-0.8779298663139343,-0.1796721816062927,0.442750871181488,-0.766457736492157,-0.3424640297889709,0.5433790683746338,0,0,0,-1,169260.4577650417,3,1,1561841444.404263,1561841239.621676,8,3.056457,0,0,7.575853,0,0,1561841413.282218,169257.515911,0,0.5048828,75.18819,0,182478453,1,1,1,-23.40198,-28.12928,5
1561841444.443371,75,0,0,1561841443.997282,4.634674703706647,-74.15095953277698,2553.017,0.5,47.109375,4,10,-9999,1561841444.420888,6.568702697753906,-24.125,14.15972900390625,136.9785919189453,144.4718017578125,15,169260.7380390417,-3.984054565429688,-2.128982543945312,-0.7848968505859375,169260.7380390417,0.547231400795553,-1.716608923850588,-0.6509652536796654,169260.7135940417,-66.96090698242188,-51.08702087402344,-547.0365600585938,169260.7329420417,-0.1213916752728597,-2.238436887038055,0.3187351548366492,0.9601985216140747,-2.620994567871094,0.07494495064020157,-3.191584825515747,-1.87405800819397,-1.175230979919434,1,0.01523770112544298,-0.8909226655960083,-0.1686584651470184,0.42140132188797,-0.7457320690155029,-0.3133656680583954,0.5879507660865784,0,0,0,-1,169260.4577650417,3,1,1561841444.404263,1561841239.621676,8,3.056457,0,0,7.575853,0,0,1561841413.282218,169257.515911,0,0.5048828,75.18819,0,182478453,1,1,1,-23.40198,-28.91669,5
1561841444.487599,76,0,0,1561841443.997282,4.634674703706647,-74.15095953277698,2553.017,0.5,47.109375,4,10,-9999,1561841444.473541,7.379425048828125,-24.54209899902344,13.61175537109375,134.0602416992188,141.5534515380859,15,169260.7582720417,-3.443435668945312,-1.7586669921875,-0.6826019287109375,169260.7582720417,-0.3816757253146681,2.032800447437407,-3.317241975918187,169260.7337050417,-66.47773742675781,-51.2130126953125,-547.1712646484375,169260.7532060417,-0.1008447792735551,-2.256831434808796,0.338583938254654,-0.5197061896324158,1.46925938129425,-2.749402046203613,-3.134744167327881,-1.688951134681702,-1.435888171195984,1,0.02713718451559544,-0.8933186531066895,-0.1733396649360657,0.4137615561485291,-0.7298339605331421,-0.3321517705917358,0.5975092649459839,0,0,0,-1,169260.4577650417,3,1,1561841444.404263,1561841239.621676,8,3.056457,0,0,7.575853,0,0,1561841413.282218,169257.515911,0,0.5048828,75.18819,0,182478453,1,1,1,-16.01829,-25.16787,5
1561841444.489788,77,0,0,1561841443.997282,4.634674703706647,-74.15095953277698,2553.017,0.5,47.109375,4,10,-9999,1561841444.473541,7.379425048828125,-24.54209899902344,13.61175537109375,134.0602416992188,141.5534515380859,15,169260.7785360417,-2.472579956054688,-1.063552856445312,-0.2491455078125,169260.7582720417,-0.3816757253146681,2.032800447437407,-3.317241975918187,169260.7538160417,-65.58973693847656,-50.66023254394531,-547.002197265625,169260.7734700417,-0.04655366662086964,-2.236002549399128,0.3945558459273847,1.52426540851593,1.784071326255798,-4.452502727508545,-2.164316892623901,-1.005463838577271,-1.036534667015076,1,0.06519998610019684,-0.883543074131012,-0.1861863434314728,0.4247768521308899,-0.7263386249542236,-0.3843981921672821,0.5697988271713257,0,0,0,-1,169260.4577650417,3,1,1561841444.404263,1561841239.621676,8,3.056457,0,0,7.575853,0,0,1561841413.282218,169257.515911,0,0.5048828,75.18819,0,182478453,1,1,1,-16.01829,-25.16787,5
1561841444.503527,78,0,0,1561841443.997282,4.634674703706647,-74.15095953277698,2553.017,0.5,47.109375,4,10,-9999,1561841444.497946,8.863616943359375,-23.20611572265625,14.6611328125,126.3952713012695,133.8884735107422,15,169260.7987990417,-2.08416748046875,-0.658905029296875,-0.025146484375,169260.7987990417,3.609575570879531,0.7621807250141375,-5.848024785060639,169260.7738970417,-64.33509826660156,-49.92753601074219,-546.1248779296875,169260.7937330417,0.07171713931690958,-2.261921716491119,0.4388440567032534,3.598049402236938,0.67231684923172,-5.619432926177979,-1.533592939376831,-0.4029417335987091,-0.6657822132110596,1,0.124281257390976,-0.8792368769645691,-0.1819229125976562,0.4223753213882446,-0.6975166797637939,-0.4248933494091034,0.5770066380500793,0,0,0,-1,169260.4577650417,3,1,1561841444.404263,1561841239.621676,8,3.056457,0,0,7.575853,0,0,1561841413.282218,169257.515911,0,0.5048828,75.18819,0,182478453,1,1,1,-16.01829,-22.78542,5
1561841444.523594,79,0,0,1561841443.997282,4.634674703706647,-74.15095953277698,2553.017,0.5,47.109375,4,10,-9999,1561841444.522452,10.80754470825195,-21.18306732177734,16.3416748046875,115.953971862793,123.4471740722656,15,169260.8190495,-1.862350463867188,-0.3560943603515625,0.0609283447265625,169260.8190495,2.610285624532369,2.112102460481132,-6.211854135278468,169260.7940080417,-62.5667724609375,-48.13372802734375,-544.7568359375,169260.8139835,0.2183140806973705,-2.305576847418414,0.4855488303868811,2.911400079727173,1.721573114395142,-6.213997840881348,-1.33880615234375,-0.04830557107925415,-0.5896555185317993,1,0.1936468780040741,-0.871188223361969,-0.1754642426967621,0.4156252443790436,-0.6562194228172302,-0.4666938185691833,0.5929360389709473,0,0,0,-1,169260.4577650417,3,1,1561841444.404263,1561841239.621676,8,3.056457,0,0,7.575853,0,0,1561841413.282218,169257.515911,0,0.5048828,75.18819,0,182478453,1,1,1,-16.01829,-22.91938,5
1561841444.545747,80,0,0,1561841443.997282,4.634674703706647,-74.15095953277698,2553.017,0.5,47.109375,4,10,-9999,1561841444.522452,10.80754470825195,-21.18306732177734,16.3416748046875,115.953971862793,123.4471740722656,15,169260.8393135,-1.5400390625,-0.1087493896484375,0.3227386474609375,169260.8190495,2.610285624532369,2.112102460481132,-6.211854135278468,169260.8141055,-60.81254577636719,-45.52775573730469,-543.2376708984375,169260.8342475,0.3563350646296928,-2.324889885344048,0.5441451672444805,2.015017986297607,2.917742490768433,-6.015466213226318,-1.061501026153564,0.2981281876564026,-0.4180076122283936,1,0.261693149805069,-0.8511112928390503,-0.1749411374330521,0.4201450347900391,-0.6236185431480408,-0.5176869034767151,0.5857474803924561,0,0,0,-1,169260.4577650417,3,1,1561841444.404263,1561841239.621676,8,3.056457,0,0,7.575853,0,0,1561841413.282218,169257.515911,0,0.5048828,75.18819,0,182478453,1,1,1,-14.38319,-15.49378,5
1561841444.568902,81,0,0,1561841443.997282,4.634674703706647,-74.15095953277698,2553.017,0.5,47.109375,4,10,-9999,1561841444.548455,13.13784790039062,-16.27514266967773,18.95733642578125,106.3105697631836,113.8037719726562,15,169260.8595765,-1.241226196289062,0.021026611328125,0.578277587890625,169260.8595765,1.97468973981966,2.70408748444714,-6.02277023051506,169260.8342165,-59.67634582519531,-43.20954895019531,-541.845947265625,169260.8545105,0.4890593110369939,-2.336338293424185,0.6052441103460314,1.913923025131226,2.874819755554199,-5.997988224029541,-0.8074151277542114,0.5297935009002686,-0.1033926010131836,1,0.3259215652942657,-0.8238291144371033,-0.1754827350378036,0.4292862117290497,-0.5929297208786011,-0.5689628124237061,0.5698385238647461,0,0,0,-1,169260.4577650417,3,1,1561841444.404263,1561841239.621676,8,3.056457,0,0,7.575853,0,0,1561841413.282218,169257.515911,0,0.5048828,75.18819,0,182478453,1,1,1,-13.45041,-13.45041,5
1561841444.584539,82,0,0,1561841443.997282,4.634674703706647,-74.15095953277698,2553.017,0.5,47.109375,4,10,-9999,1561841444.572585,13.27814102172852,-13.6052131652832,20.28985595703125,96.44683074951172,103.9400329589844,15,169260.8798405,-1.014694213867188,0.136474609375,0.6711273193359375,169260.8798405,2.325121259225518,2.070703088703632,-6.182870420502917,169260.8542975,-59.43157958984375,-40.71337890625,-540.5647583007812,169260.8747445,0.6330568958035193,-2.370957830602072,0.6630663832493995,2.231945991516113,2.171016216278076,-6.139140605926514,-0.5703954100608826,0.6882902979850769,0.06714034080505371,1,0.3889994025230408,-0.7946075201034546,-0.176022544503212,0.4316185414791107,-0.5489893555641174,-0.6155363917350769,0.5654432773590088,0,0,0,-1,169260.4577650417,3,1,1561841444.404263,1561841239.621676,8,3.056457,0,0,7.575853,0,0,1561841413.282218,169258.458585,0,0.7900391,75.18551,0,182478453,1,1,1,-13.45041,-13.45041,5
1561841444.60469,83,0,0,1561841443.997282,4.634674703706647,-74.15095953277698,2553.017,0.5,47.109375,4,10,-9999,1561841444.599056,13.61235046386719,-11.05139541625977,21.42437744140625,85.01894378662109,92.51214599609375,15,169260.9000735,-0.8052825927734375,0.228668212890625,0.746429443359375,169260.9000735,2.635700437131104,2.092173493411851,-6.329369846803741,169260.8744085,-59.16477966308594,-38.24864196777344,-539.3280029296875,169260.8950075,0.7962832341506813,-2.433057921916036,0.712283773427424,2.565350770950317,2.058029651641846,-6.306900978088379,-0.4181318283081055,0.8462672233581543,0.1360650062561035,1,0.4523027837276459,-0.763396680355072,-0.1753749400377274,0.4264872074127197,-0.4925127029418945,-0.6535639762878418,0.5747045874595642,0,0,0,-1,169260.4577650417,3,1,1561841444.404263,1561841239.621676,8,3.056457,0,0,7.575853,0,0,1561841413.282218,169258.458585,0,0.7900391,75.18551,0,182478453,1,1,1,-13.45041,-14.33696,5
1561841444.653087,84,0,0,1561841443.997282,4.634674703706647,-74.15095953277698,2553.017,0.5,47.109375,4,10,-9999,1561841444.649678,12.81790542602539,-1.750652313232422,23.65362548828125,59.13857650756836,66.63178253173828,15,169260.9203375,-0.6279754638671875,0.3177490234375,0.8271331787109375,169260.9203375,2.86024619602168,1.792503688595666,-6.169720796304542,169260.8945195,-58.86143493652344,-35.05120849609375,-538.358154296875,169260.9152715,0.9767038289421851,-2.512058947032262,0.7489530488842611,2.81503701210022,1.939354419708252,-6.264026165008545,-0.279157966375351,0.9534095525741577,0.187508225440979,1,0.515211284160614,-0.7283944487571716,-0.1719701290130615,0.4176424145698547,-0.4312149286270142,-0.6808723211288452,0.592002272605896,0,0,0,-1,169260.4577650417,3,1,1561841444.404263,1561841239.621676,8,3.056457,0,0,7.575853,0,0,1561841413.282218,169258.458585,0,0.7900391,75.18551,0,182478453,1,1,1,-13.45041,-15.6017,5
1561841444.656016,85,0,0,1561841443.997282,4.634674703706647,-74.15095953277698,2553.017,0.5,47.109375,4,10,-9999,1561841444.649678,12.81790542602539,-1.750652313232422,23.65362548828125,59.13857650756836,66.63178253173828,15,169260.9406015,-0.405120849609375,0.4028778076171875,0.8755645751953125,169260.9203375,2.86024619602168,1.792503688595666,-6.169720796304542,169260.9146005,-59.11685180664062,-31.91212463378906,-537.5640869140625,169260.9355355,1.161017653115319,-2.606921766526967,0.7677288983870028,2.847300291061401,1.199208736419678,-5.692588806152344,-0.1527569591999054,1.066725969314575,0.2435956001281738,1,0.5731956958770752,-0.6935303211212158,-0.1676962822675705,0.402914822101593,-0.3666217029094696,-0.6945030093193054,0.6190752387046814,0,0,0,-1,169260.4577650417,3,1,1561841444.404263,1561841239.621676,8,3.056457,0,0,7.575853,0,0,1561841413.282218,169258.458585,0,0.7900391,75.18551,0,182478453,1,1,1,-13.45041,-15.6017,5
1561841444.66562,86,0,0,1561841443.997282,4.634674703706647,-74.15095953277698,2553.017,0.5,47.109375,4,10,-9999,1561841444.649678,12.81790542602539,-1.750652313232422,23.65362548828125,59.13857650756836,66.63178253173828,15,169260.9608645,-0.2196197509765625,0.505523681640625,0.9056243896484375,169260.9608645,2.192916616391805,0.9870977285606706,-4.821890174925477,169260.9347115,-59.5450439453125,-28.75602722167969,-537.0064697265625,169260.9557985,1.328781394981085,-2.703647628691687,0.7705726287793534,2.374212265014648,0.9302578568458557,-4.973681449890137,-0.006509184837341309,1.135038018226624,0.2410421371459961,1,0.6220086812973022,-0.661818265914917,-0.1646997630596161,0.3846759796142578,-0.3042818009853363,-0.696546196937561,0.6497964262962341,0,0,0,-1,169260.4577650417,3,1,1561841444.404263,1561841239.621676,8,3.056457,0,0,7.575853,0,0,1561841413.282218,169258.458585,0,0.7900391,75.18551,0,182478453,1,1,1,-13.45041,-16.62719,5
1561841444.685773,87,0,0,1561841443.997282,4.634674703706647,-74.15095953277698,2553.017,0.5,47.109375,4,10,-9999,1561841444.674031,12.10677337646484,1.02366828918457,23.98358154296875,48.08992767333984,55.58313369750977,15,169260.9811285,0.028076171875,0.7326202392578125,0.983001708984375,169260.9811285,1.604495168280432,1.174823154852029,-4.288724259427179,169260.9548225,-60.20979309082031,-25.56385803222656,-536.7158813476562,169260.9760625,1.473162998432155,-2.783035957477712,0.7694849707780712,1.727014899253845,1.150558114051819,-4.432005405426025,0.1448643803596497,1.297633051872253,0.2589279413223267,1,0.6622486114501953,-0.630652129650116,-0.1625390499830246,0.3705211281776428,-0.2520573437213898,-0.6957653760910034,0.6725906729698181,0,0,0,-1,169260.4577650417,3,1,1561841444.404263,1561841239.621676,8,3.056457,0,0,7.575853,0,0,1561841413.282218,169258.458585,0,0.7900391,75.18551,0,182478453,1,1,1,-13.45041,-17.3641,5
1561841444.733343,88,0,0,1561841443.997282,4.634674703706647,-74.15095953277698,2553.017,0.5,47.109375,4,10,-9999,1561841444.724782,9.923229217529297,4.469850540161133,24.25823974609375,33.2609748840332,40.75418090820312,15,169261.0013925,0.3366241455078125,1.140060424804688,1.0516357421875,169261.0013925,1.000798360788583,1.079491575207117,-3.291342468001058,169260.9749335,-61.2991943359375,-23.39364624023438,-536.2260131835938,169260.9963265,1.59536764605721,-2.84441432646127,0.7681061820468006,1.158368229866028,1.125740885734558,-3.618526935577393,0.3884478211402893,1.606563329696655,0.3446016311645508,1,0.6950267553329468,-0.6006566882133484,-0.1605400443077087,0.3610763847827911,-0.2106066346168518,-0.6947743892669678,0.6877012848854065,0,0,0,-1,169260.4577650417,3,1,1561841444.404263,1561841239.621676,8,3.056457,0,0,7.575853,0,0,1561841413.282218,169258.458585,0,0.7900391,75.18551,0,182478453,1,1,1,-13.45041,-18.81875,5
1561841444.735778,89,0,0,1561841443.997282,4.634674703706647,-74.15095953277698,2553.017,0.5,47.109375,4,10,-9999,1561841444.724782,9.923229217529297,4.469850540161133,24.25823974609375,33.2609748840332,40.75418090820312,15,169261.0216555,0.7192230224609375,1.684829711914062,1.128189086914062,169261.0216555,0.3233463721714256,0.6311092572242527,-1.47746850955416,169260.9950135,-62.46810913085938,-21.96376037597656,-536.2421264648438,169261.0165595,1.680004548042073,-2.883055578591286,0.7678479499181526,0.4965139031410217,0.8014870882034302,-2.029799222946167,0.7039631009101868,2.080208778381348,0.3843820095062256,1,0.7169032096862793,-0.5777530670166016,-0.1589161306619644,0.3563661575317383,-0.1839283108711243,-0.6945886611938477,0.6954976320266724,0,0,0,-1,169260.4577650417,3,1,1561841444.404263,1561841239.621676,8,3.056457,0,0,7.575853,0,0,1561841413.282218,169258.458585,0,0.7900391,75.18551,0,182478453,1,1,1,-13.45041,-18.81875,5
1561841444.74759,90,0,0,1561841443.997282,4.634674703706647,-74.15095953277698,2553.017,0.5,47.109375,4,10,-9999,1561841444.724782,9.923229217529297,4.469850540161133,24.25823974609375,33.2609748840332,40.75418090820312,15,169261.0418885,0.98028564453125,2.258255004882812,1.182266235351562,169261.0418885,-0.09202419988714304,-0.1732727173716075,1.351070623161255,169261.0151255,-63.27755737304688,-20.93896484375,-536.234375,169261.0368235,1.703854006683844,-2.891111279996597,0.7680564904597191,-0.01056556217372417,0.007916003465652466,0.5475710034370422,1.052688598632812,2.697485208511353,0.4551918506622314,1,0.7230916023254395,-0.5705668926239014,-0.1576360762119293,0.3560093939304352,-0.1782837063074112,-0.6947386860847473,0.696816086769104,0,0,0,-1,169260.4577650417,3,1,1561841444.404263,1561841239.621676,8,3.056457,0,0,7.575853,0,0,1561841413.282218,169258.458585,0,0.7900391,75.18551,0,182478453,1,1,1,-13.45041,-18.81875,5
1561841444.767129,91,0,0,1561841443.997282,4.634674703706647,-74.15095953277698,2553.017,0.5,47.109375,4,10,-9999,1561841444.751349,9.464591979980469,5.242977142333984,24.288330078125,311.6045837402344,319.0977783203125,15,169261.0621525,1.008087158203125,2.473342895507812,1.141738891601562,169261.0621525,-0.5732337067307597,-0.6843802021929987,4.943638714687323,169261.0352365,-63.31915283203125,-20.76043701171875,-536.3401489257812,169261.0570865,1.641769687963515,-2.854505303821642,0.7599523306469184,-0.4267885982990265,-0.5758220553398132,4.032844543457031,1.236183404922485,3.124250650405884,0.486743688583374,1,0.70872962474823,-0.5876251459121704,-0.1529833972454071,0.3591589033603668,-0.2052538692951202,-0.6888868808746338,0.6952019929885864,0,0,0,-1,169260.4577650417,3,1,1561841444.404263,1561841239.621676,8,3.056457,0,0,7.575853,0,0,1561841413.282218,169258.458585,0,0.7900391,75.18551,0,182478453,1,1,1,-13.45041,-19.50996,5
1561841444.814762,92,0,0,1561841443.997282,4.634674703706647,-74.15095953277698,2553.017,0.5,47.109375,4,10,-9999,1561841444.8017,11.63262557983398,1.960014343261719,24.19921875,287.6213684082031,295.1145629882812,15,169261.0824165,0.621185302734375,2.258956909179688,1.093841552734375,169261.0824165,-1.443454882427777,-1.301348872977258,8.008361353940851,169261.0553475,-62.66993713378906,-21.36492919921875,-536.3424072265625,169261.0773505,1.484163037514701,-2.763728896530208,0.7366614220340465,-1.198715448379517,-1.097601532936096,7.342861652374268,1.144797563552856,3.06511402130127,0.4248802661895752,1,0.6691185832023621,-0.6296914219856262,-0.1422502100467682,0.3681494295597076,-0.2732765674591064,-0.671818733215332,0.68846195936203,0,0,0,-1,169260.4577650417,3,1,1561841444.404263,1561841239.621676,8,3.056457,0,0,7.575853,0,0,1561841413.282218,169258.458585,0,0.7900391,75.18551,0,182478453,1,1,1,-13.45041,-15.2657,5
1561841444.817634,93,0,0,1561841443.997282,4.634674703706647,-74.15095953277698,2553.017,0.5,47.109375,4,10,-9999,1561841444.8017,11.63262557983398,1.960014343261719,24.19921875,287.6213684082031,295.1145629882812,15,169261.1026795,-0.1021728515625,1.916183471679688,1.062789916992188,169261.1026795,-2.512956141437679,-2.103016021157891,9.834586254575209,169261.0754275,-61.51385498046875,-23.3470458984375,-536.212646484375,169261.0976145,1.257264017266538,-2.645839814989459,0.6944774009031469,-2.22466254234314,-1.959320783615112,9.499728202819824,0.6542748212814331,2.733489751815796,0.3941097259521484,1,0.6035729050636292,-0.6882157325744629,-0.1311730444431305,0.3805946707725525,-0.3655174970626831,-0.6399839520454407,0.6758822798728943,0,0,0,-1,169260.4577650417,3,1,1561841444.404263,1561841239.621676,8,3.056457,0,0,7.575853,0,0,1561841413.282218,169258.458585,0,0.7900391,75.18551,0,182478453,1,1,1,-13.45041,-15.2657,5
1561841444.828482,94,0,0,1561841443.997282,4.634674703706647,-74.15095953277698,2553.017,0.5,47.109375,4,10,-9999,1561841444.8017,11.63262557983398,1.960014343261719,24.19921875,287.6213684082031,295.1145629882812,15,169261.1229435,-0.8330841064453125,1.552581787109375,0.9446258544921875,169261.1229435,-3.795002955466261,-2.254742167414103,10.70867620438778,169261.0955385,-60.1181640625,-26.53889465332031,-536.3189697265625,169261.1178775,0.9979607627848676,-2.530048945733263,0.635666632325517,-3.482212781906128,-2.319826364517212,10.54335784912109,-0.01069653034210205,2.336984872817993,0.3568017482757568,1,0.516082227230072,-0.7503855228424072,-0.1248400509357452,0.3936947584152222,-0.4619902372360229,-0.5937140583992004,0.6588385701179504,0,0,0,-1,169260.4577650417,3,1,1561841444.404263,1561841239.621676,8,3.056457,0,0,7.575853,0,0,1561841413.282218,169258.458585,0,0.7900391,75.18551,0,182478453,1,1,1,-7.352893,-12.83398,5
1561841444.848473,95,0,0,1561841443.997282,4.634674703706647,-74.15095953277698,2553.017,0.5,47.109375,4,10,-9999,1561841444.82598,12.83481979370117,-1.502264022827148,23.7437744140625,268.9754943847656,276.4686889648438,15,169261.1432075,-1.422286987304688,1.106735229492188,0.7792510986328125,169261.1432075,-4.77719114655737,-1.73946630285452,10.94511164596502,169261.1156495,-59.36624145507812,-30.6492919921875,-537.2855834960938,169261.1381415,0.7271286077747231,-2.419368006120032,0.5652794066516322,-4.648557186126709,-1.801876902580261,10.9500846862793,-0.6234652996063232,1.872703194618225,0.2491376399993896,1,0.4115688502788544,-0.8046228885650635,-0.1231939047574997,0.4098980128765106,-0.5582211017608643,-0.5356518030166626,0.6336138248443604,0,0,0,-1,169260.4577650417,3,1,1561841444.404263,1561841239.621676,8,3.056457,0,0,7.575853,0,0,1561841413.282218,169258.458585,0,0.7900391,75.18551,0,182478453,1,1,1,-3.918666,-5.336146,5
1561841444.891493,96,0,0,1561841443.997282,4.634674703706647,-74.15095953277698,2553.017,0.5,47.109375,4,10,-9999,1561841444.87962,11.23379898071289,-15.76932144165039,20.17633056640625,112.7465286254883,120.2397308349609,15,169261.1634705,-1.736343383789062,0.72723388671875,0.527679443359375,169261.1634705,-4.132390844485129,-2.162435139819194,11.13672502113178,169261.1357605,-59.39263916015625,-35.71699523925781,-538.1727294921875,169261.1583745,0.4677664239358518,-2.326954723513578,0.4790280314785089,-4.414643287658691,-2.074213266372681,10.97356414794922,-0.9199262857437134,1.366953134536743,0.04484426975250244,1,0.298141211271286,-0.8459098339080811,-0.1227019801735878,0.4248443245887756,-0.6455949544906616,-0.4609168171882629,0.6089032292366028,0,0,0,-1,169260.4577650417,3,1,1561841444.404263,1561841239.621676,8,3.056457,0,0,7.575853,0,0,1561841413.282218,169258.458585,0,0.7900391,75.18551,0,182478453,1,1,1,-3.918666,-6.537728,5
1561841444.895883,97,0,0,1561841443.997282,4.634674703706647,-74.15095953277698,2553.017,0.5,47.109375,4,10,-9999,1561841444.87962,11.23379898071289,-15.76932144165039,20.17633056640625,112.7465286254883,120.2397308349609,15,169261.1837045,-2.665298461914062,0.7544708251953125,0.48394775390625,169261.1837045,-3.564390249296375,-1.750562629852444,11.39599440589536,169261.1559025,-60.72525024414062,-40.4730224609375,-539.822998046875,169261.1786385,0.2362569752656483,-2.274943294537037,0.3604569696494153,-3.511925458908081,-1.969345211982727,11.5119457244873,-1.393001794815063,1.047816038131714,-0.1401734352111816,1,0.17997145652771,-0.8777815103530884,-0.1128687486052513,0.4293838441371918,-0.713184118270874,-0.352701872587204,0.6057801842689514,0,0,0,-1,169260.4577650417,3,1,1561841444.404263,1561841239.621676,8,3.056457,0,0,7.575853,0,0,1561841413.282218,169258.458585,0,0.7900391,75.18551,0,182478453,1,1,1,-3.918666,-6.537728,5
1561841444.908974,98,0,0,1561841443.997282,4.634674703706647,-74.15095953277698,2553.017,0.5,47.109375,4,10,-9999,1561841444.903511,8.480323791503906,-19.67339324951172,18.47332763671875,128.1184844970703,135.6116943359375,15,169261.2039675,-3.807525634765625,0.4004364013671875,0.3666229248046875,169261.2039675,-4.785145476101219,-0.351857375853487,9.957124687916371,169261.1760135,-63.03178405761719,-44.79582214355469,-541.2601928710938,169261.1989015,0.02405275107750781,-2.242526558028282,0.2359555124396436,-4.411078453063965,-0.8097189664840698,10.46517276763916,-2.524190664291382,0.9192579984664917,-0.1283513307571411,1,0.06190010532736778,-0.8937095999717712,-0.1008131504058838,0.4327679872512817,-0.7610571384429932,-0.2337721288204193,0.6050969362258911,0,0,0,-1,169260.4577650417,3,1,1561841444.404263,1561841239.621676,8,3.056457,0,0,7.575853,0,0,1561841413.282218,169258.458585,0,0.7900391,75.18551,0,182478453,1,1,1,-3.918666,-6.537728,5
1561841444.92936,99,0,0,1561841443.997282,4.634674703706647,-74.15095953277698,2553.017,0.5,47.109375,4,10,-9999,1561841444.903511,8.480323791503906,-19.67339324951172,18.47332763671875,128.1184844970703,135.6116943359375,15,169261.2242315,-4.105606079101562,-0.4254913330078125,0.1986541748046875,169261.2242315,-4.483611724838087,0.08883533079788215,7.190949331079559,169261.1961245,-66.88186645507812,-48.14768981933594,-543.1500854492188,169261.2191655,-0.1731049165099559,-2.206687658022107,0.148203487150317,-4.982024669647217,0.3103855848312378,7.849454402923584,-3.279121160507202,0.1218436807394028,-0.3298466205596924,1,-0.04372300580143929,-0.8898205161094666,-0.1046902537345886,0.4419814944267273,-0.7957231402397156,-0.1476615518331528,0.5873845219612122,0,0,0,-1,169260.4577650417,3,1,1561841444.404263,1561841239.621676,8,3.056457,0,0,7.575853,0,0,1561841413.282218,169258.458585,0,0.7900391,75.18551,0,182478453,1,1,1,-3.918666,-7.327667,5
1561841444.97598,100,0,0,1561841443.997282,4.634674703706647,-74.15095953277698,2553.017,0.5,47.109375,4,10,-9999,1561841444.954734,-1.462127685546875,-26.42251586914062,12.7921142578125,149.8716125488281,157.3648223876953,15,169261.2444955,-4.280197143554688,-0.9779815673828125,0.03173828125,169261.2444955,-1.279448367752991,-2.124496013246034,4.323835108922674,169261.2162355,-70.8631591796875,-51.04800415039062,-545.800048828125,169261.2394295,-0.3112324184969323,-2.199573776599651,0.0843114638454471,-1.939936518669128,-1.570386648178101,5.147509098052979,-3.41096830368042,-0.6280992031097412,-0.4407577514648438,1,-0.1190966367721558,-0.8825245499610901,-0.1073698103427887,0.4420837461948395,-0.8058742880821228,-0.08421161025762558,0.5860671997070312,0,0,0,-1,169260.4577650417,3,1,1561841444.404263,1561841239.621676,8,3.056457,0,0,7.575853,0,0,1561841413.282218,169258.458585,0,0.7900391,75.18551,0,182478453,1,1,1,-3.918666,-9.237904,5
1561841444.980805,101,0,0,1561841443.997282,4.634674703706647,-74.15095953277698,2553.017,0.5,47.109375,4,10,-9999,1561841444.979694,-1.884468078613281,-26.69786834716797,11.98236083984375,153.0539398193359,160.5471496582031,15,169261.2647585,-4.169677734375,-1.348907470703125,-0.7296295166015625,169261.2647585,-1.926362687098537,-1.628069736565923,0.824577790406367,169261.2363465,-73.60189819335938,-52.45252990722656,-547.5325317382812,169261.2596925,-0.3727318700210542,-2.241160683262487,0.0444540665120693,-1.408694505691528,-2.206188678741455,1.599593877792358,-3.482681512832642,-1.176446795463562,-0.8853368759155273,1,-0.1572802513837814,-0.8863362073898315,-0.1002744734287262,0.4238115251064301,-0.7828214168548584,-0.04443942755460739,0.6206579208374023,0,0,0,-1,169260.4577650417,3,1,1561841444.404263,1561841239.621676,8,3.056457,0,0,7.575853,0,0,1561841413.282218,169258.458585,0,0.7900391,75.18551,0,182478453,1,1,1,-3.918666,-9.237904,5
1561841444.99014,102,0,0,1561841443.997282,4.634674703706647,-74.15095953277698,2553.017,0.5,47.109375,4,10,-9999,1561841444.979694,-1.884468078613281,-26.69786834716797,11.98236083984375,153.0539398193359,160.5471496582031,15,169261.2850225,-3.38427734375,-1.166000366210938,-1.197357177734375,169261.2850225,-2.469353003858139,1.650391820190749,-1.348097470120291,169261.2564585,-74.47238159179688,-52.67366027832031,-548.0162353515625,169261.2799565,-0.4114188005653855,-2.254667095358679,0.07017898218784567,-2.744595527648926,0.9203991293907166,-0.9275440573692322,-3.103239774703979,-1.263206839561462,-1.740014672279358,1,-0.1696547269821167,-0.8867574334144592,-0.1186092793941498,0.4132921397686005,-0.7732250094413757,-0.0701213926076889,0.6302429437637329,0,0,0,-1,169260.4577650417,3,1,1561841444.404263,1561841239.621676,8,3.056457,0,0,7.575853,0,0,1561841413.282218,169258.458585,0,0.7900391,75.18551,0,182478453,1,1,1,-3.918666,-10.26404,5
1561841445.010906,103,0,0,1561841443.997282,4.634674703706647,-74.15095953277698,2553.017,0.5,47.109375,4,10,-9999,1561841445.004885,-1.918380737304688,-27.37353515625,10.84967041015625,154.1208343505859,161.6140441894531,15,169261.3052865,-2.393203735351562,-0.758331298828125,-0.7816619873046875,169261.3052865,0.4628062647628421,2.621164903901452,-2.705649162110362,169261.2765385,-74.55557250976562,-53.21903991699219,-549.2106323242188,169261.3001895,-0.4184967528716342,-2.213107803249701,0.1200406049529369,-0.365595817565918,2.648267030715942,-2.420711278915405,-2.038026332855225,-0.8472884893417358,-1.651408076286316,1,-0.1591330617666245,-0.8786609768867493,-0.1453060060739517,0.4260488450527191,-0.7949509620666504,-0.1197525188326836,0.5947368741035461,0,0,0,-1,169260.4577650417,3,1,1561841444.404263,1561841239.621676,8,3.056457,0,0,7.575853,0,0,1561841413.282218,169258.458585,0,0.7900391,75.18551,0,182478453,1,1,1,-3.918666,-10.96938,5
1561841445.052715,104,0,0,1561841443.997282,4.634674703706647,-74.15095953277698,2553.017,0.5,47.109375,4,10,-9999,1561841445.033552,-1.450607299804688,-27.59598541259766,10.224853515625,150.008544921875,157.5017547607422,15,169261.3255195,-2.0203857421875,-0.551727294921875,-0.264801025390625,169261.3255195,2.571529173820664,2.046623318759354,-3.92381553001954,169261.2966495,-74.31239318847656,-53.78736877441406,-550.25634765625,169261.3204535,-0.3645174003302725,-2.170883383029004,0.1567198916915804,2.253974676132202,2.169318199157715,-3.603967905044556,-1.334074020385742,-0.4466125071048737,-1.063835978507996,1,-0.1239122003316879,-0.8738092184066772,-0.1523906588554382,0.4448374807834625,-0.8151723146438599,-0.1560791432857513,0.5577935576438904,0,0,0,-1,169260.4577650417,3,1,1561841444.404263,1561841239.621676,8,3.056457,0,0,7.575853,0,0,1561841413.282218,169258.458585,0,0.7900391,75.18551,0,182478453,1,1,1,-3.918666,-11.89769,5
1561841445.054943,105,0,0,1561841443.997282,4.634674703706647,-74.15095953277698,2553.017,0.5,47.109375,4,10,-9999,1561841445.033552,-1.450607299804688,-27.59598541259766,10.224853515625,150.008544921875,157.5017547607422,15,169261.3457825,-1.948715209960938,-0.4748992919921875,0.0755615234375,169261.3457825,2.86797468950509,1.864051641809517,-4.718291610624742,169261.3167605,-73.19233703613281,-53.35615539550781,-549.4815673828125,169261.3407175,-0.2707008839909653,-2.147355540900275,0.1970040867458772,2.895818948745728,1.867502093315125,-4.623866558074951,-1.140076398849487,-0.3272627592086792,-0.6008363962173462,1,-0.07155958563089371,-0.8730282187461853,-0.1496879756450653,0.4585787057876587,-0.8221275210380554,-0.1957322508096695,0.5345981121063232,0,0,0,-1,169260.4577650417,3,1,1561841444.404263,1561841239.621676,8,3.056457,0,0,7.575853,0,0,1561841413.282218,169258.458585,0,0.7900391,75.18551,0,182478453,1,1,1,-3.918666,-12.82858,5
1561841445.070836,106,0,0,1561841444.997268,4.634677679282273,-74.15096229880503,2553.104,0.41,67.8515625,4,10,-9999,1561841445.063585,1.544929504394531,-26.11608505249023,12.70556640625,142.9509735107422,150.4441833496094,15,169261.3660465,-1.837509155273438,-0.3973846435546875,0.2957000732421875,169261.3660465,2.300154390322135,1.872733546963175,-4.654768827039735,169261.3368715,-71.76789855957031,-52.65786743164062,-548.1368408203125,169261.3609805,-0.1695963976556497,-2.132186536430583,0.2476379991435906,2.506044387817383,1.825926661491394,-4.71633768081665,-1.087450265884399,-0.1803918778896332,-0.3254798650741577,1,-0.0140639916062355,-0.870553731918335,-0.1483571529388428,0.4689652621746063,-0.8206918835639954,-0.2451146990060806,0.5161231756210327,0,0,0,-1,169260.4577650417,3,1,1561841444.404263,1561841239.621676,8,3.056457,0,0,7.575853,0,0,1561841413.282218,169258.458585,0,0.7900391,75.18551,0,182478453,1,1,1,-3.918666,-12.82858,5
1561841445.091128,107,0,0,1561841444.997268,4.634677679282273,-74.15096229880503,2553.104,0.41,67.8515625,4,10,-9999,1561841445.063585,1.544929504394531,-26.11608505249023,12.70556640625,142.9509735107422,150.4441833496094,15,169261.3863105,-1.7952880859375,-0.3535614013671875,0.5039825439453125,169261.3863105,1.276015553107879,2.545943652596054,-4.322267039672835,169261.3770945,-68.49043273925781,-50.54672241210938,-545.6683959960938,169261.3812445,-0.08247766424078849,-2.114812149135458,0.3048538860227471,1.511527419090271,2.350739479064941,-4.413003921508789,-0.9928520321846008,-0.08250609040260315,-0.09863054752349854,1,0.03901304304599762,-0.8633270263671875,-0.1521639972925186,0.4795731902122498,-0.8161842226982117,-0.3001537919044495,0.4937111437320709,0,0,0,-1,169260.4577650417,3,1,1561841444.404263,1561841239.621676,8,3.056457,0,0,7.575853,0,0,1561841413.282218,169258.458585,0,0.7900391,75.18551,0,182478453,1,1,1,-3.918666,-13.68169,5
1561841445.122131,108,0,0,1561841444.997268,4.634677679282273,-74.15096229880503,2553.104,0.41,67.8515625,4,10,-9999,1561841445.105406,4.270774841308594,-24.25786209106445,15.06280517578125,131.2166442871094,138.7098541259766,15,169261.4065735,-1.836410522460938,-0.24578857421875,0.7907562255859375,169261.4065735,0.227740220618126,3.209051056633718,-4.394717538180114,169261.3971745,-67.65463256835938,-49.9808349609375,-545.068115234375,169261.4015085,-0.01666037355875454,-2.081668973930642,0.3691099605188307,0.5629770159721375,3.037255048751831,-4.282686233520508,-0.9870772361755371,0.05037593841552734,0.1802680492401123,1,0.08569534122943878,-0.8489171862602234,-0.1624703258275986,0.4955798983573914,-0.8135666847229004,-0.3607854843139648,0.4560081660747528,0,0,0,-1,169260.4577650417,3,1,1561841444.404263,1561841239.621676,8,3.056457,0,0,7.575853,0,0,1561841413.282218,169258.458585,0,0.7900391,75.18551,0,182478453,1,1,1,-3.918666,-14.5657,5
1561841445.131275,109,0,0,1561841444.997268,4.634677679282273,-74.15096229880503,2553.104,0.41,67.8515625,4,10,-9999,1561841445.105406,4.270774841308594,-24.25786209106445,15.06280517578125,131.2166442871094,138.7098541259766,15,169261.4268375,-1.662399291992188,-0.221527099609375,0.8551788330078125,169261.4268375,-1.065444998353603,3.17330744006322,-4.907797360104817,169261.4172855,-66.56398010253906,-49.05471801757812,-544.574951171875,169261.4217715,0.02733950154766775,-2.032928049833957,0.4520056003160065,-0.8447858691215515,3.296911954879761,-4.84013843536377,-0.9926857948303223,0.2310973703861237,0.4836691617965698,1,0.1292680501937866,-0.8269403576850891,-0.1834976524114609,0.515546441078186,-0.8052115440368652,-0.4367705881595612,0.4010811746120453,0,0,0,-1,169260.4577650417,3,1,1561841444.404263,1561841239.621676,8,3.056457,0,0,7.575853,0,0,1561841413.282218,169258.458585,0,0.7900391,75.18551,0,182478453,1,1,1,-3.918666,-15.12179,5
1561841445.151879,110,0,0,1561841444.997268,4.634677679282273,-74.15096229880503,2553.104,0.41,67.8515625,4,10,-9999,1561841445.129781,5.278213500976562,-23.53462219238281,15.64642333984375,128.2122497558594,135.7054595947266,15,169261.4471015,-1.382858276367188,-0.2819061279296875,0.6743621826171875,169261.4471015,-1.21987025837461,2.863208430102175,-4.886339738569832,169261.4373965,-65.88198852539062,-48.72549438476562,-544.6180419921875,169261.4420045,0.05136379045155218,-1.982926500280218,0.5518491850902919,-1.258296251296997,2.844768047332764,-4.918646335601807,-0.7423275709152222,0.2570050954818726,0.4171994924545288,1,0.1697767376899719,-0.8010783195495605,-0.2143808007240295,0.5324380397796631,-0.7802553772926331,-0.5242627859115601,0.3411012291908264,0,0,0,-1,169260.4577650417,3,1,1561841444.404263,1561841239.621676,8,3.056457,0,0,7.575853,0,0,1561841413.282218,169258.458585,0,0.7900391,75.18551,0,182478453,1,1,1,-3.918666,-15.34719,5
1561841445.171988,111,0,0,1561841444.997268,4.634677679282273,-74.15096229880503,2553.104,0.41,67.8515625,4,10,-9999,1561841445.156128,6.968589782714844,-22.57030487060547,15.69970703125,126.7055282592773,134.19873046875,15,169261.4673345,-1.08770751953125,-0.334136962890625,0.590362548828125,169261.4673345,-0.9379706622480879,3.124790770272483,-4.751191770099362,169261.4575075,-65.15803527832031,-48.63128662109375,-544.7877197265625,169261.4622685,0.07039940684471778,-1.934285934241875,0.651758580541857,-1.006030440330505,3.07481861114502,-4.793880939483643,-0.4833519458770752,0.3028745055198669,0.3368171453475952,1,0.2090651839971542,-0.7730597257614136,-0.244473397731781,0.5467203259468079,-0.7430731654167175,-0.6065854430198669,0.2826591730117798,0,0,0,-1,169260.4577650417,3,1,1561841444.404263,1561841239.621676,8,3.056457,0,0,7.575853,0,0,1561841413.282218,169258.458585,0,0.7900391,75.18551,0,182478453,1,1,1,-3.918666,-16.01489,5
1561841445.20501,112,0,0,1561841444.997268,4.634677679282273,-74.15096229880503,2553.104,0.41,67.8515625,4,10,-9999,1561841445.180548,7.860633850097656,-22.26771545410156,15.64544677734375,125.3478012084961,132.8410034179688,15,169261.4875985,-0.8707427978515625,-0.34783935546875,0.593963623046875,169261.4875985,-0.7655400364131635,2.895636144799416,-4.602583652847414,169261.4776185,-64.13723754882812,-48.35249328613281,-544.4569091796875,169261.4825325,0.0896822201723929,-1.884218233803312,0.7478298240385444,-0.7917895317077637,2.989938020706177,-4.639249801635742,-0.2689962387084961,0.3310655355453491,0.3602722883224487,1,0.2483392655849457,-0.7425301074981689,-0.2705875039100647,0.5601420402526855,-0.6974496841430664,-0.6800492405891418,0.226046696305275,0,0,0,-1,169260.4577650417,3,1,1561841444.404263,1561841239.621676,8,3.056457,0,0,7.575853,0,0,1561841413.282218,169258.458585,0,0.7900391,75.18551,0,182478453,1,1,1,-3.918666,-16.57092,5
1561841445.212362,113,0,0,1561841444.997268,4.634677679282273,-74.15096229880503,2553.104,0.41,67.8515625,4,10,-9999,1561841445.207485,8.683296203613281,-21.86729049682617,15.94598388671875,124.1477737426758,131.6409759521484,15,169261.5078615,-0.66534423828125,-0.3939971923828125,0.5564727783203125,169261.5078615,-0.7886890315564592,2.547186017244576,-4.379043769900561,169261.4976995,-63.42379760742188,-47.43658447265625,-544.4967651367188,169261.5027955,0.1060570932531477,-1.839669440865393,0.840628294472676,-0.7805898785591125,2.56812310218811,-4.4350905418396,-0.1146905422210693,0.3864350318908691,0.4175119400024414,1,0.2854039072990417,-0.7121352553367615,-0.2948237061500549,0.569637656211853,-0.6430304646492004,-0.7450623512268066,0.1771840304136276,0,0,0,-1,169260.4577650417,3,1,1561841444.404263,1561841239.621676,8,3.056457,0,0,7.575853,0,0,1561841413.282218,169258.458585,0,0.7900391,75.18551,0,182478453,1,1,1,-3.918666,-16.57092,5
1561841445.232676,114,0,0,1561841444.997268,4.634677679282273,-74.15096229880503,2553.104,0.41,67.8515625,4,10,-9999,1561841445.231309,9.316360473632812,-21.27462768554688,16.095947265625,123.569938659668,131.0631408691406,15,169261.5281255,-0.4481658935546875,-0.474761962890625,0.504302978515625,169261.5281255,-0.8171076235486948,2.722671022533713,-4.23425116354237,169261.5178105,-62.67893981933594,-47.17643737792969,-544.0372924804688,169261.5230595,0.115139754295367,-1.794130307890249,0.930188015840405,-0.8190349936485291,2.682600021362305,-4.291811943054199,0.02079737186431885,0.3683063983917236,0.3922363519668579,1,0.3195522725582123,-0.6812300682067871,-0.3178417980670929,0.5768783092498779,-0.5828395485877991,-0.8017323017120361,0.1323761194944382,0,0,0,-1,169260.4577650417,3,1,1561841444.404263,1561841239.621676,8,3.056457,0,0,7.575853,0,0,1561841413.282218,169258.458585,0,0.7900391,75.18551,0,182478453,1,1,1,-3.918666,-17.54098,5
1561841445.253148,115,0,0,1561841444.997268,4.634677679282273,-74.15096229880503,2553.104,0.41,67.8515625,4,10,-9999,1561841445.231309,9.316360473632812,-21.27462768554688,16.095947265625,123.569938659668,131.0631408691406,15,169261.5483895,-0.278961181640625,-0.531097412109375,0.4741058349609375,169261.5483895,-0.6206603446873268,2.861850484262344,-3.942077890878649,169261.5379215,-62.30049133300781,-46.48822021484375,-544.1114501953125,169261.5433235,0.1168530271160723,-1.739442474018617,1.016213450896943,-0.6947463154792786,2.846760034561157,-4.034794330596924,0.1475663185119629,0.3399578332901001,0.3822858333587646,1,0.3522758185863495,-0.6481474637985229,-0.3382350504398346,0.5842975378036499,-0.5191178917884827,-0.8501201868057251,0.08838677406311035,0,0,0,-1,169260.4577650417,3,1,1561841444.404263,1561841239.621676,8,3.056457,0,0,7.575853,0,0,1561841413.282218,169258.458585,0,0.7900391,75.18551,0,182478453,1,1,1,-3.918666,-18.56779,5
1561841445.290174,116,0,0,1561841444.997268,4.634677679282273,-74.15096229880503,2553.104,0.41,67.8515625,4,10,-9999,1561841445.281907,10.97275924682617,-19.88968658447266,17.03125,217.2151794433594,224.7083892822266,15,169261.5686525,-0.1389312744140625,-0.58062744140625,0.4992523193359375,169261.5686525,-0.2443319805254287,2.678336580918837,-3.662301899405356,169261.5580325,-62.11767578125,-46.24432373046875,-543.521728515625,169261.5635865,0.1176618332054253,-1.682827699758292,1.095243159628273,-0.3422401547431946,2.755029678344727,-3.712767362594604,0.2534373104572296,0.3254715204238892,0.4294371604919434,1,0.3837986886501312,-0.6150533556938171,-0.3540708720684052,0.5907975435256958,-0.4549601376056671,-0.8890395760536194,0.05118412896990776,0,0,0,-1,169260.4577650417,3,1,1561841444.404263,1561841239.621676,8,3.056457,0,0,7.575853,0,0,1561841413.282218,169258.458585,0,0.7900391,75.18551,0,182478453,1,1,1,-3.918666,-20.26813,5
1561841445.293887,117,0,0,1561841444.997268,4.634677679282273,-74.15096229880503,2553.104,0.41,67.8515625,4,10,-9999,1561841445.281907,10.97275924682617,-19.88968658447266,17.03125,217.2151794433594,224.7083892822266,15,169261.5889165,-0.0446319580078125,-0.6429901123046875,0.5291290283203125,169261.5889165,0.05628138226497156,2.198875439330857,-3.542149125768687,169261.5781135,-61.34181213378906,-45.7940673828125,-543.1221923828125,169261.5838205,0.125599235307328,-1.638303689516069,1.168810740817462,0.00709092989563942,2.323826551437378,-3.573106288909912,0.3091935515403748,0.3167092800140381,0.4957027435302734,1,0.4142232835292816,-0.5844784379005432,-0.366519957780838,0.5936893820762634,-0.3903550803661346,-0.9202859401702881,0.02639194577932358,0,0,0,-1,169260.4577650417,3,1,1561841444.404263,1561841239.621676,8,3.056457,0,0,7.575853,0,0,1561841413.282218,169258.458585,0,0.7900391,75.18551,0,182478453,1,1,1,-3.918666,-20.26813,5
1561841445.313794,118,0,0,1561841444.997268,4.634677679282273,-74.15096229880503,2553.104,0.41,67.8515625,4,10,-9999,1561841445.307969,11.29845809936523,-19.318359375,17.48712158203125,214.2739715576172,221.7671813964844,15,169261.6091495,0.036346435546875,-0.70941162109375,0.49713134765625,169261.6091495,0.02085974187026365,1.859378859360864,-3.446471068865955,169261.5982245,-61.26226806640625,-44.6983642578125,-542.5543212890625,169261.6040835,0.1391023337709423,-1.60847564056209,1.24003990887575,0.04783729463815689,1.910295367240906,-3.478916168212891,0.3139387667179108,0.2707786560058594,0.5081825256347656,1,0.4428180158138275,-0.5568025708198547,-0.37828728556633,0.5922684669494629,-0.3245283663272858,-0.9457969665527344,0.0122337955981493,0,0,0,-1,169260.4577650417,3,1,1561841444.404263,1561841239.621676,8,3.056457,0,0,7.575853,0,0,1561841413.282218,169258.458585,0,0.7900391,75.18551,0,182478453,1,1,1,-3.918666,-20.91666,5
1561841445.334609,119,0,0,1561841444.997268,4.634677679282273,-74.15096229880503,2553.104,0.41,67.8515625,4,10,-9999,1561841445.332531,11.4683723449707,-18.33538818359375,18.0740966796875,211.7888336181641,219.2820434570312,15,169261.6294135,0.1197662353515625,-0.8028106689453125,0.4461212158203125,169261.6294135,-0.09565115897572195,1.664485268679448,-3.205518906079946,169261.6183355,-60.89094543457031,-44.01602172851562,-542.276123046875,169261.6243475,0.1431613511936669,-1.575646840652266,1.308838723769659,-0.07202039659023285,1.717044949531555,-3.277513742446899,0.3445396721363068,0.2073399424552917,0.4694622755050659,1,0.4684913754463196,-0.5302300453186035,-0.3903264105319977,0.5890815854072571,-0.2589683830738068,-0.9658848643302917,0.001256139599718153,0,0,0,-1,169260.4577650417,3,1,1561841444.404263,1561841239.621676,8,3.056457,0,0,7.575853,0,0,1561841413.282218,169258.458585,0,0.7900391,75.18551,0,182478453,1,1,1,-3.918666,-21.88782,5
1561841445.372687,120,0,0,1561841444.997268,4.634677679282273,-74.15096229880503,2553.104,0.41,67.8515625,4,10,-9999,1561841445.358878,12.11112213134766,-17.10567474365234,18.55731201171875,209.6981048583984,217.1913146972656,15,169261.6496775,0.2189483642578125,-0.8672332763671875,0.39599609375,169261.6496775,-0.1482374052282086,1.392622061436998,-2.950277019832899,169261.6384465,-60.74508666992188,-43.43710327148438,-542.1888427734375,169261.6446115,0.1274288311717658,-1.528036173739193,1.372437436013083,-0.1530867516994476,1.460330367088318,-3.013346910476685,0.3588983416557312,0.1396320462226868,0.4270486831665039,1,0.4906608462333679,-0.5050148963928223,-0.4018961191177368,0.5853984951972961,-0.1968805342912674,-0.9803913235664368,-0.008423776365816593,0,0,0,-1,169260.4577650417,3,1,1561841444.404263,1561841239.621676,8,3.056457,0,0,7.575853,0,0,1561841413.282218,169258.458585,0,0.7900391,75.18551,0,182478453,1,1,1,-3.918666,-22.63588,5
1561841445.375364,121,0,0,1561841444.997268,4.634677679282273,-74.15096229880503,2553.104,0.41,67.8515625,4,10,-9999,1561841445.358878,12.11112213134766,-17.10567474365234,18.55731201171875,209.6981048583984,217.1913146972656,15,169261.6699405,0.3063812255859375,-0.895721435546875,0.3623046875,169261.6699405,0.006550044701049886,1.04093672578993,-2.639815021015277,169261.6585575,-60.39923095703125,-42.74420166015625,-541.6566162109375,169261.6648745,0.08798531600493054,-1.46281153329494,1.430524615203259,-0.03084366954863071,1.12455952167511,-2.731501579284668,0.4105900824069977,0.1098222136497498,0.3947528600692749,1,0.5097843408584595,-0.4822714328765869,-0.4128968119621277,0.580560564994812,-0.1389988958835602,-0.9901780486106873,-0.01506838202476501,0,0,0,-1,169260.4577650417,3,1,1561841444.404263,1561841239.621676,8,3.056457,0,0,7.575853,0,0,1561841413.282218,169258.458585,0,0.7900391,75.18551,0,182478453,1,1,1,-3.918666,-22.63588,5
1561841445.394984,122,0,0,1561841444.997268,4.634677679282273,-74.15096229880503,2553.104,0.41,67.8515625,4,10,-9999,1561841445.383127,12.38398361206055,-16.40451431274414,18.834228515625,208.1237945556641,215.6170043945312,15,169261.6902045,0.3325347900390625,-0.8857879638671875,0.2987213134765625,169261.6902045,-0.1196225382636342,0.7464909777680446,-2.246073045433677,169261.6786385,-59.95817565917969,-42.07200622558594,-541.529541015625,169261.6851385,0.0187151102592912,-1.374542585287369,1.481543006716623,-0.04861653968691826,0.8032466769218445,-2.354005575180054,0.4068349599838257,0.1003133654594421,0.3522196412086487,1,0.5260095000267029,-0.4632748961448669,-0.4227941632270813,0.574400007724762,-0.08742271363735199,-0.9960195422172546,-0.01738075353205204,0,0,0,-1,169260.4577650417,3,1,1561841444.404263,1561841239.621676,8,3.056457,0,0,7.575853,0,0,1561841413.282218,169258.458585,0,0.7900391,75.18551,0,182478453,1,1,1,-3.918666,-23.37625,5
1561841445.415122,123,0,0,1561841444.997268,4.634677679282273,-74.15096229880503,2553.104,0.41,67.8515625,4,10,-9999,1561841445.409438,12.70134735107422,-16.04468154907227,18.919677734375,207.0610046386719,214.5542144775391,15,169261.7104685,0.349365234375,-0.8858642578125,0.1997528076171875,169261.7104685,-0.5825837990019189,0.7026478893742882,-1.681991824421193,169261.6987495,-59.75958251953125,-41.72608947753906,-541.71240234375,169261.7054025,-0.2453124277471937,-1.096664177438803,1.520925399328096,-0.4292592108249664,0.6704252362251282,-1.841236114501953,0.3933943510055542,0.1202471256256104,0.277779221534729,1,0.5375824570655823,-0.4467947483062744,-0.4322349727153778,0.569694995880127,-0.04434958845376968,-0.9987567067146301,-0.02275910973548889,0,0,0,-1,169260.4577650417,3,1,1561841444.404263,1561841239.621676,8,3.056457,0,0,7.575853,0,0,1561841413.282218,169258.458585,0,0.7900391,75.18551,0,182478453,1,1,1,-3.918666,-24.26781,5
