loggingTime,loggingSample,identifierForVendor,deviceID,locationTimestamp_since1970,locationLatitude,locationLongitude,locationAltitude,locationSpeed,locationCourse,locationVerticalAccuracy,locationHorizontalAccuracy,locationFloor,locationHeadingTimestamp_since1970,locationHeadingX,locationHeadingY,locationHeadingZ,locationTrueHeading,locationMagneticHeading,locationHeadingAccuracy,accelerometerTimestamp_sinceReboot,accelerometerAccelerationX,accelerometerAccelerationY,accelerometerAccelerationZ,gyroTimestamp_sinceReboot,gyroRotationX,gyroRotationY,gyroRotationZ,magnetometerTimestamp_sinceReboot,magnetometerX,magnetometerY,magnetometerZ,motionTimestamp_sinceReboot,motionYaw,motionRoll,motionPitch,motionRotationRateX,motionRotationRateY,motionRotationRateZ,motionUserAccelerationX,motionUserAccelerationY,motionUserAccelerationZ,motionAttitudeReferenceFrame,motionQuaternionX,motionQuaternionY,motionQuaternionZ,motionQuaternionW,motionGravityX,motionGravityY,motionGravityZ,motionMagneticFieldX,motionMagneticFieldY,motionMagneticFieldZ,motionMagneticFieldCalibrationAccuracy,activityTimestamp_sinceReboot,activity,activityActivityConfidence,activityActivityStartDate,pedometerStartDate,pedometerNumberofSteps,pedometerAverageActivePace,pedometerCurrentPace,pedometerCurrentCadence,pedometerDistance,pedometerFloorAscended,pedometerFloorDescended,pedometerEndDate,altimeterTimestamp_sinceReboot,altimeterReset,altimeterRelativeAltitude,altimeterPressure,IP_en0,IP_pdp_ip0,deviceOrientation,batteryState,batteryLevel,avAudioRecorderPeakPower,avAudioRecorderAveragePower,label
1561240595.911,1,0,0,1561240593.699841,4.603046578328162,-74.06480771600017,2651.397,-1,-1,10,65,-9999,1561240595.90032,-3.388004302978516,16.02436447143555,21.22006225585938,163.5455017089844,171.0891876220703,15,63056.25616575,-0.3613433837890625,0.9234771728515625,0.0432891845703125,63056.24502675,-0.0267700952774765,-0.05812189289432532,-0.05019153180028737,63056.24566775,35.39691162109375,16.36666870117188,-511.5337829589844,63056.25009275,-2.399126189233129,-1.660641227863781,-1.163064116351297,-0.03767286613583565,-0.05433710664510727,-0.05079084634780884,0.03149533271789551,0.004951238632202148,0.01001513004302979,1,0.7092300057411194,-0.1215807348489761,0.3782519400119781,-0.5823541879653931,-0.3949291408061981,0.9180224537849426,0.03557815402746201,0,0,0,-1,63055.65405375,3,2,1561240595.316969,1561239991.781823,76,3.632473,0,0,66.78877,0,0,1561240563.880506,63052.943058,0,-1.009521,74.42467,2650659446,177292352,1,1,0.32,-34.44484,-37.50349,2
1561240595.924954,2,0,0,1561240593.699841,4.603046578328162,-74.06480771600017,2651.397,-1,-1,10,65,-9999,1561240595.90032,-3.388004302978516,16.02436447143555,21.22006225585938,163.5455017089844,171.0891876220703,15,63056.27642875,-0.3594207763671875,0.92474365234375,0.039306640625,63056.26528975,-0.0515031386371514,-0.02376072324568696,-0.03013739615977269,63056.26580875,35.38407897949219,16.4732666015625,-511.8004150390625,63056.27035575001,-2.401546638491413,-1.663656362418282,-1.162242523536508,-0.0589778907597065,-0.01824142038822174,-0.0283752866089344,0.0344410240650177,0.006559014320373535,0.005748629570007324,1,0.7097246646881104,-0.1212857440114021,0.3781203627586365,-0.5818982720375061,-0.3955707550048828,0.9176963567733765,0.03683866187930107,0,0,0,-1,63055.65405375,3,2,1561240595.316969,1561239991.781823,76,3.632473,0,0,66.78877,0,0,1561240563.880506,63052.943058,0,-1.009521,74.42467,2650659446,177292352,1,1,0.32,-35.00212,-38.13194,2
1561240595.9451,3,0,0,1561240593.699841,4.603046578328162,-74.06480771600017,2651.397,-1,-1,10,65,-9999,1561240595.90032,-3.388004302978516,16.02436447143555,21.22006225585938,163.5455017089844,171.0891876220703,15,63056.29669275,-0.352569580078125,0.9212646484375,0.0326385498046875,63056.28555375001,-0.05769631975213067,0.009664877912006563,-0.007113303271601645,63056.28595075,35.61135864257812,16.24026489257812,-511.9376831054688,63056.29061975001,-2.404599218436001,-1.666571418808714,-1.161846670144925,-0.05756854265928268,0.01363928243517876,-0.004674485418945551,0.03937810659408569,0.006060242652893066,-0.00372469425201416,1,0.7101253271102905,-0.1213886439800262,0.3780858218669891,-0.58141028881073,-0.3958234190940857,0.9175390005111694,0.0380263663828373,0,0,0,-1,63055.65405375,3,2,1561240595.316969,1561239991.781823,76,3.632473,0,0,66.78877,0,0,1561240563.880506,63052.943058,0,-1.009521,74.42467,2650659446,177292352,1,1,0.32,-35.5594,-38.29567,2
1561240595.965928,4,0,0,1561240593.699841,4.603046578328162,-74.06480771600017,2651.397,-1,-1,10,65,-9999,1561240595.945359,-3.455326080322266,15.85635375976562,21.13259887695312,163.5493927001953,171.0930786132812,15,63056.31695675,-0.3502044677734375,0.9188079833984375,0.029205322265625,63056.30581775001,-0.04805008396775465,0.0590689129779575,0.008880044338760213,63056.30606175,35.43917846679688,16.19996643066406,-511.7832336425781,63056.31088375,-2.407451366912403,-1.668411470820877,-1.161858353508436,-0.05568009614944458,0.06388567388057709,0.01193005777895451,0.04546147584915161,0.001157522201538086,-0.006618618965148926,1,0.7102987766265869,-0.1218706294894218,0.3782579898834229,-0.5809854865074158,-0.3957422375679016,0.9175436496734619,0.03875360637903214,0,0,0,-1,63055.65405375,3,2,1561240595.316969,1561239991.781823,76,3.632473,0,0,66.78877,0,0,1561240563.880506,63052.943058,0,-1.009521,74.42467,2650659446,177292352,1,1,0.32,-36.11668,-38.7448,2
1561240595.985678,5,0,0,1561240593.699841,4.603046578328162,-74.06480771600017,2651.397,-1,-1,10,65,-9999,1561240595.969772,-3.552284240722656,15.98917007446289,21.1046142578125,163.6585540771484,171.2022399902344,15,63056.33721975001,-0.3531036376953125,0.919769287109375,0.0288543701171875,63056.32608075,-0.06091714677447249,0.1105462189525351,0.0477725825821684,63056.32620375,35.25543212890625,16.21420288085938,-511.59228515625,63056.33114675,-2.410802276749505,-1.669658392237414,-1.16249013927051,-0.07286654412746429,0.1166151985526085,0.05994738265872002,0.04395034909248352,0.001272737979888916,-0.01167809963226318,1,0.7102731466293335,-0.122910276055336,0.3786091804504395,-0.5805687308311462,-0.3951161503791809,0.9177947044372559,0.03918975591659546,0,0,0,-1,63055.65405375,3,2,1561240595.316969,1561239991.781823,76,3.632473,0,0,66.78877,0,0,1561240563.880506,63053.891558,0,-0.9829102,74.42442,2650659446,177292352,1,1,0.32,-36.67396,-39.50571,2
1561240596.005885,6,0,0,1561240593.699841,4.603046578328162,-74.06480771600017,2651.397,-1,-1,10,65,-9999,1561240595.996454,-3.334999084472656,15.95621681213379,21.33651733398438,163.8566284179688,171.4003143310547,15,63056.35748375001,-0.357147216796875,0.919403076171875,0.02569580078125,63056.34634475,-0.07259723868334202,0.1344329097177829,0.09807649978045711,63056.34631475,35.42681884765625,16.48912048339844,-511.9019165039062,63056.35138075001,-2.415127311193042,-1.671077535561755,-1.164107411012039,-0.07502583414316177,0.1265895366668701,0.1069143563508987,0.03768736124038696,0.0001434683799743652,-0.01392126083374023,1,0.710128128528595,-0.1245751455426216,0.3789035677909851,-0.5801993012428284,-0.3935833275318146,0.9184356331825256,0.03960185125470161,0,0,0,-1,63055.65405375,3,2,1561240595.316969,1561239991.781823,76,3.632473,0,0,66.78877,0,0,1561240563.880506,63053.891558,0,-0.9829102,74.42442,2650659446,177292352,1,1,0.32,-36.67396,-39.50571,2
1561240596.026656,7,0,0,1561240593.699841,4.603046578328162,-74.06480771600017,2651.397,-1,-1,10,65,-9999,1561240596.020335,-3.373279571533203,15.92121124267578,21.1588134765625,164.0469512939453,171.5906372070312,15,63056.37774775,-0.3654937744140625,0.9219512939453125,0.0269927978515625,63056.36660875,-0.04689294047411523,0.1101302331902648,0.130739371601952,63056.36645575,35.36222839355469,16.24565124511719,-511.6338500976562,63056.37164375,-2.418809664087204,-1.672164823816051,-1.166520259736542,-0.03968461975455284,0.09026961028575897,0.1322551369667053,0.03008213639259338,0.002151906490325928,-0.01279735565185547,1,0.7098820209503174,-0.1263732612133026,0.3789044916629791,-0.5801109075546265,-0.3913339674472809,0.9193874001502991,0.03980537131428719,0,0,0,-1,63055.65405375,3,2,1561240595.316969,1561239991.781823,76,3.632473,0,0,66.78877,0,0,1561240563.880506,63053.891558,0,-0.9829102,74.42442,2650659446,177292352,1,1,0.32,-37.23124,-39.73579,2
1561240596.046416,8,0,0,1561240593.699841,4.603046578328162,-74.06480771600017,2651.397,-1,-1,10,65,-9999,1561240596.020335,-3.373279571533203,15.92121124267578,21.1588134765625,164.0469512939453,171.5906372070312,15,63056.39801075,-0.37353515625,0.9219512939453125,0.0289306640625,63056.38687175,-0.001623995632730319,0.06071501284773548,0.1381845047453775,63056.38659775,35.5712890625,16.31610107421875,-511.78076171875,63056.39190775,-2.420373198995277,-1.672243251548815,-1.169290015205808,0.004301745910197496,0.04710482805967331,0.1336583644151688,0.01887691020965576,0.001828908920288086,-0.01363813877105713,1,0.7095410227775574,-0.1278301030397415,0.3785485327243805,-0.5804411172866821,-0.3887957334518433,0.9204733371734619,0.03957799822092056,0,0,0,-1,63055.65405375,3,2,1561240595.316969,1561239991.781823,76,3.632473,0,0,66.78877,0,0,1561240563.880506,63053.891558,0,-0.9829102,74.42442,2650659446,177292352,1,1,0.32,-36.63169,-40.31409,2
1561240596.06666,9,0,0,1561240593.699841,4.603046578328162,-74.06480771600017,2651.397,-1,-1,10,65,-9999,1561240596.046657,-3.295391082763672,15.84001350402832,21.25991821289062,164.135986328125,171.6796722412109,15,63056.41824475001,-0.3811492919921875,0.921356201171875,0.0316925048828125,63056.40710575,0.02903298325571683,0.03092382762967309,0.1310179382519742,63056.40670875,35.42971801757812,16.18487548828125,-511.7647705078125,63056.41217175,-2.42008178431105,-1.671315916121856,-1.1720358316799,0.02662729099392891,0.02171451970934868,0.1285307109355927,0.008233964443206787,0.0005151033401489258,-0.009392142295837402,1,0.7091286182403564,-0.1289125233888626,0.378017395734787,-0.5810515880584717,-0.3863162398338318,0.9215429425239563,0.0389636717736721,0,0,0,-1,63055.65405375,3,2,1561240595.316969,1561239991.781823,76,3.632473,0,0,66.78877,0,0,1561240563.880506,63053.891558,0,-0.9829102,74.42442,2650659446,177292352,1,1,0.32,-36.63169,-40.99384,2
1561240596.08692,10,0,0,1561240593.699841,4.603046578328162,-74.06480771600017,2651.397,-1,-1,10,65,-9999,1561240596.071496,-3.230575561523438,15.71734237670898,21.1746826171875,164.157470703125,171.7011566162109,15,63056.43850775,-0.385284423828125,0.9215087890625,0.0370025634765625,63056.42736875,0.03503494940442841,0.03059173144174021,0.1262439556818982,63056.42684975,35.72380065917969,16.0650634765625,-511.7295532226562,63056.43243475,-2.41913484062326,-1.669950504021714,-1.17468299739111,0.02768882550299168,0.02667758427560329,0.1186612918972969,-0.0005197823047637939,-0.001333415508270264,-0.003496170043945312,1,0.7086849212646484,-0.1298574954271317,0.3774776756763458,-0.5817331075668335,-0.3839406669139862,0.9225675463676453,0.03819457441568375,0,0,0,-1,63055.65405375,3,2,1561240595.316969,1561239991.781823,76,3.632473,0,0,66.78877,0,0,1561240563.880506,63053.891558,0,-0.9829102,74.42442,2650659446,177292352,1,1,0.32,-36.63169,-41.75972,2
1561240596.107214,11,0,0,1561240593.699841,4.603046578328162,-74.06480771600017,2651.397,-1,-1,10,65,-9999,1561240596.097256,-3.161441802978516,15.70245361328125,21.07485961914062,164.1733093261719,171.7169952392578,15,63056.45877175,-0.3848724365234375,0.9189300537109375,0.0380859375,63056.44763275,0.02910355702460393,0.02321184574502163,0.1084947859648471,63056.44696175001,35.5716552734375,16.14918518066406,-511.7164306640625,63056.45269875001,-2.418258685390392,-1.668702484133,-1.177032849612126,0.02335160225629807,0.01136068068444729,0.1014143973588943,-0.005073130130767822,-0.002084970474243164,-0.000409245491027832,1,0.7082869410514832,-0.1306952685117722,0.3769989609718323,-0.5823400616645813,-0.3818286955356598,0.9234716892242432,0.03750328719615936,0,0,0,-1,63055.65405375,3,2,1561240595.316969,1561239991.781823,76,3.632473,0,0,66.78877,0,0,1561240563.880506,63053.891558,0,-0.9829102,74.42442,2650659446,177292352,1,1,0.32,-36.63169,-42.36233,2
1561240596.127451,12,0,0,1561240593.699841,4.603046578328162,-74.06480771600017,2651.397,-1,-1,10,65,-9999,1561240596.121636,-3.149639129638672,15.78188514709473,21.15655517578125,164.1549072265625,171.6985931396484,15,63056.47903575,-0.3818817138671875,0.92333984375,0.0386505126953125,63056.46789675,0.03189188668591689,-0.008982043408510247,0.08421128419717758,63056.46710275,35.71650695800781,16.32276916503906,-511.8858642578125,63056.47296275001,-2.417236341435898,-1.667888671424563,-1.1788849634109,0.03077276609838009,-0.02540905028581619,0.07483764737844467,-0.003113508224487305,-0.005006492137908936,0.001410126686096191,1,0.7080274224281311,-0.1311889290809631,0.3764644265174866,-0.5828903913497925,-0.3801567554473877,0.9241806864738464,0.03702673316001892,0,0,0,-1,63055.65405375,3,2,1561240595.316969,1561239991.781823,76,3.632473,0,0,66.78877,0,0,1561240563.880506,63053.891558,0,-0.9829102,74.42442,2650659446,177292352,1,1,0.32,-36.63169,-42.68266,2
1561240596.148323,13,0,0,1561240593.699841,4.603046578328162,-74.06480771600017,2651.397,-1,-1,10,65,-9999,1561240596.121636,-3.149639129638672,15.78188514709473,21.15655517578125,164.1549072265625,171.6985931396484,15,63056.49929875,-0.3785858154296875,0.9265289306640625,0.0394439697265625,63056.48815975001,0.04324760557401477,-0.03715935300598462,0.07378048115566423,63056.48724475,35.46714782714844,16.42884826660156,-511.7779235839844,63056.49322575,-2.415639489765068,-1.667140451999886,-1.180394407282217,0.0437716580927372,-0.04421868920326233,0.06962823867797852,-0.001056909561157227,-0.000378727912902832,0.001905083656311035,1,0.7078503966331482,-0.1313462555408478,0.375835120677948,-0.5834757685661316,-0.3787953555583954,0.9247561693191528,0.03660804405808449,0,0,0,-1,63055.65405375,3,2,1561240595.316969,1561239991.781823,76,3.632473,0,0,66.78877,0,0,1561240563.880506,63053.891558,0,-0.9829102,74.42442,2650659446,177292352,1,1,0.32,-36.63169,-43.33778,2
1561240596.168054,14,0,0,1561240593.699841,4.603046578328162,-74.06480771600017,2651.397,-1,-1,10,65,-9999,1561240596.148452,-3.064731597900391,15.73603248596191,21.1182861328125,164.0821533203125,171.6258392333984,15,63056.51956275001,-0.374114990234375,0.925872802734375,0.0398101806640625,63056.50842375001,0.06000181830781226,-0.03961824964045478,0.07386863178774584,63056.50735575001,35.76974487304688,16.25613403320312,-511.5784301757812,63056.51348975,-2.413186786186726,-1.665802772746777,-1.181915229409251,0.06325986981391907,-0.04525306075811386,0.07345360517501831,0.001710742712020874,0.002888798713684082,0.002606391906738281,1,0.7076184749603271,-0.131377324461937,0.3751599490642548,-0.5841840505599976,-0.3774431347846985,0.9253338575363159,0.03596781566739082,0,0,0,-1,63055.65405375,3,2,1561240595.316969,1561239991.781823,76,3.632473,0,0,66.78877,0,0,1561240563.880506,63053.891558,0,-0.9829102,74.42442,2650659446,177292352,1,1,0.32,-36.63169,-43.33778,2
1561240596.188285,15,0,0,1561240593.699841,4.603046578328162,-74.06480771600017,2651.397,-1,-1,10,65,-9999,1561240596.172418,-3.034023284912109,15.84535026550293,21.28976440429688,163.9872741699219,171.5309600830078,15,63056.53982675001,-0.368255615234375,0.9250335693359375,0.04345703125,63056.52868775,0.0778798850216232,-0.0383955923839994,0.08465762999587485,63056.52749675,35.72329711914062,16.44415283203125,-511.7697143554688,63056.53375375,-2.409785533502078,-1.663560312054834,-1.183601939567262,0.07650323957204819,-0.04283598065376282,0.08230062574148178,0.004890024662017822,-0.001411557197570801,0.006740808486938477,1,0.7072651386260986,-0.1313940137624741,0.3744786083698273,-0.585044801235199,-0.3759685456752777,0.9259721040725708,0.03497672453522682,0,0,0,-1,63055.65405375,3,2,1561240595.316969,1561239991.781823,76,3.632473,0,0,66.78877,0,0,1561240563.880506,63053.891558,0,-0.9829102,74.42442,2650659446,177292352,1,1,0.32,-36.63169,-43.70841,2
1561240596.208608,16,0,0,1561240593.699841,4.603046578328162,-74.06480771600017,2651.397,-1,-1,10,65,-9999,1561240596.198569,-3.041999816894531,16.08535003662109,21.114501953125,163.8901214599609,171.4338073730469,15,63056.56008975,-0.36688232421875,0.92156982421875,0.04583740234375,63056.54895075,0.07133383506220843,-0.0335995055768757,0.09387776000583818,63056.54760875001,35.70195007324219,16.59915161132812,-511.7046813964844,63056.55401675,-2.40642545888762,-1.661277276452911,-1.185470068737139,0.06562822312116623,-0.03977813571691513,0.09391041100025177,0.006815880537033081,-0.002420485019683838,0.01143300533294678,1,0.7068865895271301,-0.1315001994371414,0.3737686574459076,-0.5859317183494568,-0.3743238151073456,0.9266758561134338,0.03396190702915192,0,0,0,-1,63055.65405375,3,2,1561240595.316969,1561239991.781823,76,3.632473,0,0,66.78877,0,0,1561240563.880506,63053.891558,0,-0.9829102,74.42442,2650659446,177292352,1,1,0.32,-36.63169,-44.27869,2
1561240596.228862,17,0,0,1561240593.699841,4.603046578328162,-74.06480771600017,2651.397,-1,-1,10,65,-9999,1561240596.224347,-2.844772338867188,16.02009582519531,21.20892333984375,163.7979888916016,171.3416748046875,15,63056.58035375,-0.366851806640625,0.9185638427734375,0.047607421875,63056.56921475,0.06182288786120844,-0.03941212097208265,0.09838169804138019,63056.56774975001,35.8707275390625,16.33941650390625,-511.8111572265625,63056.57428075001,-2.40373459981326,-1.659695091874867,-1.187478513184736,0.05769439786672592,-0.04671380668878555,0.09505503624677658,0.006662607192993164,-0.008590400218963623,0.01299929618835449,1,0.7065839171409607,-0.1316864639520645,0.3729642629623413,-0.5867669582366943,-0.3725225627422333,0.9274289011955261,0.03320431336760521,0,0,0,-1,63055.65405375,3,2,1561240595.316969,1561239991.781823,76,3.632473,0,0,66.78877,0,0,1561240563.880506,63053.891558,0,-0.9829102,74.42442,2650659446,177292352,1,1,0.32,-36.63169,-44.98984,2
1561240596.24928,18,0,0,1561240593.699841,4.603046578328162,-74.06480771600017,2651.397,-1,-1,10,65,-9999,1561240596.224347,-2.844772338867188,16.02009582519531,21.20892333984375,163.7979888916016,171.3416748046875,15,63056.60061775,-0.3643341064453125,0.92413330078125,0.0478515625,63056.58947875001,0.05776289877938264,-0.03761608513293321,0.09671003182513746,63056.58789175,35.80796813964844,16.52593994140625,-511.7493286132812,63056.59454475001,-2.401265996420896,-1.658321010403939,-1.189459127657191,0.05121652409434319,-0.04491937160491943,0.09578953683376312,0.005990982055664062,-0.007071018218994141,0.0160064697265625,1,0.7063093781471252,-0.1318823099136353,0.372157096862793,-0.5875654220581055,-0.3707371354103088,0.9281678199768066,0.03253176435828209,0,0,0,-1,63055.65405375,3,2,1561240595.316969,1561239991.781823,76,3.632473,0,0,66.78877,0,0,1561240563.880506,63053.891558,0,-0.9829102,74.42442,2650659446,177292352,1,1,0.32,-36.63169,-43.43817,2
1561240596.269381,19,0,0,1561240593.699841,4.603046578328162,-74.06480771600017,2651.397,-1,-1,10,65,-9999,1561240596.249292,-2.801155090332031,16.03718566894531,21.19143676757812,163.7078857421875,171.2515716552734,15,63056.62088075,-0.3648223876953125,0.931854248046875,0.0498809814453125,63056.60974175001,0.05116198770151224,-0.04686018359270725,0.107145628556613,63056.60800275001,36.13819885253906,16.23379516601562,-511.9937744140625,63056.61477775,-2.399132978379035,-1.657358050116068,-1.191581140356168,0.04785322025418282,-0.05576136708259583,0.1072765439748764,0.002945601940155029,-0.0005191564559936523,0.01567924022674561,1,0.7060774564743042,-0.1321243196725845,0.3712609112262726,-0.5883563160896301,-0.3688055574893951,0.9289554357528687,0.03200441971421242,0,0,0,-1,63055.65405375,3,2,1561240595.316969,1561239991.781823,76,3.632473,0,0,66.78877,0,0,1561240563.880506,63053.891558,0,-0.9829102,74.42442,2650659446,177292352,1,1,0.32,-36.63169,-43.71785,2
1561240596.289677,20,0,0,1561240593.699841,4.603046578328162,-74.06480771600017,2651.397,-1,-1,10,65,-9999,1561240596.273687,-2.817413330078125,16.04939270019531,21.08486938476562,163.607421875,171.1511077880859,15,63056.64114475001,-0.3646087646484375,0.933868408203125,0.0518951416015625,63056.63000575,0.05473142251054545,-0.06210092187901271,0.1110090763499909,63056.62814375001,35.92431640625,16.62933349609375,-512.0074462890625,63056.63504075001,-2.396964222805304,-1.65664318291346,-1.193848112087697,0.05299658328294754,-0.06889048218727112,0.1098598167300224,0.001387953758239746,0.003206431865692139,0.01844286918640137,1,0.7058815360069275,-0.1323303133249283,0.3702227473258972,-0.5891986489295959,-0.3667291104793549,0.9297922849655151,0.03156010806560516,0,0,0,-1,63055.65405375,3,2,1561240595.316969,1561239991.781823,76,3.632473,0,0,66.78877,0,0,1561240563.880506,63053.891558,0,-0.9829102,74.42442,2650659446,177292352,1,1,0.32,-36.63169,-36.63169,2
1561240596.312854,21,0,0,1561240593.699841,4.603046578328162,-74.06480771600017,2651.397,-1,-1,10,65,-9999,1561240596.300202,-2.672809600830078,16.15927505493164,21.01531982421875,163.4869995117188,171.0306854248047,15,63056.66138754167,-0.364959716796875,0.932525634765625,0.0545806884765625,63056.65026975,0.05849606702748146,-0.06402345786994092,0.1205285456664791,63056.64829554167,35.89175415039062,16.67909240722656,-511.9202880859375,63056.65531454167,-2.394643052404861,-1.655899235694408,-1.196264035260589,0.0548996776342392,-0.07141995429992676,0.1231394037604332,-0.0002026557922363281,0.003983020782470703,0.02237057685852051,1,0.7056775093078613,-0.1325419247150421,0.3691047728061676,-0.590096116065979,-0.3645129203796387,0.9306788444519043,0.03109621815383434,0,0,0,-1,63055.65405375,3,2,1561240595.316969,1561239991.781823,76,3.632473,0,0,66.78877,0,0,1561240563.880506,63053.891558,0,-0.9829102,74.42442,2650659446,177292352,1,1,0.32,-36.63169,-36.98438,2
1561240596.330264,22,0,0,1561240593.699841,4.603046578328162,-74.06480771600017,2651.397,-1,-1,10,65,-9999,1561240596.324352,-2.691085815429688,16.10102272033691,21.18911743164062,163.36865234375,170.9123382568359,15,63056.68165154167,-0.3638153076171875,0.9272918701171875,0.05682373046875,63056.67051254167,0.05304617417274331,-0.05906651613297643,0.1301654603870399,63056.66840654167,36.3857421875,16.50358581542969,-512.0747680664062,63056.67557854167,-2.3925532951382,-1.655322180024139,-1.198870961644122,0.04158360511064529,-0.06153003871440887,0.1286327093839645,-0.002176195383071899,-0.002597987651824951,0.02472376823425293,1,0.7054722905158997,-0.1328507363796234,0.3679390251636505,-0.59099942445755,-0.3621121644973755,0.9316293597221375,0.0306809414178133,0,0,0,-1,63055.65405375,3,2,1561240595.316969,1561239991.781823,76,3.632473,0,0,66.78877,0,0,1561240563.880506,63053.891558,0,-0.9829102,74.42442,2650659446,177292352,1,1,0.32,-36.63169,-36.98438,2
1561240596.35057,23,0,0,1561240593.699841,4.603046578328162,-74.06480771600017,2651.397,-1,-1,10,65,-9999,1561240596.324352,-2.691085815429688,16.10102272033691,21.18911743164062,163.36865234375,170.9123382568359,15,63056.70191454167,-0.367156982421875,0.9273223876953125,0.057830810546875,63056.69077654167,0.02521587446530626,-0.04495202867166548,0.1341415598945282,63056.68854854167,36.20756530761719,16.7506103515625,-512.1632080078125,63056.69584154167,-2.391667718677619,-1.655621208535599,-1.201526950388532,0.01377727277576923,-0.05041613429784775,0.1337853968143463,-0.004957437515258789,-0.006031811237335205,0.02838051319122314,1,0.7053436040878296,-0.1333421617746353,0.3668040633201599,-0.5917473435401917,-0.3596360683441162,0.9325913190841675,0.0305794645100832,0,0,0,-1,63055.65405375,3,2,1561240595.316969,1561239991.781823,76,3.632473,0,0,66.78877,0,0,1561240563.880506,63053.891558,0,-0.9829102,74.42442,2650659446,177292352,1,1,0.32,-36.63169,-37.94974,2
1561240596.370782,24,0,0,1561240593.699841,4.603046578328162,-74.06480771600017,2651.397,-1,-1,10,65,-9999,1561240596.350802,-2.608928680419922,16.32865715026855,20.88470458984375,163.2813873291016,170.8250732421875,15,63056.72217854167,-0.36993408203125,0.9291839599609375,0.0547027587890625,63056.71103954167,-0.001714543109793013,-0.05055105854744807,0.1467313876317688,63056.70865954167,36.21481323242188,16.79234313964844,-512.067626953125,63056.71610554167,-2.392447997344087,-1.657476321470631,-1.204354533640221,-0.007941482588648796,-0.06337520480155945,0.1455916613340378,-0.01170182228088379,-0.005522787570953369,0.02574443817138672,1,0.7053711414337158,-0.1340173482894897,0.3655631840229034,-0.5923296809196472,-0.3569505214691162,0.9336081147193909,0.03101819381117821,0,0,0,-1,63055.65405375,3,2,1561240595.316969,1561239991.781823,76,3.632473,0,0,66.78877,0,0,1561240563.880506,63053.891558,0,-0.9829102,74.42442,2650659446,177292352,1,1,0.32,-36.41015,-38.20776,2
1561240596.401844,25,0,0,1561240593.699841,4.603046578328162,-74.06480771600017,2651.397,-1,-1,10,65,-9999,1561240596.37511,-2.541408538818359,16.26856422424316,20.92596435546875,163.1991424560547,170.7428283691406,15,63056.74244254167,-0.3682403564453125,0.9264678955078125,0.0518798828125,63056.73130354167,0.00489622166411068,-0.08268555920867118,0.1456461494875615,63056.72880054167,36.49691772460938,16.54489135742188,-511.7967529296875,63056.73636954167,-2.393467471156832,-1.660060975867336,-1.207220454162407,0.005623061675578356,-0.09697577357292175,0.1372138857841492,-0.01509055495262146,-0.006362736225128174,0.02063560485839844,1,0.7055078744888306,-0.1345721036195755,0.3641245663166046,-0.5929268598556519,-0.3542026579380035,0.9346311688423157,0.03170202299952507,0,0,0,-1,63055.65405375,3,2,1561240595.316969,1561239991.781823,76,3.632473,0,0,66.78877,0,0,1561240563.880506,63053.891558,0,-0.9829102,74.42442,2650659446,177292352,1,1,0.32,-36.41015,-39.41025,2
1561240596.411349,26,0,0,1561240593.699841,4.603046578328162,-74.06480771600017,2651.397,-1,-1,10,65,-9999,1561240596.408302,-2.497440338134766,16.45642280578613,21.06600952148438,163.0559234619141,170.599609375,15,63056.76270554167,-0.3681640625,0.9264678955078125,0.048583984375,63056.75156754167,0.02938105841019019,-0.1155540270663201,0.1286700954349604,63056.74891154167,36.41862487792969,16.85630798339844,-511.9644470214844,63056.75663254167,-2.393208958910436,-1.662150438058101,-1.209833905143955,0.02796352095901966,-0.1275757700204849,0.1226266920566559,-0.01710242033004761,-0.009547233581542969,0.01689887046813965,1,0.7056597471237183,-0.1347363889217377,0.3625546991825104,-0.5936704874038696,-0.351702481508255,0.9355573654174805,0.03221914544701576,0,0,0,-1,63055.65405375,3,2,1561240595.316969,1561239991.781823,76,3.632473,0,0,66.78877,0,0,1561240563.880506,63053.891558,0,-0.9829102,74.42442,2650659446,177292352,1,1,0.32,-36.41015,-39.41025,2
1561240596.431583,27,0,0,1561240593.699841,4.603046578328162,-74.06480771600017,2651.397,-1,-1,10,65,-9999,1561240596.408302,-2.497440338134766,16.45642280578613,21.06600952148438,163.0559234619141,170.599609375,15,63056.78296954167,-0.3662872314453125,0.924285888671875,0.045623779296875,63056.77183054167,0.03192517619954288,-0.1295617217679189,0.1218521367282485,63056.76905354167,36.48704528808594,16.73899841308594,-512.0541381835938,63056.77689654167,-2.392374542685371,-1.664054975624875,-1.212268169118564,0.02583219297230244,-0.1369820535182953,0.1209491565823555,-0.01746460795402527,-0.00950390100479126,0.01557159423828125,1,0.7058305144309998,-0.1346909701824188,0.360929936170578,-0.5944672822952271,-0.3493719696998596,0.9364143013954163,0.03267674520611763,0,0,0,-1,63055.65405375,3,2,1561240595.316969,1561239991.781823,76,3.632473,0,0,66.78877,0,0,1561240563.880506,63053.891558,0,-0.9829102,74.42442,2650659446,177292352,1,1,0.32,-36.41015,-37.47374,2
1561240596.451763,28,0,0,1561240593.699841,4.603046578328162,-74.06480771600017,2651.397,-1,-1,10,65,-9999,1561240596.408302,-2.497440338134766,16.45642280578613,21.06600952148438,163.0559234619141,170.599609375,15,63056.80323354167,-0.3628082275390625,0.919708251953125,0.042022705078125,63056.79209454167,0.03179441499002,-0.140254047228478,0.1257933488254568,63056.78916454167,36.77374267578125,16.78662109375,-511.9795532226562,63056.79716054167,-2.391627830747241,-1.666275637204048,-1.214708590149296,0.03278357908129692,-0.1491779983043671,0.1176931783556938,-0.0180288553237915,-0.01505720615386963,0.009841084480285645,1,0.7060486078262329,-0.1345831304788589,0.359216719865799,-0.5952697992324829,-0.3470223844051361,0.9372678399085999,0.03323451057076454,0,0,0,-1,63055.65405375,3,2,1561240595.316969,1561239991.781823,76,3.632473,0,0,66.78877,0,0,1561240563.880506,63053.891558,0,-0.9829102,74.42442,2650659446,177292352,1,1,0.32,-36.41015,-38.17851,2
1561240596.481811,29,0,0,1561240593.699841,4.603046578328162,-74.06480771600017,2651.397,-1,-1,10,65,-9999,1561240596.46214,-2.206485748291016,16.2143440246582,21.17898559570312,162.6527709960938,170.1964569091797,15,63056.82349654167,-0.359100341796875,0.922027587890625,0.042633056640625,63056.81235854167,0.04565137477392028,-0.159172877296292,0.1016565872338506,63056.80930654167,36.38600158691406,16.62165832519531,-511.8337097167969,63056.81742354167,-2.390047138799629,-1.668062587566487,-1.21687523884882,0.04596622288227081,-0.1712947487831116,0.0937335193157196,-0.01615840196609497,-0.01896882057189941,0.007846593856811523,1,0.7062680125236511,-0.1342168003320694,0.3574867844581604,-0.5961331129074097,-0.3449408113956451,0.9380209445953369,0.03365730866789818,0,0,0,-1,63055.65405375,3,2,1561240595.316969,1561239991.781823,76,3.632473,0,0,66.78877,0,0,1561240563.880506,63053.891558,0,-0.9829102,74.42442,2650659446,177292352,1,1,0.32,-36.41015,-37.43903,2
1561240596.492746,30,0,0,1561240593.699841,4.603046578328162,-74.06480771600017,2651.397,-1,-1,10,65,-9999,1561240596.46214,-2.206485748291016,16.2143440246582,21.17898559570312,162.6527709960938,170.1964569091797,15,63056.84376054167,-0.3519439697265625,0.925262451171875,0.03741455078125,63056.83262154167,0.04386465999858612,-0.1861677433697711,0.08081548749121754,63056.82941754167,36.66403198242188,16.78973388671875,-511.9269714355469,63056.83768754167,-2.388175224296793,-1.670070245267222,-1.218550066289458,0.03903241828083992,-0.2011144310235977,0.07555238157510757,-0.01238882541656494,-0.01527553796768188,0.006485939025878906,1,0.7065907120704651,-0.1335161924362183,0.355733186006546,-0.5969564914703369,-0.3433088064193726,0.9386001229286194,0.03419401496648788,0,0,0,-1,63055.65405375,3,2,1561240595.316969,1561239991.781823,76,3.632473,0,0,66.78877,0,0,1561240563.880506,63053.891558,0,-0.9829102,74.42442,2650659446,177292352,1,1,0.32,-36.41015,-37.43903,2
1561240596.512665,31,0,0,1561240593.699841,4.603046578328162,-74.06480771600017,2651.397,-1,-1,10,65,-9999,1561240596.46214,-2.206485748291016,16.2143440246582,21.17898559570312,162.6527709960938,170.1964569091797,15,63056.86402454167,-0.3498382568359375,0.9310150146484375,0.0350341796875,63056.85288554167,0.03578116714186861,-0.2093582838260721,0.0927893260683228,63056.84955854167,37.09664916992188,16.80018615722656,-511.9450378417969,63056.85795154167,-2.386725510966286,-1.67299381354242,-1.220245354207212,0.03540199622511864,-0.2194178104400635,0.09408985078334808,-0.008809596300125122,-0.01054900884628296,0.0008993148803710938,1,0.7070425748825073,-0.1326965391635895,0.3537744283676147,-0.5977676510810852,-0.3416237831115723,0.9391836524009705,0.0350351482629776,0,0,0,-1,63055.65405375,3,2,1561240595.316969,1561239991.781823,76,3.632473,0,0,66.78877,0,0,1561240563.880506,63053.891558,0,-0.9829102,74.42442,2650659446,177292352,1,1,0.32,-36.41015,-37.81733,2
1561240596.53403,32,0,0,1561240593.699841,4.603046578328162,-74.06480771600017,2651.397,-1,-1,10,65,-9999,1561240596.512997,-1.856441497802734,16.26044654846191,21.06777954101562,162.1075744628906,169.6512603759766,15,63056.88428754167,-0.351104736328125,0.93084716796875,0.03216552734375,63056.87314954167,0.05849659965969947,-0.2313056606855241,0.112458634931321,63056.86970054167,37.12100219726562,16.84210205078125,-511.74951171875,63056.87818454167,-2.384612001984781,-1.675676490673458,-1.222362832202602,0.06323336064815521,-0.2386370450258255,0.1141591668128967,-0.01062428951263428,-0.007047414779663086,-0.001868605613708496,1,0.7074506282806396,-0.1318529397249222,0.3515778481960297,-0.598766565322876,-0.3395496606826782,0.9399086833000183,0.03574317693710327,0,0,0,-1,63055.65405375,3,2,1561240595.316969,1561239991.781823,76,3.632473,0,0,66.78877,0,0,1561240563.880506,63053.891558,0,-0.9829102,74.42442,2650659446,177292352,1,1,0.32,-36.41015,-38.28057,2
1561240596.553299,33,0,0,1561240593.699841,4.603046578328162,-74.06480771600017,2651.397,-1,-1,10,65,-9999,1561240596.512997,-1.856441497802734,16.26044654846191,21.06777954101562,162.1075744628906,169.6512603759766,15,63056.90455154167,-0.3489227294921875,0.9252166748046875,0.0294342041015625,63056.89341254167,0.08495723561850876,-0.2387566527833478,0.1199370575883725,63056.88981154167,37.11305236816406,16.86282348632812,-512.0465698242188,63056.89844854167,-2.380930602161139,-1.677111749534098,-1.224818027467584,0.08153673261404037,-0.2480883300304413,0.1119314283132553,-0.01358145475387573,-0.01311659812927246,-0.002706050872802734,1,0.7077060341835022,-0.1309386938810349,0.3492522537708282,-0.6000251770019531,-0.3372028172016144,0.940744161605835,0.0359855443239212,0,0,0,-1,63055.65405375,3,2,1561240595.316969,1561239991.781823,76,3.632473,0,0,66.78877,0,0,1561240563.880506,63053.891558,0,-0.9829102,74.42442,2650659446,177292352,1,1,0.32,-36.41015,-38.47058,2
1561240596.573411,34,0,0,1561240593.699841,4.603046578328162,-74.06480771600017,2651.397,-1,-1,10,65,-9999,1561240596.553303,-1.600223541259766,16.55865287780762,21.08560180664062,161.4043579101562,168.9480438232422,15,63056.92478454167,-0.3550872802734375,0.919677734375,0.030487060546875,63056.91367654167,0.08463153101719208,-0.2458385307540865,0.1064313687522537,63056.90995354167,37.38296508789062,17.13591003417969,-511.9035339355469,63056.91871154167,-2.37679469225715,-1.67830489483752,-1.227082066487761,0.08136122673749924,-0.2475026994943619,0.1004175171256065,-0.0178338885307312,-0.01975661516189575,-0.006221413612365723,1,0.7079640030860901,-0.1298713237047195,0.3469273447990417,-0.6013001203536987,-0.3350408673286438,0.941509485244751,0.03615918010473251,0,0,0,-1,63055.65405375,3,2,1561240595.316969,1561239991.781823,76,3.632473,0,0,66.78877,0,0,1561240563.880506,63053.891558,0,-0.9829102,74.42442,2650659446,177292352,1,1,0.32,-36.41015,-39.05151,2
1561240596.593692,35,0,0,1561240593.699841,4.603046578328162,-74.06480771600017,2651.397,-1,-1,10,65,-9999,1561240596.577627,-1.369983673095703,16.56249809265137,20.8614501953125,161.0254364013672,168.5691223144531,15,63056.94504854167,-0.3619384765625,0.919586181640625,0.0270233154296875,63056.93390954167,0.08258968540942832,-0.2321240500885055,0.08987689310021214,63056.93006454167,37.63140869140625,17.04476928710938,-511.9253234863281,63056.93897554167,-2.372621843922737,-1.679250384684635,-1.229051550528147,0.07947944104671478,-0.2289007902145386,0.07964859157800674,-0.02573949098587036,-0.02224951982498169,-0.008443117141723633,1,0.708206832408905,-0.1287659257650375,0.3447612524032593,-0.6024965643882751,-0.3331624865531921,0.9421713948249817,0.03627516329288483,0,0,0,-1,63055.65405375,3,2,1561240595.316969,1561239991.781823,76,3.632473,0,0,66.78877,0,0,1561240563.880506,63053.891558,0,-0.9829102,74.42442,2650659446,177292352,1,1,0.32,-36.41015,-39.84666,2
1561240596.615002,36,0,0,1561240593.699841,4.603046578328162,-74.06480771600017,2651.397,-1,-1,10,65,-9999,1561240596.603939,-1.265304565429688,16.61242294311523,21.14993286132812,160.6840057373047,168.2276916503906,15,63056.96531254167,-0.361846923828125,0.921356201171875,0.0265045166015625,63056.95417354167,0.08635592782301839,-0.1837056509419929,0.06398963572409691,63056.95020554167,37.80825805664062,17.1212158203125,-511.9961547851562,63056.95923954167,-2.368147607434022,-1.679163586609012,-1.230526650641216,0.08057773113250732,-0.181331679224968,0.05710519477725029,-0.02914756536483765,-0.02284961938858032,-0.008187532424926758,1,0.7083366513252258,-0.1276994347572327,0.3430111110210419,-0.603568971157074,-0.3317838609218597,0.9426646828651428,0.03609591349959373,0,0,0,-1,63055.65405375,3,2,1561240595.316969,1561239991.781823,76,3.632473,0,0,66.78877,0,0,1561240563.880506,63053.891558,0,-0.9829102,74.42442,2650659446,177292352,1,1,0.32,-36.41015,-40.40958,2
1561240596.64152,37,0,0,1561240593.699841,4.603046578328162,-74.06480771600017,2651.397,-1,-1,10,65,-9999,1561240596.628482,-1.044975280761719,16.63533973693848,21.02679443359375,160.4132232666016,167.9569091796875,15,63056.98557554167,-0.3603668212890625,0.92108154296875,0.0246124267578125,63056.97443654167,0.08598255263818928,-0.152957591944265,0.04963253428747974,63056.97034754167,37.77714538574219,17.11051940917969,-511.9240417480469,63056.97950254167,-2.363547479222569,-1.678160941641784,-1.231642019821991,0.08373463898897171,-0.1519431620836258,0.04135366529226303,-0.03081336617469788,-0.02256512641906738,-0.01140427589416504,1,0.7083508372306824,-0.1267452389001846,0.3416495323181152,-0.6045249104499817,-0.3307741582393646,0.9430363774299622,0.03565052896738052,0,0,0,-1,63055.65405375,3,2,1561240595.316969,1561239991.781823,76,3.632473,0,0,66.78877,0,0,1561240563.880506,63053.891558,0,-0.9829102,74.42442,2650659446,177292352,1,1,0.32,-36.41015,-40.68149,2
1561240596.654582,38,0,0,1561240593.699841,4.603046578328162,-74.06480771600017,2651.397,-1,-1,10,65,-9999,1561240596.628482,-1.044975280761719,16.63533973693848,21.02679443359375,160.4132232666016,167.9569091796875,15,63057.00583954167,-0.359375,0.924591064453125,0.0250244140625,63056.99470054167,0.1018499327289904,-0.1419613998033278,0.03244236208323627,63056.99045854167,37.86589050292969,16.96780395507812,-511.896240234375,63056.99976654167,-2.358006139450369,-1.675966227864293,-1.232437618309012,0.1004944443702698,-0.1488704085350037,0.0241115614771843,-0.02817106246948242,-0.02099847793579102,-0.01041638851165771,1,0.7082508206367493,-0.1257124841213226,0.3405164778232574,-0.6054962277412415,-0.3301052749156952,0.943300724029541,0.03484570607542992,0,0,0,-1,63055.65405375,3,2,1561240595.316969,1561239991.781823,76,3.632473,0,0,66.78877,0,0,1561240563.880506,63053.891558,0,-0.9829102,74.42442,2650659446,177292352,1,1,0.32,-36.41015,-40.68149,2
1561240596.674919,39,0,0,1561240593.699841,4.603046578328162,-74.06480771600017,2651.397,-1,-1,10,65,-9999,1561240596.654597,-0.9766311645507812,16.76730728149414,20.8955078125,160.1618194580078,167.7055053710938,15,63057.02610354167,-0.3594207763671875,0.92449951171875,0.02734375,63057.01496454167,0.1105246473477055,-0.139412222007904,0.0212176707207703,63057.01060054167,38.05177307128906,17.29096984863281,-512.0774536132812,63057.02003054167,-2.351724734234717,-1.672993088882351,-1.232960768192898,0.108818955719471,-0.1466384083032608,0.01570076495409012,-0.02973499894142151,-0.01903581619262695,-0.008407950401306152,1,0.7080894112586975,-0.1245642602443695,0.3395116329193115,-0.6064857244491577,-0.329716295003891,0.943474292755127,0.03381373733282089,0,0,0,-1,63055.65405375,3,2,1561240595.316969,1561239991.781823,76,3.632473,0,0,66.78877,0,0,1561240563.880506,63053.891558,0,-0.9829102,74.42442,2650659446,177292352,1,1,0.32,-36.41015,-40.71421,2
1561240596.721005,40,0,0,1561240593.699841,4.603046578328162,-74.06480771600017,2651.397,-1,-1,10,65,-9999,1561240596.705286,-0.8544845581054688,16.70368957519531,20.7655029296875,159.6786956787109,167.2223815917969,15,63057.04636654167,-0.3584442138671875,0.92620849609375,0.03369140625,63057.03522754167,0.1144682562898948,-0.1327513898055068,0.008307198388284167,63057.03071154167,38.18695068359375,17.04867553710938,-512.4613647460938,63057.04029354167,-2.34501765905175,-1.669535017268419,-1.233254711208265,0.1068905591964722,-0.1336134225130081,0.002450740430504084,-0.02952980995178223,-0.01806509494781494,-0.002204656600952148,1,0.7078917622566223,-0.1233379989862442,0.3386133313179016,-0.6074684858322144,-0.3295552730560303,0.9435716271400452,0.03264601901173592,0,0,0,-1,63055.65405375,3,2,1561240595.316969,1561239991.781823,76,3.632473,0,0,66.78877,0,0,1561240563.880506,63053.891558,0,-0.9829102,74.42442,2650659446,177292352,1,1,0.32,-36.41015,-39.72296,2
1561240596.724354,41,0,0,1561240593.699841,4.603046578328162,-74.06480771600017,2651.397,-1,-1,10,65,-9999,1561240596.705286,-0.8544845581054688,16.70368957519531,20.7655029296875,159.6786956787109,167.2223815917969,15,63057.06663054167,-0.3612518310546875,0.9250946044921875,0.0362396240234375,63057.05549154167,0.09679551929612899,-0.1180619258648477,0.005476524465638946,63057.05085254167,38.34577941894531,17.43235778808594,-511.99609375,63057.06055754167,-2.338983212878962,-1.666394058564683,-1.233397817712279,0.09185674786567688,-0.1192770823836327,0.003231578972190619,-0.03162282705307007,-0.01837188005447388,0.00238347053527832,1,0.7077180743217468,-0.1222050413489342,0.3378485143184662,-0.608325183391571,-0.3295221924781799,0.9436190128326416,0.03159788995981216,0,0,0,-1,63055.65405375,3,2,1561240595.316969,1561239991.781823,76,3.632473,0,0,66.78877,0,0,1561240563.880506,63053.891558,0,-0.9829102,74.42442,2650659446,177292352,1,1,0.32,-36.41015,-39.72296,2
1561240596.735587,42,0,0,1561240593.699841,4.603046578328162,-74.06480771600017,2651.397,-1,-1,10,65,-9999,1561240596.73021,-0.5117454528808594,16.92140197753906,20.88226318359375,159.4726409912109,167.0163269042969,15,63057.08689454167,-0.36346435546875,0.9275054931640625,0.039306640625,63057.07575554167,0.09641495357635668,-0.1094101144315073,0.005185174642384277,63057.07096354167,38.18760681152344,17.38417053222656,-512.1085815429688,63057.08082154167,-2.333296920364356,-1.66337903183032,-1.233539900680303,0.09810585528612137,-0.1187923923134804,0.001920771319419146,-0.03340268135070801,-0.01716768741607666,0.008302927017211914,1,0.7075425386428833,-0.1211587563157082,0.3371420502662659,-0.6091299057006836,-0.329481840133667,0.9436660408973694,0.03059177659451962,0,0,0,-1,63055.65405375,3,2,1561240595.316969,1561239991.781823,76,3.632473,0,0,66.78877,0,0,1561240563.880506,63053.891558,0,-0.9829102,74.42442,2650659446,177292352,1,1,0.32,-36.41015,-39.73534,2
1561240596.756303,43,0,0,1561240593.699841,4.603046578328162,-74.06480771600017,2651.397,-1,-1,10,65,-9999,1561240596.73021,-0.5117454528808594,16.92140197753906,20.88226318359375,159.4726409912109,167.0163269042969,15,63057.10715754167,-0.367340087890625,0.925201416015625,0.042999267578125,63057.09601854167,0.1072076802100118,-0.1252652439812941,-0.005630188860536517,63057.09110554167,38.09756469726562,17.32490539550781,-512.3034057617188,63057.10108454167,-2.326990290795515,-1.659962835056674,-1.233528141599508,0.1068215817213058,-0.13125279545784,-0.0141364922747016,-0.03429621458053589,-0.01687383651733398,0.01162493228912354,1,0.7073484659194946,-0.1199652031064034,0.3364317715167999,-0.6099836230278015,-0.3295953869819641,0.943662166595459,0.02946700528264046,0,0,0,-1,63055.65405375,3,2,1561240595.316969,1561239991.781823,76,3.632473,0,0,66.78877,0,0,1561240563.880506,63053.891558,0,-0.9829102,74.42442,2650659446,177292352,1,1,0.32,-36.41015,-40.57123,2
1561240596.800719,44,0,0,1561240593.699841,4.603046578328162,-74.06480771600017,2651.397,-1,-1,10,65,-9999,1561240596.780254,-0.3834075927734375,17.05768966674805,20.61566162109375,159.0227661132812,166.5664520263672,15,63057.12742154167,-0.3693389892578125,0.925628662109375,0.046142578125,63057.11628254167,0.1111733933892488,-0.1219530705335625,-0.0257383866711798,63057.11121654167,38.03244018554688,17.34152221679688,-512.2282104492188,63057.12131854167,-2.320322775316283,-1.656295820644479,-1.233145362062343,0.1048239469528198,-0.1263480484485626,-0.03367929905653,-0.0389571487903595,-0.0177236795425415,0.0159461498260498,1,0.7071627974510193,-0.1185972318053246,0.3358081579208374,-0.6108095645904541,-0.3300614356994629,0.9435354471206665,0.02828905172646046,0,0,0,-1,63055.65405375,3,2,1561240595.316969,1561239991.781823,76,3.632473,0,0,66.78877,0,0,1561240563.880506,63053.891558,0,-0.9829102,74.42442,2650659446,177292352,1,1,0.32,-36.41015,-41.63972,2
1561240596.803261,45,0,0,1561240593.699841,4.603046578328162,-74.06480771600017,2651.397,-1,-1,10,65,-9999,1561240596.780254,-0.3834075927734375,17.05768966674805,20.61566162109375,159.0227661132812,166.5664520263672,15,63057.14768554167,-0.3711090087890625,0.923187255859375,0.0459442138671875,63057.13654654167,0.1040393174611445,-0.1196720730599097,-0.047692155117248,63057.13135854167,38.35493469238281,17.53363037109375,-512.2607421875,63057.14158154167,-2.313951736474505,-1.652829039574462,-1.232325789065695,0.09245515614748001,-0.1284255832433701,-0.05700619518756866,-0.03932654857635498,-0.01960331201553345,0.01960599422454834,1,0.7070256471633911,-0.1171269491314888,0.3353324234485626,-0.6115129590034485,-0.3309279382228851,0.9432635903358459,0.02720797620713711,0,0,0,-1,63055.65405375,3,2,1561240595.316969,1561239991.781823,76,3.632473,0,0,66.78877,0,0,1561240563.880506,63053.891558,0,-0.9829102,74.42442,2650659446,177292352,1,1,0.32,-36.41015,-41.63972,2
1561240596.816533,46,0,0,1561240593.699841,4.603046578328162,-74.06480771600017,2651.397,-1,-1,10,65,-9999,1561240596.80686,-0.3523025512695312,17.10484313964844,20.845703125,158.7964935302734,166.3401794433594,15,63057.16794854167,-0.369415283203125,0.9233551025390625,0.047332763671875,63057.15680954167,0.08412952515171214,-0.1405467286322777,-0.08173853912503901,63057.15146954167,38.377197265625,17.47183227539062,-512.2037353515625,63057.16184554167,-2.308470477174925,-1.650494382414734,-1.23084943131023,0.07916758209466934,-0.1514912247657776,-0.09648435562849045,-0.03812003135681152,-0.01956987380981445,0.02042031288146973,1,0.7070751190185547,-0.1154030114412308,0.3349244594573975,-0.6120069622993469,-0.332378625869751,0.942772388458252,0.02654615789651871,0,0,0,-1,63055.65405375,3,2,1561240595.316969,1561239991.781823,76,3.632473,0,0,66.78877,0,0,1561240563.880506,63053.891558,0,-0.9829102,74.42442,2650659446,177292352,1,1,0.32,-36.41015,-41.63972,2
1561240596.837266,47,0,0,1561240593.699841,4.603046578328162,-74.06480771600017,2651.397,-1,-1,10,65,-9999,1561240596.830937,-0.2953109741210938,17.07119750976562,20.718994140625,158.5503234863281,166.0940093994141,15,63057.18818254167,-0.365509033203125,0.92535400390625,0.0442962646484375,63057.17704354167,0.06919718091963785,-0.1508153451634053,-0.1228257884227815,63057.17161054167,38.60760498046875,17.47425842285156,-512.6582641601562,63057.18210954167,-2.303778445311933,-1.649213072321857,-1.228539116484975,0.06039922311902046,-0.1585709750652313,-0.1352032572031021,-0.032420814037323,-0.01818662881851196,0.02052319049835205,1,0.7073165774345398,-0.1133520752191544,0.3346362411975861,-0.6122690439224243,-0.334583580493927,0.9419994950294495,0.02629086747765541,0,0,0,-1,63055.65405375,3,2,1561240595.316969,1561239991.781823,76,3.632473,0,0,66.78877,0,0,1561240563.880506,63053.891558,0,-0.9829102,74.42442,2650659446,177292352,1,1,0.32,-36.41015,-42.35328,2
1561240596.872351,48,0,0,1561240593.699841,4.603046578328162,-74.06480771600017,2651.397,-1,-1,10,65,-9999,1561240596.857219,-0.2100601196289062,17.10493087768555,20.469970703125,158.3065643310547,165.8502502441406,15,63057.20844554167,-0.3605804443359375,0.9287109375,0.0418701171875,63057.19730654167,0.05151538917816576,-0.1543461641366323,-0.1556314056787046,63057.19175254167,38.57484436035156,17.72056579589844,-512.489501953125,63057.20237254167,-2.300072516721115,-1.648982101965199,-1.225492222847099,0.04646316915750504,-0.1585997343063354,-0.1651473045349121,-0.02647322416305542,-0.01490139961242676,0.01616489887237549,1,0.7077292203903198,-0.111077219247818,0.3344996869564056,-0.6122835874557495,-0.3374488949775696,0.9409725666046143,0.02643759548664093,0,0,0,-1,63055.65405375,3,2,1561240595.316969,1561239991.781823,76,3.632473,0,0,66.78877,0,0,1561240563.880506,63053.891558,0,-0.9829102,74.42442,2650659446,177292352,1,1,0.32,-36.41015,-38.43158,2
1561240596.877311,49,0,0,1561240593.699841,4.603046578328162,-74.06480771600017,2651.397,-1,-1,10,65,-9999,1561240596.857219,-0.2100601196289062,17.10493087768555,20.469970703125,158.3065643310547,165.8502502441406,15,63057.22870954167,-0.3541717529296875,0.9328155517578125,0.0383758544921875,63057.21757054167,0.0493454455219692,-0.1419728513960152,-0.1787511060500095,63057.21186354167,38.59930419921875,17.51837158203125,-512.315185546875,63057.22263654167,-2.296696769308732,-1.648874722171894,-1.221928461523973,0.04117706045508385,-0.1431733667850494,-0.1748489439487457,-0.01606473326683044,-0.009737133979797363,0.01330006122589111,1,0.7081770896911621,-0.1087040901184082,0.3345765471458435,-0.6121495962142944,-0.3407925665378571,0.9397603273391724,0.02666273899376392,0,0,0,-1,63055.65405375,3,2,1561240595.316969,1561239991.781823,76,3.632473,0,0,66.78877,0,0,1561240563.880506,63053.891558,0,-0.9829102,74.42442,2650659446,177292352,1,1,0.32,-36.41015,-38.43158,2
1561240596.897888,50,0,0,1561240593.699841,4.603046578328162,-74.06480771600017,2651.397,-1,-1,10,65,-9999,1561240596.88149,-0.08617782592773438,17.14482688903809,20.78082275390625,158.0903778076172,165.6340637207031,15,63057.24897354167,-0.3426055908203125,0.9354400634765625,0.0331268310546875,63057.23783454167,0.0335691455404488,-0.1180558005943406,-0.1689815659071628,63057.23200554167,38.86732482910156,17.81304931640625,-512.2966918945312,63057.24290054167,-2.294084238029606,-1.649035865746421,-1.218407335588123,0.02592034265398979,-0.1199956089258194,-0.169538602232933,-0.003616511821746826,-0.003873705863952637,0.008622527122497559,1,0.7086176872253418,-0.1065319329500198,0.3347796499729156,-0.6119106411933899,-0.3440855145454407,0.9385508298873901,0.02697615884244442,0,0,0,-1,63055.65405375,3,2,1561240595.316969,1561239991.781823,76,3.632473,0,0,66.78877,0,0,1561240563.880506,63053.891558,0,-0.9829102,74.42442,2650659446,177292352,1,1,0.32,-32.19462,-36.72346,2
1561240596.917651,51,0,0,1561240593.699841,4.603046578328162,-74.06480771600017,2651.397,-1,-1,10,65,-9999,1561240596.90771,-0.1299781799316406,17.29847526550293,20.75335693359375,157.9144287109375,165.4581146240234,15,63057.26923654167,-0.3369293212890625,0.932464599609375,0.03204345703125,63057.25809754167,0.02698101763581078,-0.1038028287563455,-0.1577933598516309,63057.25211654167,38.55038452148438,17.52047729492188,-512.8768310546875,63057.26316354167,-2.292033364226244,-1.649425561763096,-1.215048928430481,0.02580422908067703,-0.1084571927785873,-0.1594156473875046,0.008027732372283936,-0.003838419914245605,0.006333708763122559,1,0.709048330783844,-0.1045433133840561,0.3350244462490082,-0.6116207242012024,-0.347215324640274,0.9373864531517029,0.02735767886042595,0,0,0,-1,63055.65405375,3,2,1561240595.316969,1561239991.781823,76,3.632473,0,0,66.78877,0,0,1561240563.880506,63053.891558,0,-0.9829102,74.42442,2650659446,177292352,1,1,0.32,-23.46632,-29.5783,2
1561240596.941748,52,0,0,1561240593.699841,4.603046578328162,-74.06480771600017,2651.397,-1,-1,10,65,-9999,1561240596.932116,-0.2905426025390625,17.0365104675293,20.5047607421875,157.7473907470703,165.2910766601562,15,63057.28950054167,-0.3333282470703125,0.931732177734375,0.0300750732421875,63057.27836154167,0.03237551673987529,-0.1080044980081635,-0.1533882250925308,63057.27225754167,38.53526306152344,17.34831237792969,-512.4253540039062,63057.28342754167,-2.289824963936463,-1.649628382928431,-1.211869998982255,0.03254149481654167,-0.1157976612448692,-0.154506653547287,0.01671293377876282,-0.004069268703460693,0.00314486026763916,1,0.7094372510910034,-0.1026162579655647,0.3352332413196564,-0.6113815903663635,-0.3501785099506378,0.936274528503418,0.02766261994838715,0,0,0,-1,63055.65405375,3,2,1561240595.316969,1561239991.781823,76,3.632473,0,0,66.78877,0,0,1561240563.880506,63054.840146,0,-0.9829102,74.42442,2650659446,177292352,1,1,0.32,-18.26484,-18.26484,2
1561240596.958804,53,0,0,1561240593.699841,4.603046578328162,-74.06480771600017,2651.397,-1,-1,10,65,-9999,1561240596.932116,-0.2905426025390625,17.0365104675293,20.5047607421875,157.7473907470703,165.2910766601562,15,63057.30976454167,-0.3316497802734375,0.93701171875,0.0278167724609375,63057.29862554167,0.03855165362387804,-0.118676583444438,-0.1419137292198154,63057.29236954167,38.60548400878906,17.66140747070312,-512.3887939453125,63057.30369154167,-2.287248722932067,-1.649687443542433,-1.208901501339969,0.03514420241117477,-0.1279949396848679,-0.1419815421104431,0.02219626307487488,-0.002412080764770508,0.0001130104064941406,1,0.7097999453544617,-0.1006734147667885,0.3353173732757568,-0.6112374067306519,-0.3529458045959473,0.935227632522583,0.02790219709277153,0,0,0,-1,63055.65405375,3,2,1561240595.316969,1561239991.781823,76,3.632473,0,0,66.78877,0,0,1561240563.880506,63054.840146,0,-0.9829102,74.42442,2650659446,177292352,1,1,0.32,-15.77587,-18.41872,2
1561240596.978466,54,0,0,1561240593.699841,4.603046578328162,-74.06480771600017,2651.397,-1,-1,10,65,-9999,1561240596.958955,-0.2084465026855469,17.12125015258789,20.51849365234375,157.5618438720703,165.1055297851562,15,63057.33002754167,-0.3338623046875,0.940155029296875,0.02490234375,63057.31888854167,0.03762327566787642,-0.1252439386925734,-0.1265028149398539,63057.31251054167,38.3385009765625,17.64720153808594,-512.37890625,63057.32395454167,-2.284756677607945,-1.649964398895842,-1.206261355776937,0.03473061323165894,-0.1305284053087234,-0.1239362210035324,0.02324521541595459,0.004934608936309814,-0.00124812126159668,1,0.7101656198501587,-0.09880468249320984,0.3352515399456024,-0.611153781414032,-0.3553985357284546,0.9342896342277527,0.02819514647126198,0,0,0,-1,63055.65405375,3,2,1561240595.316969,1561239991.781823,76,3.632473,0,0,66.78877,0,0,1561240563.880506,63054.840146,0,-0.9829102,74.42442,2650659446,177292352,1,1,0.32,-15.77587,-18.41872,2
1561240596.99869,55,0,0,1561240593.699841,4.603046578328162,-74.06480771600017,2651.397,-1,-1,10,65,-9999,1561240596.982808,-0.2230377197265625,17.02564811706543,20.44183349609375,157.3674011230469,164.9110870361328,15,63057.35029154167,-0.3353271484375,0.936187744140625,0.0202178955078125,63057.33915254167,0.0432486708384508,-0.1192584841426203,-0.1053836811794165,63057.33262154167,38.70875549316406,17.47590637207031,-512.7098999023438,63057.34421854167,-2.282200319925804,-1.650184305225415,-1.2040574493061,0.04020314291119576,-0.1237397417426109,-0.1027987152338028,0.02358138561248779,0.005356371402740479,-0.004922747611999512,1,0.7104885578155518,-0.09707861393690109,0.3350549042224884,-0.6111627817153931,-0.3574436902999878,0.933501660823822,0.02843649685382843,0,0,0,-1,63055.65405375,3,2,1561240595.316969,1561239991.781823,76,3.632473,0,0,66.78877,0,0,1561240563.880506,63054.840146,0,-0.9829102,74.42442,2650659446,177292352,1,1,0.32,-15.4403,-18.85469,2
1561240597.021277,56,0,0,1561240593.699841,4.603046578328162,-74.06480771600017,2651.397,-1,-1,10,65,-9999,1561240597.009081,-0.2158241271972656,17.2017822265625,20.340576171875,157.1802062988281,164.7238922119141,15,63057.37055554167,-0.339691162109375,0.9324493408203125,0.01910400390625,63057.35941654167,0.05201180240535653,-0.1037735339843546,-0.09160235517047448,63057.35276354167,38.57586669921875,17.745361328125,-512.6567993164062,63057.36448254167,-2.279194525131602,-1.649712767518477,-1.202214800181437,0.05041556805372238,-0.1082473397254944,-0.09310188144445419,0.02300459146499634,0.0008307099342346191,-0.008353471755981445,1,0.7106872797012329,-0.09552660584449768,0.3348580896854401,-0.611284077167511,-0.3591709733009338,0.9328393340110779,0.02840348333120346,0,0,0,-1,63055.65405375,3,2,1561240595.316969,1561239991.781823,76,3.632473,0,0,66.78877,0,0,1561240563.880506,63054.840146,0,-0.9829102,74.42442,2650659446,177292352,1,1,0.32,-15.4403,-19.39887,2
1561240597.039336,57,0,0,1561240593.699841,4.603046578328162,-74.06480771600017,2651.397,-1,-1,10,65,-9999,1561240597.033442,-0.17132568359375,17.2595272064209,20.3897705078125,157.0077514648438,164.5514373779297,15,63057.39081854167,-0.34423828125,0.9351043701171875,0.0180206298828125,63057.37967954167,0.06156216439048968,-0.09654970952751468,-0.08328184097673992,63057.37287454167,38.46919250488281,17.78170776367188,-512.5359497070312,63057.38471554167,-2.275699954878279,-1.648542252379062,-1.20057866951223,0.0590500719845295,-0.09906262904405594,-0.08452117443084717,0.0188521146774292,-0.0001350045204162598,-0.009775757789611816,1,0.7107734680175781,-0.09408432245254517,0.3346984088420868,-0.6114950180053711,-0.3607253134250641,0.932248592376709,0.02810156531631947,0,0,0,-1,63055.65405375,3,2,1561240595.316969,1561239991.781823,76,3.632473,0,0,66.78877,0,0,1561240563.880506,63054.840146,0,-0.9829102,74.42442,2650659446,177292352,1,1,0.32,-15.4403,-20.26808,2
1561240597.059622,58,0,0,1561240593.699841,4.603046578328162,-74.06480771600017,2651.397,-1,-1,10,65,-9999,1561240597.033442,-0.17132568359375,17.2595272064209,20.3897705078125,157.0077514648438,164.5514373779297,15,63057.41108254167,-0.348358154296875,0.936248779296875,0.0176544189453125,63057.39994354167,0.07163290805262433,-0.09722881560548489,-0.07372828319829867,63057.39301554167,38.76516723632812,17.70466613769531,-512.6309814453125,63057.40497854167,-2.271793455248541,-1.646975027932618,-1.199145710312507,0.07420238852500916,-0.1057090759277344,-0.07791093736886978,0.01523786783218384,0.00410759449005127,-0.01132619380950928,1,0.7107940912246704,-0.09268592298030853,0.3344925343990326,-0.6117972135543823,-0.3621006608009338,0.9317291975021362,0.02763784117996693,0,0,0,-1,63055.65405375,3,2,1561240595.316969,1561239991.781823,76,3.632473,0,0,66.78877,0,0,1561240563.880506,63054.840146,0,-0.9829102,74.42442,2650659446,177292352,1,1,0.32,-15.4403,-21.07431,2
1561240597.079746,59,0,0,1561240593.699841,4.603046578328162,-74.06480771600017,2651.397,-1,-1,10,65,-9999,1561240597.059773,-0.3791046142578125,17.28766250610352,20.42626953125,156.8316802978516,164.3753662109375,15,63057.43131554167,-0.3502197265625,0.937408447265625,0.0178985595703125,63057.42020754167,0.09881313013797303,-0.09374753142853332,-0.08478546172819866,63057.41312754167,38.51605224609375,17.98580932617188,-512.51806640625,63057.42524254167,-2.266582006405717,-1.644197571282496,-1.197644067063854,0.09879827499389648,-0.09400848299264908,-0.09141343086957932,0.01432773470878601,0.004974424839019775,-0.009980440139770508,1,0.7106723785400391,-0.09117051959037781,0.3343378305435181,-0.6122506856918335,-0.363570898771286,0.9311828017234802,0.02673458680510521,0,0,0,-1,63055.65405375,3,2,1561240595.316969,1561239991.781823,76,3.632473,0,0,66.78877,0,0,1561240563.880506,63054.840146,0,-0.9829102,74.42442,2650659446,177292352,1,1,0.32,-15.4403,-21.99364,2
1561240597.103203,60,0,0,1561240593.699841,4.603046578328162,-74.06480771600017,2651.397,-1,-1,10,65,-9999,1561240597.084085,-0.1578636169433594,17.38366508483887,20.257568359375,156.6493530273438,164.1930389404297,15,63057.45157954167,-0.35858154296875,0.9599761962890625,0.0157928466796875,63057.44044054167,0.09811271877128219,-0.09046438643668363,-0.09266975013537825,63057.43326854167,38.45571899414062,17.97181701660156,-512.468505859375,63057.44550654167,-2.260800361425148,-1.64071300715602,-1.195951556330219,0.09146472811698914,-0.1061082854866982,-0.09716852754354477,0.01364073157310486,0.01400035619735718,-0.008091092109680176,1,0.7104645967483521,-0.08960394561290741,0.3343168497085571,-0.6127344369888306,-0.3652337193489075,0.9305644631385803,0.02557762153446674,0,0,0,-1,63055.65405375,3,2,1561240595.316969,1561239991.781823,76,3.632473,0,0,66.78877,0,0,1561240563.880506,63054.840146,0,-0.9829102,74.42442,2650659446,177292352,1,1,0.32,-15.4403,-22.97308,2
1561240597.120244,61,0,0,1561240593.699841,4.603046578328162,-74.06480771600017,2651.397,-1,-1,10,65,-9999,1561240597.110436,-0.4180221557617188,17.48426055908203,20.5162353515625,156.4596405029297,164.0033264160156,15,63057.47184254167,-0.3885955810546875,1.007339477539062,0.031707763671875,63057.46070354167,0.09383861153781402,-0.09947359408831268,-0.1305289818758357,63057.45341054167,38.6024169921875,17.92280578613281,-512.6012573242188,63057.46576954167,-2.255415372573625,-1.637864145671197,-1.193701265652592,0.08650273084640503,-0.09965118765830994,-0.1493377238512039,-0.009712129831314087,0.05507928133010864,0.0002402067184448242,1,0.7103739380836487,-0.08779246360063553,0.334359735250473,-0.6130782961845398,-0.3673935830593109,0.9297382235527039,0.02467729710042477,0,0,0,-1,63055.65405375,3,2,1561240595.316969,1561239991.781823,76,3.632473,0,0,66.78877,0,0,1561240563.880506,63054.840146,0,-0.9829102,74.42442,2650659446,177292352,1,1,0.32,-15.4403,-22.97308,2
1561240597.14056,62,0,0,1561240593.699841,4.603046578328162,-74.06480771600017,2651.397,-1,-1,10,65,-9999,1561240597.134572,-0.31109619140625,17.43867301940918,20.34832763671875,156.3048248291016,163.8485107421875,15,63057.49210654167,-0.3935089111328125,1.027191162109375,0.0300750732421875,63057.48096754167,0.111551295947931,-0.04590330981304178,-0.1300421560285692,63057.47352154167,38.51913452148438,17.9183349609375,-512.7634887695312,63057.48603354167,-2.249415502015639,-1.633647531854544,-1.191002663322115,0.1237305179238319,-0.01770412549376488,-0.1006990745663643,-0.01986545324325562,0.08949315547943115,0.007674574851989746,1,0.7100999355316162,-0.08602780103683472,0.3348353505134583,-0.6133860945701599,-0.3699966073036194,0.9287411570549011,0.02328540198504925,0,0,0,-1,63055.65405375,3,2,1561240595.316969,1561239991.781823,76,3.632473,0,0,66.78877,0,0,1561240563.880506,63054.840146,0,-0.9829102,74.42442,2650659446,177292352,1,1,0.32,-15.4403,-23.99407,2
1561240597.160818,63,0,0,1561240593.699841,4.603046578328162,-74.06480771600017,2651.397,-1,-1,10,65,-9999,1561240597.134572,-0.31109619140625,17.43867301940918,20.34832763671875,156.3048248291016,163.8485107421875,15,63057.51237054167,-0.391204833984375,1.064376831054688,0.0242919921875,63057.50123154167,0.192852810338088,0.04603353839034666,0.02592427531526734,63057.49366254167,38.64720153808594,17.97712707519531,-512.8369750976562,63057.50629754167,-2.240253019773502,-1.624654047085327,-1.190835894599564,0.2137738764286041,0.01702402904629707,0.07767731696367264,-0.01905828714370728,0.1139994859695435,0.008629679679870605,1,0.7089962959289551,-0.08548042178153992,0.3352642059326172,-0.6145040988922119,-0.3703460097312927,0.9286792874336243,0.01996530033648014,0,0,0,-1,63055.65405375,3,2,1561240595.316969,1561239991.781823,76,3.632473,0,0,66.78877,0,0,1561240563.880506,63054.840146,0,-0.9829102,74.42442,2650659446,177292352,1,1,0.32,-15.4403,-25.02716,2
1561240597.181086,64,0,0,1561240593.699841,4.603046578328162,-74.06480771600017,2651.397,-1,-1,10,65,-9999,1561240597.161037,-0.2650260925292969,17.53536224365234,20.20123291015625,156.2322845458984,163.7759704589844,15,63057.53263354167,-0.41741943359375,1.129119873046875,0.0602874755859375,63057.52149554167,0.3433491088029018,-0.1420490178031915,0.2663118479501797,63057.51377454167,38.52285766601562,18.31951904296875,-512.6718139648438,63057.52656054167,-2.224521930422521,-1.61183653789866,-1.195205193862848,0.404243677854538,-0.2354292571544647,0.3307940065860748,-0.04043847322463989,0.1698219776153564,0.01917529106140137,1,0.7072745561599731,-0.08536873757839203,0.3336222767829895,-0.6173904538154602,-0.3665134012699127,0.9302909374237061,0.01505023799836636,0,0,0,-1,63055.65405375,3,2,1561240595.316969,1561239991.781823,76,3.632473,0,0,66.78877,0,0,1561240563.880506,63054.840146,0,-0.9829102,74.42442,2650659446,177292352,1,1,0.32,-15.4403,-25.96461,2
1561240597.201241,65,0,0,1561240593.699841,4.603046578328162,-74.06480771600017,2651.397,-1,-1,10,65,-9999,1561240597.185382,-0.2765693664550781,17.61599540710449,20.19769287109375,155.7539520263672,163.2976379394531,15,63057.55289754167,-0.4481048583984375,1.121292114257812,0.061767578125,63057.54175854167,0.5535683926093966,-0.5550778723152535,0.4815293524905351,63057.53391554167,38.73777770996094,18.27497863769531,-513.155517578125,63057.54682454167,-2.197140097769079,-1.595403288132721,-1.204281045072698,0.591295063495636,-0.6676075458526611,0.5093491077423096,-0.06644248962402344,0.1967282891273499,0.06193757057189941,1,0.7052384614944458,-0.08394873887300491,0.328135222196579,-0.6228309869766235,-0.3582554161548615,0.9335818290710449,0.008817357011139393,0,0,0,-1,63055.65405375,3,2,1561240595.316969,1561239991.781823,76,3.632473,0,0,66.78877,0,0,1561240563.880506,63054.840146,0,-0.9829102,74.42442,2650659446,177292352,1,1,0.32,-15.4403,-26.93612,2
1561240597.221602,66,0,0,1561240593.699841,4.603046578328162,-74.06480771600017,2651.397,-1,-1,10,65,-9999,1561240597.211619,-0.03485488891601562,17.99389266967773,19.77252197265625,154.4973449707031,162.0410308837891,15,63057.57316154167,-0.527740478515625,1.123916625976562,0.0301513671875,63057.56202254167,0.695181450942142,-0.8866251827474692,0.5063912928469699,63057.55405754167,39.37229919433594,18.43186950683594,-513.4192504882812,63057.56708854167,-2.159902703498814,-1.577122675229798,-1.214754640820201,0.7244259119033813,-0.9301944375038147,0.4689705073833466,-0.1358147859573364,0.1746392846107483,0.04845404624938965,1,0.703325629234314,-0.08022238314151764,0.319637656211853,-0.629864513874054,-0.348560243844986,0.9372838735580444,0.002205142984166741,0,0,0,-1,63055.65405375,3,2,1561240595.316969,1561239991.781823,76,3.632473,0,0,66.78877,0,0,1561240563.880506,63054.840146,0,-0.9829102,74.42442,2650659446,177292352,1,1,0.32,-15.4403,-27.88751,2
1561240597.242383,67,0,0,1561240593.699841,4.603046578328162,-74.06480771600017,2651.397,-1,-1,10,65,-9999,1561240597.236004,1.20660400390625,18.48301887512207,19.28887939453125,152.8281097412109,160.3717956542969,15,63057.59342454167,-0.5201416015625,1.190963745117188,0.04559326171875,63057.58228654167,0.8327132149043411,-0.9390279372008493,0.3927174575102457,63057.57416854167,39.84439086914062,18.96397399902344,-513.5978393554688,63057.58735154167,-2.113266268877835,-1.552498793597509,-1.223061253748658,0.8671934604644775,-0.9268508553504944,0.387937992811203,-0.1955277621746063,0.227898120880127,0.03190016746520996,1,0.7009428739547729,-0.07457644492387772,0.3108706176280975,-0.6375553011894226,-0.3407118618488312,0.9401469230651855,-0.006234882399439812,0,0,0,-1,63055.65405375,3,2,1561240595.316969,1561239991.781823,76,3.632473,0,0,66.78877,0,0,1561240563.880506,63054.840146,0,-0.9829102,74.42442,2650659446,177292352,1,1,0.32,-15.4403,-28.676,2
1561240597.262208,68,0,0,1561240593.699841,4.603046578328162,-74.06480771600017,2651.397,-1,-1,10,65,-9999,1561240597.236004,1.20660400390625,18.48301887512207,19.28887939453125,152.8281097412109,160.3717956542969,15,63057.61368854167,-0.4394378662109375,1.20367431640625,0.0685577392578125,63057.60254954167,0.9345655444783125,-0.8599901097372596,0.4412176157022237,63057.59430954167,40.5570068359375,19.12284851074219,-513.74462890625,63057.60761554167,-2.057473125503509,-1.518025566776217,-1.230930887505686,0.9098719358444214,-0.8551740050315857,0.4531683921813965,-0.1658066511154175,0.2498427033424377,0.07263720035552979,1,0.6974650621414185,-0.06892552226781845,0.3024852871894836,-0.6459833383560181,-0.33289635181427,0.9427995085716248,-0.01758351922035217,0,0,0,-1,63055.65405375,3,2,1561240595.316969,1561239991.781823,76,3.632473,0,0,66.78877,0,0,1561240563.880506,63054.840146,0,-0.9829102,74.42442,2650659446,177292352,1,1,0.32,-15.4403,-29.52706,2
1561240597.282419,69,0,0,1561240593.699841,4.603046578328162,-74.06480771600017,2651.397,-1,-1,10,65,-9999,1561240597.262339,1.717231750488281,18.78471565246582,19.08953857421875,151.17529296875,158.7189788818359,15,63057.63395254167,-0.396759033203125,1.193801879882812,0.1557159423828125,63057.62281354167,0.7732064782431746,-0.798598920288753,0.5662029614529505,63057.61442154167,40.98556518554688,19.45944213867188,-514.1538696289062,63057.62787954167,-2.005023317382816,-1.48524416345147,-1.240388657347298,0.7133607864379883,-0.7734636664390564,0.5903491377830505,-0.1044464707374573,0.2581608891487122,0.1269648671150208,1,0.694227397441864,-0.06471055001020432,0.2937573790550232,-0.6538864374160767,-0.3232421278953552,0.9459101557731628,-0.02772173099219799,0,0,0,-1,63055.65405375,3,2,1561240595.316969,1561239991.781823,76,3.632473,0,0,66.78877,0,0,1561240563.880506,63054.840146,0,-0.9829102,74.42442,2650659446,177292352,1,1,0.32,-15.4403,-29.52706,2
1561240597.303186,70,0,0,1561240593.699841,4.603046578328162,-74.06480771600017,2651.397,-1,-1,10,65,-9999,1561240597.28662,2.392795562744141,19.02547836303711,18.99420166015625,149.7344055175781,157.2780914306641,15,63057.65422112501,-0.3630828857421875,1.13568115234375,0.1864013671875,63057.64307754167,0.4422724938100041,-0.7513190225082493,0.5560736282468342,63057.63456254167,41.7852783203125,19.91513061523438,-514.4718017578125,63057.64811254167,-1.967600619148843,-1.46515760095524,-1.250844415718614,0.3046931028366089,-0.7234556674957275,0.4957792162895203,-0.0486525297164917,0.2138811349868774,0.2179171442985535,1,0.6925051212310791,-0.06208677589893341,0.2849797606468201,-0.6598244309425354,-0.3127671480178833,0.9492505192756653,-0.03316377848386765,0,0,0,-1,63055.65405375,3,2,1561240595.316969,1561239991.781823,76,3.632473,0,0,66.78877,0,0,1561240563.880506,63054.840146,0,-0.9829102,74.42442,2650659446,177292352,1,1,0.32,-15.4403,-30.27489,2
1561240597.322956,71,0,0,1561240593.699841,4.603046578328162,-74.06480771600017,2651.397,-1,-1,10,65,-9999,1561240597.313059,2.952114105224609,19.20834541320801,18.52667236328125,148.6651153564453,156.2088012695312,15,63057.674485125,-0.3760986328125,1.041091918945312,0.1871490478515625,63057.663346125,0.01746527674484865,-0.545784505375313,0.2219406547122605,63057.654679125,42.08175659179688,19.83845520019531,-514.8246459960938,63057.668382125,-1.958818698344939,-1.469149528752527,-1.256962201340119,-0.04451467096805573,-0.4460147023200989,0.106153704226017,-0.05065825581550598,0.1431270837783813,0.2180622816085815,1,0.6933590173721313,-0.05992234125733376,0.2786654531955719,-0.6618219017982483,-0.3071145713329315,0.9511569142341614,-0.03132517263293266,0,0,0,-1,63055.65405375,3,2,1561240595.316969,1561239991.781823,76,3.632473,0,0,66.78877,0,0,1561240563.880506,63054.840146,0,-0.9829102,74.42442,2650659446,177292352,1,1,0.32,-15.4403,-30.47799,2
1561240597.344546,72,0,0,1561240593.699841,4.603046578328162,-74.06480771600017,2651.397,-1,-1,10,65,-9999,1561240597.337382,3.423534393310547,19.43962860107422,18.35369873046875,148.4734039306641,156.01708984375,15,63057.69471812501,-0.4139862060546875,1.028213500976562,0.1692657470703125,63057.68357912501,-0.2186665644681171,0.09602666468942313,-0.1909941902133217,63057.674821125,42.13383483886719,19.60346984863281,-514.6832275390625,63057.688645125,-1.97000663624438,-1.481823494060029,-1.255319435341913,-0.3086920082569122,0.275359183549881,-0.2368846088647842,-0.0841611921787262,0.07179713249206543,0.2152827978134155,1,0.6947886943817139,-0.05902611464262009,0.2785106599330902,-0.6604667901992798,-0.3090425431728363,0.9506485462188721,-0.02756917662918568,0,0,0,-1,63055.65405375,3,2,1561240595.316969,1561239991.781823,76,3.632473,0,0,66.78877,0,0,1561240563.880506,63054.840146,0,-0.9829102,74.42442,2650659446,177292352,1,1,0.32,-15.4403,-31.03077,2
1561240597.364062,73,0,0,1561240593.699841,4.603046578328162,-74.06480771600017,2651.397,-1,-1,10,65,-9999,1561240597.337382,3.423534393310547,19.43962860107422,18.35369873046875,148.4734039306641,156.01708984375,15,63057.71498212501,-0.380126953125,1.085342407226562,0.0765228271484375,63057.703843125,-0.6291816612272533,0.7199725512135806,-0.333105259669912,63057.694962125,41.90512084960938,19.84185791015625,-514.5482177734375,63057.708909125,-2.005035729055065,-1.503511606673195,-1.25005156366802,-0.7066730260848999,0.7898250222206116,-0.3795461058616638,-0.0938105583190918,0.1134838461875916,0.1415584683418274,1,0.6968024373054504,-0.06219172105193138,0.2842313349246979,-0.6555998921394348,-0.3145604133605957,0.9490008950233459,-0.02119710668921471,0,0,0,-1,63055.65405375,3,2,1561240595.316969,1561239991.781823,76,3.632473,0,0,66.78877,0,0,1561240563.880506,63054.840146,0,-0.9829102,74.42442,2650659446,177292352,1,1,0.32,-15.4403,-31.50585,2
1561240597.383719,74,0,0,1561240593.699841,4.603046578328162,-74.06480771600017,2651.397,-1,-1,10,65,-9999,1561240597.364162,3.039051055908203,19.27164268493652,18.4468994140625,149.5797119140625,157.1233978271484,15,63057.735246125,-0.34039306640625,1.043899536132812,0.0280303955078125,63057.724107125,-0.6825367620864459,0.7467863223329345,-0.6103206217550942,63057.715074125,41.49015808105469,19.19140625,-514.23193359375,63057.729173125,-2.051449040735126,-1.531823612631097,-1.240159213522571,-0.6222907900810242,0.6292757987976074,-0.7169380187988281,-0.03346547484397888,0.1157335042953491,0.0664362907409668,1,0.6995477080345154,-0.06563877314329147,0.2927186489105225,-0.6485678553581238,-0.324398934841156,0.9458357095718384,-0.01264911144971848,0,0,0,-1,63055.65405375,3,2,1561240595.316969,1561239991.781823,76,3.632473,0,0,66.78877,0,0,1561240563.880506,63054.840146,0,-0.9829102,74.42442,2650659446,177292352,1,1,0.32,-15.4403,-32.30222,2
1561240597.404105,75,0,0,1561240593.699841,4.603046578328162,-74.06480771600017,2651.397,-1,-1,10,65,-9999,1561240597.387984,2.689388275146484,18.9103889465332,18.73162841796875,150.7655487060547,158.3092346191406,15,63057.755509125,-0.3439483642578125,1.008407592773438,-0.03424072265625,63057.744370125,-0.3812842406344265,0.1216377522604971,-1.116066630669938,63057.735215125,41.22543334960938,19.07904052734375,-514.0623168945312,63057.74943612501,-2.081311772939795,-1.553917271142523,-1.220565534434216,-0.3328811228275299,-0.05428335815668106,-1.250265836715698,0.0122094452381134,0.08313685655593872,0.002205371856689453,1,0.7023223638534546,-0.06202990561723709,0.300949901342392,-0.6421251893043518,-0.3430657684803009,0.9392935633659363,-0.005791176110506058,0,0,0,-1,63055.65405375,3,2,1561240595.316969,1561239991.781823,76,3.632473,0,0,66.78877,0,0,1561240563.880506,63054.840146,0,-0.9829102,74.42442,2650659446,177292352,1,1,0.32,-15.4403,-33.04586,2
1561240597.43194,76,0,0,1561240593.699841,4.603046578328162,-74.06480771600017,2651.397,-1,-1,10,65,-9999,1561240597.41439,1.624050140380859,18.66378974914551,19.048095703125,150.7986755371094,158.3423614501953,15,63057.775773125,-0.422515869140625,0.976470947265625,-0.0875244140625,63057.76463412501,-0.3324594431055678,-0.39874285947655,-1.613061225926672,63057.75532612501,40.80326843261719,19.17372131347656,-514.1497802734375,63057.76970012501,-2.100327295040619,-1.577601635606411,-1.190310120936785,-0.3882596790790558,-0.4355127215385437,-1.721550822257996,-0.008382081985473633,0.06426787376403809,-0.05831348896026611,1,0.7061975002288818,-0.05048496276140213,0.3083510994911194,-0.6353392601013184,-0.3713634014129639,0.9284842014312744,0.002527281641960144,0,0,0,-1,63055.65405375,3,2,1561240595.316969,1561239991.781823,76,3.632473,0,0,66.78877,0,0,1561240563.880506,63054.840146,0,-0.9829102,74.42442,2650659446,177292352,1,1,0.32,-15.4403,-34.00486,2
1561240597.444654,77,0,0,1561240593.699841,4.603046578328162,-74.06480771600017,2651.397,-1,-1,10,65,-9999,1561240597.439514,1.105312347412109,18.33467102050781,19.33355712890625,150.6276550292969,158.1713409423828,15,63057.796037125,-0.4878082275390625,0.9371490478515625,-0.12481689453125,63057.78489812501,-0.6331058290934851,-0.2411391166945327,-1.985068344903808,63057.775468125,40.08345031738281,18.942626953125,-514.0140991210938,63057.789964125,-2.126662703981318,-1.608365767519489,-1.151521171031872,-0.7351651191711426,-0.1447378993034363,-2.061649560928345,-0.05165451765060425,0.04520338773727417,-0.1171432733535767,1,0.7115562558174133,-0.03651197627186775,0.3179565966129303,-0.6255062818527222,-0.4068110585212708,0.9133842587471008,0.01529085915535688,0,0,0,-1,63055.65405375,3,2,1561240595.316969,1561239991.781823,76,3.632473,0,0,66.78877,0,0,1561240563.880506,63054.840146,0,-0.9829102,74.42442,2650659446,177292352,1,1,0.32,-15.4403,-34.00486,2
1561240597.464936,78,0,0,1561240593.699841,4.603046578328162,-74.06480771600017,2651.397,-1,-1,10,65,-9999,1561240597.439514,1.105312347412109,18.33467102050781,19.33355712890625,150.6276550292969,158.1713409423828,15,63057.81630012501,-0.5047149658203125,0.9884185791015625,-0.16094970703125,63057.805161125,-1.000035897768494,0.14502376874081,-2.241662051720179,63057.79557912501,39.33761596679688,18.4442138671875,-513.808837890625,63057.810227125,-2.164351116638743,-1.641571986894264,-1.106296155849507,-1.089163184165955,0.1964977234601974,-2.262247085571289,-0.05891358852386475,0.05041241645812988,-0.1788960695266724,1,0.7178196907043457,-0.02396977506577969,0.331683337688446,-0.6116750836372375,-0.4468542337417603,0.8940455913543701,0.03167931735515594,0,0,0,-1,63055.65405375,3,2,1561240595.316969,1561239991.781823,76,3.632473,0,0,66.78877,0,0,1561240563.880506,63054.840146,0,-0.9829102,74.42442,2650659446,177292352,1,1,0.32,-15.4403,-35.00189,2
1561240597.485287,79,0,0,1561240593.699841,4.603046578328162,-74.06480771600017,2651.397,-1,-1,10,65,-9999,1561240597.465084,0.2218055725097656,17.86575508117676,19.45989990234375,151.3259429931641,158.86962890625,15,63057.83656412501,-0.491241455078125,1.052383422851562,-0.19952392578125,63057.825425125,-1.344974647426064,0.06044123988767534,-2.225572563994465,63057.81572012501,38.32969665527344,18.09519958496094,-513.5670166015625,63057.830491125,-2.210020138254416,-1.679519483390211,-1.0587169929498,-1.419674277305603,-0.04862387478351593,-2.214240074157715,-0.01229190826416016,0.1651986837387085,-0.2393409013748169,1,0.7255513668060303,-0.01262716297060251,0.3460242748260498,-0.594712495803833,-0.4870977103710175,0.8717275261878967,0.05316846072673798,0,0,0,-1,63055.65405375,3,2,1561240595.316969,1561239991.781823,76,3.632473,0,0,66.78877,0,0,1561240563.880506,63054.840146,0,-0.9829102,74.42442,2650659446,177292352,1,1,0.32,-15.4403,-35.39678,2
1561240597.5302,80,0,0,1561240593.699841,4.603046578328162,-74.06480771600017,2651.397,-1,-1,10,65,-9999,1561240597.516053,-1.693904876708984,15.97616958618164,20.57354736328125,152.7841949462891,160.327880859375,15,63057.856828125,-0.4775238037109375,0.9867706298828125,-0.1595611572265625,63057.845689125,-1.517334166859883,-0.3391764680069657,-2.230159592656018,63057.835862125,37.60321044921875,17.26290893554688,-513.1280517578125,63057.850755125,-2.257189925158123,-1.725166658187034,-1.010108560506529,-1.528807640075684,-0.4585144519805908,-2.254980325698853,0.04573947191238403,0.1693000197410583,-0.267905592918396,1,0.7354466915130615,-1.879670890048146e-05,0.3572433590888977,-0.575756311416626,-0.5254452228546143,0.8468895554542542,0.08176366984844208,0,0,0,-1,63055.65405375,3,2,1561240595.316969,1561239991.781823,76,3.632473,0,0,66.78877,0,0,1561240563.880506,63054.840146,0,-0.9829102,74.42442,2650659446,177292352,1,1,0.32,-15.4403,-35.12624,2
1561240597.533409,81,0,0,1561240593.699841,4.603046578328162,-74.06480771600017,2651.397,-1,-1,10,65,-9999,1561240597.516053,-1.693904876708984,15.97616958618164,20.57354736328125,152.7841949462891,160.327880859375,15,63057.877091125,-0.47528076171875,0.9301910400390625,-0.1470794677734375,63057.865952125,-1.442703338368156,-0.8594787828079644,-2.33832281506515,63057.85597312501,37.33621215820312,16.64997863769531,-512.656494140625,63057.87101812501,-2.295668226032404,-1.772028700417899,-0.9587268257573957,-1.393564343452454,-0.9678751826286316,-2.390413522720337,0.08213359117507935,0.1542870998382568,-0.2707103490829468,1,0.7464330792427063,0.01608052663505077,0.3651253879070282,-0.5561138391494751,-0.5629685521125793,0.8184607028961182,0.1148418486118317,0,0,0,-1,63055.65405375,3,2,1561240595.316969,1561239991.781823,76,3.632473,0,0,66.78877,0,0,1561240563.880506,63054.840146,0,-0.9829102,74.42442,2650659446,177292352,1,1,0.32,-15.4403,-35.12624,2
1561240597.545905,82,0,0,1561240593.699841,4.603046578328162,-74.06480771600017,2651.397,-1,-1,10,65,-9999,1561240597.516053,-1.693904876708984,15.97616958618164,20.57354736328125,152.7841949462891,160.327880859375,15,63057.897355125,-0.4959716796875,0.7857513427734375,-0.091094970703125,63057.88621612501,-1.265755458692239,-1.036839186136735,-2.543785160532545,63057.87611512501,36.79278564453125,15.92233276367188,-512.191162109375,63057.891251125,-2.3203029993284,-1.812707239798564,-0.9037221311130047,-1.262805223464966,-0.9833779335021973,-2.581115484237671,0.1142704486846924,0.06211262941360474,-0.2720068693161011,1,0.756848156452179,0.03587526082992554,0.3713902235031128,-0.5366219282150269,-0.6006749272346497,0.7856351733207703,0.1482123285531998,0,0,0,-1,63055.65405375,3,2,1561240595.316969,1561239991.781823,76,3.632473,0,0,66.78877,0,0,1561240563.880506,63054.840146,0,-0.9829102,74.42442,2650659446,177292352,1,1,0.32,-15.4403,-35.32613,2
1561240597.566351,83,0,0,1561240593.699841,4.603046578328162,-74.06480771600017,2651.397,-1,-1,10,65,-9999,1561240597.545232,-2.063392639160156,15.26004314422607,20.882568359375,152.7151489257812,160.2588348388672,15,63057.917619125,-0.491973876953125,0.7344512939453125,-0.0295257568359375,63057.90648012501,-1.361321929145297,-0.6659010600211569,-2.503016691617285,63057.89622612501,36.60377502441406,15.26560974121094,-511.687744140625,63057.911515125,-2.340361539781508,-1.84396521934857,-0.8470890798549596,-1.424106240272522,-0.57513028383255,-2.429543733596802,0.1407732963562012,0.006518542766571045,-0.2380752563476562,1,0.7657279372215271,0.05460637435317039,0.3795212209224701,-0.516374409198761,-0.6376146674156189,0.7493560910224915,0.1786422580480576,0,0,0,-1,63055.65405375,3,2,1561240595.316969,1561239991.781823,76,3.632473,0,0,66.78877,0,0,1561240563.880506,63054.840146,0,-0.9829102,74.42442,2650659446,177292352,1,1,0.32,-15.4403,-35.5154,2
1561240597.594097,84,0,0,1561240593.699841,4.603046578328162,-74.06480771600017,2651.397,-1,-1,10,65,-9999,1561240597.591243,-2.676372528076172,13.6967887878418,21.70547485351562,154.1197509765625,161.6634368896484,15,63057.93788212501,-0.4765625,0.7237091064453125,0.0255889892578125,63057.926743125,-1.559581755444573,-0.4627876226352115,-2.12882444896574,63057.91636712501,36.37162780761719,14.5299072265625,-511.2400512695312,63057.93177912501,-2.364883751603243,-1.871934142755724,-0.7949124590155683,-1.580836534500122,-0.5250588655471802,-2.028739929199219,0.1868517398834229,0.0076637864112854,-0.2115577459335327,1,0.7740468978881836,0.06866816431283951,0.3880768120288849,-0.4955121874809265,-0.6688311100006104,0.7138022780418396,0.2077278345823288,0,0,0,-1,63055.65405375,3,2,1561240595.316969,1561239991.781823,76,3.632473,0,0,66.78877,0,0,1561240563.880506,63054.840146,0,-0.9829102,74.42442,2650659446,177292352,1,1,0.32,-15.4403,-36.31778,2
1561240597.606811,85,0,0,1561240593.699841,4.603046578328162,-74.06480771600017,2651.397,-1,-1,10,65,-9999,1561240597.591243,-2.676372528076172,13.6967887878418,21.70547485351562,154.1197509765625,161.6634368896484,15,63057.958115125,-0.458984375,0.672607421875,0.03466796875,63057.946977125,-1.490034102525481,-0.842656393150261,-1.792327919963721,63057.936479125,35.96939086914062,13.56631469726562,-511.2770690917969,63057.95204212501,-2.38960810317377,-1.904081868250052,-0.7492266417151853,-1.4072265625,-0.9745258688926697,-1.747750401496887,0.2361131906509399,0.0488315224647522,-0.2083092927932739,1,0.7830817699432373,0.08096263557672501,0.3926374614238739,-0.4754616022109985,-0.6919237375259399,0.6810727119445801,0.2395440191030502,0,0,0,-1,63055.65405375,3,2,1561240595.316969,1561239991.781823,76,3.632473,0,0,66.78877,0,0,1561240563.880506,63054.840146,0,-0.9829102,74.42442,2650659446,177292352,1,1,0.32,-15.4403,-36.31778,2
1561240597.62708,86,0,0,1561240593.699841,4.603046578328162,-74.06480771600017,2651.397,-1,-1,10,65,-9999,1561240597.617049,-2.845458984375,12.36340522766113,22.40802001953125,154.5398254394531,162.0835113525391,15,63057.978379125,-0.4900970458984375,0.5517425537109375,0.0517425537109375,63057.96724012501,-1.116181945545138,-1.088208367771055,-1.710871409598121,63057.95662012501,35.73710632324219,12.72161865234375,-510.6216430664062,63057.972306125,-2.404708939841889,-1.935863631154162,-0.7080596064148347,-1.024556517601013,-1.050486207008362,-1.724767923355103,0.2273576259613037,-0.05474948883056641,-0.232941746711731,1,0.791576087474823,0.09489497542381287,0.3932985961437225,-0.4579503834247589,-0.7095659375190735,0.6503610014915466,0.2711955308914185,0,0,0,-1,63055.65405375,3,2,1561240595.316969,1561239991.781823,76,3.632473,0,0,66.78877,0,0,1561240563.880506,63054.840146,0,-0.9829102,74.42442,2650659446,177292352,1,1,0.32,-15.4403,-36.84607,2
1561240597.647255,87,0,0,1561240593.699841,4.603046578328162,-74.06480771600017,2651.397,-1,-1,10,65,-9999,1561240597.641436,-2.654636383056641,11.63146781921387,22.61209106445312,154.6946563720703,162.2383422851562,15,63057.99864312501,-0.49920654296875,0.4527435302734375,0.0929718017578125,63057.98750412501,-0.820744702649416,-0.6904982821652377,-1.687499241555477,63057.97676212501,35.93440246582031,12.23951721191406,-510.4292602539062,63057.992570125,-2.409962284633101,-1.956019433967606,-0.6693304759169479,-0.8130892515182495,-0.5125787258148193,-1.659436821937561,0.2339966893196106,-0.1186452507972717,-0.2275967597961426,1,0.7971783876419067,0.1088641956448555,0.3953183889389038,-0.4431461691856384,-0.7267640829086304,0.6204610466957092,0.2946895956993103,0,0,0,-1,63055.65405375,3,2,1561240595.316969,1561239991.781823,76,3.632473,0,0,66.78877,0,0,1561240563.880506,63054.840146,0,-0.9829102,74.42442,2650659446,177292352,1,1,0.32,-15.4403,-37.42397,2
1561240597.681249,88,0,0,1561240593.699841,4.603046578328162,-74.06480771600017,2651.397,-1,-1,10,65,-9999,1561240597.667874,-3.060371398925781,11.18313026428223,22.78536987304688,155.7938079833984,163.3374938964844,15,63058.01890712501,-0.53204345703125,0.443359375,0.14862060546875,63058.007768125,-1.036144367408333,0.01703171411938375,-1.508260510709874,63057.996873125,35.94384765625,11.90876770019531,-510.162353515625,63058.012834125,-2.417194115157562,-1.963729340443772,-0.6327364265173568,-1.185748815536499,0.1472412347793579,-1.453107595443726,0.2213350534439087,-0.1563408374786377,-0.1867198944091797,1,0.8002287745475769,0.1184118539094925,0.4019878804683685,-0.428973525762558,-0.7449556589126587,0.5913536548614502,0.3087749183177948,0,0,0,-1,63055.65405375,3,2,1561240595.316969,1561239991.781823,76,3.632473,0,0,66.78877,0,0,1561240563.880506,63054.840146,0,-0.9829102,74.42442,2650659446,177292352,1,1,0.32,-15.4403,-38.82125,2
1561240597.689499,89,0,0,1561240593.699841,4.603046578328162,-74.06480771600017,2651.397,-1,-1,10,65,-9999,1561240597.667874,-3.060371398925781,11.18313026428223,22.78536987304688,155.7938079833984,163.3374938964844,15,63058.039170125,-0.5975494384765625,0.4844207763671875,0.1903228759765625,63058.028031125,-1.552090815930398,0.2704786297917177,-1.276699452875811,63058.01701412501,35.52432250976562,11.33218383789062,-510.23974609375,63058.033097125,-2.437252758895599,-1.97049054537382,-0.5964884937074849,-1.581692457199097,0.2427856028079987,-1.254473328590393,0.2012984156608582,-0.08189767599105835,-0.1495747566223145,1,0.8037404417991638,0.1223532408475876,0.4113683998584747,-0.4120766520500183,-0.7621046900749207,0.5617408156394958,0.3219380378723145,0,0,0,-1,63055.65405375,3,2,1561240595.316969,1561239991.781823,76,3.632473,0,0,66.78877,0,0,1561240563.880506,63054.840146,0,-0.9829102,74.42442,2650659446,177292352,1,1,0.32,-15.4403,-38.82125,2
1561240597.708109,90,0,0,1561240593.699841,4.603046578328162,-74.06480771600017,2651.397,-1,-1,10,65,-9999,1561240597.692,-3.441368103027344,10.45354461669922,23.05450439453125,157.8565521240234,165.4002380371094,15,63058.059434125,-0.5662689208984375,0.4511871337890625,0.1751556396484375,63058.048295125,-1.346660162079975,0.04296877260788347,-1.340901342538787,63058.037126125,35.24655151367188,10.377685546875,-509.7855224609375,63058.05336112501,-2.456913220826582,-1.979007588624316,-0.5606304042770954,-1.22393798828125,-0.06550032645463943,-1.384861469268799,0.1907217502593994,-0.07914447784423828,-0.148929238319397,1,0.8075248599052429,0.1265060156583786,0.419434130191803,-0.3949365019798279,-0.7773306369781494,0.5317202210426331,0.3362003564834595,0,0,0,-1,63055.65405375,3,2,1561240595.316969,1561239991.781823,76,3.632473,0,0,66.78877,0,0,1561240563.880506,63054.840146,0,-0.9829102,74.42442,2650659446,177292352,1,1,0.32,-15.4403,-39.02519,2
1561240597.728319,91,0,0,1561240593.699841,4.603046578328162,-74.06480771600017,2651.397,-1,-1,10,65,-9999,1561240597.71847,-4.069290161132812,9.302051544189453,23.478271484375,159.24560546875,166.7892913818359,15,63058.079698125,-0.5299530029296875,0.4503326416015625,0.1829681396484375,63058.068559125,-0.8895221693812574,-0.3037095538737264,-1.507353970674811,63058.057267125,34.75883483886719,9.910690307617188,-509.5287475585938,63058.07362512501,-2.464690358018341,-1.9878062342584,-0.525305545698226,-0.8219317197799683,-0.3430677354335785,-1.527071356773376,0.2444745302200317,-0.04186737537384033,-0.1795507669448853,1,0.8105180263519287,0.135166123509407,0.4245798587799072,-0.3801611959934235,-0.7910290956497192,0.5014773607254028,0.3504187166690826,0,0,0,-1,63055.65405375,3,2,1561240595.316969,1561239991.781823,76,3.632473,0,0,66.78877,0,0,1561240563.880506,63054.840146,0,-0.9829102,74.42442,2650659446,177292352,1,1,0.32,-15.4403,-39.58116,2
1561240597.765179,92,0,0,1561240593.699841,4.603046578328162,-74.06480771600017,2651.397,-1,-1,10,65,-9999,1561240597.742787,-4.027858734130859,8.525476455688477,23.45611572265625,81.87246704101562,89.41615295410156,15,63058.099961125,-0.50811767578125,0.5168304443359375,0.2426605224609375,63058.08882212501,-0.6035133156927426,-0.5664487712215648,-1.46870644325169,63058.07740912501,34.71958923339844,8.983489990234375,-509.5759887695312,63058.093888125,-2.464961801545689,-1.997689165750987,-0.4920741335774079,-0.5110952854156494,-0.7080931067466736,-1.410140991210938,0.299634575843811,-0.005627542734146118,-0.1607728004455566,1,0.8130518794059753,0.1463102847337723,0.4272435009479523,-0.3674274682998657,-0.802259087562561,0.4724549651145935,0.3649201095104218,0,0,0,-1,63055.65405375,3,2,1561240595.316969,1561239991.781823,76,3.632473,0,0,66.78877,0,0,1561240563.880506,63054.840146,0,-0.9829102,74.42442,2650659446,177292352,1,1,0.32,-15.4403,-36.79266,2
1561240597.768908,93,0,0,1561240593.699841,4.603046578328162,-74.06480771600017,2651.397,-1,-1,10,65,-9999,1561240597.742787,-4.027858734130859,8.525476455688477,23.45611572265625,81.87246704101562,89.41615295410156,15,63058.12022512501,-0.5782318115234375,0.4512939453125,0.3558807373046875,63058.109086125,-0.2045981496936645,-0.7819661477006632,-1.068662629582636,63058.097520125,34.73126220703125,8.565597534179688,-509.3044738769531,63058.114152125,-2.459948510555992,-2.010957209786406,-0.4676063572863752,-0.08045922964811325,-0.7187145948410034,-0.9650055766105652,0.2448974847793579,0.07196944952011108,-0.09993398189544678,1,0.8156786561012268,0.1576093435287476,0.4257423579692841,-0.3585681915283203,-0.8075653314590454,0.4507508873939514,0.3803447484970093,0,0,0,-1,63055.65405375,3,2,1561240595.316969,1561239991.781823,76,3.632473,0,0,66.78877,0,0,1561240563.880506,63054.840146,0,-0.9829102,74.42442,2650659446,177292352,1,1,0.32,-15.4403,-36.79266,2
1561240597.789434,94,0,0,1561240593.699841,4.603046578328162,-74.06480771600017,2651.397,-1,-1,10,65,-9999,1561240597.742787,-4.027858734130859,8.525476455688477,23.45611572265625,81.87246704101562,89.41615295410156,15,63058.14048912501,-0.6280517578125,0.229095458984375,0.70001220703125,63058.129350125,0.3003792709305823,-0.399987620970053,-0.6360635358001271,63058.117661125,34.71958923339844,8.563003540039062,-509.2759704589844,63058.134416125,-2.449120344968664,-2.016545046092949,-0.4553459893568113,0.3653453886508942,-0.3960007429122925,-0.5336323380470276,0.21519935131073,-0.1096644401550293,0.1446706056594849,1,0.8160297274589539,0.1664270758628845,0.4239331185817719,-0.3559190034866333,-0.81035315990448,0.4397730827331543,0.3872049748897552,0,0,0,-1,63055.65405375,3,2,1561240595.316969,1561239991.781823,76,3.632473,0,0,66.78877,0,0,1561240563.880506,63054.840146,0,-0.9829102,74.42442,2650659446,177292352,1,1,0.32,-15.4403,-19.94962,2
1561240597.809358,95,0,0,1561240593.699841,4.603046578328162,-74.06480771600017,2651.397,-1,-1,10,65,-9999,1561240597.796656,-3.909530639648438,8.259210586547852,23.6600341796875,81.46328735351562,89.00697326660156,15,63058.160752125,-0.639678955078125,0.1248626708984375,0.8941802978515625,63058.149613125,0.3285219594338857,-0.4042337650120754,-0.4139319324377079,63058.137772125,35.37532043457031,8.734634399414062,-509.2052001953125,63058.154649125,-2.437699090679593,-2.019849377030947,-0.4501812752644153,0.2219650745391846,-0.407514899969101,-0.4237745702266693,0.189323902130127,-0.2723937630653381,0.4275133609771729,1,0.8157612085342407,0.1731018126010895,0.421570360660553,-0.3561568856239319,-0.8111042976379395,0.4351287484169006,0.3908611834049225,0,0,0,-1,63055.65405375,3,2,1561240595.316969,1561239991.781823,76,3.632473,0,0,66.78877,0,0,1561240563.880506,63054.840146,0,-0.9829102,74.42442,2650659446,177292352,1,1,0.32,-15.4403,-19.67519,2
1561240597.829995,96,0,0,1561240593.699841,4.603046578328162,-74.06480771600017,2651.397,-1,-1,10,65,-9999,1561240597.796656,-3.909530639648438,8.259210586547852,23.6600341796875,81.46328735351562,89.00697326660156,15,63058.181016125,-0.7035980224609375,0.113525390625,0.8256683349609375,63058.169877125,-0.327660426821245,-0.05836850161126667,-0.5010998580770915,63058.157914125,35.50791931152344,8.8323974609375,-509.2002563476562,63058.174912125,-2.435792351030847,-2.023088162973076,-0.4403230917168571,-0.6158432960510254,0.1080440282821655,-0.5327481627464294,0.1444483399391174,-0.3282550871372223,0.5096724033355713,1,0.8162609934806824,0.1771689057350159,0.4218595623970032,-0.3526522517204285,-0.8136530518531799,0.4262317717075348,0.3953416645526886,0,0,0,-1,63055.65405375,3,2,1561240595.316969,1561239991.781823,76,3.632473,0,0,66.78877,0,0,1561240563.880506,63054.840146,0,-0.9829102,74.42442,2650659446,177292352,1,1,0.32,-15.4403,-19.7624,2
1561240597.849799,97,0,0,1561240593.699841,4.603046578328162,-74.06480771600017,2651.397,-1,-1,10,65,-9999,1561240597.831568,-3.583694458007812,8.382379531860352,23.74420166015625,80.13439178466797,87.67807769775391,15,63058.20124912501,-0.8050537109375,0.2794036865234375,0.6787567138671875,63058.19014112501,-1.245351650000597,0.1204505150465398,-0.4904935527197419,63058.17805612501,34.96188354492188,8.882965087890625,-509.2080688476562,63058.195176125,-2.451891358445102,-2.027064729554581,-0.421618544212603,-1.404437780380249,0.1487981081008911,-0.4439868927001953,0.06673938035964966,-0.2139405608177185,0.3310916423797607,1,0.8184673190116882,0.1764078289270401,0.4266745746135712,-0.3419655561447144,-0.8190891742706299,0.409237802028656,0.4020169377326965,0,0,0,-1,63055.65405375,3,2,1561240595.316969,1561239991.781823,76,3.632473,0,0,66.78877,0,0,1561240563.880506,63054.840146,0,-0.9829102,74.42442,2650659446,177292352,1,1,0.32,-15.4403,-20.76398,2
1561240597.870189,98,0,0,1561240593.699841,4.603046578328162,-74.06480771600017,2651.397,-1,-1,10,65,-9999,1561240597.831568,-3.583694458007812,8.382379531860352,23.74420166015625,80.13439178466797,87.67807769775391,15,63058.22151312501,-0.7995758056640625,0.409027099609375,0.5301055908203125,63058.210374125,-1.71227835760201,0.4055581550221717,-0.2234173775367094,63058.198167125,34.73097229003906,7.972686767578125,-508.943359375,63058.215440125,-2.481089668190847,-2.032453945092082,-0.4015806170609085,-1.753816246986389,0.4361523985862732,-0.1514373272657394,0.004675865173339844,-0.02129060029983521,0.1912306547164917,1,0.8220872282981873,0.1707942485809326,0.4331311881542206,-0.3277184665203094,-0.8240880966186523,0.3908737003803253,0.4099961817264557,0,0,0,-1,63055.65405375,3,2,1561240595.316969,1561239991.781823,76,3.632473,0,0,66.78877,0,0,1561240563.880506,63054.840146,0,-0.9829102,74.42442,2650659446,177292352,1,1,0.32,-15.4403,-21.70142,2
1561240597.890365,99,0,0,1561240593.699841,4.603046578328162,-74.06480771600017,2651.397,-1,-1,10,65,-9999,1561240597.885713,-3.916526794433594,7.240757465362549,24.1102294921875,83.27864837646484,90.82233428955078,15,63058.241776125,-0.8238525390625,0.3730316162109375,0.3086700439453125,63058.230637125,-1.669712521267056,0.4954960345113467,0.05170926730552353,63058.218308125,34.9371337890625,6.90826416015625,-508.7692260742188,63058.23570312501,-2.514588404277877,-2.035812988850219,-0.3857601778044911,-1.551556944847107,0.4666248261928558,0.08294747769832611,0.01649975776672363,0.03731065988540649,0.002668619155883789,1,0.8255638480186462,0.1618206202983856,0.4399819076061249,-0.3141246140003204,-0.8281300067901611,0.3762635588645935,0.415483146905899,0,0,0,-1,63055.65405375,3,2,1561240595.316969,1561239991.781823,76,3.632473,0,0,66.78877,0,0,1561240563.880506,63055.788791,0,-0.9882812,74.42448,2650659446,177292352,1,1,0.32,-15.4403,-22.64531,2
1561240597.9106,100,0,0,1561240593.699841,4.603046578328162,-74.06480771600017,2651.397,-1,-1,10,65,-9999,1561240597.885713,-3.916526794433594,7.240757465362549,24.1102294921875,83.27864837646484,90.82233428955078,15,63058.262040125,-0.8378753662109375,0.3727569580078125,0.2372283935546875,63058.250901125,-1.036876204075887,0.4485823213807288,0.1176089221634253,63058.238419125,34.50247192382812,6.184341430664062,-508.6529846191406,63058.25596712501,-2.539467688555297,-2.036066928130592,-0.3765948543305656,-0.8427600264549255,0.4190240204334259,0.09002562612295151,-0.01057255268096924,-0.02283114194869995,-0.1563589572906494,1,0.8275743126869202,0.154053196310997,0.4453212320804596,-0.3050858378410339,-0.8310717344284058,0.3677560985088348,0.4172232747077942,0,0,0,-1,63055.65405375,3,2,1561240595.316969,1561239991.781823,76,3.632473,0,0,66.78877,0,0,1561240563.880506,63055.788791,0,-0.9882812,74.42448,2650659446,177292352,1,1,0.32,-15.99758,-23.66132,2
1561240597.930838,101,0,0,1561240593.699841,4.603046578328162,-74.06480771600017,2651.397,-1,-1,10,65,-9999,1561240597.921332,-4.247760772705078,5.220269203186035,24.35516357421875,86.60786437988281,94.15155029296875,15,63058.282304125,-0.82196044921875,0.3860931396484375,0.23187255859375,63058.27116512501,-0.2159192474875913,0.2334947791015693,0.03449565928368736,63058.258561125,34.69493103027344,5.668914794921875,-508.5408935546875,63058.276231125,-2.548317186498842,-2.033325673289883,-0.3735804880298036,-0.0330837294459343,0.156577467918396,0.02479709312319756,0.004007697105407715,0.03141105175018311,-0.2084356546401978,1,0.827635645866394,0.1507893353700638,0.4483111500740051,-0.3021573424339294,-0.8332008123397827,0.3649512827396393,0.4154363572597504,0,0,0,-1,63055.65405375,3,2,1561240595.316969,1561239991.781823,76,3.632473,0,0,66.78877,0,0,1561240563.880506,63055.788791,0,-0.9882812,74.42448,2650659446,177292352,1,1,0.32,-15.99758,-23.66132,2
1561240597.951162,102,0,0,1561240593.699841,4.603046578328162,-74.06480771600017,2651.397,-1,-1,10,65,-9999,1561240597.945243,-4.372600555419922,5.144534587860107,24.33792114257812,86.41165924072266,93.95534515380859,15,63058.30256712501,-0.7999267578125,0.36541748046875,0.293853759765625,63058.29142812501,0.3409647806789539,-0.03865471795806411,0.0363822425998995,63058.278672125,34.33412170410156,5.558868408203125,-508.6255187988281,63058.296494125,-2.544257882791931,-2.031380388807152,-0.3761187987348207,0.3978687226772308,-0.06218282878398895,0.04086846858263016,0.02360439300537109,0.01087570190429688,-0.1621809005737305,1,0.8268933296203613,0.1514867395162582,0.4480704367160797,-0.3041908740997314,-0.8331747055053711,0.3673133552074432,0.4134016335010529,0,0,0,-1,63055.65405375,3,2,1561240595.316969,1561239991.781823,76,3.632473,0,0,66.78877,0,0,1561240563.880506,63055.788791,0,-0.9882812,74.42448,2650659446,177292352,1,1,0.32,-16.55486,-24.64056,2
1561240597.971536,103,0,0,1561240593.699841,4.603046578328162,-74.06480771600017,2651.397,-1,-1,10,65,-9999,1561240597.945243,-4.372600555419922,5.144534587860107,24.33792114257812,86.41165924072266,93.95534515380859,15,63058.32283112501,-0.8197479248046875,0.361297607421875,0.40069580078125,63058.311692125,0.4545211706116056,-0.03372920152196256,0.07281162315109339,63058.298814125,34.3382568359375,5.692123413085938,-508.778564453125,63058.316758125,-2.536242966192889,-2.029361172329167,-0.3811464886098214,0.4485598504543304,-0.03649024665355682,0.08670520037412643,0.02956116199493408,-0.01184701919555664,-0.056998610496521,1,0.8258330225944519,0.1531264185905457,0.4468184113502502,-0.3080673217773438,-0.8323413133621216,0.3719849288463593,0.4108957648277283,0,0,0,-1,63055.65405375,3,2,1561240595.316969,1561239991.781823,76,3.632473,0,0,66.78877,0,0,1561240563.880506,63055.788791,0,-0.9882812,74.42448,2650659446,177292352,1,1,0.32,-17.11214,-25.69103,2
1561240597.991724,104,0,0,1561240593.699841,4.603046578328162,-74.06480771600017,2651.397,-1,-1,10,65,-9999,1561240597.979247,-4.562049865722656,5.476539134979248,24.41751098632812,85.83729553222656,93.3809814453125,15,63058.343095125,-0.8552703857421875,0.3649444580078125,0.46783447265625,63058.331956125,0.4137542995929996,-0.02371225371384752,0.1321239490526842,63058.318955125,34.3658447265625,6.042373657226562,-508.7491455078125,63058.337022125,-2.529052186444892,-2.027312533730362,-0.387050068432249,0.3879002332687378,-0.03844261169433594,0.1390728056430817,-0.004207968711853027,-0.0197313129901886,0.03175747394561768,1,0.8248261213302612,0.1541723161935806,0.4455274045467377,-0.3120865821838379,-0.8311955332756042,0.3774583339691162,0.4082144796848297,0,0,0,-1,63055.65405375,3,2,1561240595.316969,1561239991.781823,76,3.632473,0,0,66.78877,0,0,1561240563.880506,63055.788791,0,-0.9882812,74.42448,2650659446,177292352,1,1,0.32,-17.66942,-26.73034,2
1561240598.011924,105,0,0,1561240593.699841,4.603046578328162,-74.06480771600017,2651.397,-1,-1,10,65,-9999,1561240597.979247,-4.562049865722656,5.476539134979248,24.41751098632812,85.83729553222656,93.3809814453125,15,63058.363358125,-0.8590850830078125,0.3762664794921875,0.4720611572265625,63058.352219125,0.290822251042724,-0.0540272827183285,0.1322568407910791,63058.339066125,34.25675964355469,6.297760009765625,-508.5621337890625,63058.35728512501,-2.523994052011576,-2.026478796341888,-0.39236749476684,0.2438080608844757,-0.05625276640057564,0.1212618425488472,-0.03145372867584229,-0.004386365413665771,0.07148647308349609,1,0.8242514133453369,0.1546797156333923,0.4441482722759247,-0.3153033852577209,-0.8297217488288879,0.3823770582675934,0.4066324234008789,0,0,0,-1,63055.65405375,3,2,1561240595.316969,1561239991.781823,76,3.632473,0,0,66.78877,0,0,1561240563.880506,63055.788791,0,-0.9882812,74.42448,2650659446,177292352,1,1,0.32,-18.2267,-27.59521,2
1561240598.032128,106,0,0,1561240593.699841,4.603046578328162,-74.06480771600017,2651.397,-1,-1,10,65,-9999,1561240598.023163,-4.442695617675781,5.807515621185303,24.27896118164062,85.13150787353516,92.67519378662109,15,63058.383622125,-0.8435821533203125,0.378387451171875,0.449127197265625,63058.37248312501,0.117531956807922,0.05843321642575559,0.08911522902844948,63058.359208125,34.47119140625,6.232406616210938,-508.8419799804688,63058.37754912501,-2.521872027956074,-2.025415647340119,-0.3955366073509975,0.07203417271375656,0.09619297087192535,0.07314145565032959,-0.02610313892364502,-0.00876230001449585,0.05753755569458008,1,0.8238511681556702,0.1545223146677017,0.4436930418014526,-0.3170623481273651,-0.8290604948997498,0.385303407907486,0.4052157998085022,0,0,0,-1,63055.65405375,3,2,1561240595.316969,1561239991.781823,76,3.632473,0,0,66.78877,0,0,1561240563.880506,63055.788791,0,-0.9882812,74.42448,2650659446,177292352,1,1,0.32,-18.78398,-28.26343,2
1561240598.053487,107,0,0,1561240593.699841,4.603046578328162,-74.06480771600017,2651.397,-1,-1,10,65,-9999,1561240598.046577,-4.394207000732422,6.028102397918701,24.06076049804688,85.13287353515625,92.67655944824219,15,63058.403886125,-0.820770263671875,0.39508056640625,0.4186859130859375,63058.39274712501,-0.007273359253115407,0.1706516342267515,0.07105926315382126,63058.379319125,34.41668701171875,6.54217529296875,-508.8981323242188,63058.397813125,-2.522210030975827,-2.02264414254635,-0.3969088747190821,-0.01982837542891502,0.1644100993871689,0.07565893977880478,0.001121342182159424,-0.003039717674255371,0.02968776226043701,1,0.8232613801956177,0.1535687744617462,0.4446459412574768,-0.3177222013473511,-0.8297041058540344,0.3865693807601929,0.4026853442192078,0,0,0,-1,63055.65405375,3,2,1561240595.316969,1561239991.781823,76,3.632473,0,0,66.78877,0,0,1561240563.880506,63055.788791,0,-0.9882812,74.42448,2650659446,177292352,1,1,0.32,-19.34126,-29.22063,2
1561240598.073002,108,0,0,1561240593.699841,4.603046578328162,-74.06480771600017,2651.397,-1,-1,10,65,-9999,1561240598.046577,-4.394207000732422,6.028102397918701,24.06076049804688,85.13287353515625,92.67655944824219,15,63058.42414912501,-0.8225250244140625,0.391876220703125,0.3959197998046875,63058.41301112501,0.02445900408350574,0.126035696484654,0.1017732336895961,63058.399461125,34.41197204589844,6.65625,-508.634765625,63058.41804612501,-2.523024208254727,-2.020181900160044,-0.3985647711950383,0.04880980774760246,0.1009445786476135,0.1040114834904671,0.01364821195602417,0.01176056265830994,0.008466124534606934,1,0.8227750658988953,0.1523893028497696,0.4454964995384216,-0.3183578550815582,-0.8301154971122742,0.3880960047245026,0.4003626108169556,0,0,0,-1,63055.65405375,3,2,1561240595.316969,1561239991.781823,76,3.632473,0,0,66.78877,0,0,1561240563.880506,63055.788791,0,-0.9882812,74.42448,2650659446,177292352,1,1,0.32,-19.89854,-30.26131,2
1561240598.092945,109,0,0,1561240593.699841,4.603046578328162,-74.06480771600017,2651.397,-1,-1,10,65,-9999,1561240598.074862,-4.547744750976562,6.090712070465088,24.35614013671875,85.17288970947266,92.71657562255859,15,63058.44441312501,-0.8245391845703125,0.37017822265625,0.3806915283203125,63058.433274125,0.1391323237773367,0.08391194489065266,0.09040473162826586,63058.41957212501,34.23484802246094,6.677993774414062,-508.7972717285156,63058.43831012501,-2.521845450192792,-2.018101892939562,-0.4011567922178245,0.1546976268291473,0.07428739964962006,0.07334491610527039,0.0006755590438842773,-0.008540809154510498,-0.01025915145874023,1,0.8222203850746155,0.1518319398164749,0.4457057118415833,-0.3197611570358276,-0.8300365805625916,0.390483558177948,0.3981986045837402,0,0,0,-1,63055.65405375,3,2,1561240595.316969,1561239991.781823,76,3.632473,0,0,66.78877,0,0,1561240563.880506,63055.788791,0,-0.9882812,74.42448,2650659446,177292352,1,1,0.32,-19.89854,-30.26131,2
1561240598.113271,110,0,0,1561240593.699841,4.603046578328162,-74.06480771600017,2651.397,-1,-1,10,65,-9999,1561240598.097413,-4.294189453125,6.001988887786865,24.20989990234375,85.03121185302734,92.57489776611328,15,63058.464646125,-0.8161468505859375,0.351531982421875,0.3878173828125,63058.45350712501,0.1721672392031156,0.05656554155328302,0.04255997738055631,63058.439713125,34.339111328125,6.451889038085938,-508.8444213867188,63058.458573125,-2.519093368800279,-2.015965705856993,-0.4034480293739567,0.1639284044504166,0.03064031898975372,0.0361272431910038,0.01241791248321533,-0.03565824031829834,-0.01423275470733643,1,0.821533739566803,0.1519914269447327,0.445735901594162,-0.3214036822319031,-0.8300753831863403,0.3925918638706207,0.396038144826889,0,0,0,-1,63055.65405375,3,2,1561240595.316969,1561239991.781823,76,3.632473,0,0,66.78877,0,0,1561240563.880506,63055.788791,0,-0.9882812,74.42448,2650659446,177292352,1,1,0.32,-20.45581,-31.30329,2
1561240598.134373,111,0,0,1561240593.699841,4.603046578328162,-74.06480771600017,2651.397,-1,-1,10,65,-9999,1561240598.123517,-4.562976837158203,6.268295288085938,24.20379638671875,84.82854461669922,92.37223052978516,15,63058.48491012501,-0.8366241455078125,0.360137939453125,0.4075164794921875,63058.47377112501,0.131547374676682,0.007546333264848529,0.01659229253952068,63058.459855125,34.10333251953125,6.631378173828125,-508.8804321289062,63058.478837125,-2.516535095009259,-2.014846767168466,-0.4049879349423377,0.1111703887581825,0.003730408847332001,0.0009037437848746777,0.00860595703125,-0.04011055827140808,0.0008265972137451172,1,0.8210889101028442,0.1524385660886765,0.4455093443393707,-0.3226406276226044,-0.8299713134765625,0.394007682800293,0.39484903216362,0,0,0,-1,63055.65405375,3,2,1561240595.316969,1561239991.781823,76,3.632473,0,0,66.78877,0,0,1561240563.880506,63055.788791,0,-0.9882812,74.42448,2650659446,177292352,1,1,0.32,-21.01309,-32.24623,2
1561240598.157525,112,0,0,1561240593.699841,4.603046578328162,-74.06480771600017,2651.397,-1,-1,10,65,-9999,1561240598.148097,-4.420063018798828,6.350220680236816,24.173095703125,84.70299530029297,92.24668121337891,15,63058.50517412501,-0.864898681640625,0.3786468505859375,0.4148406982421875,63058.494035125,0.05067276500926469,-0.01315388525611937,-0.03315289346206941,63058.47996612501,34.43492126464844,6.7091064453125,-508.8512268066406,63058.499101125,-2.514958586314356,-2.014458545236959,-0.4051287410433513,0.02484135702252388,-0.03783993795514107,-0.05190328136086464,-0.0225713849067688,-0.02812451124191284,0.02012407779693604,1,0.8208820223808289,0.1529843211174011,0.4453890919685364,-0.3230745494365692,-0.8300744891166687,0.3941370844841003,0.3945029973983765,0,0,0,-1,63055.65405375,3,2,1561240595.316969,1561239991.781823,76,3.632473,0,0,66.78877,0,0,1561240563.880506,63055.788791,0,-0.9882812,74.42448,2650659446,177292352,1,1,0.32,-21.57037,-33.07718,2
1561240598.17444,113,0,0,1561240593.699841,4.603046578328162,-74.06480771600017,2651.397,-1,-1,10,65,-9999,1561240598.148097,-4.420063018798828,6.350220680236816,24.173095703125,84.70299530029297,92.24668121337891,15,63058.525437125,-0.8739776611328125,0.3852081298828125,0.407196044921875,63058.514298125,-0.006960171508922089,-0.08021494466540467,-0.1028624665754385,63058.500108125,34.33189392089844,6.663223266601562,-508.550048828125,63058.519364125,-2.514117029264804,-2.015543273415533,-0.4034855015389559,-0.008742702193558216,-0.09659060835838318,-0.1297509372234344,-0.04252743721008301,-0.009157657623291016,0.01725208759307861,1,0.8210590481758118,0.1539566963911057,0.4451016485691071,-0.3225584626197815,-0.8302295207977295,0.3926263153553009,0.3956812620162964,0,0,0,-1,63055.65405375,3,2,1561240595.316969,1561239991.781823,76,3.632473,0,0,66.78877,0,0,1561240563.880506,63055.788791,0,-0.9882812,74.42448,2650659446,177292352,1,1,0.32,-22.12765,-33.8317,2
1561240598.194781,114,0,0,1561240593.699841,4.603046578328162,-74.06480771600017,2651.397,-1,-1,10,65,-9999,1561240598.174858,-4.582714080810547,6.375000953674316,24.07009887695312,84.63428497314453,92.17797088623047,15,63058.545701125,-0.848419189453125,0.3846588134765625,0.3974609375,63058.534562125,0.04084463532243627,-0.1100396857132021,-0.1859996979049871,63058.52021912501,34.43087768554688,6.9420166015625,-508.92626953125,63058.53962812501,-2.512083366933546,-2.01695843414733,-0.4004999055407776,0.05941718071699142,-0.1207337528467178,-0.1977318525314331,-0.0326806902885437,-0.003938198089599609,0.004419326782226562,1,0.8212149143218994,0.1558396369218826,0.4447267055511475,-0.3217737674713135,-0.8307226300239563,0.3898787498474121,0.3973598480224609,0,0,0,-1,63055.65405375,3,2,1561240595.316969,1561239991.781823,76,3.632473,0,0,66.78877,0,0,1561240563.880506,63055.788791,0,-0.9882812,74.42448,2650659446,177292352,1,1,0.32,-22.68493,-34.68555,2
1561240598.215135,115,0,0,1561240593.699841,4.603046578328162,-74.06480771600017,2651.397,-1,-1,10,65,-9999,1561240598.201292,-4.568367004394531,6.516199588775635,24.171875,84.43599700927734,91.97968292236328,15,63058.565965125,-0.822174072265625,0.384124755859375,0.403076171875,63058.554826125,0.09977106918207453,-0.1208617071188481,-0.1826547675758476,63058.54036012501,34.33267211914062,6.8203125,-508.9120483398438,63058.55989212501,-2.508571368757837,-2.018139306483877,-0.3976706636063699,0.09172957390546799,-0.1225865185260773,-0.1680703610181808,-0.0001464486122131348,-0.003253906965255737,-0.001400947570800781,1,0.8211977481842041,0.1582475751638412,0.444183349609375,-0.3213925659656525,-0.8312439322471619,0.3872718214988708,0.3988160789012909,0,0,0,-1,63055.65405375,3,2,1561240595.316969,1561239991.781823,76,3.632473,0,0,66.78877,0,0,1561240563.880506,63055.788791,0,-0.9882812,74.42448,2650659446,177292352,1,1,0.32,-23.24221,-35.59411,2
1561240598.243065,116,0,0,1561240593.699841,4.603046578328162,-74.06480771600017,2651.397,-1,-1,10,65,-9999,1561240598.231469,-4.525516510009766,6.408149719238281,23.98370361328125,84.21672058105469,91.76040649414062,15,63058.586228125,-0.8182220458984375,0.3845672607421875,0.415252685546875,63058.57508912501,0.02427977334214341,-0.08283309833306157,-0.1202411905848596,63058.56047112501,34.22122192382812,7.076995849609375,-508.7864074707031,63058.580155125,-2.506337794283958,-2.019319712741588,-0.3954796747364119,-0.01314224489033222,-0.07986275851726532,-0.1161925196647644,0.01157361268997192,0.0002471506595611572,0.01188433170318604,1,0.821277379989624,0.1599545478820801,0.4437325894832611,-0.3209664523601532,-0.8315351605415344,0.3852508962154388,0.4001639783382416,0,0,0,-1,63055.65405375,3,2,1561240595.316969,1561239991.781823,76,3.632473,0,0,66.78877,0,0,1561240563.880506,63055.788791,0,-0.9882812,74.42448,2650659446,177292352,1,1,0.32,-23.79949,-35.8814,2
1561240598.255204,117,0,0,1561240593.699841,4.603046578328162,-74.06480771600017,2651.397,-1,-1,10,65,-9999,1561240598.231469,-4.525516510009766,6.408149719238281,23.98370361328125,84.21672058105469,91.76040649414062,15,63058.60649212501,-0.829010009765625,0.397918701171875,0.4215087890625,63058.59535312501,-0.0744318903582976,-0.07277726837303138,-0.1128759522741365,63058.58061312501,34.33280944824219,6.665283203125,-508.8693237304688,63058.600419125,-2.50640734079777,-2.020930793058793,-0.3928200228980691,-0.08010636270046234,-0.08047981560230255,-0.1129770204424858,0.01039785146713257,0.002397716045379639,0.0124659538269043,1,0.8216332197189331,0.1609117537736893,0.4435584247112274,-0.3198158740997314,-0.8318089246749878,0.3827951550483704,0.4019474685192108,0,0,0,-1,63055.65405375,3,2,1561240595.316969,1561239991.781823,76,3.632473,0,0,66.78877,0,0,1561240563.880506,63055.788791,0,-0.9882812,74.42448,2650659446,177292352,1,1,0.32,-23.79949,-35.8814,2
1561240598.275395,118,0,0,1561240593.699841,4.603046578328162,-74.06480771600017,2651.397,-1,-1,10,65,-9999,1561240598.231469,-4.525516510009766,6.408149719238281,23.98370361328125,84.21672058105469,91.76040649414062,15,63058.62675612501,-0.83544921875,0.399749755859375,0.4168548583984375,63058.615617125,-0.03535745821243701,-0.1036273264405093,-0.105835885932512,63058.600724125,34.35791015625,6.724273681640625,-508.856689453125,63058.620683125,-2.50641779786636,-2.022873574094327,-0.390300202375492,-0.02326625026762486,-0.1200027167797089,-0.1096800267696381,-0.001894295215606689,0.0196956992149353,0.01921963691711426,1,0.8220571279525757,0.1619059592485428,0.4432125091552734,-0.3187026381492615,-0.8318917155265808,0.3804660439491272,0.403982937335968,0,0,0,-1,63055.65405375,3,2,1561240595.316969,1561239991.781823,76,3.632473,0,0,66.78877,0,0,1561240563.880506,63055.788791,0,-0.9882812,74.42448,2650659446,177292352,1,1,0.32,-24.35677,-35.00559,2
1561240598.324076,119,0,0,1561240593.699841,4.603046578328162,-74.06480771600017,2651.397,-1,-1,10,65,-9999,1561240598.301581,-4.309280395507812,6.306853771209717,24.24179077148438,84.08240509033203,91.62609100341797,15,63058.647019125,-0.8502349853515625,0.38946533203125,0.415618896484375,63058.635880125,0.01630200798070204,-0.07404466673580008,-0.125966720612421,63058.62086612501,34.522705078125,6.843963623046875,-508.9571533203125,63058.640946125,-2.505215473250819,-2.024333719210338,-0.3881068751355118,0.01495437137782574,-0.043266661465168,-0.1401505768299103,-0.009305596351623535,0.01751357316970825,0.01016402244567871,1,0.8222752213478088,0.1632307916879654,0.4428126811981201,-0.3180188834667206,-0.8320487141609192,0.3784367740154266,0.4055616557598114,0,0,0,-1,63055.65405375,3,2,1561240595.316969,1561239991.781823,76,3.632473,0,0,66.78877,0,0,1561240563.880506,63055.788791,0,-0.9882812,74.42448,2650659446,177292352,1,1,0.32,-25.47132,-36.51793,2
1561240598.328042,120,0,0,1561240593.699841,4.603046578328162,-74.06480771600017,2651.397,-1,-1,10,65,-9999,1561240598.301581,-4.309280395507812,6.306853771209717,24.24179077148438,84.08240509033203,91.62609100341797,15,63058.66730341667,-0.835784912109375,0.3804168701171875,0.4163970947265625,63058.65616441667,-0.0004261057744126781,0.06173633512578087,-0.1696111371888575,63058.64100712501,34.65859985351562,6.613861083984375,-509.0431213378906,63058.66119941667,-2.503616035823632,-2.02325398669874,-0.385220123041869,-0.007735494524240494,0.05972496792674065,-0.1761618405580521,-0.01383984088897705,0.005019932985305786,0.01166999340057373,1,0.8218929767608643,0.1645037233829498,0.4435183703899384,-0.3173673450946808,-0.8334655165672302,0.3757631480693817,0.4051390886306763,0,0,0,-1,63055.65405375,3,2,1561240595.316969,1561239991.781823,76,3.632473,0,0,66.78877,0,0,1561240563.880506,63055.788791,0,-0.9882812,74.42448,2650659446,177292352,1,1,0.32,-26.0286,-37.17905,2
1561240598.336112,121,0,0,1561240593.699841,4.603046578328162,-74.06480771600017,2651.397,-1,-1,10,65,-9999,1561240598.328695,-4.185958862304688,6.353877067565918,24.07769775390625,83.96759033203125,91.51127624511719,15,63058.68756741667,-0.829559326171875,0.4040985107421875,0.4011993408203125,63058.67642841667,-0.007219563399095807,-0.01012400688393622,-0.1885424841137948,63058.66113841667,34.74496459960938,6.851715087890625,-509.0294189453125,63058.68146341667,-2.502041954421755,-2.02237449378083,-0.3818150127199573,0.008465046063065529,-0.03713952749967575,-0.1918728947639465,0.007422566413879395,0.02209371328353882,0.002981901168823242,1,0.8215503692626953,0.1659394800662994,0.4442384839057922,-0.3164984285831451,-0.8349677324295044,0.3726053833961487,0.4049618542194366,0,0,0,-1,63055.65405375,3,2,1561240595.316969,1561239991.781823,76,3.632473,0,0,66.78877,0,0,1561240563.880506,63055.788791,0,-0.9882812,74.42448,2650659446,177292352,1,1,0.32,-26.0286,-37.17905,2
1561240598.356445,122,0,0,1561240593.699841,4.603046578328162,-74.06480771600017,2651.397,-1,-1,10,65,-9999,1561240598.351076,-4.363559722900391,6.286500453948975,24.09841918945312,83.78298950195312,91.32667541503906,15,63058.70783041667,-0.861907958984375,0.4030914306640625,0.411041259765625,63058.69669141667,0.08671305772519801,-0.0588132495133099,-0.1537442897302744,63058.68128041667,34.50442504882812,6.71466064453125,-508.6563110351562,63058.70172741667,-2.499302321637853,-2.022556447520691,-0.3792585805488283,0.0986814945936203,-0.06461961567401886,-0.1457176506519318,-0.01415109634399414,0.03206616640090942,0.00867164134979248,1,0.8213467597961426,0.1677903234958649,0.4441872537136078,-0.3161225616931915,-0.8357481360435486,0.3702318370342255,0.40552818775177,0,0,0,-1,63055.65405375,3,2,1561240595.316969,1561239991.781823,76,3.632473,0,0,66.78877,0,0,1561240563.880506,63055.788791,0,-0.9882812,74.42448,2650659446,177292352,1,1,0.32,-26.58588,-37.95581,2
