loggingTime,loggingSample,identifierForVendor,deviceID,locationTimestamp_since1970,locationLatitude,locationLongitude,locationAltitude,locationSpeed,locationCourse,locationVerticalAccuracy,locationHorizontalAccuracy,locationFloor,locationHeadingTimestamp_since1970,locationHeadingX,locationHeadingY,locationHeadingZ,locationTrueHeading,locationMagneticHeading,locationHeadingAccuracy,accelerometerTimestamp_sinceReboot,accelerometerAccelerationX,accelerometerAccelerationY,accelerometerAccelerationZ,gyroTimestamp_sinceReboot,gyroRotationX,gyroRotationY,gyroRotationZ,magnetometerTimestamp_sinceReboot,magnetometerX,magnetometerY,magnetometerZ,motionTimestamp_sinceReboot,motionYaw,motionRoll,motionPitch,motionRotationRateX,motionRotationRateY,motionRotationRateZ,motionUserAccelerationX,motionUserAccelerationY,motionUserAccelerationZ,motionAttitudeReferenceFrame,motionQuaternionX,motionQuaternionY,motionQuaternionZ,motionQuaternionW,motionGravityX,motionGravityY,motionGravityZ,motionMagneticFieldX,motionMagneticFieldY,motionMagneticFieldZ,motionMagneticFieldCalibrationAccuracy,activityTimestamp_sinceReboot,activity,activityActivityConfidence,activityActivityStartDate,pedometerStartDate,pedometerNumberofSteps,pedometerAverageActivePace,pedometerCurrentPace,pedometerCurrentCadence,pedometerDistance,pedometerFloorAscended,pedometerFloorDescended,pedometerEndDate,altimeterTimestamp_sinceReboot,altimeterReset,altimeterRelativeAltitude,altimeterPressure,IP_en0,IP_pdp_ip0,deviceOrientation,batteryState,batteryLevel,avAudioRecorderPeakPower,avAudioRecorderAveragePower,label
1561240619.366697,1,0,0,1561240613.297598,4.603007172484364,-74.06482811071373,2651.431,-1,-1,10,65,-9999,1561240619.35378,-5.003135681152344,11.6751708984375,22.33352661132812,160.7760772705078,168.3197631835938,15,63079.69874879167,-0.658111572265625,0.7093505859375,0.2097930908203125,63079.68761079167,0.137293677360746,0.0274321571244702,-0.01971032154378545,63079.67985879167,33.75357055664062,12.39645385742188,-510.8219909667969,63079.69267579167,-2.514119002154743,-1.848625389515707,-0.8224836151832216,0.128186360001564,0.008535236120223999,-0.0207309927791357,-0.0048675537109375,-0.01919960975646973,0.02125716209411621,1,0.7702571749687195,-0.003246857319027185,0.4267338216304779,-0.4739111065864563,-0.6543121337890625,0.732837975025177,0.1866133213043213,0,0,0,-1,63079.643646875,1,2,1561240619.306562,1561239991.781823,76,3.632473,0,0,66.78877,0,0,1561240563.880506,63076.65822,0,-0.1586914,74.41672,2650659446,177292352,1,1,0.32,-39.38862,-45.02886,3
1561240619.368601,2,0,0,1561240613.297598,4.603007172484364,-74.06482811071373,2651.431,-1,-1,10,65,-9999,1561240619.35378,-5.003135681152344,11.6751708984375,22.33352661132812,160.7760772705078,168.3197631835938,15,63079.71901279167,-0.6584320068359375,0.696746826171875,0.2060699462890625,63079.70787379167,0.1283036444689655,-0.009877398166994886,-0.02518498179666134,63079.70000079167,33.78280639648438,12.33291625976562,-510.8384399414062,63079.71293979167,-2.510336313311007,-1.84603824738709,-0.8225718599588987,0.1253349035978317,-0.02331590466201305,-0.03654058277606964,-0.003777861595153809,-0.03181761503219604,0.02203738689422607,1,0.7697046399116516,-0.002431692555546761,0.4268125891685486,-0.4747419953346252,-0.6547303795814514,0.7328979969024658,0.1849022954702377,0,0,0,-1,63079.643646875,1,2,1561240619.306562,1561239991.781823,76,3.632473,0,0,66.78877,0,0,1561240563.880506,63076.65822,0,-0.1586914,74.41672,2650659446,177292352,1,1,0.32,-39.38862,-45.02886,3
1561240619.388059,3,0,0,1561240613.297598,4.603007172484364,-74.06482811071373,2651.431,-1,-1,10,65,-9999,1561240619.35378,-5.003135681152344,11.6751708984375,22.33352661132812,160.7760772705078,168.3197631835938,15,63079.73927679167,-0.6606903076171875,0.707122802734375,0.202911376953125,63079.72813779167,0.1255214400781597,-0.03244715577319841,-0.05565474046047592,63079.72011179167,33.61393737792969,12.55586242675781,-511.0700378417969,63079.73320379167,-2.506427212050888,-1.843856885096573,-0.8221576487131583,0.1193824857473373,-0.04134790226817131,-0.06128028407692909,-0.003831863403320312,-0.0339314341545105,0.02072930335998535,1,0.7692697644233704,-0.001316450885497034,0.4268177151679993,-0.4754459261894226,-0.6554241180419922,0.732616126537323,0.1835554093122482,0,0,0,-1,63079.643646875,1,2,1561240619.306562,1561239991.781823,76,3.632473,0,0,66.78877,0,0,1561240563.880506,63076.65822,0,-0.1586914,74.41672,2650659446,177292352,1,1,0.32,-39.38862,-45.02886,3
1561240619.407808,4,0,0,1561240613.297598,4.603007172484364,-74.06482811071373,2651.431,-1,-1,10,65,-9999,1561240619.39775,-5.337944030761719,11.81961727142334,22.11508178710938,160.4735412597656,168.0172271728516,15,63079.75953979167,-0.6613922119140625,0.7223052978515625,0.1969757080078125,63079.74840179167,0.1124261443660221,-0.04629506080939243,-0.05049593111288343,63079.74025279167,33.88688659667969,12.51358032226562,-511.0559692382812,63079.75346679167,-2.502797150593713,-1.842185904726152,-0.8216148166857218,0.1089812442660332,-0.05851783230900764,-0.04584699869155884,-0.003661751747131348,-0.01694506406784058,0.01779663562774658,1,0.7689494490623474,-0.000148043327499181,0.4267211556434631,-0.4760522246360779,-0.6561130285263062,0.7322465181350708,0.1825665533542633,0,0,0,-1,63079.643646875,1,2,1561240619.306562,1561239991.781823,76,3.632473,0,0,66.78877,0,0,1561240563.880506,63076.65822,0,-0.1586914,74.41672,2650659446,177292352,1,1,0.32,-39.38862,-45.51829,3
1561240619.428299,5,0,0,1561240613.297598,4.603007172484364,-74.06482811071373,2651.431,-1,-1,10,65,-9999,1561240619.42221,-5.029281616210938,12.20096874237061,22.293701171875,160.2784881591797,167.8221740722656,15,63079.77980379167,-0.66436767578125,0.7292938232421875,0.194610595703125,63079.76866479167,0.1364920658726321,-0.0736619704871557,-0.02997467701716885,63079.76039479167,33.78564453125,12.52076721191406,-510.7532348632812,63079.77373079167,-2.499024244296707,-1.840944752610804,-0.8215250473693155,0.1466922909021378,-0.08785153180360794,-0.03758988156914711,-0.007537901401519775,-0.006370604038238525,0.01282572746276855,1,0.7686896324157715,0.001034779008477926,0.4263201355934143,-0.4768294394016266,-0.656402587890625,0.732185423374176,0.1817696392536163,0,0,0,-1,63079.643646875,1,2,1561240619.306562,1561239991.781823,76,3.632473,0,0,66.78877,0,0,1561240563.880506,63076.65822,0,-0.1586914,74.41672,2650659446,177292352,1,1,0.32,-39.38862,-46.45262,3
1561240619.449002,6,0,0,1561240613.297598,4.603007172484364,-74.06482811071373,2651.431,-1,-1,10,65,-9999,1561240619.42221,-5.029281616210938,12.20096874237061,22.293701171875,160.2784881591797,167.8221740722656,15,63079.80006779167,-0.6617431640625,0.72686767578125,0.1940155029296875,63079.78892879167,0.1857895744949799,-0.1058832901999154,-0.04556056098074859,63079.78053679167,33.70204162597656,12.615234375,-510.6365966796875,63079.79399479167,-2.493812974929868,-1.839276485740936,-0.821506027358191,0.1897753179073334,-0.1096375212073326,-0.05037625133991241,-0.007023513317108154,-0.00290912389755249,0.01239144802093506,1,0.7683306932449341,0.002645055297762156,0.4257217943668365,-0.4779351949691772,-0.6567185521125793,0.732172429561615,0.1806780993938446,0,0,0,-1,63079.643646875,1,2,1561240619.306562,1561239991.781823,76,3.632473,0,0,66.78877,0,0,1561240563.880506,63076.65822,0,-0.1586914,74.41672,2650659446,177292352,1,1,0.32,-39.38862,-46.73427,3
1561240619.468649,7,0,0,1561240613.297598,4.603007172484364,-74.06482811071373,2651.431,-1,-1,10,65,-9999,1561240619.449012,-5.0947265625,12.31011009216309,22.09124755859375,159.9902191162109,167.5339050292969,15,63079.82033079167,-0.6554107666015625,0.721893310546875,0.196868896484375,63079.80919279167,0.1936762597471405,-0.09618086171653871,-0.05156226081335116,63079.80064779167,33.79585266113281,12.75642395019531,-511.042236328125,63079.81425779167,-2.487969113839694,-1.837185368896384,-0.8214048778714795,0.1859446167945862,-0.09839152544736862,-0.0566253587603569,-0.0009607076644897461,-0.009981334209442139,0.01580548286437988,1,0.7678817510604858,0.004420790355652571,0.4251498878002167,-0.4791509509086609,-0.6571661233901978,0.7321035265922546,0.1793238520622253,0,0,0,-1,63079.643646875,1,2,1561240619.306562,1561239991.781823,76,3.632473,0,0,66.78877,0,0,1561240563.880506,63076.65822,0,-0.1586914,74.41672,2650659446,177292352,1,1,0.32,-39.38862,-46.83902,3
1561240619.489029,8,0,0,1561240613.297598,4.603007172484364,-74.06482811071373,2651.431,-1,-1,10,65,-9999,1561240619.472924,-5.178558349609375,12.32131385803223,21.97671508789062,159.694091796875,167.2377777099609,15,63079.84059479167,-0.652923583984375,0.722900390625,0.198150634765625,63079.82945579167,0.177457875024667,-0.09575049488438191,-0.0584973986080265,63079.82078879167,33.60047912597656,12.57731628417969,-511.16748046875,63079.83452179167,-2.482498380823067,-1.835273584858788,-0.8211394047775056,0.1701680570840836,-0.1058915182948112,-0.06395597755908966,0.002284348011016846,-0.008396685123443604,0.01827788352966309,1,0.7674771547317505,0.006145628169178963,0.4246330857276917,-0.4802370667457581,-0.6576951146125793,0.7319226861000061,0.1781179010868073,0,0,0,-1,63079.643646875,1,2,1561240619.306562,1561239991.781823,76,3.632473,0,0,66.78877,0,0,1561240563.880506,63076.65822,0,-0.1586914,74.41672,2650659446,177292352,1,1,0.32,-39.38862,-44.97421,3
1561240619.516154,9,0,0,1561240613.297598,4.603007172484364,-74.06482811071373,2651.431,-1,-1,10,65,-9999,1561240619.499298,-5.030429840087891,12.28507709503174,22.01907348632812,159.4120025634766,166.9556884765625,15,63079.86085879167,-0.648834228515625,0.7353668212890625,0.1999359130859375,63079.84971979167,0.1584841838383975,-0.1159228748772961,-0.05813387711923068,63079.84093079167,33.78518676757812,12.88539123535156,-511.1392822265625,63079.85475479167,-2.477490258373195,-1.833968324930397,-0.8207315079128094,0.1514239311218262,-0.1283222585916519,-0.05796892568469048,0.00716853141784668,-0.003510534763336182,0.0223853588104248,1,0.7672068476676941,0.007881892845034599,0.4240251779556274,-0.4811798334121704,-0.6582152843475342,0.7316446900367737,0.1773369461297989,0,0,0,-1,63079.643646875,1,2,1561240619.306562,1561239991.781823,76,3.632473,0,0,66.78877,0,0,1561240563.880506,63076.65822,0,-0.1586914,74.41672,2650659446,177292352,1,1,0.32,-39.38862,-39.78904,3
1561240619.529558,10,0,0,1561240613.297598,4.603007172484364,-74.06482811071373,2651.431,-1,-1,10,65,-9999,1561240619.524253,-4.984813690185547,12.37482166290283,22.04574584960938,159.1058807373047,166.6495666503906,15,63079.88112279167,-0.64886474609375,0.74127197265625,0.2004852294921875,63079.86998379167,0.1510939118134276,-0.1547206045858975,-0.04113092513961979,63079.86104179167,33.94902038574219,12.76266479492188,-510.7584838867188,63079.87501879167,-2.472876779361297,-1.833654760728273,-0.8205468668801255,0.1474337130784988,-0.1662920117378235,-0.0424051433801651,0.008727967739105225,0.009341180324554443,0.02370107173919678,1,0.7671310305595398,0.009634289890527725,0.4230776429176331,-0.4821020662784576,-0.6584013700485229,0.7315188050270081,0.1771656721830368,0,0,0,-1,63079.643646875,1,2,1561240619.306562,1561239991.781823,76,3.632473,0,0,66.78877,0,0,1561240563.880506,63076.65822,0,-0.1586914,74.41672,2650659446,177292352,1,1,0.32,-39.38862,-40.74416,3
1561240619.549861,11,0,0,1561240613.297598,4.603007172484364,-74.06482811071373,2651.431,-1,-1,10,65,-9999,1561240619.524253,-4.984813690185547,12.37482166290283,22.04574584960938,159.1058807373047,166.6495666503906,15,63079.90135579167,-0.6533355712890625,0.732879638671875,0.2001190185546875,63079.89024679167,0.152216966845114,-0.1593699512169578,-0.02854402687957828,63079.88118379167,33.73284912109375,12.81626892089844,-511.0825805664062,63079.89528279167,-2.468417240481788,-1.833807593460469,-0.8206149753061154,0.1438845247030258,-0.1622152477502823,-0.03299140185117722,0.007203102111816406,0.004854440689086914,0.02278947830200195,1,0.7671359777450562,0.01136019639670849,0.4219269752502441,-0.4830640256404877,-0.6583261489868164,0.7315652370452881,0.177253320813179,0,0,0,-1,63079.643646875,1,2,1561240619.306562,1561239991.781823,76,3.632473,0,0,66.78877,0,0,1561240563.880506,63076.65822,0,-0.1586914,74.41672,2650659446,177292352,1,1,0.32,-39.38862,-40.74416,3
1561240619.569963,12,0,0,1561240613.297598,4.603007172484364,-74.06482811071373,2651.431,-1,-1,10,65,-9999,1561240619.54988,-4.896049499511719,12.37107372283936,22.02606201171875,158.7803649902344,166.3240509033203,15,63079.92161879167,-0.6522979736328125,0.729156494140625,0.1999664306640625,63079.91047979167,0.137663590436158,-0.1395901211687213,-0.04679546877821832,63079.90132479167,34.12541198730469,12.97129821777344,-510.9153137207031,63079.91554579167,-2.464155731658765,-1.833771894028942,-0.8204581725244252,0.1275199204683304,-0.1367285251617432,-0.05726824700832367,0.00515371561050415,-0.001599967479705811,0.02356123924255371,1,0.7671114206314087,0.01303566806018353,0.4209474623203278,-0.483914703130722,-0.6584435105323792,0.731458306312561,0.1772597134113312,0,0,0,-1,63079.643646875,1,2,1561240619.306562,1561239991.781823,76,3.632473,0,0,66.78877,0,0,1561240563.880506,63076.65822,0,-0.1586914,74.41672,2650659446,177292352,1,1,0.32,-39.38862,-40.87123,3
1561240619.603727,13,0,0,1561240613.297598,4.603007172484364,-74.06482811071373,2651.431,-1,-1,10,65,-9999,1561240619.600836,-4.764667510986328,12.71298313140869,21.94735717773438,158.2876434326172,165.8313293457031,15,63079.94188279167,-0.645233154296875,0.7286834716796875,0.197479248046875,63079.93074379167,0.1050092407301514,-0.1048137647061396,-0.0630753725218727,63079.92146679167,33.90017700195312,13.05735778808594,-510.9561157226562,63079.93580979167,-2.460555482825848,-1.833579436724042,-0.8197805417380272,0.09374625235795975,-0.1076100543141365,-0.0649661123752594,0.01022851467132568,-0.002617835998535156,0.0218045711517334,1,0.7670841813087463,0.01458384748548269,0.4203092157840729,-0.4844680428504944,-0.6589559316635132,0.7309960722923279,0.1772616654634476,0,0,0,-1,63079.643646875,1,2,1561240619.306562,1561239991.781823,76,3.632473,0,0,66.78877,0,0,1561240563.880506,63076.65822,0,-0.1586914,74.41672,2650659446,177292352,1,1,0.32,-32.83889,-38.73081,3
1561240619.610506,14,0,0,1561240613.297598,4.603007172484364,-74.06482811071373,2651.431,-1,-1,10,65,-9999,1561240619.600836,-4.764667510986328,12.71298313140869,21.94735717773438,158.2876434326172,165.8313293457031,15,63079.96214679167,-0.639739990234375,0.7367706298828125,0.1913299560546875,63079.95100779167,0.08087061492578218,-0.1101326300352458,-0.04937314239730602,63079.94157779167,34.19131469726562,12.885009765625,-511.0664672851562,63079.95607379167,-2.457810228918948,-1.833915787464249,-0.8191308852048923,0.0768255889415741,-0.1237232461571693,-0.04515006393194199,0.01711225509643555,0.00345611572265625,0.01657652854919434,1,0.7671700119972229,0.01592349261045456,0.4196682572364807,-0.4848454594612122,-0.6593546867370605,0.730552613735199,0.1776067763566971,0,0,0,-1,63079.643646875,1,2,1561240619.306562,1561239991.781823,76,3.632473,0,0,66.78877,0,0,1561240563.880506,63076.65822,0,-0.1586914,74.41672,2650659446,177292352,1,1,0.32,-32.83889,-38.73081,3
1561240619.630753,15,0,0,1561240613.297598,4.603007172484364,-74.06482811071373,2651.431,-1,-1,10,65,-9999,1561240619.625034,-4.740009307861328,12.8712215423584,21.85769653320312,158.0635070800781,165.6071929931641,15,63079.98240979167,-0.6409149169921875,0.737335205078125,0.18341064453125,63079.97127079167,0.0946279724849135,-0.1294706416586382,-0.01763571905461372,63079.96171879167,34.21621704101562,13.05621337890625,-511.1133422851562,63079.97633679167,-2.455233519584141,-1.834737078391986,-0.8190466105365038,0.09740223735570908,-0.136179119348526,-0.01332715526223183,0.0194060206413269,0.008274435997009277,0.009518742561340332,1,0.7673255205154419,0.01713781617581844,0.4187481701374054,-0.4853532910346985,-0.6592680811882019,0.7304950952529907,0.1781643182039261,0,0,0,-1,63079.643646875,1,2,1561240619.306562,1561239991.781823,76,3.632473,0,0,66.78877,0,0,1561240563.880506,63076.65822,0,-0.1586914,74.41672,2650659446,177292352,1,1,0.32,-27.5458,-31.18515,3
1561240619.651203,16,0,0,1561240613.297598,4.603007172484364,-74.06482811071373,2651.431,-1,-1,10,65,-9999,1561240619.625034,-4.740009307861328,12.8712215423584,21.85769653320312,158.0635070800781,165.6071929931641,15,63080.00267379167,-0.6461029052734375,0.729095458984375,0.1802520751953125,63079.99153479167,0.113970511482159,-0.1145098016029001,-0.001051415998363283,63079.98186079167,34.07064819335938,13.17337036132812,-510.9740600585938,63079.99660079167,-2.452193216228658,-1.835119830530425,-0.8194825297164767,0.1105651780962944,-0.1133198738098145,-0.002876910381019115,0.01561218500137329,0.002270042896270752,0.001415133476257324,1,0.7673547267913818,0.01825955510139465,0.4177596271038055,-0.4861173629760742,-0.6588922142982483,0.7307927012443542,0.1783333718776703,0,0,0,-1,63079.643646875,1,2,1561240619.306562,1561239991.781823,76,3.632473,0,0,66.78877,0,0,1561240563.880506,63076.65822,0,-0.1586914,74.41672,2650659446,177292352,1,1,0.32,-23.697,-23.697,3
1561240619.681804,17,0,0,1561240613.297598,4.603007172484364,-74.06482811071373,2651.431,-1,-1,10,65,-9999,1561240619.676033,-4.413059234619141,12.99117851257324,21.90350341796875,157.6129608154297,165.1566467285156,15,63080.02293779167,-0.6476593017578125,0.7327117919921875,0.177947998046875,63080.01179879167,0.1021580604671126,-0.0928833356548026,-0.002531068300011308,63080.00200279167,34.48959350585938,13.18704223632812,-511.2409362792969,63080.01686479167,-2.449279827479967,-1.835114458186422,-0.8199501153655337,0.09500965476036072,-0.1005612015724182,-0.004950713831931353,0.01061433553695679,-0.001985847949981689,0.000439763069152832,1,0.7673008441925049,0.01922840811312199,0.4169422388076782,-0.4868664443492889,-0.6585636138916016,0.7311118245124817,0.1782406270503998,0,0,0,-1,63079.643646875,1,2,1561240619.306562,1561239991.781823,76,3.632473,0,0,66.78877,0,0,1561240563.880506,63076.65822,0,-0.1586914,74.41672,2650659446,177292352,1,1,0.32,-22.08437,-24.15751,3
1561240619.691986,18,0,0,1561240613.297598,4.603007172484364,-74.06482811071373,2651.431,-1,-1,10,65,-9999,1561240619.676033,-4.413059234619141,12.99117851257324,21.90350341796875,157.6129608154297,165.1566467285156,15,63080.04320079167,-0.6495819091796875,0.73675537109375,0.1755828857421875,63080.03206179167,0.09719712398851295,-0.1107052096696129,0.002469549278830478,63080.02211379167,34.19793701171875,13.41323852539062,-511.1572570800781,63080.03712779167,-2.446636764653503,-1.835448386538093,-0.820411562423038,0.09541312605142593,-0.122934952378273,0.003106413409113884,0.01007622480392456,0.004398047924041748,-0.00178217887878418,1,0.7673193216323853,0.02017794735729694,0.4160604178905487,-0.4875525832176208,-0.6581780314445496,0.7314265370368958,0.1783721745014191,0,0,0,-1,63079.643646875,1,2,1561240619.306562,1561239991.781823,76,3.632473,0,0,66.78877,0,0,1561240563.880506,63076.65822,0,-0.1586914,74.41672,2650659446,177292352,1,1,0.32,-22.08437,-24.796,3
1561240619.711918,19,0,0,1561240613.297598,4.603007172484364,-74.06482811071373,2651.431,-1,-1,10,65,-9999,1561240619.701823,-4.535140991210938,13.08536624908447,21.85235595703125,157.3790740966797,164.9227600097656,15,63080.06346479167,-0.65911865234375,0.733245849609375,0.17535400390625,63080.05232579167,0.1157606883669103,-0.1216755691479763,-0.001911617030458877,63080.04225479167,34.53141784667969,13.43670654296875,-511.1708679199219,63080.05739179167,-2.443634694054164,-1.835844027547184,-0.8209791575741583,0.1173335984349251,-0.1220406591892242,-0.009374490939080715,0.003760993480682373,0.002775132656097412,-0.003108859062194824,1,0.7673398852348328,0.0212470255792141,0.4150411486625671,-0.4883430898189545,-0.6577069163322449,0.7318134903907776,0.1785238683223724,0,0,0,-1,63079.643646875,1,2,1561240619.306562,1561239991.781823,76,3.632473,0,0,66.78877,0,0,1561240563.880506,63077.606969,0,-0.5126953,74.42003,2650659446,177292352,1,1,0.32,-22.08437,-24.796,3
1561240619.731885,20,0,0,1561240613.297598,4.603007172484364,-74.06482811071373,2651.431,-1,-1,10,65,-9999,1561240619.726221,-4.277881622314453,13.00357818603516,21.68963623046875,157.1329193115234,164.6766052246094,15,63080.08372879167,-0.6592254638671875,0.730255126953125,0.179473876953125,63080.07258979167,0.1388010265377308,-0.09086066480688741,-0.02029648329971189,63080.06239679167,34.71722412109375,13.39910888671875,-511.293701171875,63080.07765579167,-2.439801516581787,-1.835200781898105,-0.8213225608551783,0.1386628597974777,-0.09162549674510956,-0.02736920304596424,-0.003279328346252441,-0.0006479024887084961,-0.0007584095001220703,1,0.7671462893486023,0.02245173789560795,0.4142690002918243,-0.4892480075359344,-0.6575787663459778,0.7320474982261658,0.1780350208282471,0,0,0,-1,63079.643646875,1,2,1561240619.306562,1561239991.781823,76,3.632473,0,0,66.78877,0,0,1561240563.880506,63077.606969,0,-0.5126953,74.42003,2650659446,177292352,1,1,0.32,-22.08437,-25.62042,3
1561240619.764613,21,0,0,1561240613.297598,4.603007172484364,-74.06482811071373,2651.431,-1,-1,10,65,-9999,1561240619.752576,-4.427616119384766,13.01185989379883,21.62612915039062,156.9073791503906,164.4510650634766,15,63080.10399179167,-0.6515655517578125,0.728515625,0.18255615234375,63080.09285279167,0.1416580657551678,-0.07607719127974856,-0.02511174486668416,63080.08250779167,34.41091918945312,13.44889831542969,-511.3531188964844,63080.09791879167,-2.435647817889104,-1.833862784572473,-0.8215092515192447,0.134420707821846,-0.0775698646903038,-0.02555772103369236,0.003738522529602051,-0.00384211540222168,0.00273585319519043,1,0.7668116092681885,0.02365798316895962,0.4137203693389893,-0.4901792109012604,-0.6576844453811646,0.7321746349334717,0.1771194934844971,0,0,0,-1,63079.643646875,1,2,1561240619.306562,1561239991.781823,76,3.632473,0,0,66.78877,0,0,1561240563.880506,63077.606969,0,-0.5126953,74.42003,2650659446,177292352,1,1,0.32,-22.08437,-27.03361,3
1561240619.772497,22,0,0,1561240613.297598,4.603007172484364,-74.06482811071373,2651.431,-1,-1,10,65,-9999,1561240619.752576,-4.427616119384766,13.01185989379883,21.62612915039062,156.9073791503906,164.4510650634766,15,63080.12425579167,-0.65118408203125,0.731597900390625,0.1855010986328125,63080.11311679167,0.134706150045625,-0.07716748943002699,-0.01959367508803998,63080.10264979167,34.52816772460938,13.62728881835938,-511.3957214355469,63080.11815279167,-2.431712506835887,-1.832635647886346,-0.821757664372033,0.1306195855140686,-0.08984997123479843,-0.0222141221165657,0.006327986717224121,-0.002699077129364014,0.008305072784423828,1,0.7664973735809326,0.02478683926165104,0.4131657779216766,-0.4910818934440613,-0.6577256917953491,0.7323437929153442,0.176265224814415,0,0,0,-1,63079.643646875,1,2,1561240619.306562,1561239991.781823,76,3.632473,0,0,66.78877,0,0,1561240563.880506,63077.606969,0,-0.5126953,74.42003,2650659446,177292352,1,1,0.32,-22.08437,-27.03361,3
1561240619.792865,23,0,0,1561240613.297598,4.603007172484364,-74.06482811071373,2651.431,-1,-1,10,65,-9999,1561240619.776767,-4.441593170166016,13.06117725372314,21.667236328125,156.6828460693359,164.2265319824219,15,63080.14451979167,-0.648223876953125,0.7292022705078125,0.1867523193359375,63080.13338079167,0.1309673381912627,-0.09439148378011447,-0.01573821677793227,63080.12279079167,34.50645446777344,13.47169494628906,-511.1583251953125,63080.13841579167,-2.427861374917013,-1.831776203187343,-0.8220406134275074,0.1237675398588181,-0.1008594781160355,-0.01663346961140633,0.007957696914672852,-0.0001908540725708008,0.01019036769866943,1,0.7662566304206848,0.02596173994243145,0.4124806523323059,-0.4919721782207489,-0.6576769948005676,0.7325364351272583,0.1756464689970016,0,0,0,-1,63079.643646875,1,2,1561240619.306562,1561239991.781823,76,3.632473,0,0,66.78877,0,0,1561240563.880506,63077.606969,0,-0.5126953,74.42003,2650659446,177292352,1,1,0.32,-22.08437,-27.99455,3
1561240619.815433,24,0,0,1561240613.297598,4.603007172484364,-74.06482811071373,2651.431,-1,-1,10,65,-9999,1561240619.803195,-4.235301971435547,13.17996025085449,21.53536987304688,156.4556579589844,163.9993438720703,15,63080.16475279167,-0.645263671875,0.724822998046875,0.186065673828125,63080.15364379167,0.112018947035349,-0.08427520006333948,-0.01134879466926367,63080.14293279167,34.74348449707031,13.61677551269531,-511.372802734375,63080.15867979167,-2.424484899507026,-1.831221059894826,-0.8223289029290911,0.1067994683980942,-0.08297714591026306,-0.01429654471576214,0.01081103086471558,-0.005758166313171387,0.01160168647766113,1,0.7660828828811646,0.02702710591256618,0.4117924273014069,-0.4927611649036407,-0.6575700640678406,0.7327326536178589,0.1752268970012665,0,0,0,-1,63079.643646875,1,2,1561240619.306562,1561239991.781823,76,3.632473,0,0,66.78877,0,0,1561240563.880506,63077.606969,0,-0.5126953,74.42003,2650659446,177292352,1,1,0.32,-22.08437,-28.71454,3
1561240619.842737,25,0,0,1561240613.297598,4.603007172484364,-74.06482811071373,2651.431,-1,-1,10,65,-9999,1561240619.803195,-4.235301971435547,13.17996025085449,21.53536987304688,156.4556579589844,163.9993438720703,15,63080.18501679167,-0.6448974609375,0.727142333984375,0.187774658203125,63080.17387779167,0.0951182604415971,-0.06175950462726456,-0.01331553913428718,63080.16304379167,34.71533203125,13.66798400878906,-511.4328002929688,63080.17894379167,-2.421576894877513,-1.830562229208078,-0.822528760507524,0.09157764166593552,-0.0632854700088501,-0.01696769520640373,0.0122951865196228,-0.007145404815673828,0.01158428192138672,1,0.7658973336219788,0.02791497111320496,0.4112793505191803,-0.4934279918670654,-0.6575435996055603,0.7328686714172363,0.1747559458017349,0,0,0,-1,63079.643646875,1,2,1561240619.306562,1561239991.781823,76,3.632473,0,0,66.78877,0,0,1561240563.880506,63077.606969,0,-0.5126953,74.42003,2650659446,177292352,1,1,0.32,-22.08437,-29.15081,3
1561240619.853644,26,0,0,1561240613.297598,4.603007172484364,-74.06482811071373,2651.431,-1,-1,10,65,-9999,1561240619.803195,-4.235301971435547,13.17996025085449,21.53536987304688,156.4556579589844,163.9993438720703,15,63080.20527979167,-0.6457977294921875,0.728912353515625,0.1847381591796875,63080.19414079167,0.08660519970104981,-0.05376789082815478,-0.01496563374570028,63080.18318479167,34.75202941894531,13.50396728515625,-511.3370971679688,63080.19920679167,-2.419011861186994,-1.82993381112864,-0.8226201627941632,0.08328615128993988,-0.05973893776535988,-0.02019411511719227,0.01290494203567505,-0.005284965038299561,0.01222836971282959,1,0.7657273411750793,0.02871306426823139,0.4108647704124451,-0.4939912557601929,-0.6575887799263,0.7329308390617371,0.1743256002664566,0,0,0,-1,63079.643646875,1,2,1561240619.306562,1561239991.781823,76,3.632473,0,0,66.78877,0,0,1561240563.880506,63077.606969,0,-0.5126953,74.42003,2650659446,177292352,1,1,0.32,-22.08437,-29.15206,3
1561240619.876506,27,0,0,1561240619.850203,4.603055131891548,-74.0647754759699,2651.421,-1,-1,10,65,-9999,1561240619.856332,-4.116348266601562,13.22456169128418,21.73764038085938,156.2751312255859,163.8188171386719,15,63080.22554379167,-0.6492462158203125,0.732177734375,0.1817169189453125,63080.21440479167,0.07670862677420634,-0.04749854330599924,-0.02587580578342789,63080.20332679167,34.93247985839844,13.62272644042969,-511.1780395507812,63080.21947079167,-2.416613277497776,-1.829322780718009,-0.8225078607519125,0.07193656265735626,-0.04884953796863556,-0.03437890857458115,0.01042079925537109,-0.001500725746154785,0.009893059730529785,1,0.7655724883079529,0.02951601333916187,0.4105333089828491,-0.4944594204425812,-0.6577749848365784,0.732854425907135,0.1739448606967926,0,0,0,-1,63079.643646875,1,2,1561240619.306562,1561239991.781823,76,3.632473,0,0,66.78877,0,0,1561240563.880506,63077.606969,0,-0.5126953,74.42003,2650659446,177292352,1,1,0.32,-22.08437,-27.44107,3
1561240619.894597,28,0,0,1561240619.850203,4.603055131891548,-74.0647754759699,2651.421,-1,-1,10,65,-9999,1561240619.880436,-4.012340545654297,13.26253414154053,21.83834838867188,155.9975891113281,163.5412750244141,15,63080.24580779167,-0.6448516845703125,0.73504638671875,0.1784515380859375,63080.23466879167,0.06569752093116472,-0.027156519951647,-0.03276700142011693,63080.22343779167,34.65754699707031,13.78692626953125,-511.2763366699219,63080.23973479167,-2.414514282957688,-1.828610481647173,-0.822147126747511,0.06265278160572052,-0.03192887827754021,-0.03507079929113388,0.01116645336151123,0.0008047223091125488,0.006433725357055664,1,0.7654125094413757,0.03025784157216549,0.4103744924068451,-0.4947940111160278,-0.658154308795929,0.73260897397995,0.1735436916351318,0,0,0,-1,63079.643646875,1,2,1561240619.306562,1561239991.781823,76,3.632473,0,0,66.78877,0,0,1561240563.880506,63077.606969,0,-0.5126953,74.42003,2650659446,177292352,1,1,0.32,-22.08437,-27.44107,3
1561240619.914592,29,0,0,1561240619.850203,4.603055131891548,-74.0647754759699,2651.421,-1,-1,10,65,-9999,1561240619.904363,-4.177288055419922,13.42375183105469,21.72479248046875,155.8985595703125,163.4422454833984,15,63080.26607079167,-0.6441192626953125,0.7436981201171875,0.1786956787109375,63080.25493179167,0.06614173620098994,-0.03100851615233761,-0.01468759972789601,63080.24357979167,34.84878540039062,13.86172485351562,-511.3372192382812,63080.25999779167,-2.41255168098884,-1.82789541597496,-0.8220078720877784,0.06741584092378616,-0.04538769647479057,-0.01099182851612568,0.01492875814437866,0.00613325834274292,0.00532221794128418,1,0.7652425169944763,0.03087607398629189,0.4101961255073547,-0.4951663315296173,-0.6583766341209412,0.7325141429901123,0.1730988770723343,0,0,0,-1,63079.643646875,1,2,1561240619.306562,1561239991.781823,76,3.632473,0,0,66.78877,0,0,1561240563.880506,63077.606969,0,-0.5126953,74.42003,2650659446,177292352,1,1,0.32,-22.08437,-28.04724,3
1561240619.934472,30,0,0,1561240619.850203,4.603055131891548,-74.0647754759699,2651.421,-1,-1,10,65,-9999,1561240619.92867,-4.110523223876953,13.35337829589844,21.83575439453125,155.7670745849609,163.3107604980469,15,63080.28633479167,-0.650390625,0.742279052734375,0.178955078125,63080.27519579167,0.08392819017330215,-0.05647259723123926,0.01045423885910605,63080.26372079167,34.59944152832031,13.66716003417969,-511.2773132324219,63080.28026179167,-2.4103977365844,-1.827476561990963,-0.8224395540357524,0.0870012640953064,-0.05844171345233917,0.006915266159921885,0.01159799098968506,0.01247709989547729,0.005067825317382812,1,0.7651024460792542,0.03145917505025864,0.4097177386283875,-0.4957419335842133,-0.6581433415412903,0.732807993888855,0.1727428585290909,0,0,0,-1,63079.643646875,1,2,1561240619.306562,1561239991.781823,76,3.632473,0,0,66.78877,0,0,1561240563.880506,63077.606969,0,-0.5126953,74.42003,2650659446,177292352,1,1,0.32,-22.08437,-28.29268,3
1561240619.954927,31,0,0,1561240619.850203,4.603055131891548,-74.0647754759699,2651.421,-1,-1,10,65,-9999,1561240619.92867,-4.110523223876953,13.35337829589844,21.83575439453125,155.7670745849609,163.3107604980469,15,63080.30659879167,-0.6510772705078125,0.7371063232421875,0.180816650390625,63080.29545979167,0.09503197402227853,-0.03954394744604157,0.004474643263551136,63080.28386279167,35.02204895019531,13.6502685546875,-511.5152587890625,63080.30052579167,-2.407840527646643,-1.826641408251306,-0.8229895984994502,0.08955496549606323,-0.03421759977936745,-0.002975980052724481,0.006117761135101318,0.005984127521514893,0.008573055267333984,1,0.7648646831512451,0.03205506876111031,0.4092684984207153,-0.4964410066604614,-0.6578969359397888,0.7331821322441101,0.1720910221338272,0,0,0,-1,63079.643646875,1,2,1561240619.306562,1561239991.781823,76,3.632473,0,0,66.78877,0,0,1561240563.880506,63077.606969,0,-0.5126953,74.42003,2650659446,177292352,1,1,0.32,-22.08437,-26.90857,3
1561240619.982737,32,0,0,1561240619.850203,4.603055131891548,-74.0647754759699,2651.421,-1,-1,10,65,-9999,1561240619.979305,-4.126312255859375,13.32412242889404,21.59283447265625,155.5314483642578,163.0751342773438,15,63080.32686179167,-0.6464385986328125,0.7330474853515625,0.177276611328125,63080.31572279167,0.08510690527177123,-0.002668221096150389,0.004773449937858026,63080.30397379167,34.49830627441406,13.73138427734375,-511.0818481445312,63080.32078879167,-2.405464889971729,-1.825286985556427,-0.8234300701685809,0.08404328674077988,-0.007352960761636496,0.006977051962167025,0.007838189601898193,0.00243455171585083,0.008431673049926758,1,0.7645285129547119,0.03248676285147667,0.4090886414051056,-0.4970785975456238,-0.6578168272972107,0.7334815859794617,0.1711184680461884,0,0,0,-1,63079.643646875,1,2,1561240619.306562,1561239991.781823,76,3.632473,0,0,66.78877,0,0,1561240563.880506,63077.606969,0,-0.5126953,74.42003,2650659446,177292352,1,1,0.32,-22.08437,-27.02215,3
1561240619.995375,33,0,0,1561240619.850203,4.603055131891548,-74.0647754759699,2651.421,-1,-1,10,65,-9999,1561240619.979305,-4.126312255859375,13.32412242889404,21.59283447265625,155.5314483642578,163.0751342773438,15,63080.34712579167,-0.6480865478515625,0.73785400390625,0.176910400390625,63080.33598679167,0.08449357927272598,-0.02367869788411252,0.02917945711567119,63080.32411579167,34.72911071777344,13.65312194824219,-511.6121215820312,63080.34105279167,-2.403306515571344,-1.824135177312328,-0.8242588965687776,0.07938515394926071,-0.04143103584647179,0.0312991701066494,0.01193219423294067,0.001123785972595215,0.007312417030334473,1,0.7642191052436829,0.03276116773486137,0.4087891280651093,-0.4977823197841644,-0.6574248075485229,0.7340446710586548,0.1702082753181458,0,0,0,-1,63079.643646875,1,2,1561240619.306562,1561239991.781823,76,3.632473,0,0,66.78877,0,0,1561240563.880506,63077.606969,0,-0.5126953,74.42003,2650659446,177292352,1,1,0.32,-22.08437,-27.65312,3
1561240620.015548,34,0,0,1561240619.850203,4.603055131891548,-74.0647754759699,2651.421,-1,-1,10,65,-9999,1561240620.006086,-3.924160003662109,13.62537956237793,21.70199584960938,155.4031219482422,162.9468078613281,15,63080.36738979167,-0.654571533203125,0.7332763671875,0.1762237548828125,63080.35625079167,0.07661435087161754,-0.05955387461246094,0.0414574286892635,63080.34425679167,34.68882751464844,14.04815673828125,-511.4584350585938,63080.36131679167,-2.401414186366286,-1.82396084082584,-0.8254006670603407,0.06839349120855331,-0.06672333925962448,0.0357959158718586,0.006480932235717773,0.002088367938995361,0.00778961181640625,1,0.7640992999076843,0.03307687118649483,0.408104419708252,-0.4985066950321198,-0.6566426753997803,0.7348195910453796,0.1698836386203766,0,0,0,-1,63079.643646875,1,2,1561240619.306562,1561239991.781823,76,3.632473,0,0,66.78877,0,0,1561240563.880506,63077.606969,0,-0.5126953,74.42003,2650659446,177292352,1,1,0.32,-22.08437,-27.65312,3
1561240620.035755,35,0,0,1561240619.850203,4.603055131891548,-74.0647754759699,2651.421,-1,-1,10,65,-9999,1561240620.029901,-3.88519287109375,13.36722469329834,21.5662841796875,155.2867889404297,162.8304748535156,15,63080.38765279167,-0.6612701416015625,0.7287750244140625,0.1740875244140625,63080.37651379167,0.06465542599661672,-0.02509736379679773,0.02267788194646074,63080.36436779167,34.98109436035156,13.86634826660156,-511.4780883789062,63080.38154979167,-2.399804315743777,-1.823659961823415,-0.8262563644522656,0.06118990108370781,-0.01462498866021633,0.01315824873745441,-0.003491342067718506,-0.005480289459228516,0.006191492080688477,1,0.7639715671539307,0.0333440974354744,0.4076078236103058,-0.4990907907485962,-0.6560850143432617,0.7353997230529785,0.1695287674665451,0,0,0,-1,63079.643646875,1,2,1561240619.306562,1561239991.781823,76,3.632473,0,0,66.78877,0,0,1561240563.880506,63077.606969,0,-0.5126953,74.42003,2650659446,177292352,1,1,0.32,-22.08437,-28.1903,3
1561240620.060662,36,0,0,1561240619.850203,4.603055131891548,-74.0647754759699,2651.421,-1,-1,10,65,-9999,1561240620.056211,-3.951923370361328,13.50152015686035,21.592041015625,155.2248382568359,162.7685241699219,15,63080.40791679167,-0.6574554443359375,0.735198974609375,0.1722869873046875,63080.39677779167,0.06705679835154117,0.009737848525874735,0.0005552690872815211,63080.38450979167,34.82539367675781,13.91970825195312,-511.5038757324219,63080.40181279167,-2.398072591312138,-1.822434550759054,-0.8266260111770142,0.06502538919448853,0.006370042450726032,-0.003467599395662546,-0.00362396240234375,-0.004754126071929932,0.00337064266204834,1,0.7636758089065552,0.03358157724142075,0.4075524806976318,-0.499572366476059,-0.6560288071632385,0.7356501221656799,0.1686569303274155,0,0,0,-1,63079.643646875,1,2,1561240619.306562,1561239991.781823,76,3.632473,0,0,66.78877,0,0,1561240563.880506,63077.606969,0,-0.5126953,74.42003,2650659446,177292352,1,1,0.32,-22.08437,-23.76824,3
1561240620.076331,37,0,0,1561240619.850203,4.603055131891548,-74.0647754759699,2651.421,-1,-1,10,65,-9999,1561240620.056211,-3.951923370361328,13.50152015686035,21.592041015625,155.2248382568359,162.7685241699219,15,63080.42814979167,-0.654541015625,0.7378387451171875,0.1731719970703125,63080.41704179167,0.07025445587239931,-0.00239737761328933,0.0008974852873567033,63080.40465179167,34.78462219238281,13.86920166015625,-511.4498596191406,63080.42207679167,-2.396152027719726,-1.821085000878429,-0.8269309713218346,0.06597188115119934,-0.01339940167963505,-0.0001583555713295937,0.0005819201469421387,0.002882301807403564,0.004799962043762207,1,0.763354480266571,0.03388015553355217,0.4075126051902771,-0.5000755786895752,-0.6560384035110474,0.7358567118644714,0.1677158623933792,0,0,0,-1,63079.643646875,1,2,1561240619.306562,1561239991.781823,76,3.632473,0,0,66.78877,0,0,1561240563.880506,63077.606969,0,-0.5126953,74.42003,2650659446,177292352,1,1,0.32,-19.99768,-23.25199,3
1561240620.09657,38,0,0,1561240619.850203,4.603055131891548,-74.0647754759699,2651.421,-1,-1,10,65,-9999,1561240620.08059,-3.970726013183594,13.50553131103516,21.47482299804688,155.1480712890625,162.6917572021484,15,63080.44841379167,-0.654541015625,0.7334136962890625,0.1733856201171875,63080.43727479167,0.06923686201988004,-0.02806598946390906,0.01430303926648856,63080.42476279167,34.69876098632812,14.06724548339844,-511.571533203125,63080.44234079167,-2.394328779948105,-1.820283665708459,-0.8274153137500568,0.06543045490980148,-0.03737610951066017,0.01132093369960785,0.001560688018798828,-0.000604093074798584,0.00664985179901123,1,0.7631382346153259,0.03422075882554054,0.4072428047657013,-0.5006018877029419,-0.6558270454406738,0.7361845374107361,0.1671020537614822,0,0,0,-1,63079.643646875,1,2,1561240619.306562,1561239991.781823,76,3.632473,0,0,66.78877,0,0,1561240563.880506,63077.606969,0,-0.5126953,74.42003,2650659446,177292352,1,1,0.32,-19.97632,-23.63414,3
1561240620.116775,39,0,0,1561240619.850203,4.603055131891548,-74.0647754759699,2651.421,-1,-1,10,65,-9999,1561240620.106902,-4.021018981933594,13.59665870666504,21.752685546875,155.0381469726562,162.5818328857422,15,63080.46867679167,-0.6524658203125,0.731781005859375,0.1763153076171875,63080.45753879167,0.07562285599778104,-0.04213040949672652,0.008406534296944124,63080.44490379167,34.9451904296875,14.14132690429688,-511.1729125976562,63080.46260379167,-2.392377113386277,-1.819771009651513,-0.8278880821952566,0.07484260201454163,-0.0461466945707798,0.004583402536809444,0.001644670963287354,-0.003899455070495605,0.008841753005981445,1,0.7629789710044861,0.03468593209981918,0.4068329036235809,-0.5011456608772278,-0.6555753350257874,0.7365044355392456,0.1666800528764725,0,0,0,-1,63079.643646875,1,2,1561240619.306562,1561239991.781823,76,3.632473,0,0,66.78877,0,0,1561240563.880506,63077.606969,0,-0.5126953,74.42003,2650659446,177292352,1,1,0.32,-19.97632,-23.84623,3
1561240620.140844,40,0,0,1561240619.850203,4.603055131891548,-74.0647754759699,2651.421,-1,-1,10,65,-9999,1561240620.131251,-3.857620239257812,13.61638069152832,21.43429565429688,154.924560546875,162.4682464599609,15,63080.48894079167,-0.6526947021484375,0.732696533203125,0.1801300048828125,63080.47780179167,0.07967592086077263,-0.02082645235663766,0.006385993977901005,63080.46504579167,34.97169494628906,13.98220825195312,-511.6503295898438,63080.48286779167,-2.39025475392917,-1.818915465057042,-0.8283275292004795,0.07471716403961182,-0.02193696424365044,0.004173808731138706,0.002449929714202881,-0.006393909454345703,0.01268661022186279,1,0.7627483010292053,0.0351405180990696,0.4065185189247131,-0.5017200112342834,-0.6554040312767029,0.7368016242980957,0.1660396605730057,0,0,0,-1,63079.643646875,1,2,1561240619.306562,1561239991.781823,76,3.632473,0,0,66.78877,0,0,1561240563.880506,63077.606969,0,-0.5126953,74.42003,2650659446,177292352,1,1,0.32,-19.97632,-24.53786,3
1561240620.158342,41,0,0,1561240619.850203,4.603055131891548,-74.0647754759699,2651.421,-1,-1,10,65,-9999,1561240620.131251,-3.857620239257812,13.61638069152832,21.43429565429688,154.924560546875,162.4682464599609,15,63080.50920479167,-0.6502227783203125,0.736175537109375,0.1813812255859375,63080.49806579167,0.08615299494795435,-0.01798326157686906,0.01587963063181547,63080.48515679167,34.89117431640625,13.94914245605469,-511.4456787109375,63080.50313179167,-2.388046597222697,-1.817757443433313,-0.8288925880467055,0.08627874404191971,-0.02979834750294685,0.01373402401804924,0.004984378814697266,-0.002533853054046631,0.01534795761108398,1,0.7624489068984985,0.03551101684570312,0.4062657654285431,-0.5023532509803772,-0.6551918983459473,0.7371835708618164,0.1651787310838699,0,0,0,-1,63079.643646875,1,2,1561240619.306562,1561239991.781823,76,3.632473,0,0,66.78877,0,0,1561240563.880506,63077.606969,0,-0.5126953,74.42003,2650659446,177292352,1,1,0.32,-19.97632,-25.30198,3
1561240620.177639,42,0,0,1561240619.850203,4.603055131891548,-74.0647754759699,2651.421,-1,-1,10,65,-9999,1561240620.157996,-3.864608764648438,13.73848342895508,21.63143920898438,154.8180541992188,162.3617401123047,15,63080.52946779167,-0.6632232666015625,0.73114013671875,0.180938720703125,63080.51832979167,0.1023846954758783,-0.03398033761275703,0.02138784671442636,63080.50529879167,34.90135192871094,14.22578430175781,-511.24853515625,63080.52339479167,-2.385444807099128,-1.816623328620376,-0.8296793599574251,0.1062444671988487,-0.0431695468723774,0.01402990147471428,-0.001678347587585449,-0.002561748027801514,0.01675117015838623,1,0.7621375322341919,0.03596566990017891,0.4058486521244049,-0.503129780292511,-0.6548157930374146,0.737714946269989,0.1642942875623703,0,0,0,-1,63079.643646875,1,2,1561240619.306562,1561239991.781823,76,3.632473,0,0,66.78877,0,0,1561240563.880506,63077.606969,0,-0.5126953,74.42003,2650659446,177292352,1,1,0.32,-19.97632,-25.30198,3
1561240620.197873,43,0,0,1561240619.850203,4.603055131891548,-74.0647754759699,2651.421,-1,-1,10,65,-9999,1561240620.181921,-3.864120483398438,13.85123443603516,21.36788940429688,154.6733856201172,162.2170715332031,15,63080.54973179167,-0.6687469482421875,0.7248077392578125,0.18463134765625,63080.53859279167,0.1130053819031143,-0.0413700770055089,-0.006807306062351541,63080.52543979167,35.02963256835938,14.19654846191406,-511.6773376464844,63080.54365879167,-2.382331228523633,-1.815268013539525,-0.8301656703305337,0.102992482483387,-0.04623564705252647,-0.02170119807124138,-0.01240915060043335,-0.01027518510818481,0.01970922946929932,1,0.7617849707603455,0.03665490448474884,0.4054602682590485,-0.5039265751838684,-0.6546898484230042,0.7380431890487671,0.1633198410272598,0,0,0,-1,63079.643646875,1,2,1561240619.306562,1561239991.781823,76,3.632473,0,0,66.78877,0,0,1561240563.880506,63077.606969,0,-0.5126953,74.42003,2650659446,177292352,1,1,0.32,-19.97632,-26.05922,3
1561240620.219884,44,0,0,1561240619.850203,4.603055131891548,-74.0647754759699,2651.421,-1,-1,10,65,-9999,1561240620.208311,-3.85760498046875,13.87145614624023,21.45254516601562,154.5294189453125,162.0731048583984,15,63080.56999579167,-0.6647796630859375,0.7219390869140625,0.1873931884765625,63080.55885679167,0.08516469586742595,-0.03117789319766665,-0.03022075310189217,63080.54555079167,34.70660400390625,14.098876953125,-511.5215148925781,63080.56392279167,-2.379543666265742,-1.814033532417227,-0.8299928754311008,0.07189954072237015,-0.04151146486401558,-0.03588066622614861,-0.01316767930984497,-0.01464474201202393,0.02448475360870361,1,0.761490523815155,0.03746065497398376,0.4052706956863403,-0.5044645667076111,-0.6550147533416748,0.7379265427589417,0.1625422388315201,0,0,0,-1,63079.643646875,1,2,1561240619.306562,1561239991.781823,76,3.632473,0,0,66.78877,0,0,1561240563.880506,63077.606969,0,-0.5126953,74.42003,2650659446,177292352,1,1,0.32,-19.97632,-26.80513,3
1561240620.238405,45,0,0,1561240619.850203,4.603055131891548,-74.0647754759699,2651.421,-1,-1,10,65,-9999,1561240620.233075,-4.025459289550781,13.69930267333984,21.43319702148438,154.4212036132812,161.9648895263672,15,63080.59025879167,-0.6611480712890625,0.7250518798828125,0.189300537109375,63080.57912079167,0.04675685294241218,-0.05022854973943947,-0.03747547022737702,63080.56569279167,34.7548828125,14.34426879882812,-511.3447875976562,63080.58418579167,-2.377761125352618,-1.813743681287718,-0.8294852854091769,0.03860310092568398,-0.05842573195695877,-0.03858137875795364,-0.008118152618408203,-0.01526337862014771,0.02408099174499512,1,0.7614195942878723,0.0382290706038475,0.4050580561161041,-0.5046848654747009,-0.6554255485534668,0.7375838756561279,0.1624425202608109,0,0,0,-1,63079.643646875,1,2,1561240619.306562,1561239991.781823,76,3.632473,0,0,66.78877,0,0,1561240563.880506,63077.606969,0,-0.5126953,74.42003,2650659446,177292352,1,1,0.32,-19.97632,-27.12997,3
1561240620.258986,46,0,0,1561240619.850203,4.603055131891548,-74.0647754759699,2651.421,-1,-1,10,65,-9999,1561240620.233075,-4.025459289550781,13.69930267333984,21.43319702148438,154.4212036132812,161.9648895263672,15,63080.61052279167,-0.6595306396484375,0.7282867431640625,0.181060791015625,63080.59938379167,0.02863830278216709,-0.07357515143561912,-0.02491839937154441,63080.58583379167,34.90202331542969,14.10896301269531,-511.4569702148438,63080.60444979167,-2.376729773680762,-1.814469009565161,-0.8289982961136743,0.02552458271384239,-0.08163838088512421,-0.02583602070808411,-0.003905177116394043,-0.01046359539031982,0.02209985256195068,1,0.7615669965744019,0.03896098211407661,0.4046431183815002,-0.5047392845153809,-0.6556559801101685,0.7372549772262573,0.1630045026540756,0,0,0,-1,63079.643646875,1,2,1561240619.306562,1561239991.781823,76,3.632473,0,0,66.78877,0,0,1561240563.880506,63077.606969,0,-0.5126953,74.42003,2650659446,177292352,1,1,0.32,-19.97632,-27.77719,3
1561240620.279468,47,0,0,1561240619.850203,4.603055131891548,-74.0647754759699,2651.421,-1,-1,10,65,-9999,1561240620.258961,-4.005809783935547,13.63517761230469,21.3021240234375,154.3125610351562,161.8562469482422,15,63080.63078679167,-0.664276123046875,0.7318878173828125,0.1752777099609375,63080.61964779167,0.03345596119412043,-0.07388620865094037,-0.02717063470542442,63080.60597579167,34.94435119628906,14.15245056152344,-511.4482727050781,63080.62471379167,-2.375776422919989,-1.815423937949429,-0.8285420785248777,0.02914887666702271,-0.07644148170948029,-0.03265930712223053,-0.006115078926086426,-0.006676256656646729,0.0154261589050293,1,0.7617604732513428,0.03971139714121819,0.4041528403759003,-0.5047817826271057,-0.6558265089988708,0.7369466423988342,0.1637120246887207,0,0,0,-1,63079.643646875,1,2,1561240619.306562,1561239991.781823,76,3.632473,0,0,66.78877,0,0,1561240563.880506,63077.606969,0,-0.5126953,74.42003,2650659446,177292352,1,1,0.32,-19.97632,-28.56551,3
1561240620.300949,48,0,0,1561240619.850203,4.603055131891548,-74.0647754759699,2651.421,-1,-1,10,65,-9999,1561240620.283225,-3.868896484375,13.74833583831787,21.4344482421875,154.2011871337891,161.744873046875,15,63080.65104979167,-0.6600189208984375,0.7326202392578125,0.1710357666015625,63080.63991179167,0.03361601717563419,-0.05025464871812225,-0.04830308427131218,63080.62608679167,34.68998718261719,14.40718078613281,-511.4280395507812,63080.64494679167,-2.374635577836065,-1.815892769740986,-0.8277565518410883,0.02950228005647659,-0.04561832547187805,-0.05351372063159943,-0.008224427700042725,-0.003978371620178223,0.008233904838562012,1,0.7618650794029236,0.04051610827445984,0.4038825035095215,-0.5047763586044312,-0.6563110947608948,0.7364154458045959,0.1641599088907242,0,0,0,-1,63079.643646875,1,2,1561240619.306562,1561239991.781823,76,3.632473,0,0,66.78877,0,0,1561240563.880506,63077.606969,0,-0.5126953,74.42003,2650659446,177292352,1,1,0.32,-19.97632,-29.472,3
1561240620.319456,49,0,0,1561240619.850203,4.603055131891548,-74.0647754759699,2651.421,-1,-1,10,65,-9999,1561240620.309689,-3.826221466064453,13.89256477355957,21.41708374023438,154.1241149902344,161.6678009033203,15,63080.67131379167,-0.6502227783203125,0.7296295166015625,0.1689605712890625,63080.66017479167,0.02826972128730012,-0.02628699785573613,-0.05673065754086793,63080.64622879167,35.06596374511719,14.41964721679688,-511.4297485351562,63080.66521079167,-2.37350686527003,-1.815840536311432,-0.8267178516623706,0.02069121226668358,-0.03389189392328262,-0.05750713124871254,0.001253664493560791,-0.004114449024200439,0.005717635154724121,1,0.7618744373321533,0.04126580059528351,0.4038769006729126,-0.5047058463096619,-0.6570611596107483,0.7357123494148254,0.1643110513687134,0,0,0,-1,63079.643646875,1,2,1561240619.306562,1561239991.781823,76,3.632473,0,0,66.78877,0,0,1561240563.880506,63077.606969,0,-0.5126953,74.42003,2650659446,177292352,1,1,0.32,-19.97632,-30.03882,3
1561240620.339737,50,0,0,1561240619.850203,4.603055131891548,-74.0647754759699,2651.421,-1,-1,10,65,-9999,1561240620.333823,-3.856510162353516,13.95748710632324,21.46575927734375,154.0637359619141,161.607421875,15,63080.69158754167,-0.6454315185546875,0.73065185546875,0.167877197265625,63080.68044854167,0.01674835377939932,-0.04147394028802199,-0.03934820510592074,63080.66637954167,34.93161010742188,14.20065307617188,-511.5718383789062,63080.68548354167,-2.372741684665192,-1.816156041434185,-0.8257972452006724,0.01116854790598154,-0.05194413289427757,-0.03558105975389481,0.01173073053359985,-0.007198512554168701,0.003087639808654785,1,0.7619600296020508,0.04193196818232536,0.4037935435771942,-0.5045883059501648,-0.6576658487319946,0.7350885272026062,0.1646827459335327,0,0,0,-1,63079.643646875,1,2,1561240619.306562,1561239991.781823,76,3.632473,0,0,66.78877,0,0,1561240563.880506,63077.606969,0,-0.5126953,74.42003,2650659446,177292352,1,1,0.32,-19.97632,-30.03882,3
1561240620.360108,51,0,0,1561240619.850203,4.603055131891548,-74.0647754759699,2651.421,-1,-1,10,65,-9999,1561240620.333823,-3.856510162353516,13.95748710632324,21.46575927734375,154.0637359619141,161.607421875,15,63080.71182054167,-0.650054931640625,0.735443115234375,0.168487548828125,63080.70068154167,0.01711587000983026,-0.06032885448967399,-0.02491760042321738,63080.68652154167,35.18162536621094,14.09431457519531,-511.5225830078125,63080.70574754167,-2.372188176468188,-1.817024900261816,-0.8252518881864036,0.01778570562601089,-0.06628552079200745,-0.03104915842413902,0.01139628887176514,0.0009227991104125977,0.004249691963195801,1,0.76214599609375,0.04253683611750603,0.4034591019153595,-0.5045243501663208,-0.6579112410545349,0.7347186803817749,0.1653518080711365,0,0,0,-1,63079.643646875,1,2,1561240619.306562,1561239991.781823,76,3.632473,0,0,66.78877,0,0,1561240563.880506,63077.606969,0,-0.5126953,74.42003,2650659446,177292352,1,1,0.32,-19.97632,-27.0604,3
1561240620.385047,52,0,0,1561240619.850203,4.603055131891548,-74.0647754759699,2651.421,-1,-1,10,65,-9999,1561240620.360355,-3.68359375,13.94185829162598,21.51953125,153.9813079833984,161.5249938964844,15,63080.73208454167,-0.65386962890625,0.7394256591796875,0.1636962890625,63080.72094554167,0.03341974220329536,-0.04028164306799352,-0.03386955011140973,63080.70666354167,35.28546142578125,14.40180969238281,-511.576416015625,63080.72601154167,-2.37121419725178,-1.817407264387104,-0.8246791121772128,0.03040216118097305,-0.02972031757235527,-0.03681623563170433,0.003928422927856445,0.00140303373336792,0.0009504556655883789,1,0.7622255682945251,0.04318795725703239,0.4032107591629028,-0.5045472979545593,-0.6582558155059814,0.7343299984931946,0.1657060384750366,0,0,0,-1,63079.643646875,1,2,1561240619.306562,1561239991.781823,76,3.632473,0,0,66.78877,0,0,1561240563.880506,63077.606969,0,-0.5126953,74.42003,2650659446,177292352,1,1,0.32,-18.0416,-21.74409,3
1561240620.401083,53,0,0,1561240619.850203,4.603055131891548,-74.0647754759699,2651.421,-1,-1,10,65,-9999,1561240620.386316,-3.656120300292969,14.05150413513184,21.32455444335938,153.91162109375,161.4553070068359,15,63080.75234754167,-0.6489105224609375,0.7382659912109375,0.1577301025390625,63080.74120854167,0.03866883271184153,0.001591771383540361,-0.02613040398363947,63080.72677454167,35.06791687011719,14.72702026367188,-511.6513061523438,63080.74627454167,-2.370055517456157,-1.816806802194119,-0.8242182747082005,0.04169875755906105,-0.0007872032001614571,-0.02343624643981457,0.006385505199432373,0.005072832107543945,-0.00435185432434082,1,0.7620980143547058,0.04362569749355316,0.4032624959945679,-0.5046610236167908,-0.6586834788322449,0.7340171337127686,0.1653931736946106,0,0,0,-1,63079.643646875,1,2,1561240619.306562,1561239991.781823,76,3.632473,0,0,66.78877,0,0,1561240563.880506,63077.606969,0,-0.5126953,74.42003,2650659446,177292352,1,1,0.32,-14.84976,-18.06498,3
1561240620.42081,54,0,0,1561240619.850203,4.603055131891548,-74.0647754759699,2651.421,-1,-1,10,65,-9999,1561240620.41098,-3.776878356933594,14.20393371582031,21.30917358398438,153.8583068847656,161.4019927978516,15,63080.77261154167,-0.6460113525390625,0.7337188720703125,0.1558380126953125,63080.76147254167,0.0681132743559756,-0.01145505479675783,-0.01732359657485644,63080.74691554167,35.15492248535156,14.53945922851562,-511.8067321777344,63080.76653854167,-2.368303319389244,-1.815739931554591,-0.8241044194633931,0.07230594009160995,-0.02312180399894714,-0.01906733214855194,0.01257818937301636,0.0009540319442749023,-0.009406685829162598,1,0.761849045753479,0.04406043514609337,0.4032551050186157,-0.5050048828125,-0.6589404940605164,0.7339397668838501,0.1647105813026428,0,0,0,-1,63079.643646875,1,2,1561240619.306562,1561239991.781823,76,3.632473,0,0,66.78877,0,0,1561240563.880506,63077.606969,0,-0.5126953,74.42003,2650659446,177292352,1,1,0.32,-12.09712,-18.27957,3
1561240620.442142,55,0,0,1561240619.850203,4.603055131891548,-74.0647754759699,2651.421,-1,-1,10,65,-9999,1561240620.435228,-3.664348602294922,14.05211067199707,21.32452392578125,153.7486572265625,161.2923431396484,15,63080.79287554167,-0.64056396484375,0.7303314208984375,0.1560516357421875,63080.78173654167,0.07609343656239805,-0.04114743673837828,-0.01459412277363423,63080.76705754167,35.11053466796875,14.34486389160156,-511.7652893066406,63080.78680254167,-2.366094687646683,-1.814918200215931,-0.8241140446644034,0.06943386048078537,-0.05011075735092163,-0.01540917158126831,0.01531612873077393,-0.001585483551025391,-0.008924484252929688,1,0.7616340517997742,0.0446910560131073,0.4030078947544098,-0.5054711103439331,-0.6590691208839417,0.7339463233947754,0.1641674339771271,0,0,0,-1,63079.643646875,1,2,1561240619.306562,1561239991.781823,76,3.632473,0,0,66.78877,0,0,1561240563.880506,63077.606969,0,-0.5126953,74.42003,2650659446,177292352,1,1,0.32,-10.28086,-18.54888,3
1561240620.471699,56,0,0,1561240619.850203,4.603055131891548,-74.0647754759699,2651.421,-1,-1,10,65,-9999,1561240620.461765,-3.655864715576172,14.2017765045166,21.15029907226562,153.6235961914062,161.1672821044922,15,63080.81313854167,-0.6421966552734375,0.7353057861328125,0.1556243896484375,63080.80199954167,0.07012422729509443,-0.04955583524808545,-0.004119643890243573,63080.78719854167,35.23573303222656,14.67390441894531,-511.7574157714844,63080.80706554167,-2.364110976403301,-1.814548723989372,-0.8242516862229397,0.0674884244799614,-0.05263809859752655,-0.005877717398107052,0.01776576042175293,-0.0009923577308654785,-0.007222294807434082,1,0.7615095973014832,0.04530881717801094,0.4026124477386475,-0.5059185028076172,-0.6590316295623779,0.7340397834777832,0.1638995110988617,0,0,0,-1,63079.643646875,1,2,1561240619.306562,1561239991.781823,76,3.632473,0,0,66.78877,0,0,1561240563.880506,63077.606969,0,-0.5126953,74.42003,2650659446,177292352,1,1,0.32,-10.28086,-18.8719,3
1561240620.481519,57,0,0,1561240619.850203,4.603055131891548,-74.0647754759699,2651.421,-1,-1,10,65,-9999,1561240620.461765,-3.655864715576172,14.2017765045166,21.15029907226562,153.6235961914062,161.1672821044922,15,63080.83340254167,-0.6387939453125,0.7374267578125,0.15301513671875,63080.82226354167,0.08421900736433881,-0.02147439944985394,-0.0008522115488253562,63080.80730954167,35.20002746582031,14.62307739257812,-511.7514038085938,63080.82732954167,-2.361844926121594,-1.813640182163963,-0.8245723175052992,0.08481122553348541,-0.01770674809813499,-2.783956006169319e-06,0.01705998182296753,0.001368701457977295,-0.007985830307006836,1,0.7612626552581787,0.04583853110671043,0.4023041129112244,-0.5064871907234192,-0.658951461315155,0.7342575192451477,0.1632440090179443,0,0,0,-1,63079.643646875,1,2,1561240619.306562,1561239991.781823,76,3.632473,0,0,66.78877,0,0,1561240563.880506,63077.606969,0,-0.5126953,74.42003,2650659446,177292352,1,1,0.32,-10.28086,-17.18058,3
1561240620.501746,58,0,0,1561240619.850203,4.603055131891548,-74.0647754759699,2651.421,-1,-1,10,65,-9999,1561240620.485893,-3.747692108154297,14.34104919433594,21.257080078125,153.511962890625,161.0556488037109,15,63080.85366654167,-0.63348388671875,0.7357635498046875,0.1545867919921875,63080.84252754167,0.1049261501041409,-0.01237464432116219,0.02509763011290674,63080.82745154167,34.97291564941406,14.65560913085938,-511.5393371582031,63080.84759354167,-2.35920283503282,-1.812063953963572,-0.825354192003075,0.1052227541804314,-0.02711516246199608,0.02913592755794525,0.02144360542297363,0.002211391925811768,-0.008442521095275879,1,0.7608548998832703,0.04619336500763893,0.4020377695560455,-0.5072787404060364,-0.6586506366729736,0.7347880601882935,0.1620680093765259,0,0,0,-1,63079.643646875,1,2,1561240619.306562,1561239991.781823,76,3.632473,0,0,66.78877,0,0,1561240563.880506,63077.606969,0,-0.5126953,74.42003,2650659446,177292352,1,1,0.32,-10.28086,-17.18058,3
1561240620.521989,59,0,0,1561240619.850203,4.603055131891548,-74.0647754759699,2651.421,-1,-1,10,65,-9999,1561240620.512076,-3.589492797851562,14.39183712005615,21.2978515625,153.3695220947266,160.9132080078125,15,63080.87392954167,-0.6341705322265625,0.736541748046875,0.155853271484375,63080.86279054167,0.1188899026477534,-0.05692826409375181,0.05158969137257897,63080.84759354167,35.08462524414062,14.66830444335938,-511.6379699707031,63080.86785654167,-2.356282985483778,-1.810923425601888,-0.8267459269161004,0.1168138980865479,-0.07534581422805786,0.05236481502652168,0.02554714679718018,-0.001524209976196289,-0.00619661808013916,1,0.760505199432373,0.04656681418418884,0.4013792276382446,-0.5082892775535583,-0.6578407883644104,0.7357313632965088,0.1610732525587082,0,0,0,-1,63079.643646875,1,2,1561240619.306562,1561239991.781823,76,3.632473,0,0,66.78877,0,0,1561240563.880506,63077.606969,0,-0.5126953,74.42003,2650659446,177292352,1,1,0.32,-10.28086,-17.94316,3
1561240620.54236,60,0,0,1561240619.850203,4.603055131891548,-74.0647754759699,2651.421,-1,-1,10,65,-9999,1561240620.536558,-3.708404541015625,14.39122867584229,21.1829833984375,153.1672058105469,160.7108917236328,15,63080.89419354167,-0.6446990966796875,0.742034912109375,0.16229248046875,63080.88305454167,0.1288842135866027,-0.07239297422773294,0.06253208765949654,63080.86773454167,35.16712951660156,14.64546203613281,-511.7615051269531,63080.88812054167,-2.35316120155428,-1.810203018443377,-0.8284907622947461,0.1237698122859001,-0.07194655388593674,0.05771563947200775,0.01701480150222778,0.003047764301300049,-0.001832246780395508,1,0.7602220177650452,0.04700915142893791,0.4004181027412415,-0.5094292163848877,-0.6567090153694153,0.7369120121002197,0.1602947562932968,0,0,0,-1,63079.643646875,1,2,1561240619.306562,1561239991.781823,76,3.632473,0,0,66.78877,0,0,1561240563.880506,63077.606969,0,-0.5126953,74.42003,2650659446,177292352,1,1,0.32,-10.28086,-18.24281,3
1561240620.562616,61,0,0,1561240619.850203,4.603055131891548,-74.0647754759699,2651.421,-1,-1,10,65,-9999,1561240620.536558,-3.708404541015625,14.39122867584229,21.1829833984375,153.1672058105469,160.7108917236328,15,63080.91445754167,-0.6534576416015625,0.745635986328125,0.1697540283203125,63080.90331854167,0.1250822848144056,-0.03520113065644936,0.05791896001926129,63080.88784554167,35.390380859375,14.6610107421875,-511.5623779296875,63080.90838454167,-2.350013851031578,-1.808938668097253,-0.8301842121957758,0.1185867637395859,-0.03376827389001846,0.05481492355465889,0.005901694297790527,0.006268084049224854,0.006571292877197266,1,0.7598315477371216,0.04733756184577942,0.3996668756008148,-0.5105698704719543,-0.6556972861289978,0.7380557060241699,0.1591696441173553,0,0,0,-1,63079.643646875,1,2,1561240619.306562,1561239991.781823,76,3.632473,0,0,66.78877,0,0,1561240563.880506,63077.606969,0,-0.5126953,74.42003,2650659446,177292352,1,1,0.32,-10.28086,-19.02009,3
1561240620.582804,62,0,0,1561240619.850203,4.603055131891548,-74.0647754759699,2651.421,-1,-1,10,65,-9999,1561240620.563942,-3.470569610595703,14.33263683319092,21.30230712890625,152.9967346191406,160.5404205322266,15,63080.93472054167,-0.656280517578125,0.742584228515625,0.1733245849609375,63080.92358154167,0.1212713012945022,0.006029130391830387,0.04600770572777289,63080.90798754167,35.12905883789062,14.7447509765625,-511.9701232910156,63080.92861754167,-2.346949954711604,-1.806897747997126,-0.8316796397023181,0.1144815012812614,0.007494745776057243,0.04057340323925018,-0.0005097389221191406,0.006358444690704346,0.01366138458251953,1,0.7592959403991699,0.04749768972396851,0.3992791175842285,-0.5116539597511292,-0.6549468040466309,0.7390638589859009,0.1575727164745331,0,0,0,-1,63079.643646875,1,2,1561240619.306562,1561239991.781823,76,3.632473,0,0,66.78877,0,0,1561240563.880506,63077.606969,0,-0.5126953,74.42003,2650659446,177292352,1,1,0.32,-10.28086,-19.74808,3
1561240620.603114,63,0,0,1561240619.850203,4.603055131891548,-74.0647754759699,2651.421,-1,-1,10,65,-9999,1561240620.587122,-3.295516967773438,14.50353908538818,21.07806396484375,152.8858947753906,160.4295806884766,15,63080.95498454167,-0.652679443359375,0.741912841796875,0.173492431640625,63080.94384554167,0.09937905186961486,0.0262760788952668,0.04106008505462368,63080.92812954167,35.30007934570312,14.99114990234375,-511.8202514648438,63080.94888154167,-2.344214450283157,-1.804545403627261,-0.8329649396919956,0.08784323185682297,0.0193034689873457,0.04090310260653496,-0.0008062124252319336,0.0006867647171020508,0.01829123497009277,1,0.758714497089386,0.0475187860429287,0.3991441428661346,-0.5126188993453979,-0.6543909311294556,0.7399290800094604,0.1558114439249039,0,0,0,-1,63079.643646875,1,2,1561240619.306562,1561239991.781823,76,3.632473,0,0,66.78877,0,0,1561240563.880506,63077.606969,0,-0.5126953,74.42003,2650659446,177292352,1,1,0.32,-10.28086,-19.99297,3
1561240620.623362,64,0,0,1561240619.850203,4.603055131891548,-74.0647754759699,2651.421,-1,-1,10,65,-9999,1561240620.613486,-3.360385894775391,14.43351173400879,21.14950561523438,152.8145751953125,160.3582611083984,15,63080.97521754167,-0.6545867919921875,0.74200439453125,0.171966552734375,63080.96410954167,0.06832978935259905,-0.006586263691874964,0.0533551008591925,63080.94824054167,35.54339599609375,14.78569030761719,-511.7227172851562,63080.96914454167,-2.342441196637358,-1.803266619835748,-0.8342640187872116,0.05796602740883827,-0.02195821702480316,0.04902441427111626,-0.0003071427345275879,0.002712726593017578,0.01854109764099121,1,0.7583703398704529,0.04744389653205872,0.3988431394100189,-0.5133690237998962,-0.6536540389060974,0.7408023476600647,0.1547529846429825,0,0,0,-1,63079.643646875,1,2,1561240619.306562,1561239991.781823,76,3.632473,0,0,66.78877,0,0,1561240563.880506,63077.606969,0,-0.5126953,74.42003,2650659446,177292352,1,1,0.32,-10.28086,-20.57569,3
1561240620.643632,65,0,0,1561240619.850203,4.603055131891548,-74.0647754759699,2651.421,-1,-1,10,65,-9999,1561240620.637777,-3.359024047851562,14.77649307250977,21.34457397460938,152.7362823486328,160.2799682617188,15,63080.99548154167,-0.65667724609375,0.7415771484375,0.167510986328125,63080.98434254167,0.05252978723737694,-0.02125362339548637,0.03702832548035272,63080.96838154167,35.40754699707031,15.01927185058594,-511.9362487792969,63080.98940854167,-2.341279702851648,-1.802945073961234,-0.8352915417589609,0.04265391454100609,-0.02324052900075912,0.0254831351339817,-0.00289076566696167,-0.001196742057800293,0.01688182353973389,1,0.7582416534423828,0.04746968299150467,0.3984042704105377,-0.5138971209526062,-0.6529625058174133,0.7414921522140503,0.1543675512075424,0,0,0,-1,63079.643646875,1,2,1561240619.306562,1561239991.781823,76,3.632473,0,0,66.78877,0,0,1561240563.880506,63078.555557,0,-0.5761719,74.42062,2650659446,177292352,1,1,0.32,-10.28086,-20.78028,3
1561240620.663958,66,0,0,1561240619.850203,4.603055131891548,-74.0647754759699,2651.421,-1,-1,10,65,-9999,1561240620.637777,-3.359024047851562,14.77649307250977,21.34457397460938,152.7362823486328,160.2799682617188,15,63081.01574554167,-0.65380859375,0.74462890625,0.1607818603515625,63081.00460654167,0.04851374031353745,0.002722283266278997,0.01614860990191348,63080.98852354167,35.63043212890625,14.72862243652344,-511.7763671875,63081.00967254167,-2.340179022901157,-1.802361504423898,-0.8358349731126925,0.05430364608764648,-0.001147478353232145,0.01281474344432354,-0.00313180685043335,0.002833247184753418,0.009954929351806641,1,0.7580797672271729,0.04756136238574982,0.3982037603855133,-0.5142828822135925,-0.6526604294776917,0.7418566942214966,0.1538940370082855,0,0,0,-1,63079.643646875,1,2,1561240619.306562,1561239991.781823,76,3.632473,0,0,66.78877,0,0,1561240563.880506,63078.555557,0,-0.5761719,74.42062,2650659446,177292352,1,1,0.32,-10.28086,-20.78028,3
1561240620.684086,67,0,0,1561240619.850203,4.603055131891548,-74.0647754759699,2651.421,-1,-1,10,65,-9999,1561240620.664025,-3.385936737060547,14.58113956451416,21.14129638671875,152.6823425292969,160.2260284423828,15,63081.03600854167,-0.641143798828125,0.7510986328125,0.1591949462890625,63081.02486954167,0.07794806194552922,0.007285343478020764,0.01383139343743553,63081.00863454167,35.38038635253906,15.15660095214844,-511.9395141601562,63081.02993554167,-2.338283716741696,-1.800925782730907,-0.8363695761967136,0.08400614559650421,0.000121518038213253,0.01523742265999317,0.004026353359222412,0.00621330738067627,0.006771087646484375,1,0.757729709148407,0.04773732274770737,0.3981233537197113,-0.5148443579673767,-0.6524943709373474,0.7422150373458862,0.1528663337230682,0,0,0,-1,63079.643646875,1,2,1561240619.306562,1561239991.781823,76,3.632473,0,0,66.78877,0,0,1561240563.880506,63078.555557,0,-0.5761719,74.42062,2650659446,177292352,1,1,0.32,-10.28086,-19.84346,3
1561240620.704396,68,0,0,1561240619.850203,4.603055131891548,-74.0647754759699,2651.421,-1,-1,10,65,-9999,1561240620.694919,-3.559242248535156,14.790846824646,21.33447265625,152.6056213378906,160.1493072509766,15,63081.05627254167,-0.6317901611328125,0.74267578125,0.16241455078125,63081.04513354167,0.1054015243587201,0.00263466526641539,0.03874606438345383,63081.02877654167,35.50727844238281,15.08660888671875,-511.8382263183594,63081.05019954167,-2.335717976568327,-1.799095109584633,-0.837332414293474,0.1062720417976379,-0.006356887519359589,0.04002905637025833,0.01728063821792603,0.005019068717956543,0.009119510650634766,1,0.7572700977325439,0.04792588576674461,0.3979089558124542,-0.5156682133674622,-0.6520768404006958,0.742859959602356,0.1515097767114639,0,0,0,-1,63079.643646875,1,2,1561240619.306562,1561239991.781823,76,3.632473,0,0,66.78877,0,0,1561240563.880506,63078.555557,0,-0.5761719,74.42062,2650659446,177292352,1,1,0.32,-10.27654,-10.90449,3
1561240620.724762,69,0,0,1561240619.850203,4.603055131891548,-74.0647754759699,2651.421,-1,-1,10,65,-9999,1561240620.715009,-3.442424774169922,14.57538414001465,21.08560180664062,152.498779296875,160.0424652099609,15,63081.07653654167,-0.634002685546875,0.732757568359375,0.1680908203125,63081.06539754167,0.09965895010018219,-0.004360127336677729,0.04837285909187226,63081.04891754167,35.3800048828125,15.14328002929688,-511.756591796875,63081.07046354167,-2.333100034424533,-1.797338300811623,-0.8386365360210641,0.0865316241979599,-0.00344392191618681,0.0440022237598896,0.01928675174713135,-0.00581735372543335,0.0150301456451416,1,0.7568125128746033,0.04804098606109619,0.3975633680820465,-0.5165949463844299,-0.6513973474502563,0.7437323927879333,0.1501462310552597,0,0,0,-1,63079.643646875,1,2,1561240619.306562,1561239991.781823,76,3.632473,0,0,66.78877,0,0,1561240563.880506,63078.555557,0,-0.5761719,74.42062,2650659446,177292352,1,1,0.32,-10.27654,-11.57192,3
1561240620.74545,70,0,0,1561240619.850203,4.603055131891548,-74.0647754759699,2651.421,-1,-1,10,65,-9999,1561240620.739112,-3.240268707275391,14.84435176849365,21.14849853515625,152.4433135986328,159.9869995117188,15,63081.09679954167,-0.6374359130859375,0.7305755615234375,0.1683349609375,63081.08566054167,0.04881680804558847,0.02750512773833837,0.04175916484076948,63081.06905954167,35.70599365234375,15.14808654785156,-511.9130859375,63081.09072654167,-2.331665477920305,-1.796054544836169,-0.8396984935085063,0.02921134233474731,0.03148902952671051,0.03805804997682571,0.01423758268356323,-0.01504117250442505,0.02042233943939209,1,0.7564862966537476,0.04790756106376648,0.3974049389362335,-0.5172064900398254,-0.6508190035820007,0.7444418668746948,0.1491333097219467,0,0,0,-1,63079.643646875,1,2,1561240619.306562,1561239991.781823,76,3.632473,0,0,66.78877,0,0,1561240563.880506,63078.555557,0,-0.5761719,74.42062,2650659446,177292352,1,1,0.32,-10.27654,-12.31249,3
1561240620.765182,71,0,0,1561240619.850203,4.603055131891548,-74.0647754759699,2651.421,-1,-1,10,65,-9999,1561240620.739112,-3.240268707275391,14.84435176849365,21.14849853515625,152.4433135986328,159.9869995117188,15,63081.11706354167,-0.6426544189453125,0.738739013671875,0.1676788330078125,63081.10592454167,-0.00669332276769615,0.03299017431946557,0.03997697743928845,63081.08917054167,35.45535278320312,15.15127563476562,-511.8623046875,63081.11099054167,-2.331843783728427,-1.79557896842673,-0.8404334308138449,-0.01852928102016449,0.01561898551881313,0.03582605347037315,0.009487271308898926,-0.009565532207489014,0.02022826671600342,1,0.7563707232475281,0.04747877642512321,0.3974417746067047,-0.517386794090271,-0.6503564119338989,0.7449323534965515,0.1487018167972565,0,0,0,-1,63079.643646875,1,2,1561240619.306562,1561239991.781823,76,3.632473,0,0,66.78877,0,0,1561240563.880506,63078.555557,0,-0.5761719,74.42062,2650659446,177292352,1,1,0.32,-10.27654,-13.17642,3
1561240620.785488,72,0,0,1561240619.850203,4.603055131891548,-74.0647754759699,2651.421,-1,-1,10,65,-9999,1561240620.765454,-3.343578338623047,14.87498664855957,21.24569702148438,152.4743041992188,160.0179901123047,15,63081.13732754167,-0.6515960693359375,0.74481201171875,0.1605682373046875,63081.12618854167,-0.02605370494424519,0.009457683979198399,0.04176236063407757,63081.10931154167,35.70025634765625,14.98965454101562,-512.10888671875,63081.13125454167,-2.332931247925174,-1.796253760916187,-0.8410730617858041,-0.02882772497832775,0.003237150609493256,0.04308689758181572,0.004054725170135498,-0.003674924373626709,0.01528787612915039,1,0.7565082907676697,0.04703459516167641,0.3973032236099243,-0.5173326730728149,-0.649791419506073,0.745358943939209,0.1490340977907181,0,0,0,-1,63079.643646875,1,2,1561240619.306562,1561239991.781823,76,3.632473,0,0,66.78877,0,0,1561240563.880506,63078.555557,0,-0.5761719,74.42062,2650659446,177292352,1,1,0.32,-10.27654,-13.88641,3
1561240620.806233,73,0,0,1561240619.850203,4.603055131891548,-74.0647754759699,2651.421,-1,-1,10,65,-9999,1561240620.790391,-3.385288238525391,14.79553604125977,21.03009033203125,152.5042114257812,160.0478973388672,15,63081.15759054167,-0.6607208251953125,0.744171142578125,0.1531982421875,63081.14645154167,-0.01591558330653154,0.01260101301381892,0.04499517188132476,63081.12945354167,35.22872924804688,15.34947204589844,-511.9416809082031,63081.15151754167,-2.333962073231732,-1.796948657868829,-0.8418309662174998,-0.01401335839182138,0.01124447584152222,0.04166822880506516,-0.007738411426544189,0.001938760280609131,0.007760882377624512,1,0.7566438317298889,0.04657871276140213,0.3971120417118073,-0.5173225998878479,-0.6491371989250183,0.7458639740943909,0.1493589282035828,0,0,0,-1,63079.643646875,1,2,1561240619.306562,1561239991.781823,76,3.632473,0,0,66.78877,0,0,1561240563.880506,63078.555557,0,-0.5761719,74.42062,2650659446,177292352,1,1,0.32,-10.27654,-14.60884,3
1561240620.826009,74,0,0,1561240619.850203,4.603055131891548,-74.0647754759699,2651.421,-1,-1,10,65,-9999,1561240620.816013,-3.265522003173828,14.75923538208008,21.15225219726562,152.5280914306641,160.07177734375,15,63081.17785454167,-0.6662750244140625,0.738983154296875,0.14990234375,63081.16671554167,0.01150325801248826,0.03024312365504884,0.03267725289138126,63081.14959554167,35.59547424316406,15.28517150878906,-512.097900390625,63081.17178154167,-2.334228856372305,-1.79676627078155,-0.8425087793172488,0.01773258671164513,0.02940537221729755,0.02247189916670322,-0.01534509658813477,-0.004890739917755127,0.00298762321472168,1,0.7565898299217224,0.0462108738720417,0.3970756530761719,-0.5174624919891357,-0.648671567440033,0.7463153004646301,0.1491272300481796,0,0,0,-1,63079.643646875,1,2,1561240619.306562,1561239991.781823,76,3.632473,0,0,66.78877,0,0,1561240563.880506,63078.555557,0,-0.5761719,74.42062,2650659446,177292352,1,1,0.32,-10.27654,-14.60884,3
1561240620.84625,75,0,0,1561240619.850203,4.603055131891548,-74.0647754759699,2651.421,-1,-1,10,65,-9999,1561240620.840408,-3.142620086669922,14.6956148147583,21.0430908203125,152.5344085693359,160.0780944824219,15,63081.19811854167,-0.6704864501953125,0.7374114990234375,0.1573486328125,63081.18697954167,0.04437918272118943,0.03984222148813044,0.01164999818855163,63081.16970654167,35.50900268554688,15.15682983398438,-512.0403442382812,63081.19201454167,-2.333419009356567,-1.795538870998928,-0.8429168519049359,0.04251489788293839,0.03370478004217148,0.005676673259586096,-0.02005285024642944,-0.01112848520278931,0.003149986267089844,1,0.7563129663467407,0.04606707766652107,0.3972250521183014,-0.5177650451660156,-0.6485567688941956,0.7465868592262268,0.1482629626989365,0,0,0,-1,63079.643646875,1,2,1561240619.306562,1561239991.781823,76,3.632473,0,0,66.78877,0,0,1561240563.880506,63078.555557,0,-0.5761719,74.42062,2650659446,177292352,1,1,0.32,-10.27654,-15.11992,3
1561240620.866636,76,0,0,1561240619.850203,4.603055131891548,-74.0647754759699,2651.421,-1,-1,10,65,-9999,1561240620.840408,-3.142620086669922,14.6956148147583,21.0430908203125,152.5344085693359,160.0780944824219,15,63081.21838154167,-0.6729278564453125,0.744842529296875,0.1695556640625,63081.20724254167,0.03947257472882745,0.03013739615977269,-0.008322112090388611,63081.18984754167,35.45819091796875,15.12796020507812,-512.1282348632812,63081.21227854167,-2.332285439532882,-1.794180086290251,-0.8429606935580659,0.02842464670538902,0.02222761884331703,-0.01792346127331257,-0.02292037010192871,-0.002856850624084473,0.01583361625671387,1,0.7560153603553772,0.04612958431243896,0.3974339663982391,-0.5180337429046631,-0.6487257480621338,0.746616005897522,0.1473743319511414,0,0,0,-1,63079.643646875,1,2,1561240619.306562,1561239991.781823,76,3.632473,0,0,66.78877,0,0,1561240563.880506,63078.555557,0,-0.5761719,74.42062,2650659446,177292352,1,1,0.32,-10.27654,-15.85118,3
1561240620.886783,77,0,0,1561240619.850203,4.603055131891548,-74.0647754759699,2651.421,-1,-1,10,65,-9999,1561240620.866641,-3.334140777587891,14.71501636505127,21.1229248046875,152.5280609130859,160.0717468261719,15,63081.23861454167,-0.670013427734375,0.74505615234375,0.173553466796875,63081.22750654167,-0.004836034223474888,0.03085165596413194,-0.04217381902249481,63081.20998954167,35.78877258300781,15.30020141601562,-511.8017578125,63081.23254154167,-2.331935732831222,-1.79346730751715,-0.8422703583601381,-0.02378343231976032,0.02681171707808971,-0.05334323644638062,-0.024616539478302,-0.002366900444030762,0.0256580114364624,1,0.7558895945549011,0.04630140587687492,0.397790938615799,-0.5179282426834106,-0.649333655834198,0.7461565732955933,0.1470257937908173,0,0,0,-1,63079.643646875,1,2,1561240619.306562,1561239991.781823,76,3.632473,0,0,66.78877,0,0,1561240563.880506,63078.555557,0,-0.5761719,74.42062,2650659446,177292352,1,1,0.32,-10.27654,-16.26487,3
1561240620.908173,78,0,0,1561240619.850203,4.603055131891548,-74.0647754759699,2651.421,-1,-1,10,65,-9999,1561240620.891104,-3.432834625244141,14.75531959533691,21.03616333007812,152.5728912353516,160.1165771484375,15,63081.25887854167,-0.6566162109375,0.7460784912109375,0.1675567626953125,63081.24773954167,-0.07194076947463748,0.04595976882815146,-0.06184632367880114,63081.23010054167,35.28134155273438,15.2186279296875,-511.9588317871094,63081.25280554167,-2.333271551919415,-1.793730269581406,-0.840757874928112,-0.09335425496101379,0.0455196276307106,-0.06581828743219376,-0.0138508677482605,-0.001847386360168457,0.0239408016204834,1,0.7560251951217651,0.04635555297136307,0.3984266817569733,-0.5172362923622131,-0.6503947973251343,0.745148777961731,0.147445872426033,0,0,0,-1,63079.643646875,1,2,1561240619.306562,1561239991.781823,76,3.632473,0,0,66.78877,0,0,1561240563.880506,63078.555557,0,-0.5761719,74.42062,2650659446,177292352,1,1,0.32,-10.27654,-16.81762,3
1561240620.927283,79,0,0,1561240619.850203,4.603055131891548,-74.0647754759699,2651.421,-1,-1,10,65,-9999,1561240620.917117,-3.460174560546875,14.69296646118164,21.184326171875,152.7096557617188,160.2533416748047,15,63081.27914254167,-0.6376953125,0.7545318603515625,0.15435791015625,63081.26800354167,-0.09823256102033576,0.05325283547333345,-0.05588963126862091,63081.25024254167,35.42654418945312,15.08956909179688,-511.7142944335938,63081.27306954167,-2.335829994562328,-1.794684292049251,-0.8390497612957158,-0.1036561578512192,0.03992592543363571,-0.05363725125789642,0.004810631275177002,0.007929325103759766,0.01296734809875488,1,0.7563338279724121,0.04618890210986137,0.3991658687591553,-0.5162287950515747,-0.6514933705329895,0.7440085411071777,0.1483485549688339,0,0,0,-1,63081.26971254167,1,2,1561240620.932627,1561239991.781823,76,3.632473,0,0,66.78877,0,0,1561240563.880506,63078.555557,0,-0.5761719,74.42062,2650659446,177292352,1,1,0.32,-10.27654,-17.5017,3
1561240620.947519,80,0,0,1561240619.850203,4.603055131891548,-74.0647754759699,2651.421,-1,-1,10,65,-9999,1561240620.941734,-3.417793273925781,14.70300483703613,21.23959350585938,152.845947265625,160.3896331787109,15,63081.29940554167,-0.6253814697265625,0.7581329345703125,0.1439056396484375,63081.28826754167,-0.08295560374320521,0.04730146938533338,-0.05240861340777834,63081.27038354167,35.29257202148438,15.08100891113281,-511.77294921875,63081.29333254167,-2.338177271827386,-1.795607902883641,-0.8375168425175229,-0.08390802145004272,0.04653162509202957,-0.05056449398398399,0.01959401369094849,0.01160943508148193,0.001903414726257324,1,0.7566259503364563,0.04603652283549309,0.3998153209686279,-0.5153111815452576,-0.6524675488471985,0.7429834008216858,0.1492043733596802,0,0,0,-1,63081.26971254167,1,2,1561240620.932627,1561239991.781823,76,3.632473,0,0,66.78877,0,0,1561240563.880506,63078.555557,0,-0.5761719,74.42062,2650659446,177292352,1,1,0.32,-10.27654,-18.48971,3
1561240620.96786,81,0,0,1561240619.850203,4.603055131891548,-74.0647754759699,2651.421,-1,-1,10,65,-9999,1561240620.941734,-3.417793273925781,14.70300483703613,21.23959350585938,152.845947265625,160.3896331787109,15,63081.31966954167,-0.609130859375,0.749481201171875,0.1376800537109375,63081.30853054167,-0.05828194887583909,0.0775302119704958,-0.02409308574972885,63081.29049454167,35.36883544921875,15.1622314453125,-512.0067749023438,63081.31359654167,-2.340013635401665,-1.795742940612714,-0.8364626591080796,-0.05289817228913307,0.07493051141500473,-0.02043988183140755,0.03493964672088623,0.01060646772384644,-0.008292794227600098,1,0.7567320466041565,0.04571828246116638,0.4005070626735687,-0.5146461129188538,-0.6532105207443237,0.7422774434089661,0.1494671106338501,0,0,0,-1,63081.26971254167,1,2,1561240620.932627,1561239991.781823,76,3.632473,0,0,66.78877,0,0,1561240563.880506,63078.555557,0,-0.5761719,74.42062,2650659446,177292352,1,1,0.32,-10.27654,-19.37352,3
1561240620.988069,82,0,0,1561240619.850203,4.603055131891548,-74.0647754759699,2651.421,-1,-1,10,65,-9999,1561240620.967959,-3.457912445068359,14.62883567810059,21.02978515625,152.9795989990234,160.5232849121094,15,63081.33993354167,-0.59173583984375,0.7410888671875,0.13446044921875,63081.32879454167,-0.01648363556704545,0.091115795639317,0.004543086503566172,63081.31063654167,35.36785888671875,15.10714721679688,-511.8527221679688,63081.33386054167,-2.340981733220965,-1.794828661302693,-0.8361741033555072,-0.01174381282180548,0.08746414631605148,0.01041789911687374,0.05295461416244507,0.001430988311767578,-0.01413655281066895,1,0.7565809488296509,0.04521039500832558,0.4011758863925934,-0.5143921971321106,-0.6535558104515076,0.7420840263366699,0.1489174216985703,0,0,0,-1,63081.26971254167,1,2,1561240620.932627,1561239991.781823,76,3.632473,0,0,66.78877,0,0,1561240563.880506,63078.555557,0,-0.5761719,74.42062,2650659446,177292352,1,1,0.32,-10.27654,-19.37352,3
1561240621.008424,83,0,0,1561240619.850203,4.603055131891548,-74.0647754759699,2651.421,-1,-1,10,65,-9999,1561240620.99235,-3.703136444091797,14.52035808563232,21.29452514648438,153.0870819091797,160.6307678222656,15,63081.36019654167,-0.5861053466796875,0.754974365234375,0.1353912353515625,63081.34905854167,0.007344199338111515,0.08556310476650179,0.05693225883538693,63081.33077754167,35.38003540039062,14.99169921875,-511.9147644042969,63081.35412354167,-2.341276937551902,-1.793420574999507,-0.8369358830059401,0.003111832542344928,0.07549483329057693,0.07523284107446671,0.0668330192565918,0.002248048782348633,-0.01383888721466064,1,0.7562782168388367,0.04448934644460678,0.4015893638134003,-0.5145773887634277,-0.6532130241394043,0.7425944209098816,0.1478720903396606,0,0,0,-1,63081.26971254167,1,2,1561240620.932627,1561239991.781823,76,3.632473,0,0,66.78877,0,0,1561240563.880506,63078.555557,0,-0.5761719,74.42062,2650659446,177292352,1,1,0.32,-10.27654,-20.13111,3
1561240621.028626,84,0,0,1561240619.850203,4.603055131891548,-74.0647754759699,2651.421,-1,-1,10,65,-9999,1561240621.021053,-3.580780029296875,14.63605499267578,21.40866088867188,153.1590423583984,160.7027282714844,15,63081.38046054167,-0.5923309326171875,0.7769927978515625,0.1324920654296875,63081.36932154167,0.005383846459704188,0.04609931846927161,0.1564910740785821,63081.35091954167,35.39202880859375,14.90460205078125,-511.840576171875,63081.37438754167,-2.342137437410849,-1.793017379158387,-0.8394983520207928,0.00761843379586935,0.02618134953081608,0.1752997934818268,0.06294387578964233,0.02114897966384888,-0.01314043998718262,1,0.7561254501342773,0.04322864860296249,0.4013075232505798,-0.5151289105415344,-0.6514143347740173,0.7443081736564636,0.1471888273954391,0,0,0,-1,63081.26971254167,1,2,1561240620.932627,1561239991.781823,76,3.632473,0,0,66.78877,0,0,1561240563.880506,63078.555557,0,-0.5761719,74.42062,2650659446,177292352,1,1,0.32,-10.27654,-17.4489,3
1561240621.048872,85,0,0,1561240619.850203,4.603055131891548,-74.0647754759699,2651.421,-1,-1,10,65,-9999,1561240621.042953,-3.500869750976562,14.66428852081299,21.03567504882812,153.1330108642578,160.6766967773438,15,63081.40072454167,-0.6177978515625,0.772003173828125,0.1338958740234375,63081.38958554167,0.06987149330764592,0.0005166532514753722,0.2288118766407739,63081.37103054167,35.13706970214844,15.07958984375,-511.9985656738281,63081.39465154167,-2.342206088271737,-1.792981878842149,-0.8438917559563569,0.08768343925476074,0.00122965918853879,0.2306093871593475,0.04605066776275635,0.03007811307907104,-0.01421093940734863,1,0.7559611797332764,0.04176756367087364,0.4002129733562469,-0.5163406133651733,-0.6482235193252563,0.7472350597381592,0.1464436650276184,0,0,0,-1,63081.26971254167,1,2,1561240620.932627,1561239991.781823,76,3.632473,0,0,66.78877,0,0,1561240563.880506,63078.555557,0,-0.5761719,74.42062,2650659446,177292352,1,1,0.32,-10.27654,-18.31538,3
1561240621.069103,86,0,0,1561240619.850203,4.603055131891548,-74.0647754759699,2651.421,-1,-1,10,65,-9999,1561240621.042953,-3.500869750976562,14.66428852081299,21.03567504882812,153.1330108642578,160.6766967773438,15,63081.42098754167,-0.64361572265625,0.7531585693359375,0.14349365234375,63081.40984954167,0.1367788883220336,0.07627932520648557,0.2220370611437214,63081.39117254167,35.37319946289062,14.98162841796875,-511.8421630859375,63081.41491454167,-2.340150611539883,-1.790534097066612,-0.8489273751081086,0.13379767537117,0.1032894477248192,0.2112657874822617,0.01178193092346191,0.0123368501663208,-0.006186723709106445,1,0.7552450895309448,0.0402754470705986,0.3993127942085266,-0.518200695514679,-0.6448996067047119,0.7505720853805542,0.1440345197916031,0,0,0,-1,63081.26971254167,1,2,1561240620.932627,1561239991.781823,76,3.632473,0,0,66.78877,0,0,1561240563.880506,63078.555557,0,-0.5761719,74.42062,2650659446,177292352,1,1,0.32,-10.27654,-15.31403,3
1561240621.089413,87,0,0,1561240619.850203,4.603055131891548,-74.0647754759699,2651.421,-1,-1,10,65,-9999,1561240621.069358,-3.321155548095703,14.65957641601562,20.986083984375,153.0801849365234,160.6238708496094,15,63081.44125154167,-0.647369384765625,0.7464141845703125,0.1576995849609375,63081.43011254167,0.1058745017683181,0.1710567010285525,0.1885579304481173,63081.41131354167,35.57810974121094,15.10116577148438,-512.017578125,63081.43517854167,-2.337978045644778,-1.785946661657082,-0.8533454649853597,0.08700220286846161,0.1760001480579376,0.1813387870788574,-0.005031287670135498,-0.007070004940032959,0.0101475715637207,1,0.7541239261627197,0.03846706077456474,0.3993415236473083,-0.5199458003044128,-0.6423075795173645,0.7534841299057007,0.1403652280569077,0,0,0,-1,63081.26971254167,1,2,1561240620.932627,1561239991.781823,76,3.632473,0,0,66.78877,0,0,1561240563.880506,63078.555557,0,-0.5761719,74.42062,2650659446,177292352,1,1,0.32,-10.27654,-16.07758,3
1561240621.109712,88,0,0,1561240619.850203,4.603055131891548,-74.0647754759699,2651.421,-1,-1,10,65,-9999,1561240621.093648,-3.587554931640625,14.8041467666626,21.01861572265625,153.1694030761719,160.7130889892578,15,63081.46151554167,-0.63909912109375,0.74871826171875,0.1604766845703125,63081.45037654167,0.05374285711390803,0.1661112108842754,0.2062636906394001,63081.43142454167,35.39952087402344,15.31195068359375,-512.0123901367188,63081.45541154167,-2.337388993217278,-1.782096013852609,-0.8575419980710889,0.04341557994484901,0.1518426090478897,0.2180115729570389,-0.002953886985778809,-0.007472574710845947,0.02473020553588867,1,0.7531893849372864,0.03631856292486191,0.399555116891861,-0.5212892889976501,-0.6397463083267212,0.7562365531921387,0.1372265815734863,0,0,0,-1,63081.26971254167,1,2,1561240620.932627,1561239991.781823,76,3.632473,0,0,66.78877,0,0,1561240563.880506,63078.555557,0,-0.5761719,74.42062,2650659446,177292352,1,1,0.32,-10.27654,-15.09064,3
1561240621.129936,89,0,0,1561240619.850203,4.603055131891548,-74.0647754759699,2651.421,-1,-1,10,65,-9999,1561240621.119945,-3.428192138671875,14.8871431350708,21.04745483398438,153.2790832519531,160.8227691650391,15,63081.48177854167,-0.6410980224609375,0.746795654296875,0.152069091796875,63081.47064054167,0.05379745191625466,0.09525221744442808,0.2911415640574245,63081.45156654167,35.20710754394531,15.37258911132812,-512.0568237304688,63081.47567554167,-2.337687742317741,-1.780056408066677,-0.8630326456134236,0.05528875067830086,0.06029723584651947,0.3105121850967407,-0.001573860645294189,-0.01250320672988892,0.02361929416656494,1,0.7525825500488281,0.03388115018606186,0.3989792168140411,-0.5227688550949097,-0.6359536051750183,0.7598176598548889,0.1350568532943726,0,0,0,-1,63081.26971254167,1,2,1561240620.932627,1561239991.781823,76,3.632473,0,0,66.78877,0,0,1561240563.880506,63078.555557,0,-0.5761719,74.42062,2650659446,177292352,1,1,0.32,-10.27654,-15.09064,3
1561240621.150664,90,0,0,1561240619.850203,4.603055131891548,-74.0647754759699,2651.421,-1,-1,10,65,-9999,1561240621.144276,-3.241878509521484,14.85878372192383,20.823974609375,153.2364959716797,160.7801818847656,15,63081.50204254167,-0.662567138671875,0.7412109375,0.1463775634765625,63081.49090354167,0.106207396904578,-0.0005185174642384277,0.3375793703012451,63081.49184954167,35.45011901855469,15.18067932128906,-512.2359619140625,63081.49593954167,-2.337211754610445,-1.77933908780959,-0.8699226431604687,0.1262305676937103,-0.01405608654022217,0.3289862871170044,-0.0190805196762085,-0.01807844638824463,0.01493918895721436,1,0.7521681189537048,0.03162119165062904,0.3973357975482941,-0.5247547030448914,-0.6309133768081665,0.7642790675163269,0.133513554930687,0,0,0,-1,63081.26971254167,1,2,1561240620.932627,1561239991.781823,76,3.632473,0,0,66.78877,0,0,1561240563.880506,63078.555557,0,-0.5761719,74.42062,2650659446,177292352,1,1,0.32,-9.888376,-15.22771,3
1561240621.170279,91,0,0,1561240619.850203,4.603055131891548,-74.0647754759699,2651.421,-1,-1,10,65,-9999,1561240621.144276,-3.241878509521484,14.85878372192383,20.823974609375,153.2364959716797,160.7801818847656,15,63081.52227554167,-0.6688232421875,0.743377685546875,0.14996337890625,63081.51113654167,0.2060820630530567,-0.02135455720080037,0.2940225717246722,63081.51196054167,35.60572814941406,15.36968994140625,-512.2356567382812,63081.51620254167,-2.333781812473227,-1.777195541843916,-0.8766322390287645,0.2196494787931442,-0.03355282172560692,0.2773316204547882,-0.04439783096313477,-0.03012442588806152,0.01635384559631348,1,0.7514281868934631,0.03015265800058842,0.3954913020133972,-0.527288556098938,-0.6261649131774902,0.7685887217521667,0.1311070024967194,0,0,0,-1,63081.26971254167,1,2,1561240620.932627,1561239991.781823,76,3.632473,0,0,66.78877,0,0,1561240563.880506,63078.555557,0,-0.5761719,74.42062,2650659446,177292352,1,1,0.32,-9.888376,-15.76597,3
1561240621.191569,92,0,0,1561240619.850203,4.603055131891548,-74.0647754759699,2651.421,-1,-1,10,65,-9999,1561240621.170549,-3.1171875,15.13477897644043,20.65093994140625,153.0322570800781,160.5759429931641,15,63081.54253954167,-0.6595306396484375,0.76214599609375,0.1599578857421875,63081.53140054167,0.2451327930652155,-0.07023528111255074,0.2585367491476934,63081.53210254167,35.78324890136719,15.51264953613281,-512.166015625,63081.53646654167,-2.328187421121515,-1.774156818592849,-0.8827273328333944,0.2403217256069183,-0.08987095952033997,0.248115673661232,-0.04236125946044922,-0.01994073390960693,0.02720141410827637,1,0.7505065202713013,0.02945384383201599,0.3935574293136597,-0.5300801992416382,-0.6219606399536133,0.7724737524986267,0.1282551288604736,0,0,0,-1,63081.26971254167,1,2,1561240620.932627,1561239991.781823,76,3.632473,0,0,66.78877,0,0,1561240563.880506,63078.555557,0,-0.5761719,74.42062,2650659446,177292352,1,1,0.32,-9.888376,-16.24265,3
1561240621.211411,93,0,0,1561240619.850203,4.603055131891548,-74.0647754759699,2651.421,-1,-1,10,65,-9999,1561240621.19497,-2.981250762939453,15.11912822723389,20.7254638671875,152.7214508056641,160.26513671875,15,63081.56280354167,-0.6564788818359375,0.770660400390625,0.1636199951171875,63081.55166454167,0.2139852599039758,-0.1102111932874032,0.218867366814309,63081.55221354167,36.018310546875,15.54640197753906,-512.1846313476562,63081.55673054167,-2.322774408377001,-1.772207631518851,-0.8880294753179605,0.1963396221399307,-0.1244542375206947,0.2012832015752792,-0.03725343942642212,-0.007046401500701904,0.0372765064239502,1,0.7498376369476318,0.02922737039625645,0.3914550244808197,-0.5325902104377747,-0.6181878447532654,0.7758299708366394,0.1262214481830597,0,0,0,-1,63081.26971254167,1,2,1561240620.932627,1561239991.781823,76,3.632473,0,0,66.78877,0,0,1561240563.880506,63078.555557,0,-0.5761719,74.42062,2650659446,177292352,1,1,0.32,-9.888376,-16.3203,3
1561240621.231145,94,0,0,1561240619.850203,4.603055131891548,-74.0647754759699,2651.421,-1,-1,10,65,-9999,1561240621.221254,-2.692760467529297,15.26177215576172,20.78424072265625,152.4072113037109,159.9508972167969,15,63081.58306654167,-0.6613616943359375,0.78045654296875,0.1654510498046875,63081.57192754167,0.1495032056943232,-0.128387800359412,0.1438011114843546,63081.57235554167,36.15492248535156,15.61799621582031,-512.3438720703125,63081.57699354167,-2.318689977289055,-1.771681689983029,-0.8918212307538242,0.1261669248342514,-0.1254270821809769,0.114314466714859,-0.04291230440139771,-0.003421247005462646,0.04009687900543213,1,0.7495274543762207,0.02937335520982742,0.3895604908466339,-0.5344048142433167,-0.6153671145439148,0.7782167792320251,0.1253083944320679,0,0,0,-1,63081.26971254167,1,2,1561240620.932627,1561239991.781823,76,3.632473,0,0,66.78877,0,0,1561240563.880506,63078.555557,0,-0.5761719,74.42062,2650659446,177292352,1,1,0.32,-9.888376,-16.70665,3
1561240621.251408,95,0,0,1561240619.850203,4.603055131891548,-74.0647754759699,2651.421,-1,-1,10,65,-9999,1561240621.245623,-2.627853393554688,15.29411506652832,20.57110595703125,152.2071533203125,159.7508392333984,15,63081.60333054167,-0.6666717529296875,0.795928955078125,0.1708831787109375,63081.59219154167,0.06907334392894916,-0.06627409530716688,0.0414507707865383,63081.59246654167,36.23225402832031,15.93992614746094,-512.35595703125,63081.59725754167,-2.316422829546997,-1.771777403530709,-0.8932925145377778,0.04212900623679161,-0.05140878260135651,0.01700150035321712,-0.05214953422546387,0.006031632423400879,0.04435610771179199,1,0.7494553327560425,0.02976535633206367,0.3885284066200256,-0.5352348685264587,-0.6142323017120361,0.7791398763656616,0.1251385509967804,0,0,0,-1,63081.26971254167,1,2,1561240620.932627,1561239991.781823,76,3.632473,0,0,66.78877,0,0,1561240563.880506,63078.555557,0,-0.5761719,74.42062,2650659446,177292352,1,1,0.32,-9.888376,-16.80058,3
1561240621.271692,96,0,0,1561240619.850203,4.603055131891548,-74.0647754759699,2651.421,-1,-1,10,65,-9999,1561240621.245623,-2.627853393554688,15.29411506652832,20.57110595703125,152.2071533203125,159.7508392333984,15,63081.62359454167,-0.6504669189453125,0.7977142333984375,0.16815185546875,63081.61245554167,-0.03140612610308644,0.01871083718667871,-0.03115392474785594,63081.61260754167,35.9219970703125,15.9417724609375,-512.2674560546875,63081.61752154167,-2.316602905187961,-1.772093641601907,-0.8927890933662146,-0.05768440663814545,0.02953613363206387,-0.04626641795039177,-0.04737973213195801,0.02064478397369385,0.0454566478729248,1,0.7495390176773071,0.02994784712791443,0.3885916471481323,-0.5350616574287415,-0.6145771145820618,0.7788242101669312,0.1254112273454666,0,0,0,-1,63081.26971254167,1,2,1561240620.932627,1561239991.781823,76,3.632473,0,0,66.78877,0,0,1561240563.880506,63078.555557,0,-0.5761719,74.42062,2650659446,177292352,1,1,0.32,-9.888376,-17.3838,3
1561240621.29199,97,0,0,1561240619.850203,4.603055131891548,-74.0647754759699,2651.421,-1,-1,10,65,-9999,1561240621.27198,-2.822463989257812,15.26334381103516,20.80194091796875,152.2249145507812,159.7686004638672,15,63081.64385754167,-0.6302642822265625,0.7877960205078125,0.1569061279296875,63081.63271854167,-0.1245858715872149,0.06057466425828831,-0.06515317080435253,63081.63274954167,36.18260192871094,15.78680419921875,-512.411376953125,63081.63778454167,-2.319614308842243,-1.773487189244361,-0.8910904719923879,-0.1507996916770935,0.06914878636598587,-0.06833284348249435,-0.02372318506240845,0.01801872253417969,0.0363997220993042,1,0.7499212026596069,0.02974887937307358,0.3893238008022308,-0.5340037941932678,-0.6156963706016541,0.7777576446533203,0.1265336126089096,0,0,0,-1,63081.26971254167,1,2,1561240620.932627,1561239991.781823,76,3.632473,0,0,66.78877,0,0,1561240563.880506,63078.555557,0,-0.5761719,74.42062,2650659446,177292352,1,1,0.32,-9.888376,-17.3838,3
1561240621.312212,98,0,0,1561240619.850203,4.603055131891548,-74.0647754759699,2651.421,-1,-1,10,65,-9999,1561240621.296278,-2.775344848632812,15.21555614471436,20.76971435546875,152.4240417480469,159.9677276611328,15,63081.66412154167,-0.6057281494140625,0.7700042724609375,0.1381988525390625,63081.65298254167,-0.1894929663068441,0.1055171055500295,-0.09505008351769106,63081.65286054167,35.96969604492188,15.59529113769531,-512.1724853515625,63081.65804854167,-2.324749764140427,-1.775622062489846,-0.8885645446904986,-0.2073260843753815,0.1033099517226219,-0.1024655103683472,-0.0001764297485351562,0.001740872859954834,0.02182328701019287,1,0.750512957572937,0.0292199682444334,0.3905591070652008,-0.5322970747947693,-0.6173467636108398,0.7761674523353577,0.128247007727623,0,0,0,-1,63081.26971254167,1,2,1561240620.932627,1561239991.781823,76,3.632473,0,0,66.78877,0,0,1561240563.880506,63078.555557,0,-0.5761719,74.42062,2650659446,177292352,1,1,0.32,-9.888376,-16.5267,3
1561240621.333128,99,0,0,1561240619.850203,4.603055131891548,-74.0647754759699,2651.421,-1,-1,10,65,-9999,1561240621.322569,-2.754619598388672,15.29332447052002,20.8441162109375,152.7327728271484,160.2764587402344,15,63081.68438941667,-0.5821075439453125,0.7523193359375,0.1175079345703125,63081.67324654167,-0.2289610136618184,0.1113957673402704,-0.1104777757125201,63081.67300641667,35.81098937988281,15.51309204101562,-512.2064819335938,63081.67831641667,-2.331100645479454,-1.77842167065493,-0.8853855256119716,-0.2338756769895554,0.109277032315731,-0.1066898182034492,0.02691292762756348,-0.01285231113433838,-0.002095341682434082,1,0.7512804269790649,0.02862001769244671,0.3920307159423828,-0.5301608443260193,-0.619396448135376,0.7741590738296509,0.1304827779531479,0,0,0,-1,63081.26971254167,1,2,1561240620.932627,1561239991.781823,76,3.632473,0,0,66.78877,0,0,1561240563.880506,63078.555557,0,-0.5761719,74.42062,2650659446,177292352,1,1,0.32,-7.283711,-12.74902,3
1561240621.352738,100,0,0,1561240619.850203,4.603055131891548,-74.0647754759699,2651.421,-1,-1,10,65,-9999,1561240621.347406,-2.993499755859375,15.31851673126221,20.615234375,153.0610809326172,160.6047668457031,15,63081.70465241667,-0.5653228759765625,0.748138427734375,0.0987548828125,63081.69351341667,-0.2194183748438465,0.1050736892285313,-0.07688040066451646,63081.69314741667,35.73150634765625,15.63246154785156,-512.22509765625,63081.69857941667,-2.337707952062014,-1.781461640686347,-0.8826271758775405,-0.2158591151237488,0.09430287778377533,-0.06914617121219635,0.0489850640296936,-0.02234905958175659,-0.02410757541656494,1,0.7520840167999268,0.02784265950322151,0.3933581709861755,-0.5280755758285522,-0.6210828423500061,0.7724101543426514,0.1328111588954926,0,0,0,-1,63081.26971254167,1,2,1561240620.932627,1561239991.781823,76,3.632473,0,0,66.78877,0,0,1561240563.880506,63078.555557,0,-0.5761719,74.42062,2650659446,177292352,1,1,0.32,-6.787295,-13.00386,3
1561240621.372984,101,0,0,1561240619.850203,4.603055131891548,-74.0647754759699,2651.421,-1,-1,10,65,-9999,1561240621.347406,-2.993499755859375,15.31851673126221,20.615234375,153.0610809326172,160.6047668457031,15,63081.72491641667,-0.5640716552734375,0.7480926513671875,0.089324951171875,63081.71377741667,-0.1418095996211933,0.08721746043565902,-0.03919001333717004,63081.71325841667,35.75688171386719,15.34376525878906,-512.1091918945312,63081.71884341667,-2.342811256238208,-1.783700437635944,-0.8808675493881386,-0.1181903630495071,0.07057996839284897,-0.03263609483838081,0.05845171213150024,-0.02467882633209229,-0.04186749458312988,1,0.7526688575744629,0.02708744816482067,0.3943201303482056,-0.526561975479126,-0.6221113801002502,0.7712913751602173,0.1344882845878601,0,0,0,-1,63081.26971254167,1,2,1561240620.932627,1561239991.781823,76,3.632473,0,0,66.78877,0,0,1561240563.880506,63078.555557,0,-0.5761719,74.42062,2650659446,177292352,1,1,0.32,-6.787295,-13.13838,3
1561240621.393262,102,0,0,1561240619.850203,4.603055131891548,-74.0647754759699,2651.421,-1,-1,10,65,-9999,1561240621.373282,-2.944816589355469,15.09822273254395,20.95556640625,153.29736328125,160.8410491943359,15,63081.74518041667,-0.5706939697265625,0.7623748779296875,0.091705322265625,63081.73404141667,-0.02605849863420733,0.04637921669983894,0.0006918892512025861,63081.73340041667,35.7734375,15.313720703125,-512.0023193359375,63081.73907641667,-2.344622995701256,-1.784091965184744,-0.880387179961881,-0.0001686492469161749,0.03166239708662033,0.01028234325349331,0.05784553289413452,-0.01674354076385498,-0.04565310478210449,1,0.7527908682823181,0.02666527032852173,0.394774466753006,-0.5260684490203857,-0.6224207282066345,0.77098548412323,0.1348102539777756,0,0,0,-1,63081.26971254167,1,2,1561240620.932627,1561239991.781823,76,3.632473,0,0,66.78877,0,0,1561240563.880506,63078.555557,0,-0.5761719,74.42062,2650659446,177292352,1,1,0.32,-6.787295,-13.74366,3
1561240621.420391,103,0,0,1561240619.850203,4.603055131891548,-74.0647754759699,2651.421,-1,-1,10,65,-9999,1561240621.397579,-3.024696350097656,14.96116638183594,21.02105712890625,153.3501281738281,160.8938140869141,15,63081.76544341667,-0.5850067138671875,0.7759246826171875,0.1041259765625,63081.75430441667,0.07363720308901796,0.006702377515402418,0.0530629520876108,63081.75351141667,35.94157409667969,15.3480224609375,-512.2395629882812,63081.75934041667,-2.343361957899998,-1.782922081909026,-0.8813314320140611,0.08802273124456406,-0.004579493775963783,0.06017879769206047,0.04483979940414429,-0.00150597095489502,-0.03589093685150146,1,0.7525030374526978,0.02652397751808167,0.3946373462677002,-0.5265900492668152,-0.6218661069869995,0.771586537361145,0.1339286863803864,0,0,0,-1,63081.26971254167,1,2,1561240620.932627,1561239991.781823,76,3.632473,0,0,66.78877,0,0,1561240563.880506,63078.555557,0,-0.5761719,74.42062,2650659446,177292352,1,1,0.32,-6.787295,-14.3393,3
1561240621.43376,104,0,0,1561240619.850203,4.603055131891548,-74.0647754759699,2651.421,-1,-1,10,65,-9999,1561240621.424087,-3.025562286376953,15.06895923614502,20.76031494140625,153.2543029785156,160.7979888916016,15,63081.78567741667,-0.617645263671875,0.7891387939453125,0.1248779296875,63081.77456841667,0.1148000861617187,-0.02881327246578529,0.08575724920996858,63081.77365341667,35.70246887207031,15.50306701660156,-511.97998046875,63081.77960441667,-2.340627355912546,-1.78129616203435,-0.8833281788746559,0.1120391041040421,-0.04550819844007492,0.07907504588365555,0.02119475603103638,0.01071417331695557,-0.01800167560577393,1,0.7520617246627808,0.02647226862609386,0.394008070230484,-0.5276932120323181,-0.6205752491950989,0.7728551626205444,0.1325952410697937,0,0,0,-1,63081.26971254167,1,2,1561240620.932627,1561239991.781823,76,3.632473,0,0,66.78877,0,0,1561240563.880506,63078.555557,0,-0.5761719,74.42062,2650659446,177292352,1,1,0.32,-6.787295,-14.80409,3
1561240621.454008,105,0,0,1561240619.850203,4.603055131891548,-74.0647754759699,2651.421,-1,-1,10,65,-9999,1561240621.4482,-2.915935516357422,15.10965156555176,20.86920166015625,153.1138763427734,160.6575622558594,15,63081.80594041667,-0.642303466796875,0.790802001953125,0.146820068359375,63081.79480141667,0.09014667131863717,-0.03318724824013144,0.05379958244512673,63081.79379441667,35.81913757324219,15.57002258300781,-512.1546020507812,63081.79986741667,-2.337984019048978,-1.780088414179417,-0.8849912137128588,0.07196332514286041,-0.02325455658137798,0.03626952692866325,-0.01281684637069702,0.01562613248825073,0.004560470581054688,1,0.7517189979553223,0.02660378441214561,0.3933298885822296,-0.5286799669265747,-0.619476854801178,0.7739094495773315,0.1315784305334091,0,0,0,-1,63081.26971254167,1,2,1561240620.932627,1561239991.781823,76,3.632473,0,0,66.78877,0,0,1561240563.880506,63078.555557,0,-0.5761719,74.42062,2650659446,177292352,1,1,0.32,-6.787295,-14.80409,3
1561240621.474775,106,0,0,1561240619.850203,4.603055131891548,-74.0647754759699,2651.421,-1,-1,10,65,-9999,1561240621.4482,-2.915935516357422,15.10965156555176,20.86920166015625,153.1138763427734,160.6575622558594,15,63081.82620441667,-0.6491241455078125,0.7845306396484375,0.1630401611328125,63081.81506541667,0.03369884148553565,0.05252099880577968,-0.00551434135311807,63081.81390541667,36.01016235351562,15.47496032714844,-512.3228759765625,63081.82013141667,-2.33660168331919,-1.778520637833897,-0.8853765310801536,0.01514212042093277,0.06726548820734024,-0.02086113579571247,-0.02965748310089111,0.01460391283035278,0.02610123157501221,1,0.7513761520385742,0.02658263593912125,0.3934526443481445,-0.5290768146514893,-0.6193903684616089,0.7741534113883972,0.130545511841774,0,0,0,-1,63081.26971254167,1,2,1561240620.932627,1561239991.781823,76,3.632473,0,0,66.78877,0,0,1561240563.880506,63078.555557,0,-0.5761719,74.42062,2650659446,177292352,1,1,0.32,-6.787295,-15.72522,3
1561240621.500418,107,0,0,1561240619.850203,4.603055131891548,-74.0647754759699,2651.421,-1,-1,10,65,-9999,1561240621.498921,-3.329204559326172,15.08436965942383,20.8372802734375,153.2712860107422,160.8149719238281,15,63081.84646841667,-0.6418914794921875,0.77587890625,0.1675262451171875,63081.83532941667,-0.02334154169010849,0.1148360388364348,-0.05296548039171391,63081.83404741667,35.69000244140625,15.33688354492188,-512.3790283203125,63081.84039541667,-2.336661993301699,-1.776582275533909,-0.8844980727587102,-0.04009636491537094,0.1189451962709427,-0.06529384851455688,-0.02423900365829468,0.007805585861206055,0.03663897514343262,1,0.7510314583778381,0.02633466571569443,0.3944263160228729,-0.5288534760475159,-0.6203075051307678,0.7735970020294189,0.1294835358858109,0,0,0,-1,63081.26971254167,1,2,1561240620.932627,1561239991.781823,76,3.632473,0,0,66.78877,0,0,1561240563.880506,63078.555557,0,-0.5761719,74.42062,2650659446,177292352,1,1,0.32,-6.787295,-16.48414,3
1561240621.514756,108,0,0,1561240619.850203,4.603055131891548,-74.0647754759699,2651.421,-1,-1,10,65,-9999,1561240621.498921,-3.329204559326172,15.08436965942383,20.8372802734375,153.2712860107422,160.8149719238281,15,63081.86673141667,-0.6448211669921875,0.7707977294921875,0.167083740234375,63081.85559241667,-0.06410175480598924,0.1371394803336304,-0.08812826152846612,63081.85415841667,35.37205505371094,15.3099365234375,-512.2339477539062,63081.86065841667,-2.337907506775578,-1.774907558768272,-0.882699240560178,-0.07793669402599335,0.1343028545379639,-0.1012443900108337,-0.02195912599563599,0.001302063465118408,0.03927290439605713,1,0.7507905960083008,0.02601348981261253,0.3958545625209808,-0.5281439423561096,-0.6218854784965515,0.7724558711051941,0.1287264376878738,0,0,0,-1,63081.26971254167,1,2,1561240620.932627,1561239991.781823,76,3.632473,0,0,66.78877,0,0,1561240563.880506,63078.555557,0,-0.5761719,74.42062,2650659446,177292352,1,1,0.32,-6.787295,-17.14953,3
1561240621.535063,109,0,0,1561240619.850203,4.603055131891548,-74.0647754759699,2651.421,-1,-1,10,65,-9999,1561240621.525307,-3.391525268554688,15.0446252822876,20.67474365234375,153.5015563964844,161.0452423095703,15,63081.88699541667,-0.63482666015625,0.747161865234375,0.165283203125,63081.87585641667,-0.1201274736063132,0.1352062916983419,-0.1318057013024197,63081.87430041667,35.42051696777344,15.35745239257812,-512.1815185546875,63081.88092241667,-2.340474705273782,-1.774202489337644,-0.8798125965593865,-0.1393212080001831,0.1311073303222656,-0.1454368829727173,-0.01753568649291992,-0.009480535984039307,0.0381627082824707,1,0.7508014440536499,0.02580917626619339,0.3975495398044586,-0.5268638730049133,-0.6241573691368103,0.7706194519996643,0.1287378370761871,0,0,0,-1,63081.26971254167,1,2,1561240620.932627,1561239991.781823,76,3.632473,0,0,66.78877,0,0,1561240563.880506,63078.555557,0,-0.5761719,74.42062,2650659446,177292352,1,1,0.32,-6.787295,-18.11748,3
1561240621.55533,110,0,0,1561240619.850203,4.603055131891548,-74.0647754759699,2651.421,-1,-1,10,65,-9999,1561240621.549536,-3.353752136230469,15.01601886749268,20.8482666015625,153.7990264892578,161.3427124023438,15,63081.90725941667,-0.612213134765625,0.7245330810546875,0.1554107666015625,63081.89612041667,-0.1898839183548677,0.1307284526414826,-0.1670321319892248,63081.89441141667,35.35636901855469,15.76271057128906,-512.1858520507812,63081.90118641667,-2.344942546321506,-1.775110235024455,-0.8758561372204957,-0.2104103118181229,0.129304364323616,-0.1758970618247986,0.002875447273254395,-0.03434258699417114,0.03282833099365234,1,0.7512005567550659,0.02566550672054291,0.3994125723838806,-0.5248892903327942,-0.6270210146903992,0.7680919766426086,0.1299219876527786,0,0,0,-1,63081.26971254167,1,2,1561240620.932627,1561239991.781823,76,3.632473,0,0,66.78877,0,0,1561240563.880506,63078.555557,0,-0.5761719,74.42062,2650659446,177292352,1,1,0.32,-6.787295,-17.95089,3
1561240621.581661,111,0,0,1561240619.850203,4.603055131891548,-74.0647754759699,2651.421,-1,-1,10,65,-9999,1561240621.575819,-3.609340667724609,14.61968040466309,20.8480224609375,154.1775970458984,161.7212829589844,15,63081.92752241667,-0.5913848876953125,0.7313385009765625,0.1284332275390625,63081.91638341667,-0.2460987215925873,0.1479074395691478,-0.1587470378379883,63081.91455241667,35.13909912109375,15.13389587402344,-512.2039794921875,63081.92144941667,-2.351272888250486,-1.777218261458281,-0.8715144019270327,-0.2557266652584076,0.1437245756387711,-0.1461657881736755,0.03037911653518677,-0.0423583984375,0.01016414165496826,1,0.7518808841705322,0.02525861002504826,0.4014019966125488,-0.5224114060401917,-0.6300037503242493,0.7653045654296875,0.1319257169961929,0,0,0,-1,63081.26971254167,1,2,1561240620.932627,1561239991.781823,76,3.632473,0,0,66.78877,0,0,1561240563.880506,63078.555557,0,-0.5761719,74.42062,2650659446,177292352,1,1,0.32,-6.787295,-17.76353,3
1561240621.595914,112,0,0,1561240619.850203,4.603055131891548,-74.0647754759699,2651.421,-1,-1,10,65,-9999,1561240621.575819,-3.609340667724609,14.61968040466309,20.8480224609375,154.1775970458984,161.7212829589844,15,63081.94778641667,-0.5951995849609375,0.7610626220703125,0.10333251953125,63081.93664741667,-0.2222913930278239,0.1197370541905076,-0.08270127185910264,63081.93469441667,35.29942321777344,15.00411987304688,-511.7796630859375,63081.94171341667,-2.358016979539066,-1.779895916707768,-0.8684103868374399,-0.200408011674881,0.08668126165866852,-0.0610722042620182,0.0431627631187439,-0.01899445056915283,-0.01920592784881592,1,0.7526322603225708,0.02443352341651917,0.402952253818512,-0.5201703906059265,-0.6319689154624939,0.7633029222488403,0.1341046392917633,0,0,0,-1,63081.26971254167,1,2,1561240620.932627,1561239991.781823,76,3.632473,0,0,66.78877,0,0,1561240563.880506,63079.504016,0,-0.5998535,74.42083,2650659446,177292352,1,1,0.32,-6.787295,-18.31556,3
1561240621.616124,113,0,0,1561240619.850203,4.603055131891548,-74.0647754759699,2651.421,-1,-1,10,65,-9999,1561240621.600211,-3.425220489501953,14.61609172821045,21.19497680664062,154.4718627929688,162.0155487060547,15,63081.96805041667,-0.629669189453125,0.7937164306640625,0.1111602783203125,63081.95691141667,-0.07719811578256291,-0.01834971254286397,-0.01145532111286683,63081.95480541667,35.23756408691406,14.96696472167969,-512.0145263671875,63081.96197741667,-2.361670014821533,-1.782446905973463,-0.8673136073648172,-0.0308940801769495,-0.05491527915000916,-0.01695587672293186,0.0204736590385437,0.02024298906326294,-0.03170502185821533,1,0.7532371878623962,0.02407865785062313,0.403222382068634,-0.5191007852554321,-0.6324427127838135,0.7625939249992371,0.1358920931816101,0,0,0,-1,63081.26971254167,1,2,1561240620.932627,1561239991.781823,76,3.632473,0,0,66.78877,0,0,1561240563.880506,63079.504016,0,-0.5998535,74.42083,2650659446,177292352,1,1,0.32,-6.787295,-18.31556,3
1561240621.636438,114,0,0,1561240619.850203,4.603055131891548,-74.0647754759699,2651.421,-1,-1,10,65,-9999,1561240621.626413,-3.459152221679688,14.47341346740723,21.0225830078125,154.4182586669922,161.9619445800781,15,63081.98831341667,-0.6696014404296875,0.772552490234375,0.148040771484375,63081.97717441667,0.1029751182895489,-0.0632026716219785,-0.05700682734590915,63081.97494741667,35.42510986328125,15.2056884765625,-511.8895874023438,63081.98224041667,-2.359717442060429,-1.782400222746591,-0.8666721666050164,0.1163739338517189,-0.03911048173904419,-0.07981579750776291,-0.0229412317276001,0.02325206995010376,-0.005990982055664062,1,0.7532311081886292,0.0250109825283289,0.4028975963592529,-0.5193177461624146,-0.6329272985458374,0.7621788382530212,0.1359653025865555,0,0,0,-1,63081.26971254167,1,2,1561240620.932627,1561239991.781823,76,3.632473,0,0,66.78877,0,0,1561240563.880506,63079.504016,0,-0.5998535,74.42083,2650659446,177292352,1,1,0.32,-6.787295,-18.75339,3
1561240621.662217,115,0,0,1561240619.850203,4.603055131891548,-74.0647754759699,2651.421,-1,-1,10,65,-9999,1561240621.650831,-3.417884826660156,14.71783256530762,21.03860473632812,154.3400421142578,161.8837280273438,15,63082.00857741667,-0.6720428466796875,0.75238037109375,0.177337646484375,63081.99743841667,0.1107161286300822,0.0912295126178634,-0.1258636562782349,63081.99508841667,35.53533935546875,15.13536071777344,-511.9117431640625,63082.00247341667,-2.355616742849578,-1.778424368734319,-0.8648767861121471,0.08828210830688477,0.1111373379826546,-0.1382130682468414,-0.04041588306427002,-0.001326024532318115,0.03011929988861084,1,0.752451479434967,0.02610749192535877,0.4037899076938629,-0.5197007656097412,-0.6348007917404175,0.7610153555870056,0.1337296664714813,0,0,0,-1,63081.26971254167,1,2,1561240620.932627,1561239991.781823,76,3.632473,0,0,66.78877,0,0,1561240563.880506,63079.504016,0,-0.5998535,74.42083,2650659446,177292352,1,1,0.32,-6.787295,-19.6276,3
1561240621.677613,116,0,0,1561240619.850203,4.603055131891548,-74.0647754759699,2651.421,-1,-1,10,65,-9999,1561240621.650831,-3.417884826660156,14.71783256530762,21.03860473632812,154.3400421142578,161.8837280273438,15,63082.02884141667,-0.659912109375,0.7421417236328125,0.191741943359375,63082.01770241667,0.0463544493017012,0.09279545133882998,-0.1351527621604313,63082.01519941667,34.92314147949219,15.31089782714844,-511.7642211914062,63082.02273741667,-2.352911961810096,-1.774386217531895,-0.8624020025008475,0.03780908510088921,0.05887386947870255,-0.1368681639432907,-0.02496188879013062,-0.008965015411376953,0.0558476448059082,1,0.7516980767250061,0.02688414044678211,0.4052417278289795,-0.5196213126182556,-0.6371780037879944,0.7594075202941895,0.1315455138683319,0,0,0,-1,63081.26971254167,1,2,1561240620.932627,1561239991.781823,76,3.632473,0,0,66.78877,0,0,1561240563.880506,63079.504016,0,-0.5998535,74.42083,2650659446,177292352,1,1,0.32,-6.787295,-19.74474,3
1561240621.697223,117,0,0,1561240619.850203,4.603055131891548,-74.0647754759699,2651.421,-1,-1,10,65,-9999,1561240621.677749,-3.721511840820312,14.89433097839355,20.90631103515625,154.3834686279297,161.9271545410156,15,63082.04907441667,-0.68505859375,0.7144622802734375,0.20574951171875,63082.03796541667,0.02446566198623094,-0.0236475388993586,-0.1328374099087164,63082.03534141667,35.366943359375,15.06016540527344,-512.0842895507812,63082.04300141667,-2.35122023059404,-1.773051605038156,-0.8598832070568858,0.006381120532751083,-0.05679973214864731,-0.1477296054363251,-0.02914047241210938,-0.02789264917373657,0.06760585308074951,1,0.7515022158622742,0.02799751237034798,0.4059517383575439,-0.5192916393280029,-0.6392250061035156,0.7577663660049438,0.1310788840055466,0,0,0,-1,63081.26971254167,1,2,1561240620.932627,1561239991.781823,76,3.632473,0,0,66.78877,0,0,1561240563.880506,63079.504016,0,-0.5998535,74.42083,2650659446,177292352,1,1,0.32,-6.787295,-20.02526,3
1561240621.717454,118,0,0,1561240619.850203,4.603055131891548,-74.0647754759699,2651.421,-1,-1,10,65,-9999,1561240621.701472,-3.490814208984375,14.54074382781982,21.03744506835938,154.3316345214844,161.8753204345703,15,63082.06933741667,-0.7191314697265625,0.7072601318359375,0.2134552001953125,63082.05819841667,-0.07366436733213677,-0.07814992955615722,-0.193523926932788,63082.05545241667,35.08512878417969,15.20353698730469,-511.9836730957031,63082.06326441667,-2.351441744138759,-1.77478041520058,-0.8561658233307843,-0.1120901331305504,-0.07438618689775467,-0.2081844210624695,-0.05992418527603149,-0.04830420017242432,0.08070170879364014,1,0.7519985437393188,0.02957885526120663,0.4063144028186798,-0.5182005167007446,-0.641751229763031,0.7553354501724243,0.1327534317970276,0,0,0,-1,63081.26971254167,1,2,1561240620.932627,1561239991.781823,76,3.632473,0,0,66.78877,0,0,1561240563.880506,63079.504016,0,-0.5998535,74.42083,2650659446,177292352,1,1,0.32,-6.787295,-15.47751,3
1561240621.741933,119,0,0,1561240619.850203,4.603055131891548,-74.0647754759699,2651.421,-1,-1,10,65,-9999,1561240621.727711,-3.764080047607422,14.59732532501221,21.21682739257812,154.3724517822266,161.9161376953125,15,63082.08960141667,-0.77130126953125,0.7285614013671875,0.20623779296875,63082.07846241667,-0.1980805955579136,-0.05177291685557642,-0.2306579799084169,63082.07559441667,35.04817199707031,15.0030517578125,-512.0401611328125,63082.08352841667,-2.355310396491888,-1.778980788268724,-0.8509618775942841,-0.2113639861345291,-0.04781316220760345,-0.2500517070293427,-0.09737581014633179,-0.0367506742477417,0.07368719577789307,1,0.7531094551086426,0.03090928308665752,0.4070671498775482,-0.5159138441085815,-0.6450253129005432,0.7519148588180542,0.1362584680318832,0,0,0,-1,63081.26971254167,1,2,1561240620.932627,1561239991.781823,76,3.632473,0,0,66.78877,0,0,1561240563.880506,63079.504016,0,-0.5998535,74.42083,2650659446,177292352,1,1,0.32,-6.787295,-16.02204,3
1561240621.758455,120,0,0,1561240619.850203,4.603055131891548,-74.0647754759699,2651.421,-1,-1,10,65,-9999,1561240621.752157,-3.749671936035156,14.64168167114258,21.19744873046875,154.5167541503906,162.0604400634766,15,63082.10986541667,-0.8393707275390625,0.7250518798828125,0.2049102783203125,63082.09872641667,-0.1700431019176684,-0.02005919564658583,-0.3352371201225204,63082.09570541667,34.84251403808594,15.06185913085938,-511.6408081054688,63082.10379241667,-2.359153770870253,-1.782566690052853,-0.8440669243467197,-0.1542588919401169,-0.006729109678417444,-0.3771425485610962,-0.1551018357276917,-0.01673012971878052,0.06430721282958984,1,0.7541642189025879,0.03263160586357117,0.4084623754024506,-0.5131568312644958,-0.6495856642723083,0.7473514676094055,0.1396569758653641,0,0,0,-1,63081.26971254167,1,2,1561240620.932627,1561239991.781823,76,3.632473,0,0,66.78877,0,0,1561240563.880506,63079.504016,0,-0.5998535,74.42083,2650659446,177292352,1,1,0.32,-6.787295,-16.86257,3
1561240621.77834,121,0,0,1561240619.850203,4.603055131891548,-74.0647754759699,2651.421,-1,-1,10,65,-9999,1561240621.752157,-3.749671936035156,14.64168167114258,21.19744873046875,154.5167541503906,162.0604400634766,15,63082.13012841667,-0.8694000244140625,0.7281646728515625,0.20367431640625,63082.11899041667,-0.1077965051270283,0.05229063537148783,-0.5010924012260393,63082.11584641667,34.66484069824219,14.65972900390625,-511.851318359375,63082.12405541667,-2.359955114901245,-1.78265217984382,-0.8344230880343639,-0.1056319698691368,0.06811956316232681,-0.5504847764968872,-0.2062186598777771,-0.0141025185585022,0.06425333023071289,1,0.7545535564422607,0.03549198806285858,0.4110820293426514,-0.5102947354316711,-0.6565895676612854,0.7409091591835022,0.1412215083837509,0,0,0,-1,63081.26971254167,1,2,1561240620.932627,1561239991.781823,76,3.632473,0,0,66.78877,0,0,1561240563.880506,63079.504016,0,-0.5998535,74.42083,2650659446,177292352,1,1,0.32,-6.787295,-16.86257,3
