loggingTime,loggingSample,identifierForVendor,deviceID,locationTimestamp_since1970,locationLatitude,locationLongitude,locationAltitude,locationSpeed,locationCourse,locationVerticalAccuracy,locationHorizontalAccuracy,locationFloor,locationHeadingTimestamp_since1970,locationHeadingX,locationHeadingY,locationHeadingZ,locationTrueHeading,locationMagneticHeading,locationHeadingAccuracy,accelerometerTimestamp_sinceReboot,accelerometerAccelerationX,accelerometerAccelerationY,accelerometerAccelerationZ,gyroTimestamp_sinceReboot,gyroRotationX,gyroRotationY,gyroRotationZ,magnetometerTimestamp_sinceReboot,magnetometerX,magnetometerY,magnetometerZ,motionTimestamp_sinceReboot,motionYaw,motionRoll,motionPitch,motionRotationRateX,motionRotationRateY,motionRotationRateZ,motionUserAccelerationX,motionUserAccelerationY,motionUserAccelerationZ,motionAttitudeReferenceFrame,motionQuaternionX,motionQuaternionY,motionQuaternionZ,motionQuaternionW,motionGravityX,motionGravityY,motionGravityZ,motionMagneticFieldX,motionMagneticFieldY,motionMagneticFieldZ,motionMagneticFieldCalibrationAccuracy,activityTimestamp_sinceReboot,activity,activityActivityConfidence,activityActivityStartDate,pedometerStartDate,pedometerNumberofSteps,pedometerAverageActivePace,pedometerCurrentPace,pedometerCurrentCadence,pedometerDistance,pedometerFloorAscended,pedometerFloorDescended,pedometerEndDate,altimeterTimestamp_sinceReboot,altimeterReset,altimeterRelativeAltitude,altimeterPressure,IP_en0,IP_pdp_ip0,deviceOrientation,batteryState,batteryLevel,avAudioRecorderPeakPower,avAudioRecorderAveragePower,label
1561841859.626325,1,0,0,1561841858.998201,4.634564858865583,-74.15094989358833,2554.264,0,300.5859375,4,50,-9999,1561841859.606492,-18.52508544921875,-19.62126922607422,14.0714111328125,134.2545471191406,141.7476501464844,15,169675.9278966667,-0.954010009765625,0.1737823486328125,-0.20123291015625,169675.9289036667,0.008348743701289404,-0.04001159853345948,0.05289623820337185,169675.9102576667,-92.67431640625,-45.951171875,-548.7362060546875,169675.9238376667,0.1121603818772998,-1.371380212745484,-0.1427839175835265,0.002713810652494431,-0.03715315088629723,0.05090359598398209,0.01445835828781128,0.03400079905986786,-0.006158828735351562,1,-0.01972102746367455,-0.6336959004402161,0.08836831897497177,0.768265426158905,-0.9702078700065613,0.1422992497682571,-0.1960811764001846,0,0,0,-1,169670.19417675,3,1,1561841854.140676,1561841239.621676,50,1.74607,0,0,49.30045,0,0,1561841859.327276,169672.765553,0,-0.895752,75.20141,0,182478453,3,1,0.98,-22.58299,-42.63526,2
1561841859.645179,2,0,0,1561841858.998201,4.634564858865583,-74.15094989358833,2554.264,0,300.5859375,4,50,-9999,1561841859.642085,-18.54859924316406,-19.38327789306641,14.0411376953125,134.2541656494141,141.7472686767578,15,169675.9481606667,-0.9560089111328125,0.1624755859375,-0.20440673828125,169675.9289036667,0.008348743701289404,-0.04001159853345948,0.05289623820337185,169675.9303686667,-92.93553161621094,-46.08477783203125,-548.836181640625,169675.9441016667,0.1126089361001148,-1.3722462684605,-0.1437755497637036,0.02322414517402649,-0.04866679385304451,0.04566729068756104,0.01709818840026855,0.02441337704658508,-0.007591664791107178,1,-0.01992384903132915,-0.6340320110321045,0.08886037021875381,0.7679259777069092,-0.9702384471893311,0.1432807147502899,-0.1952129006385803,0,0,0,-1,169670.19417675,3,1,1561841854.140676,1561841239.621676,50,1.74607,0,0,49.30045,0,0,1561841859.327276,169672.765553,0,-0.895752,75.20141,0,182478453,3,1,0.98,-22.58299,-43.00363,2
1561841859.667015,3,0,0,1561841858.998201,4.634564858865583,-74.15094989358833,2554.264,0,300.5859375,4,50,-9999,1561841859.642085,-18.54859924316406,-19.38327789306641,14.0411376953125,134.2541656494141,141.7472686767578,15,169675.9683936667,-0.9587860107421875,0.156524658203125,-0.212310791015625,169675.9491676667,0.03235740724446275,-0.03385357114486926,0.05043814051722871,169675.9504796667,-93.03898620605469,-46.00431823730469,-548.9017333984375,169675.9643656667,0.1134337936248294,-1.372650921785964,-0.14476053405366,0.03263895213603973,-0.009872260503470898,0.05674257874488831,0.01157552003860474,0.01326100528240204,-0.01349008083343506,1,-0.02002496458590031,-0.6341946125030518,0.08949027955532074,0.7677158713340759,-0.970178484916687,0.1442554742097855,-0.1947923898696899,0,0,0,-1,169670.19417675,3,1,1561841854.140676,1561841239.621676,50,1.74607,0,0,49.30045,0,0,1561841859.327276,169672.765553,0,-0.895752,75.20141,0,182478453,3,1,0.98,-22.58299,-39.33385,2
1561841859.6858,4,0,0,1561841858.998201,4.634564858865583,-74.15094989358833,2554.264,0,300.5859375,4,50,-9999,1561841859.669843,-18.26139831542969,-19.54483795166016,14.08282470703125,134.1584167480469,141.6515197753906,15,169675.9886576667,-0.9608001708984375,0.158203125,-0.2084808349609375,169675.9694006667,0.03597504526922638,0.002774214907535542,0.05886784431565652,169675.9705906667,-92.94308471679688,-46.14259338378906,-548.8942260742188,169675.9846286667,0.1143246416733574,-1.372419509779928,-0.1456874911763747,0.035178542137146,0.01045298390090466,0.03519653528928757,0.01124650239944458,0.01443426311016083,-0.01944124698638916,1,-0.02011113800108433,-0.6341137886047363,0.09012085944414139,0.7677067518234253,-0.9700019955635071,0.1451726704835892,-0.194990485906601,0,0,0,-1,169670.19417675,3,1,1561841854.140676,1561841239.621676,50,1.74607,0,0,49.30045,0,0,1561841859.327276,169672.765553,0,-0.895752,75.20141,0,182478453,3,1,0.98,-22.58299,-39.62405,2
1561841859.706087,5,0,0,1561841858.998201,4.634564858865583,-74.15094989358833,2554.264,0,300.5859375,4,50,-9999,1561841859.694253,-18.54701232910156,-19.46868896484375,13.8507080078125,134.0986633300781,141.5917663574219,15,169676.0089206667,-0.96246337890625,0.161102294921875,-0.19720458984375,169675.9896646667,0.03735482902999644,0.01565912089355691,0.03189348458257094,169675.9907326667,-92.97074890136719,-46.25921630859375,-549.07421875,169676.0048626667,0.1150920556068722,-1.372177150072933,-0.1461751922888787,0.02918616309762001,-0.006630660966038704,0.0235313605517149,0.009573221206665039,0.01147982478141785,-0.004190266132354736,1,-0.02006728202104568,-0.6340280175209045,0.09056605398654938,0.7677262425422668,-0.9698850512504578,0.1456551849842072,-0.1952115595340729,0,0,0,-1,169670.19417675,3,1,1561841854.140676,1561841239.621676,50,1.74607,0,0,49.30045,0,0,1561841859.327276,169672.765553,0,-0.895752,75.20141,0,182478453,3,1,0.98,-22.58299,-39.62405,2
1561841859.726313,6,0,0,1561841858.998201,4.634564858865583,-74.15094989358833,2554.264,0,300.5859375,4,50,-9999,1561841859.72082,-18.58889770507812,-19.66807556152344,14.04937744140625,134.0564422607422,141.5495452880859,15,169676.0291846667,-0.954345703125,0.157196044921875,-0.1932220458984375,169676.0099276667,0.02844495728702734,-0.004596349725367758,0.03279336671490871,169676.0108436667,-93.08580017089844,-46.15782165527344,-548.58349609375,169676.0251256667,0.1156020282892074,-1.372444472057241,-0.146927357357234,0.0006121986079961061,-0.03534919396042824,0.04432807862758636,0.0090751051902771,0.01383325457572937,0.0003200173377990723,1,-0.02018417790532112,-0.6341350674629211,0.09100049734115601,0.7675833702087402,-0.9698294997215271,0.1463992893695831,-0.1949306279420853,0,0,0,-1,169670.19417675,3,1,1561841854.140676,1561841239.621676,50,1.74607,0,0,49.30045,0,0,1561841859.327276,169672.765553,0,-0.895752,75.20141,0,182478453,3,1,0.98,-22.58299,-40.07013,2
1561841859.752238,7,0,0,1561841858.998201,4.634564858865583,-74.15094989358833,2554.264,0,300.5859375,4,50,-9999,1561841859.745005,-18.39128875732422,-19.58672714233398,14.04095458984375,134.0671997070312,141.560302734375,15,169676.0494486667,-0.9554443359375,0.148223876953125,-0.1976165771484375,169676.0301916667,-0.007090666402335972,-0.04205530835398629,0.05298785094487057,169676.0309546667,-92.88316345214844,-45.91542053222656,-548.7471313476562,169676.0453896667,0.1154436124242952,-1.373502684460265,-0.1480090013908025,-0.02931134589016438,-0.06206575781106949,0.04316374287009239,0.01898229122161865,0.005439132452011108,-0.0002949833869934082,1,-0.02060413919389248,-0.6345383524894714,0.09129000455141068,0.7672045230865479,-0.9698795080184937,0.1474691927433014,-0.1938730925321579,0,0,0,-1,169670.19417675,3,1,1561841854.140676,1561841239.621676,50,1.74607,0,0,49.30045,0,0,1561841859.327276,169672.765553,0,-0.895752,75.20141,0,182478453,3,1,0.98,-22.58299,-40.36954,2
1561841859.766836,8,0,0,1561841858.998201,4.634564858865583,-74.15094989358833,2554.264,0,300.5859375,4,50,-9999,1561841859.745005,-18.39128875732422,-19.58672714233398,14.04095458984375,134.0671997070312,141.560302734375,15,169676.0697116667,-0.9693145751953125,0.14404296875,-0.207000732421875,169676.0504556667,-0.02640391062759061,-0.05083069046190639,0.04268701016455308,169676.0510656667,-92.968017578125,-46.12753295898438,-548.669921875,169676.0656536667,0.1151532465686817,-1.374194578177361,-0.1488792844025402,-0.01114059798419476,0.006339928600937128,0.0327443927526474,0.007210195064544678,-0.00447005033493042,-0.008849501609802246,1,-0.02100082114338875,-0.634799599647522,0.09145912528038025,0.7669575214385986,-0.9698871970176697,0.1483299136161804,-0.1931768655776978,0,0,0,-1,169670.19417675,3,1,1561841854.140676,1561841239.621676,50,1.74607,0,0,49.30045,0,0,1561841859.327276,169672.765553,0,-0.895752,75.20141,0,182478453,3,1,0.98,-22.58299,-40.57714,2
1561841859.787208,9,0,0,1561841858.998201,4.634564858865583,-74.15094989358833,2554.264,0,300.5859375,4,50,-9999,1561841859.771345,-18.43942260742188,-19.5411491394043,14.13604736328125,134.0800933837891,141.5731964111328,15,169676.0899756667,-0.9651641845703125,0.1471099853515625,-0.2078094482421875,169676.0707186667,-0.002893258208262084,0.04020760718968931,0.03613909599237526,169676.0711766667,-93.07258605957031,-46.11700439453125,-548.7951049804688,169676.0859166667,0.1151983825448687,-1.373244061989659,-0.1495090247525568,0.001648434437811375,0.06429483741521835,0.02194447442889214,0.0001745820045471191,-0.002178356051445007,-0.01269155740737915,1,-0.02127325534820557,-0.6344346404075623,0.09166413545608521,0.7672273516654968,-0.9696112275123596,0.1489526480436325,-0.1940802782773972,0,0,0,-1,169670.19417675,3,1,1561841854.140676,1561841239.621676,50,1.74607,0,0,49.30045,0,0,1561841859.327276,169672.765553,0,-0.895752,75.20141,0,182478453,3,1,0.98,-22.58299,-40.90881,2
1561841859.807308,10,0,0,1561841858.998201,4.634564858865583,-74.15094989358833,2554.264,0,300.5859375,4,50,-9999,1561841859.795706,-18.51728057861328,-19.46382522583008,13.9718017578125,134.0673065185547,141.5604095458984,15,169676.1102396667,-0.956024169921875,0.1426544189453125,-0.1949005126953125,169676.0909826667,0.006998787344728238,0.06277896269254689,0.02050767197415517,169676.0912876667,-92.68583679199219,-46.09756469726562,-548.8216552734375,169676.1061806667,0.1155692138442286,-1.372272128756758,-0.1498330186626985,0.03488681465387344,0.0179358646273613,0.01626368425786495,0.00849837064743042,-0.007457837462425232,-0.007043838500976562,1,-0.02132545784115791,-0.6340652108192444,0.09189772605895996,0.7675033807754517,-0.9693748354911804,0.1492730230093002,-0.1950130611658096,0,0,0,-1,169670.19417675,3,1,1561841854.140676,1561841239.621676,50,1.74607,0,0,49.30045,0,0,1561841859.327276,169672.765553,0,-0.895752,75.20141,0,182478453,3,1,0.98,-22.58299,-41.35721,2
1561841859.836464,11,0,0,1561841858.998201,4.634564858865583,-74.15094989358833,2554.264,0,300.5859375,4,50,-9999,1561841859.822666,-18.39005279541016,-19.64746856689453,14.16278076171875,134.0046539306641,141.4977569580078,15,169676.1305026667,-0.9557952880859375,0.14874267578125,-0.1920013427734375,169676.1112466667,0.04172214690161738,0.008207063531297189,0.02374074953751137,169676.1113986667,-92.90078735351562,-46.09114074707031,-549.0396118164062,169676.1264446667,0.1165364655332248,-1.372408026013628,-0.1502087752948306,0.04792245477437973,-0.04308381304144859,0.03926035016775131,0.01643478870391846,-0.002610862255096436,0.003814935684204102,1,-0.02115774899721146,-0.634127140045166,0.09238820523023605,0.7673978805541992,-0.9693461656570435,0.1496445536613464,-0.1948702335357666,0,0,0,-1,169670.19417675,3,1,1561841854.140676,1561841239.621676,50,1.74607,0,0,49.30045,0,0,1561841859.327276,169673.710194,0,-0.7768555,75.20029,0,182478453,3,1,0.98,-22.58299,-40.95793,2
1561841859.848183,12,0,0,1561841858.998201,4.634564858865583,-74.15094989358833,2554.264,0,300.5859375,4,50,-9999,1561841859.822666,-18.39005279541016,-19.64746856689453,14.16278076171875,134.0046539306641,141.4977569580078,15,169676.150758625,-0.971435546875,0.1495819091796875,-0.1954803466796875,169676.151765625,0.03092569184243615,-0.01388945034919926,0.05675515862289666,169676.1315106667,-92.73042297363281,-46.0556640625,-548.67431640625,169676.1467076667,0.1176036654750888,-1.373006377508393,-0.1510384842675754,0.03347614035010338,-0.02598711848258972,0.05619325861334801,0.005168318748474121,-0.000303119421005249,-0.0002990961074829102,1,-0.02111219242215157,-0.6343669295310974,0.09306422621011734,0.767119288444519,-0.9693406224250793,0.1504648774862289,-0.194265753030777,0,0,0,-1,169670.19417675,3,1,1561841854.140676,1561841239.621676,50,1.74607,0,0,49.30045,0,0,1561841859.327276,169673.710194,0,-0.7768555,75.20029,0,182478453,3,1,0.98,-23.14027,-41.11878,2
1561841859.868765,13,0,0,1561841858.998201,4.634564858865583,-74.15094989358833,2554.264,0,300.5859375,4,50,-9999,1561841859.85058,-18.41706848144531,-19.55504608154297,14.14410400390625,133.9296875,141.4227905273438,15,169676.171021625,-0.9852447509765625,0.14654541015625,-0.20318603515625,169676.151765625,0.03092569184243615,-0.01388945034919926,0.05675515862289666,169676.151643625,-92.89988708496094,-45.80931091308594,-548.73486328125,169676.166993625,0.118241004881826,-1.373220619059354,-0.1518128193344963,0.01556158810853958,-0.01185212470591068,0.02451548911631107,-0.007813632488250732,-0.002258792519569397,-0.005137860774993896,1,-0.02119919285178185,-0.6344549059867859,0.09355388581752777,0.7669845223426819,-0.9692676663398743,0.1512303501367569,-0.1940351277589798,0,0,0,-1,169670.19417675,3,1,1561841854.140676,1561841239.621676,50,1.74607,0,0,49.30045,0,0,1561841859.327276,169673.710194,0,-0.7768555,75.20029,0,182478453,3,1,0.98,-23.14027,-41.11878,2
1561841859.888464,14,0,0,1561841858.998201,4.634564858865583,-74.15094989358833,2554.264,0,300.5859375,4,50,-9999,1561841859.872681,-18.41074371337891,-19.50099563598633,14.0391845703125,133.8899536132812,141.383056640625,15,169676.191285625,-0.9921112060546875,0.1378631591796875,-0.2001953125,169676.172028625,0.02269359459689221,0.008711998873976211,0.01418293070132599,169676.171754625,-92.94807434082031,-45.94741821289062,-548.74169921875,169676.187226625,0.1187989064966925,-1.372711325486188,-0.1516991181710286,0.04454769939184189,0.05166346952319145,-0.01621862500905991,-0.0225290060043335,-0.008463531732559204,-0.008531868457794189,1,-0.021002147346735,-0.6342656016349792,0.09372682124376297,0.7671253085136414,-0.969185471534729,0.1511179506778717,-0.194532111287117,0,0,0,-1,169670.19417675,3,1,1561841854.140676,1561841239.621676,50,1.74607,0,0,49.30045,0,0,1561841859.327276,169673.710194,0,-0.7768555,75.20029,0,182478453,3,1,0.98,-23.69754,-41.54353,2
1561841859.925249,15,0,0,1561841858.998201,4.634564858865583,-74.15094989358833,2554.264,0,300.5859375,4,50,-9999,1561841859.90184,-18.46389770507812,-19.44232940673828,14.1070556640625,133.8244476318359,141.3175506591797,15,169676.211549625,-0.9824371337890625,0.1391448974609375,-0.1948699951171875,169676.192292625,0.05886305062569438,0.0684690726776102,-0.0153395415627474,169676.191865625,-92.73251342773438,-45.98619079589844,-548.873046875,169676.207490625,0.120186355999573,-1.371300037052594,-0.1510574558136124,0.1060704439878464,0.05089754611253738,-0.01389102172106504,-0.01985627412796021,-0.0120101273059845,-0.002460598945617676,1,-0.02038055285811424,-0.6337390542030334,0.09404337406158447,0.7675383687019348,-0.96900475025177,0.1504836231470108,-0.1959188878536224,0,0,0,-1,169670.19417675,3,1,1561841854.140676,1561841239.621676,50,1.74607,0,0,49.30045,0,0,1561841859.327276,169673.710194,0,-0.7768555,75.20029,0,182478453,3,1,0.98,-24.8121,-40.87989,2
1561841859.928987,16,0,0,1561841858.998201,4.634564858865583,-74.15094989358833,2554.264,0,300.5859375,4,50,-9999,1561841859.923474,-18.67068481445312,-19.41018295288086,14.14923095703125,133.6344299316406,141.1275329589844,15,169676.231812625,-0.9770660400390625,0.141448974609375,-0.178466796875,169676.212556625,0.1305910335292345,0.04435734480025078,-0.007190002310995927,169676.211976625,-92.92124938964844,-45.97782897949219,-548.8611450195312,169676.227753625,0.1232427447206109,-1.370367880637539,-0.1502722465810955,0.2013881802558899,-0.004940954968333244,-0.004368889145553112,-0.009318828582763672,-0.01140165328979492,0.009711742401123047,1,-0.01915272884070873,-0.633411705493927,0.09496127814054489,0.7677273154258728,-0.9689373970031738,0.1497073173522949,-0.1968455612659454,0,0,0,-1,169670.19417675,3,1,1561841854.140676,1561841239.621676,50,1.74607,0,0,49.30045,0,0,1561841859.327276,169673.710194,0,-0.7768555,75.20029,0,182478453,3,1,0.98,-24.8121,-40.87989,2
1561841859.949253,17,0,0,1561841858.998201,4.634564858865583,-74.15094989358833,2554.264,0,300.5859375,4,50,-9999,1561841859.923474,-18.67068481445312,-19.41018295288086,14.14923095703125,133.6344299316406,141.1275329589844,15,169676.252076625,-0.9710235595703125,0.1499176025390625,-0.16729736328125,169676.232819625,0.2243273796811895,-0.008216118279003457,0.00083889574337496,169676.232117625,-93.14207458496094,-46.00117492675781,-548.763671875,169676.248017625,0.127961139588976,-1.370088570894655,-0.1492518904930115,0.2611021101474762,-0.0314314179122448,-0.005009911954402924,-0.006081461906433105,-0.002580225467681885,0.02456963062286377,1,-0.01727713458240032,-0.6333468556404114,0.09645043313503265,0.7676395773887634,-0.9690314531326294,0.1486983746290207,-0.1971465200185776,0,0,0,-1,169670.19417675,3,1,1561841854.140676,1561841239.621676,50,1.74607,0,0,49.30045,0,0,1561841859.327276,169673.710194,0,-0.7768555,75.20029,0,182478453,3,1,0.98,-25.36938,-41.76253,2
1561841859.969648,18,0,0,1561841858.998201,4.634564858865583,-74.15094989358833,2554.264,0,300.5859375,4,50,-9999,1561841859.952211,-18.61181640625,-19.34558868408203,14.1240234375,133.2965240478516,140.7896270751953,15,169676.272340625,-0.969970703125,0.15338134765625,-0.16473388671875,169676.253083625,0.2653424573133908,-0.03083461173315544,-0.004837632120128936,169676.252229625,-93.13427734375,-45.97328186035156,-548.5635375976562,169676.268281625,0.1331106844063447,-1.370100194319688,-0.1478791746850541,0.2429753094911575,-0.03251133114099503,-0.0254675168544054,0.001367866992950439,0.006574615836143494,0.03276228904724121,1,-0.01511477306485176,-0.6333906054496765,0.09799721091985703,0.7674531936645508,-0.9692328572273254,0.147340789437294,-0.1971757709980011,0,0,0,-1,169670.19417675,3,1,1561841854.140676,1561841239.621676,50,1.74607,0,0,49.30045,0,0,1561841859.327276,169673.710194,0,-0.7768555,75.20029,0,182478453,3,1,0.98,-25.92666,-40.97815,2
1561841860.006586,19,0,0,1561841858.998201,4.634564858865583,-74.15094989358833,2554.264,0,300.5859375,4,50,-9999,1561841860.002774,-18.47480773925781,-19.20879745483398,14.4669189453125,132.7675628662109,140.2606658935547,15,169676.292603625,-0.963653564453125,0.14654541015625,-0.16400146484375,169676.273347625,0.2255124863662748,-0.01589134854061182,-0.02299666232894323,169676.272340625,-92.88436889648438,-45.73365783691406,-548.5485229492188,169676.288544625,0.1368953612130146,-1.369848447120959,-0.1464443378798642,0.1352493762969971,0.00125275831669569,-0.03901394829154015,-0.0008254051208496094,0.002729669213294983,0.03490990400314331,1,-0.01337357982993126,-0.6333168745040894,0.0989987924695015,0.767417848110199,-0.9693894386291504,0.14592145383358,-0.1974617689847946,0,0,0,-1,169670.19417675,3,1,1561841854.140676,1561841239.621676,50,1.74607,0,0,49.30045,0,0,1561841859.327276,169673.710194,0,-0.7768555,75.20029,0,182478453,3,1,0.98,-26.48394,-39.61415,2
1561841860.009959,20,0,0,1561841858.998201,4.634564858865583,-74.15094989358833,2554.264,0,300.5859375,4,50,-9999,1561841860.002774,-18.47480773925781,-19.20879745483398,14.4669189453125,132.7675628662109,140.2606658935547,15,169676.312867625,-0.9556121826171875,0.1354522705078125,-0.168914794921875,169676.293610625,0.1052276199395379,0.01054638423282279,-0.04406146760314298,169676.292451625,-92.95759582519531,-45.88981628417969,-548.3612060546875,169676.308808625,0.1381212621458608,-1.36961354420144,-0.1450758460241754,0.01096923276782036,0.004556942265480757,-0.06149129569530487,0.01044648885726929,-0.003103241324424744,0.03099638223648071,1,-0.01246757991611958,-0.6332297921180725,0.09903968125581741,0.7674996256828308,-0.9695376753807068,0.1445674747228622,-0.1977291852235794,0,0,0,-1,169670.19417675,3,1,1561841854.140676,1561841239.621676,50,1.74607,0,0,49.30045,0,0,1561841859.327276,169673.710194,0,-0.7768555,75.20029,0,182478453,3,1,0.98,-26.48394,-39.61415,2
1561841860.03033,21,0,0,1561841858.998201,4.634564858865583,-74.15094989358833,2554.264,0,300.5859375,4,50,-9999,1561841860.024745,-18.544921875,-19.16929244995117,14.43829345703125,132.8077850341797,140.3008880615234,15,169676.333131625,-0.9568328857421875,0.1390228271484375,-0.1797943115234375,169676.313874625,-0.01478027773383076,0.009804693869235723,-0.05809100022568041,169676.312562625,-92.79728698730469,-45.84530639648438,-548.2147827148438,169676.329072625,0.1370858239465155,-1.369853969856347,-0.1440469228561688,-0.07821710407733917,-0.007464833091944456,-0.05577881634235382,0.01617825031280518,-0.009317725896835327,0.02259892225265503,1,-0.01238548662513494,-0.6333117485046387,0.09832198172807693,0.7675256133079529,-0.9697304368019104,0.1435492932796478,-0.1975256651639938,0,0,0,-1,169670.19417675,3,1,1561841854.140676,1561841239.621676,50,1.74607,0,0,49.30045,0,0,1561841859.327276,169673.710194,0,-0.7768555,75.20029,0,182478453,3,1,0.98,-27.04122,-38.8411,2
1561841860.050418,22,0,0,1561841858.998201,4.634564858865583,-74.15094989358833,2554.264,0,300.5859375,4,50,-9999,1561841860.024745,-18.544921875,-19.16929244995117,14.43829345703125,132.8077850341797,140.3008880615234,15,169676.353364625,-0.963592529296875,0.1421356201171875,-0.1832427978515625,169676.334138625,-0.08105517198932467,-0.005610215152360923,-0.0504447984199539,169676.332673625,-92.96434020996094,-45.84053039550781,-548.3154296875,169676.349335625,0.1353546964274343,-1.37049593443375,-0.143366158629401,-0.05659596249461174,-0.01753584295511246,-0.04835818335413933,0.008755683898925781,-0.001838549971580505,0.01506823301315308,1,-0.01263899635523558,-0.6335448026657104,0.09744866192340851,0.7674404978752136,-0.9699525833129883,0.142875537276268,-0.1969224810600281,0,0,0,-1,169670.19417675,3,1,1561841854.140676,1561841239.621676,50,1.74607,0,0,49.30045,0,0,1561841859.327276,169673.710194,0,-0.7768555,75.20029,0,182478453,3,1,0.98,-27.5985,-39.24772,2
1561841860.073014,23,0,0,1561841858.998201,4.634564858865583,-74.15094989358833,2554.264,0,300.5859375,4,50,-9999,1561841860.024745,-18.544921875,-19.16929244995117,14.43829345703125,132.8077850341797,140.3008880615234,15,169676.373627625,-0.9615631103515625,0.1459197998046875,-0.1921844482421875,169676.354371625,-0.04044782432001446,-0.01849751798336336,-0.04535176915128637,169676.352784625,-92.79658508300781,-45.51878356933594,-548.4201049804688,169676.369599625,0.1346101908348248,-1.371314807461172,-0.1425558731763376,0.003509717993438244,-0.03903127834200859,-0.04822928458452225,0.009106159210205078,0.001374363899230957,0.01032954454421997,1,-0.01252175215631723,-0.6338514685630798,0.09691444039344788,0.7672569155693054,-0.9702267646789551,0.1420735269784927,-0.1961510479450226,0,0,0,-1,169670.19417675,3,1,1561841854.140676,1561841239.621676,50,1.74607,0,0,49.30045,0,0,1561841859.327276,169673.710194,0,-0.7768555,75.20029,0,182478453,3,1,0.98,-28.15578,-39.86451,2
1561841860.090906,24,0,0,1561841859.998191,4.634564858865583,-74.15094989358833,2554.224,0,124.8046875,4,50,-9999,1561841860.082229,-18.43041229248047,-19.34457778930664,14.51849365234375,132.926513671875,140.4196166992188,15,169676.393891625,-0.9572601318359375,0.148773193359375,-0.2022705078125,169676.374635625,0.01912895347782115,-0.03062448832314818,-0.04435361637472467,169676.372895625,-92.48124694824219,-45.63217163085938,-548.2933959960938,169676.389832625,0.1348383912794451,-1.37206415005868,-0.1415063087171066,0.0292837917804718,-0.02550348825752735,-0.05364828556776047,0.007506430149078369,0.008471086621284485,-0.002956748008728027,1,-0.01200738362967968,-0.6341365575790405,0.09667773544788361,0.7670594453811646,-0.9705191850662231,0.1410345286130905,-0.1954533010721207,0,0,0,-1,169670.19417675,3,1,1561841854.140676,1561841239.621676,50,1.74607,0,0,49.30045,0,0,1561841859.327276,169673.710194,0,-0.7768555,75.20029,0,182478453,3,1,0.98,-28.71305,-40.41115,2
1561841860.111279,25,0,0,1561841859.998191,4.634564858865583,-74.15094989358833,2554.224,0,124.8046875,4,50,-9999,1561841860.082229,-18.43041229248047,-19.34457778930664,14.51849365234375,132.926513671875,140.4196166992188,15,169676.414155625,-0.9565277099609375,0.14935302734375,-0.2046966552734375,169676.394898625,0.02499030472097655,-0.0140891874309552,-0.05406323539304457,169676.393006625,-92.64541625976562,-45.85820007324219,-548.2308959960938,169676.410096625,0.1348710242345509,-1.372536071892881,-0.1403930892715766,-0.0069399937056005,-0.01501036807894707,-0.04325876384973526,0.01792937517166138,0.008245751261711121,-0.008175313472747803,1,-0.01154397986829281,-0.6343135833740234,0.09634411334991455,0.7669619917869568,-0.9707644581794739,0.1399323493242264,-0.1950260251760483,0,0,0,-1,169670.19417675,3,1,1561841854.140676,1561841239.621676,50,1.74607,0,0,49.30045,0,0,1561841859.327276,169673.710194,0,-0.7768555,75.20029,0,182478453,3,1,0.98,-29.27033,-40.73093,2
1561841860.131596,26,0,0,1561841859.998191,4.634564858865583,-74.15094989358833,2554.224,0,124.8046875,4,50,-9999,1561841860.125862,-18.14231872558594,-19.23320388793945,14.48333740234375,132.9764099121094,140.4695129394531,15,169676.434418625,-0.964599609375,0.1519622802734375,-0.2069549560546875,169676.415162625,-0.01687006024121594,-0.00063622918441993,-0.03074779268161885,169676.413148625,-92.45448303222656,-45.81153869628906,-548.5068359375,169676.430360625,0.1341699128578725,-1.372528501424769,-0.1399832215796067,-0.0439603291451931,0.03400058671832085,-0.01465108804404736,0.007211387157440186,0.01295457780361176,-0.01155936717987061,1,-0.01160830445587635,-0.6343050599098206,0.09594669193029404,0.7670179605484009,-0.9708191752433777,0.1395265012979507,-0.195044681429863,0,0,0,-1,169670.19417675,3,1,1561841854.140676,1561841239.621676,50,1.74607,0,0,49.30045,0,0,1561841859.327276,169673.710194,0,-0.7768555,75.20029,0,182478453,3,1,0.98,-29.82761,-41.28009,2
1561841860.151635,27,0,0,1561841859.998191,4.634564858865583,-74.15094989358833,2554.224,0,124.8046875,4,50,-9999,1561841860.150182,-18.26026916503906,-19.27277755737305,14.60888671875,133.0231018066406,140.5162048339844,15,169676.454682625,-0.9549102783203125,0.150543212890625,-0.2099151611328125,169676.435426625,-0.03880412129521756,0.04872945636183387,-0.006075469394797767,169676.433259625,-92.60417175292969,-45.97125244140625,-548.3394165039062,169676.450623625,0.1334647886904248,-1.371895938030638,-0.1399681512570964,-0.01496649533510208,0.02605371363461018,-0.005864520557224751,0.01023316383361816,0.009582042694091797,-0.01236391067504883,1,-0.01185636967420578,-0.6340582370758057,0.09566779434680939,0.767253041267395,-0.9706977009773254,0.1395115703344345,-0.1956591606140137,0,0,0,-1,169670.19417675,3,1,1561841854.140676,1561841239.621676,50,1.74607,0,0,49.30045,0,0,1561841859.327276,169673.710194,0,-0.7768555,75.20029,0,182478453,3,1,0.98,-30.38489,-41.94955,2
1561841860.172049,28,0,0,1561841859.998191,4.634564858865583,-74.15094989358833,2554.224,0,124.8046875,4,50,-9999,1561841860.150182,-18.26026916503906,-19.27277755737305,14.60888671875,133.0231018066406,140.5162048339844,15,169676.474946625,-0.9511871337890625,0.1522216796875,-0.2008514404296875,169676.455689625,0.001549160806099093,0.0215670774557887,-0.002017078209626015,169676.453370625,-92.54963684082031,-46.05897521972656,-548.26611328125,169676.470887625,0.1337219255772774,-1.371738614271074,-0.1400018052816439,0.04057213291525841,-0.01729615777730942,0.01718460582196712,0.01888006925582886,0.01072365045547485,-0.008336365222930908,1,-0.01179539319127798,-0.6339995265007019,0.09577605873346329,0.7672889828681946,-0.9706622958183289,0.1395449042320251,-0.1958109438419342,0,0,0,-1,169670.19417675,3,1,1561841854.140676,1561841239.621676,50,1.74607,0,0,49.30045,0,0,1561841859.327276,169673.710194,0,-0.7768555,75.20029,0,182478453,3,1,0.98,-30.38489,-41.94955,2
1561841860.192442,29,0,0,1561841859.998191,4.634564858865583,-74.15094989358833,2554.224,0,124.8046875,4,50,-9999,1561841860.176473,-18.14146423339844,-19.39719390869141,14.458984375,132.9785919189453,140.4716949462891,15,169676.495209625,-0.9593963623046875,0.154022216796875,-0.2033233642578125,169676.475953625,0.05760284279786888,-0.01757153687234281,0.02810567056415124,169676.473481625,-92.76411437988281,-46.12199401855469,-548.59033203125,169676.491151625,0.1351546287905692,-1.371936280427852,-0.1402726120401429,0.08451561629772186,-0.01383351627737284,0.02359829656779766,0.01636397838592529,0.01575030386447906,-0.00791013240814209,1,-0.0114363906905055,-0.6340847015380859,0.09641166776418686,0.7671444416046143,-0.9706639051437378,0.1398130506277084,-0.1956115961074829,0,0,0,-1,169670.19417675,3,1,1561841854.140676,1561841239.621676,50,1.74607,0,0,49.30045,0,0,1561841859.327276,169673.710194,0,-0.7768555,75.20029,0,182478453,3,1,0.98,-30.94217,-42.4709,2
1561841860.212489,30,0,0,1561841859.998191,4.634564858865583,-74.15094989358833,2554.224,0,124.8046875,4,50,-9999,1561841860.201035,-18.41205596923828,-19.32411575317383,14.47357177734375,132.8546295166016,140.3477325439453,15,169676.515473625,-0.9628448486328125,0.1476287841796875,-0.2018280029296875,169676.496217625,0.09209157786272204,0.001058073901088481,0.01882908153907823,169676.493592625,-92.82493591308594,-45.79197692871094,-548.5196533203125,169676.511414625,0.1369254681875329,-1.371637281306415,-0.1401787268515916,0.07909448444843292,0.01088514551520348,-0.000787203898653388,0.007880210876464844,0.01070106029510498,-0.006655991077423096,1,-0.0108531704172492,-0.6339794993400574,0.09705983847379684,0.7671580910682678,-0.9706181883811951,0.1397200971841812,-0.195904403924942,0,0,0,-1,169670.19417675,3,1,1561841854.140676,1561841239.621676,50,1.74607,0,0,49.30045,0,0,1561841859.327276,169673.710194,0,-0.7768555,75.20029,0,182478453,3,1,0.98,-31.49945,-43.18182,2
1561841860.235614,31,0,0,1561841859.998191,4.634564858865583,-74.15094989358833,2554.224,0,124.8046875,4,50,-9999,1561841860.233866,-18.33811187744141,-19.27658081054688,14.65472412109375,132.7598266601562,140.2529296875,15,169676.535706625,-0.9599456787109375,0.146392822265625,-0.201171875,169676.516480625,0.0705998678657826,0.01888341002531585,-0.00116859508632677,169676.513703625,-92.76812744140625,-45.96197509765625,-548.3576049804688,169676.531678625,0.1380636628561794,-1.371088589855067,-0.1398817960985281,0.03501331433653831,0.0263927336782217,-0.008321818895637989,0.009415328502655029,0.007256671786308289,-0.004665613174438477,1,-0.01040430180728436,-0.6337737441062927,0.09740053862333298,0.7672911882400513,-0.9705512523651123,0.1394260674715042,-0.1964451819658279,0,0,0,-1,169670.19417675,3,1,1561841854.140676,1561841239.621676,50,1.74607,0,0,49.30045,0,0,1561841859.327276,169673.710194,0,-0.7768555,75.20029,0,182478453,3,1,0.98,-32.05673,-43.57051,2
1561841860.253161,32,0,0,1561841859.998191,4.634564858865583,-74.15094989358833,2554.224,0,124.8046875,4,50,-9999,1561841860.233866,-18.33811187744141,-19.27658081054688,14.65472412109375,132.7598266601562,140.2529296875,15,169676.555970625,-0.9626312255859375,0.1472625732421875,-0.1972808837890625,169676.536713625,0.02408376468591358,0.0386240916055282,-0.003225088080085957,169676.533814625,-92.70182800292969,-45.75845336914062,-548.3671875,169676.551942625,0.1383486472981875,-1.370295931887558,-0.1397535372670684,0.001475595403462648,0.03909255191683769,-0.004502047318965197,0.009719431400299072,0.007414191961288452,-0.001619279384613037,1,-0.01030302885919809,-0.6334704756736755,0.0974656268954277,0.7675347328186035,-0.9704127907752991,0.139299064874649,-0.1972180008888245,0,0,0,-1,169670.19417675,3,1,1561841854.140676,1561841239.621676,50,1.74607,0,0,49.30045,0,0,1561841859.327276,169673.710194,0,-0.7768555,75.20029,0,182478453,3,1,0.98,-32.61401,-43.88574,2
1561841860.273941,33,0,0,1561841859.998191,4.634564858865583,-74.15094989358833,2554.224,0,124.8046875,4,50,-9999,1561841860.233866,-18.33811187744141,-19.27658081054688,14.65472412109375,132.7598266601562,140.2529296875,15,169676.576234625,-0.9639892578125,0.1462860107421875,-0.1929473876953125,169676.556977625,0.002811499162796652,0.04940323611762391,-0.001995506604796373,169676.553925625,-93.05592346191406,-45.83290100097656,-548.1279296875,169676.572175625,0.1383537765175591,-1.369398233705693,-0.1397459898359575,-0.001917804474942386,0.0424521267414093,-0.001360049820505083,0.006826877593994141,0.007101237773895264,0.003997445106506348,1,-0.01034222729504108,-0.633125901222229,0.09746060520410538,0.7678190469741821,-0.9702363610267639,0.1392915844917297,-0.1980892568826675,0,0,0,-1,169670.19417675,3,1,1561841854.140676,1561841239.621676,50,1.74607,0,0,49.30045,0,0,1561841859.327276,169673.710194,0,-0.7768555,75.20029,0,182478453,3,1,0.98,-33.17129,-44.39853,2
1561841860.293562,34,0,0,1561841859.998191,4.634564858865583,-74.15094989358833,2554.224,0,124.8046875,4,50,-9999,1561841860.278185,-18.4068603515625,-19.21355438232422,14.59075927734375,132.7382354736328,140.2313385009766,15,169676.596497625,-0.9669342041015625,0.1451873779296875,-0.1938323974609375,169676.577241625,0.0008796421080531723,0.04329873826694429,0.004131361799039922,169676.574036625,-92.99285888671875,-46.08793640136719,-548.3848266601562,169676.592438625,0.1383739962663332,-1.368691743516628,-0.1398525760884752,0.00584504334256053,0.02836533449590206,0.006795081309974194,0.006534874439239502,0.008536830544471741,0.00403904914855957,1,-0.01041151396930218,-0.632855236530304,0.09749803692102432,0.7680364847183228,-0.970081627368927,0.1393971294164658,-0.1987717002630234,0,0,0,-1,169670.19417675,3,1,1561841854.140676,1561841239.621676,50,1.74607,0,0,49.30045,0,0,1561841859.327276,169673.710194,0,-0.7768555,75.20029,0,182478453,3,1,0.98,-33.72857,-44.83579,2
1561841860.316946,35,0,0,1561841859.998191,4.634564858865583,-74.15094989358833,2554.224,0,124.8046875,4,50,-9999,1561841860.302761,-18.42744445800781,-19.00506973266602,14.56304931640625,132.7224884033203,140.2155914306641,15,169676.616761625,-0.969757080078125,0.1425628662109375,-0.1994171142578125,169676.597504625,0.01625487002940764,0.0331925745623116,0.008609999804226177,169676.594147625,-92.398193359375,-45.79042053222656,-548.2815551757812,169676.612702625,0.1387349992513093,-1.368159466903983,-0.1398548665548923,0.02226636186242104,0.01669483073055744,-0.006226976402103901,0.002400219440460205,0.003636479377746582,0.003456592559814453,1,-0.0103241503238678,-0.6326526999473572,0.09763464331626892,0.7681871056556702,-0.9699752926826477,0.1393993943929672,-0.1992879509925842,0,0,0,-1,169670.19417675,3,1,1561841854.140676,1561841239.621676,50,1.74607,0,0,49.30045,0,0,1561841859.327276,169673.710194,0,-0.7768555,75.20029,0,182478453,3,1,0.98,-34.28584,-38.99511,2
1561841860.334254,36,0,0,1561841859.998191,4.634564858865583,-74.15094989358833,2554.224,0,124.8046875,4,50,-9999,1561841860.328556,-18.24002838134766,-19.01561737060547,14.36541748046875,132.6914520263672,140.1845550537109,15,169676.637025625,-0.976806640625,0.1417236328125,-0.199127197265625,169676.617768625,0.02616103033617538,0.0250289205567827,-0.007375624638974451,169676.614259625,-92.73193359375,-45.55842590332031,-548.2015380859375,169676.632966625,0.1391471152382798,-1.367559591663981,-0.1394858581114237,0.02362990006804466,0.04237329959869385,-0.02192924171686172,-0.004657566547393799,0.003742501139640808,-0.00103229284286499,1,-0.01008022855967283,-0.6324225664138794,0.09767456352710724,0.7683748602867126,-0.9699060320854187,0.1390339881181717,-0.1998801678419113,0,0,0,-1,169670.19417675,3,1,1561841854.140676,1561841239.621676,50,1.74607,0,0,49.30045,0,0,1561841859.327276,169673.710194,0,-0.7768555,75.20029,0,182478453,3,1,0.98,-34.28584,-38.99511,2
1561841860.354472,37,0,0,1561841859.998191,4.634564858865583,-74.15094989358833,2554.224,0,124.8046875,4,50,-9999,1561841860.352902,-18.17835235595703,-19.07424926757812,14.433837890625,132.6623077392578,140.1554107666016,15,169676.657288625,-0.969512939453125,0.1387786865234375,-0.200653076171875,169676.638032625,0.02653840026263961,0.05863561666860161,-0.02232101836039013,169676.634370625,-92.72848510742188,-45.39920043945312,-548.4114379882812,169676.653230625,0.1395422423104081,-1.36644264550328,-0.1389373183344001,0.02569464966654778,0.0528203472495079,-0.02424938604235649,-0.005158066749572754,0.001157686114311218,0.0007224082946777344,1,-0.009797388687729836,-0.6319925785064697,0.09764952957630157,0.7687352299690247,-0.9697564840316772,0.1384907513856888,-0.2009787857532501,0,0,0,-1,169670.19417675,3,1,1561841854.140676,1561841239.621676,50,1.74607,0,0,49.30045,0,0,1561841859.327276,169673.710194,0,-0.7768555,75.20029,0,182478453,3,1,0.98,-34.84312,-39.66576,2
1561841860.374795,38,0,0,1561841859.998191,4.634564858865583,-74.15094989358833,2554.224,0,124.8046875,4,50,-9999,1561841860.352902,-18.17835235595703,-19.07424926757812,14.433837890625,132.6623077392578,140.1554107666016,15,169676.677552625,-0.968658447265625,0.139984130859375,-0.1952056884765625,169676.658295625,0.03229855138437199,0.05545020968875784,-0.01796035839149438,169676.654481625,-92.69229125976562,-45.73219299316406,-548.4266357421875,169676.673493625,0.1401368358314636,-1.365471652389299,-0.1384659214297568,0.04337111487984657,0.03484134748578072,-0.01612062007188797,0.002888858318328857,0.002006024122238159,0.004561185836791992,1,-0.009474316611886024,-0.6316196918487549,0.09772629290819168,0.7690359354019165,-0.9696246981620789,0.1380238831043243,-0.2019336074590683,0,0,0,-1,169670.19417675,3,1,1561841854.140676,1561841239.621676,50,1.74607,0,0,49.30045,0,0,1561841859.327276,169673.710194,0,-0.7768555,75.20029,0,182478453,3,1,0.98,-35.4004,-40.56361,2
1561841860.406768,39,0,0,1561841859.998191,4.634564858865583,-74.15094989358833,2554.224,0,124.8046875,4,50,-9999,1561841860.379932,-18.45046997070312,-19.15387344360352,14.468017578125,132.6119689941406,140.1050720214844,15,169676.697816625,-0.980987548828125,0.1401519775390625,-0.1928863525390625,169676.678559625,0.04977661130245303,0.0361505475850626,-0.01112455650547899,169676.674592625,-92.85530090332031,-45.51991271972656,-548.2508544921875,169676.693757625,0.1410381287986502,-1.364882323204582,-0.1379583318107371,0.05332920700311661,0.01646020635962486,-0.01928046159446239,-0.005630373954772949,0.003134384751319885,0.00923621654510498,1,-0.009021809324622154,-0.6313944458961487,0.09791179746389389,0.7692028284072876,-0.9695740938186646,0.1375211328268051,-0.2025193274021149,0,0,0,-1,169670.19417675,3,1,1561841854.140676,1561841239.621676,50,1.74607,0,0,49.30045,0,0,1561841859.327276,169673.710194,0,-0.7768555,75.20029,0,182478453,3,1,0.98,-36.51496,-40.88934,2
1561841860.415323,40,0,0,1561841859.998191,4.634564858865583,-74.15094989358833,2554.224,0,124.8046875,4,50,-9999,1561841860.403609,-18.31813049316406,-19.01509857177734,14.5394287109375,132.5420684814453,140.0351715087891,15,169676.718079625,-0.9822235107421875,0.135955810546875,-0.1958770751953125,169676.698823625,0.05520173675905344,0.02240597319916365,-0.02115934749289757,169676.694703625,-92.7322998046875,-45.85556030273438,-548.2777709960938,169676.714021625,0.1419233100296739,-1.364422787472409,-0.1371664480334979,0.04232475906610489,0.01775077544152737,-0.04271307960152626,-0.01255989074707031,0.003049030900001526,0.008193433284759521,1,-0.00845789723098278,-0.6312170028686523,0.09800328314304352,0.7693432569503784,-0.9695872664451599,0.136736735701561,-0.2029871195554733,0,0,0,-1,169670.19417675,3,1,1561841854.140676,1561841239.621676,50,1.74607,0,0,49.30045,0,0,1561841859.327276,169673.710194,0,-0.7768555,75.20029,0,182478453,3,1,0.98,-36.51496,-40.88934,2
1561841860.435522,41,0,0,1561841859.998191,4.634564858865583,-74.15094989358833,2554.224,0,124.8046875,4,50,-9999,1561841860.430252,-18.31363677978516,-19.22929000854492,14.72210693359375,132.5070495605469,140.0001525878906,15,169676.738313625,-0.9840850830078125,0.1326751708984375,-0.193206787109375,169676.719086625,0.03717985934637823,0.02846679520796598,-0.04335759412703503,169676.714814625,-92.79290771484375,-45.75126647949219,-548.1322021484375,169676.734284625,0.142250193953907,-1.363867050794721,-0.1360644582367435,0.0137125551700592,0.03491724655032158,-0.05930830165743828,-0.01376199722290039,-0.002237409353256226,0.00830531120300293,1,-0.007954620756208897,-0.630997896194458,0.0977831706404686,0.7695563435554504,-0.9696212410926819,0.1356450021266937,-0.2035567611455917,0,0,0,-1,169670.19417675,3,1,1561841854.140676,1561841239.621676,50,1.74607,0,0,49.30045,0,0,1561841859.327276,169673.710194,0,-0.7768555,75.20029,0,182478453,3,1,0.98,-37.07224,-41.69723,2
1561841860.457399,42,0,0,1561841859.998191,4.634564858865583,-74.15094989358833,2554.224,0,124.8046875,4,50,-9999,1561841860.454746,-18.44664764404297,-19.13126754760742,14.53631591796875,132.5179290771484,140.0110321044922,15,169676.758576625,-0.984710693359375,0.1281890869140625,-0.1938629150390625,169676.739320625,0.01249661709908782,0.04722636824259314,-0.05725130553397843,169676.734925625,-92.7802734375,-45.50045776367188,-548.4073486328125,169676.754548625,0.1421024780810209,-1.362932072138127,-0.1348111932978636,-0.004194274544715881,0.0599038191139698,-0.06501386314630508,-0.01528263092041016,-0.004230484366416931,0.01135241985321045,1,-0.007560673169791698,-0.6306296586990356,0.09733209013938904,0.7699191570281982,-0.9695959091186523,0.1344032138586044,-0.2044981420040131,0,0,0,-1,169670.19417675,3,1,1561841854.140676,1561841239.621676,50,1.74607,0,0,49.30045,0,0,1561841859.327276,169673.710194,0,-0.7768555,75.20029,0,182478453,3,1,0.98,-37.62952,-42.45442,2
1561841860.486719,43,0,0,1561841859.998191,4.634564858865583,-74.15094989358833,2554.224,0,124.8046875,4,50,-9999,1561841860.480502,-18.41084289550781,-19.2685432434082,14.37493896484375,132.5449676513672,140.0380706787109,15,169676.778840625,-0.982635498046875,0.1261444091796875,-0.19830322265625,169676.759583625,-0.005927131322080352,0.07094820933636495,-0.05949395348793415,169676.755036625,-92.99252319335938,-45.62922668457031,-548.45361328125,169676.774781625,0.141686022213583,-1.361725406398565,-0.133691015909255,-0.007532813120633364,0.06072087958455086,-0.05447573214769363,-0.01367443799972534,-0.006156891584396362,0.01037132740020752,1,-0.007315802853554487,-0.6301562786102295,0.09681829810142517,0.7703737616539001,-0.9694951176643372,0.1332931220531464,-0.20569908618927,0,0,0,-1,169670.19417675,3,1,1561841854.140676,1561841239.621676,50,1.74607,0,0,49.30045,0,0,1561841859.327276,169673.710194,0,-0.7768555,75.20029,0,182478453,3,1,0.98,-38.1868,-43.17691,2
1561841860.496519,44,0,0,1561841859.998191,4.634564858865583,-74.15094989358833,2554.224,0,124.8046875,4,50,-9999,1561841860.480502,-18.41084289550781,-19.2685432434082,14.37493896484375,132.5449676513672,140.0380706787109,15,169676.799104625,-0.9794464111328125,0.123382568359375,-0.1915130615234375,169676.779847625,-0.001643436708687898,0.05999276356010599,-0.04704021328239661,169676.775147625,-92.69647216796875,-45.49322509765625,-548.3072509765625,169676.795045625,0.1415265471707615,-1.360866331622231,-0.1326395751963427,0.02071879804134369,0.0272782314568758,-0.05950271338224411,-0.01075470447540283,-0.007495135068893433,0.009936213493347168,1,-0.006999341305345297,-0.6298178434371948,0.09642642736434937,0.770702600479126,-0.9694546461105347,0.1322509944438934,-0.2065609842538834,0,0,0,-1,169670.19417675,3,1,1561841854.140676,1561841239.621676,50,1.74607,0,0,49.30045,0,0,1561841859.327276,169673.710194,0,-0.7768555,75.20029,0,182478453,3,1,0.98,-38.1868,-43.17691,2
1561841860.516552,45,0,0,1561841859.998191,4.634564858865583,-74.15094989358833,2554.224,0,124.8046875,4,50,-9999,1561841860.50489,-18.34417724609375,-19.30525207519531,14.52642822265625,132.5254821777344,140.0185852050781,15,169676.819367625,-0.984283447265625,0.1229400634765625,-0.186981201171875,169676.800111625,0.0392797618659057,0.02195243686552316,-0.06571642937490429,169676.795258625,-92.55110168457031,-45.74046325683594,-548.5127563476562,169676.815308625,0.1422864990456056,-1.360718420631696,-0.1308752091591592,0.1008053719997406,-0.01664181984961033,-0.09670068323612213,-0.0103449821472168,-0.005517184734344482,0.0164145827293396,1,-0.006082035135477781,-0.6297512650489807,0.09616962820291519,0.7707968354225159,-0.9696507453918457,0.1305019110441208,-0.2067527025938034,0,0,0,-1,169670.19417675,3,1,1561841854.140676,1561841239.621676,50,1.74607,0,0,49.30045,0,0,1561841859.327276,169673.710194,0,-0.7768555,75.20029,0,182478453,3,1,0.98,-38.74408,-43.45981,2
1561841860.537393,46,0,0,1561841859.998191,4.634564858865583,-74.15094989358833,2554.224,0,124.8046875,4,50,-9999,1561841860.531394,-18.38401794433594,-19.03487777709961,14.35906982421875,132.3624877929688,139.8555908203125,15,169676.839631625,-1.00445556640625,0.1085357666015625,-0.162841796875,169676.820374625,0.1335545991902747,-0.01751481154112413,-0.1011037149915502,169676.815369625,-92.73634338378906,-45.70489501953125,-548.5252075195312,169676.835572625,0.1450778541965301,-1.361051149068183,-0.1280230091598093,0.2223097085952759,-0.05265308171510696,-0.1202544793486595,-0.02416771650314331,-0.00964684784412384,0.02823835611343384,1,-0.00407952768728137,-0.6298650503158569,0.09635829925537109,0.7706936001777649,-0.9700797200202942,0.1276735812425613,-0.206506758928299,0,0,0,-1,169670.19417675,3,1,1561841854.140676,1561841239.621676,50,1.74607,0,0,49.30045,0,0,1561841859.327276,169673.710194,0,-0.7768555,75.20029,0,182478453,3,1,0.98,-39.30135,-44.27839,2
1561841860.572736,47,0,0,1561841859.998191,4.634564858865583,-74.15094989358833,2554.224,0,124.8046875,4,50,-9999,1561841860.555596,-17.9864501953125,-19.05018997192383,14.667236328125,132.0644836425781,139.5575866699219,15,169676.859895625,-0.9918060302734375,0.09625244140625,-0.1497650146484375,169676.840638625,0.2448622158984635,-0.06602482342913546,-0.1296365565945501,169676.835480625,-92.50840759277344,-45.77732849121094,-548.1648559570312,169676.855836625,0.1492945379133964,-1.362500967231058,-0.1240498893803753,0.2382077127695084,-0.1384801119565964,-0.178675964474678,-0.03075075149536133,-0.02248991280794144,0.0521424412727356,1,-0.001138859894126654,-0.6303943395614624,0.09674708545207977,0.7702218890190125,-0.9708666801452637,0.1237319782376289,-0.2052033543586731,0,0,0,-1,169670.19417675,3,1,1561841854.140676,1561841239.621676,50,1.74607,0,0,49.30045,0,0,1561841859.327276,169673.710194,0,-0.7768555,75.20029,0,182478453,3,1,0.98,-38.51775,-39.69862,2
1561841860.577422,48,0,0,1561841859.998191,4.634564858865583,-74.15094989358833,2554.224,0,124.8046875,4,50,-9999,1561841860.555596,-17.9864501953125,-19.05018997192383,14.667236328125,132.0644836425781,139.5575866699219,15,169676.880158625,-0.983245849609375,0.0938568115234375,-0.1607513427734375,169676.860902625,0.2212343843911715,-0.1541248554500468,-0.1891507501067689,169676.855592625,-92.62655639648438,-45.77542114257812,-548.16748046875,169676.876099625,0.152124689906261,-1.365752435368495,-0.1192341734054563,0.1079895198345184,-0.2037035822868347,-0.2252195030450821,-0.01415115594863892,-0.02413374185562134,0.04931718111038208,1,0.001778360223397613,-0.6315968632698059,0.09633359313011169,0.7692866325378418,-0.9721006751060486,0.1189518496394157,-0.2021644860506058,0,0,0,-1,169670.19417675,3,1,1561841854.140676,1561841239.621676,50,1.74607,0,0,49.30045,0,0,1561841859.327276,169673.710194,0,-0.7768555,75.20029,0,182478453,3,1,0.98,-38.51775,-39.69862,2
1561841860.597516,49,0,0,1561841859.998191,4.634564858865583,-74.15094989358833,2554.224,0,124.8046875,4,50,-9999,1561841860.582316,-17.98908996582031,-19.21741485595703,14.5802001953125,131.9278869628906,139.4209899902344,15,169676.900422625,-0.9884796142578125,0.0922698974609375,-0.1976318359375,169676.881165625,0.05839566585438547,-0.2041424828311519,-0.2309107138958654,169676.875703625,-92.41098022460938,-46.01214599609375,-548.1248779296875,169676.896363625,0.1512779812017574,-1.369815660860514,-0.1144861745858903,-0.08672244101762772,-0.1540220528841019,-0.245231032371521,-0.009407639503479004,-0.01900613307952881,0.01920062303543091,1,0.003542853984981775,-0.6331079602241516,0.0945177897810936,0.7682631611824036,-0.9734567999839783,0.1142362430691719,-0.198323518037796,0,0,0,-1,169670.19417675,3,1,1561841854.140676,1561841239.621676,50,1.74607,0,0,49.30045,0,0,1561841859.327276,169673.710194,0,-0.7768555,75.20029,0,182478453,3,1,0.98,-38.51775,-40.37409,2
1561841860.630902,50,0,0,1561841859.998191,4.634564858865583,-74.15094989358833,2554.224,0,124.8046875,4,50,-9999,1561841860.606217,-17.83464050292969,-19.29929351806641,14.9100341796875,132.1205444335938,139.6136474609375,15,169676.920655625,-0.989593505859375,0.0908050537109375,-0.2268524169921875,169676.901429625,-0.1224537448184974,-0.1135049909236132,-0.2453232090831562,169676.895844625,-92.15704345703125,-45.76829528808594,-547.9329833984375,169676.916627625,0.1471717261612709,-1.372076579829619,-0.1101045738434341,-0.2098214626312256,-0.01538746990263462,-0.2575103342533112,-0.0154232382774353,-0.01994693279266357,-0.01795333623886108,1,0.004041697364300489,-0.6339354515075684,0.09156277030706406,0.7679360508918762,-0.9743838906288147,0.1098822429776192,-0.1962190121412277,0,0,0,-1,169670.19417675,3,1,1561841854.140676,1561841239.621676,50,1.74607,0,0,49.30045,0,0,1561841859.327276,169673.710194,0,-0.7768555,75.20029,0,182478453,3,1,0.98,-38.51775,-41.03253,2
1561841860.63813,51,0,0,1561841859.998191,4.634564858865583,-74.15094989358833,2554.224,0,124.8046875,4,50,-9999,1561841860.632506,-17.78137969970703,-19.49124908447266,14.81146240234375,132.5092926025391,140.0023956298828,15,169676.940919625,-0.9792938232421875,0.096221923828125,-0.2320098876953125,169676.921662625,-0.2227092430028574,0.02672455522283615,-0.2546149781264427,169676.915955625,-92.09197998046875,-46.14601135253906,-547.900634765625,169676.936890625,0.1415134874112318,-1.371949087606764,-0.1058900908045702,-0.2376163452863693,0.08263203501701355,-0.2586155533790588,-0.01391947269439697,-0.01365130394697189,-0.03284555673599243,1,0.003871732857078314,-0.6338521242141724,0.08806668221950531,0.7684144973754883,-0.9748042821884155,0.1056923195719719,-0.1964329928159714,0,0,0,-1,169670.19417675,3,1,1561841854.140676,1561841239.621676,50,1.74607,0,0,49.30045,0,0,1561841859.327276,169673.710194,0,-0.7768555,75.20029,0,182478453,3,1,0.98,-38.51775,-41.56701,2
1561841860.658401,52,0,0,1561841859.998191,4.634564858865583,-74.15094989358833,2554.224,0,124.8046875,4,50,-9999,1561841860.656735,-17.74633026123047,-19.76583862304688,14.633056640625,132.8704528808594,140.3635559082031,15,169676.961182625,-0.973907470703125,0.1071624755859375,-0.2238311767578125,169676.941926625,-0.2253420440565097,0.09091765645421511,-0.2583695026312364,169676.936066625,-92.31166076660156,-46.15193176269531,-548.1116943359375,169676.957124625,0.1363450266968842,-1.371004643182124,-0.1015531350497424,-0.1561670303344727,0.07269125431776047,-0.2514239549636841,0.001150786876678467,0.001297719776630402,-0.03398746252059937,1,0.003870376851409674,-0.6334537863731384,0.08471985906362534,0.7691188454627991,-0.9750582575798035,0.1013786718249321,-0.1974426358938217,0,0,0,-1,169670.19417675,3,1,1561841854.140676,1561841239.621676,50,1.74607,0,0,49.30045,0,0,1561841859.327276,169673.710194,0,-0.7768555,75.20029,0,182478453,3,1,0.98,-38.51775,-41.56701,2
1561841860.678671,53,0,0,1561841859.998191,4.634564858865583,-74.15094989358833,2554.224,0,124.8046875,4,50,-9999,1561841860.656735,-17.74633026123047,-19.76583862304688,14.633056640625,132.8704528808594,140.3635559082031,15,169676.981446625,-0.96954345703125,0.1089935302734375,-0.2162628173828125,169676.962189625,-0.1121973788283843,0.06245751914897433,-0.2421338073616773,169676.956178625,-92.11764526367188,-46.41748046875,-548.21923828125,169676.977387625,0.1339998972991256,-1.370535839460707,-0.0970360215053835,0.02422511577606201,0.007266442757099867,-0.2283449918031693,0.002763569355010986,0.01449009031057358,-0.01885384321212769,1,0.004855315666645765,-0.6332314014434814,0.08240006119012833,0.7695484161376953,-0.9754046201705933,0.09688381105661392,-0.1979888379573822,0,0,0,-1,169670.19417675,3,1,1561841854.140676,1561841239.621676,50,1.74607,0,0,49.30045,0,0,1561841859.327276,169673.710194,0,-0.7768555,75.20029,0,182478453,3,1,0.98,-38.51775,-41.57195,2
1561841860.720423,54,0,0,1561841859.998191,4.634564858865583,-74.15094989358833,2554.224,0,124.8046875,4,50,-9999,1561841860.708949,-17.38779449462891,-19.95977401733398,14.63104248046875,132.8190612792969,140.3121643066406,15,169677.001710625,-0.9754486083984375,0.1016082763671875,-0.2141876220703125,169677.002717625,0.1567491343882108,0.004782504685564296,-0.1604458682973498,169676.976289625,-92.04454040527344,-46.31752014160156,-548.2031860351562,169676.997651625,0.1350502210786435,-1.370528734044358,-0.09250759202932807,0.1432162225246429,-0.006862159818410873,-0.1836507618427277,0.006615221500396729,0.01173500716686249,-0.01567941904067993,1,0.006939271464943886,-0.6331756114959717,0.08138171583414078,0.7696865797042847,-0.9758229851722717,0.09237571060657501,-0.198080986738205,0,0,0,-1,169670.19417675,3,1,1561841854.140676,1561841239.621676,50,1.74607,0,0,49.30045,0,0,1561841859.327276,169673.710194,0,-0.7768555,75.20029,0,182478453,3,1,0.98,-38.51775,-41.59031,2
1561841860.72346,55,0,0,1561841859.998191,4.634564858865583,-74.15094989358833,2554.224,0,124.8046875,4,50,-9999,1561841860.708949,-17.38779449462891,-19.95977401733398,14.63104248046875,132.8190612792969,140.3121643066406,15,169677.021973625,-0.9865264892578125,0.089508056640625,-0.2128143310546875,169677.002717625,0.1567491343882108,0.004782504685564296,-0.1604458682973498,169676.996430625,-91.65554809570312,-46.39854431152344,-548.3035278320312,169677.017915625,0.1374782925560679,-1.370007489875336,-0.08895060368986128,0.1447396874427795,0.03143037483096123,-0.1207440942525864,-0.007912278175354004,0.008777119219303131,-0.01348906755447388,1,0.00906264316290617,-0.6329225301742554,0.0812009796500206,0.7698917388916016,-0.9760354161262512,0.08883335441350937,-0.1986538767814636,0,0,0,-1,169670.19417675,3,1,1561841854.140676,1561841239.621676,50,1.74607,0,0,49.30045,0,0,1561841859.327276,169673.710194,0,-0.7768555,75.20029,0,182478453,3,1,0.98,-38.51775,-41.59031,2
1561841860.739937,56,0,0,1561841859.998191,4.634564858865583,-74.15094989358833,2554.224,0,124.8046875,4,50,-9999,1561841860.734387,-17.17710876464844,-19.97253799438477,14.90625,132.6731719970703,140.1662750244141,15,169677.042237625,-0.9935760498046875,0.0710906982421875,-0.219573974609375,169677.022980625,0.1369530590573248,0.0431445412398287,-0.1065277751837146,169677.016541625,-91.90000915527344,-46.65254211425781,-548.2007446289062,169677.038178625,0.1392455077604894,-1.368843802456452,-0.0865022672672475,0.05612379312515259,0.05838955193758011,-0.08747348934412003,-0.008956313133239746,-0.008238911628723145,-0.01432454586029053,1,0.01052187010645866,-0.6324341893196106,0.0811183750629425,0.7702831029891968,-0.9760137796401978,0.08639442920684814,-0.1998325735330582,0,0,0,-1,169670.19417675,3,1,1561841854.140676,1561841239.621676,50,1.74607,0,0,49.30045,0,0,1561841859.327276,169673.710194,0,-0.7768555,75.20029,0,182478453,3,1,0.98,-38.51775,-42.11085,2
1561841860.759761,57,0,0,1561841859.998191,4.634564858865583,-74.15094989358833,2554.224,0,124.8046875,4,50,-9999,1561841860.758078,-17.47515106201172,-19.84557342529297,14.827880859375,132.7431488037109,140.2362518310547,15,169677.062501625,-1.03338623046875,0.0560302734375,-0.2525787353515625,169677.043244625,0.02152393424612941,0.0696589730526576,-0.07390245393358985,169677.036652625,-92.04432678222656,-46.37297058105469,-547.9456787109375,169677.058442625,0.1383776438623605,-1.367514656103321,-0.08543225666949855,-0.1313270628452301,0.06423279643058777,-0.04319310933351517,-0.03308916091918945,-0.0199292004108429,-0.03174668550491333,1,0.01060811802744865,-0.6319124698638916,0.08045529574155807,0.7707794308662415,-0.975837230682373,0.0853283703327179,-0.201148197054863,0,0,0,-1,169670.19417675,3,1,1561841854.140676,1561841239.621676,50,1.74607,0,0,49.30045,0,0,1561841859.327276,169673.710194,0,-0.7768555,75.20029,0,182478453,3,1,0.98,-38.51775,-42.1916,2
1561841860.806181,58,0,0,1561841859.998191,4.634564858865583,-74.15094989358833,2554.224,0,124.8046875,4,50,-9999,1561841860.78502,-17.52199554443359,-20.0651969909668,14.3909912109375,133.2111053466797,140.7042083740234,15,169677.082764625,-1.119888305664062,0.0255126953125,-0.287811279296875,169677.063508625,-0.1833107041523341,0.05775943666996554,-0.04012052182204372,169677.056763625,-91.8392333984375,-46.70596313476562,-548.05859375,169677.078706625,0.1332183329043251,-1.366752338217007,-0.08540561395185936,-0.3713330030441284,0.08540651947259903,-0.08353041112422943,-0.09053713083267212,-0.04289764910936356,-0.07032424211502075,1,0.008958369493484497,-0.6316434741020203,0.07846173644065857,0.7712264060974121,-0.9756860136985779,0.08530182391405106,-0.2018925398588181,0,0,0,-1,169670.19417675,3,1,1561841854.140676,1561841239.621676,50,1.74607,0,0,49.30045,0,0,1561841859.327276,169674.654979,0,-0.7053223,75.19961,0,182478453,3,1,0.98,-38.51775,-41.39539,2
1561841860.808834,59,0,0,1561841859.998191,4.634564858865583,-74.15094989358833,2554.224,0,124.8046875,4,50,-9999,1561841860.78502,-17.52199554443359,-20.0651969909668,14.3909912109375,133.2111053466797,140.7042083740234,15,169677.103028625,-1.253021240234375,0.0088043212890625,-0.301666259765625,169677.083771625,-0.427950013467558,0.1469497668411553,-0.1006240796792269,169677.076875625,-91.628173828125,-46.44447326660156,-548.3206787109375,169677.098969625,0.1231124467749877,-1.363296415979102,-0.08500540686375757,-0.5732554793357849,0.3455896377563477,-0.1579447239637375,-0.2118740677833557,-0.07025463134050369,-0.09163534641265869,1,0.005793053191155195,-0.6303422451019287,0.07444833219051361,0.7727175354957581,-0.9750155806541443,0.08490306884050369,-0.2052701860666275,0,0,0,-1,169670.19417675,3,1,1561841854.140676,1561841239.621676,50,1.74607,0,0,49.30045,0,0,1561841859.327276,169674.654979,0,-0.7053223,75.19961,0,182478453,3,1,0.98,-38.51775,-41.39539,2
1561841860.820526,60,0,0,1561841859.998191,4.634564858865583,-74.15094989358833,2554.224,0,124.8046875,4,50,-9999,1561841860.808836,-17.41578674316406,-20.08706283569336,14.2872314453125,134.0555877685547,141.5486907958984,15,169677.123261625,-1.359237670898438,0.005584716796875,-0.302154541015625,169677.104035625,-0.593039902073788,0.4051829156245796,-0.1749750099403861,169677.097016625,-91.872314453125,-46.58393859863281,-548.5433349609375,169677.119233625,0.1106557663004371,-1.355605811925454,-0.08354988271192992,-0.5485072135925293,0.4868687391281128,-0.2342397570610046,-0.339658796787262,-0.07339716702699661,-0.09289062023162842,1,0.00216578459367156,-0.6273762583732605,0.06918688863515854,0.7756335735321045,-0.9735278487205505,0.08345270901918411,-0.2127886861562729,0,0,0,-1,169670.19417675,3,1,1561841854.140676,1561841239.621676,50,1.74607,0,0,49.30045,0,0,1561841859.327276,169674.654979,0,-0.7053223,75.19961,0,182478453,3,1,0.98,-38.51775,-41.39539,2
1561841860.84071,61,0,0,1561841859.998191,4.634564858865583,-74.15094989358833,2554.224,0,124.8046875,4,50,-9999,1561841860.835243,-17.36375427246094,-20.56862258911133,13.67999267578125,134.8388671875,142.3319702148438,15,169677.143525625,-1.403976440429688,0.012969970703125,-0.3105010986328125,169677.124268625,-0.5019334274982863,0.4892661017733244,-0.2345888056773738,169677.117127625,-92.13223266601562,-46.87664794921875,-548.9225463867188,169677.139497625,0.1003786352887326,-1.347576821465177,-0.08119276239560615,-0.4055221080780029,0.3390475511550903,-0.1882158070802689,-0.4124984741210938,-0.08246161043643951,-0.07940769195556641,1,-0.0003992033016402274,-0.6242429614067078,0.06446366012096405,0.7785660028457642,-0.9719772338867188,0.08110358566045761,-0.2206411361694336,0,0,0,-1,169670.19417675,3,1,1561841854.140676,1561841239.621676,50,1.74607,0,0,49.30045,0,0,1561841859.327276,169674.654979,0,-0.7053223,75.19961,0,182478453,3,1,0.98,-36.37894,-41.43789,2
1561841860.884738,62,0,0,1561841859.998191,4.634564858865583,-74.15094989358833,2554.224,0,124.8046875,4,50,-9999,1561841860.859551,-17.40624237060547,-20.55263137817383,13.5908203125,135.4278564453125,142.9209594726562,15,169677.1638086667,-1.511749267578125,0.0714111328125,-0.3504486083984375,169677.144532625,-0.3922553990611169,0.284906571313331,-0.165324246782157,169677.137238625,-91.9219970703125,-47.16357421875,-549.1246337890625,169677.1597496667,0.0920648545469339,-1.343689548865165,-0.0793641427979357,-0.3240706920623779,0.1356534510850906,-0.2220824360847473,-0.4718143939971924,-0.03260422497987747,-0.1021788120269775,1,-0.002397774253040552,-0.6227108836174011,0.06065405160188675,0.7800939083099365,-0.9712550640106201,0.07928085327148438,-0.2244508117437363,0,0,0,-1,169670.19417675,3,1,1561841854.140676,1561841239.621676,50,1.74607,0,0,49.30045,0,0,1561841859.327276,169674.654979,0,-0.7053223,75.19961,0,182478453,3,1,0.98,-36.37894,-37.48507,2
1561841860.887653,63,0,0,1561841859.998191,4.634564858865583,-74.15094989358833,2554.224,0,124.8046875,4,50,-9999,1561841860.885822,-17.46637725830078,-20.92734909057617,13.24029541015625,135.6509246826172,143.1440277099609,15,169677.1840716667,-1.552932739257812,0.031158447265625,-0.3672027587890625,169677.1648156667,-0.2575732174653027,0.1440629002195094,-0.2678700635039851,169677.1573686667,-91.892822265625,-47.30911254882812,-549.5903930664062,169677.1800126667,0.08723588243452979,-1.340645175894062,-0.07413202306666461,-0.002865489106625319,0.2261620461940765,-0.3660086989402771,-0.58256995677948,-0.02076518535614014,-0.1321667432785034,1,-0.00194148754235357,-0.6214878559112549,0.05714531615376472,0.7813344597816467,-0.97095787525177,0.07406414300203323,-0.2274981439113617,0,0,0,-1,169670.19417675,3,1,1561841854.140676,1561841239.621676,50,1.74607,0,0,49.30045,0,0,1561841859.327276,169674.654979,0,-0.7053223,75.19961,0,182478453,3,1,0.98,-36.37894,-37.48507,2
1561841860.901601,64,0,0,1561841859.998191,4.634564858865583,-74.15094989358833,2554.224,0,124.8046875,4,50,-9999,1561841860.885822,-17.46637725830078,-20.92734909057617,13.24029541015625,135.6509246826172,143.1440277099609,15,169677.2043356667,-1.513137817382812,0.1014862060546875,-0.3900299072265625,169677.1850786667,0.08684408525082991,0.2563023569931169,-0.377738774275204,169677.1774796667,-91.77392578125,-47.61357116699219,-549.55126953125,169677.2002766667,0.08862747872807285,-1.335239418484527,-0.06593360556497027,0.3033724427223206,0.2914209365844727,-0.3671061992645264,-0.566547691822052,-0.008528053760528564,-0.1534598469734192,1,0.001552921603433788,-0.6193212866783142,0.05515580624341965,0.7831964492797852,-0.9702717661857605,0.06588584184646606,-0.2328774631023407,0,0,0,-1,169670.19417675,3,1,1561841854.140676,1561841239.621676,50,1.74607,0,0,49.30045,0,0,1561841859.327276,169674.654979,0,-0.7053223,75.19961,0,182478453,3,1,0.98,-36.37894,-38.21759,2
1561841860.921779,65,0,0,1561841859.998191,4.634564858865583,-74.15094989358833,2554.224,0,124.8046875,4,50,-9999,1561841860.910093,-17.24250030517578,-21.03649520874023,13.3455810546875,135.3531494140625,142.8462524414062,15,169677.2245996667,-1.44073486328125,0.178070068359375,-0.3429718017578125,169677.2053426667,0.3641707674695773,0.3184679936866185,-0.3543996294300766,169677.1975916667,-91.75982666015625,-47.65536499023438,-549.3609619140625,169677.2205406667,0.09451077911517548,-1.328230186612397,-0.05703099620537954,0.4207321405410767,0.3384824395179749,-0.3626083731651306,-0.5126954913139343,0.08829410374164581,-0.1289705038070679,1,0.006676997523754835,-0.6164847612380981,0.05473676323890686,0.7854335308074951,-0.9691465497016907,0.05700008571147919,-0.2398039102554321,0,0,0,-1,169670.19417675,3,1,1561841854.140676,1561841239.621676,50,1.74607,0,0,49.30045,0,0,1561841859.327276,169674.654979,0,-0.7053223,75.19961,0,182478453,3,1,0.98,-36.37894,-38.48352,2
1561841860.966702,66,0,0,1561841859.998191,4.634564858865583,-74.15094989358833,2554.224,0,124.8046875,4,50,-9999,1561841860.937268,-17.30905914306641,-21.09283447265625,13.0545654296875,134.9191284179688,142.4122314453125,15,169677.2448626667,-1.334396362304688,0.197845458984375,-0.31561279296875,169677.2256066667,0.4062955843280147,0.3197748068335204,-0.3553386600304386,169677.2177026667,-91.86184692382812,-47.69483947753906,-549.6740112304688,169677.2408036667,0.1002944293180453,-1.321985492967116,-0.04833440074552622,0.3369868993759155,0.2643746733665466,-0.3186774253845215,-0.4238937497138977,0.1354612708091736,-0.08386999368667603,1,0.01171218417584896,-0.61390620470047,0.05437339469790459,0.7874169945716858,-0.9680740237236023,0.04831558465957642,-0.245963990688324,0,0,0,-1,169670.19417675,3,1,1561841854.140676,1561841239.621676,50,1.74607,0,0,49.30045,0,0,1561841859.327276,169674.654979,0,-0.7053223,75.19961,0,182478453,3,1,0.98,-34.25555,-38.73522,2
1561841860.969789,67,0,0,1561841859.998191,4.634564858865583,-74.15094989358833,2554.224,0,124.8046875,4,50,-9999,1561841860.960878,-17.02885437011719,-21.22751617431641,13.25592041015625,134.4940795898438,141.9871826171875,15,169677.2651266667,-1.195846557617188,0.2236785888671875,-0.2879486083984375,169677.2458696667,0.3381383678140528,0.2756161338505895,-0.2851214884133004,169677.2378136667,-91.46516418457031,-47.72282409667969,-549.4810791015625,169677.2610676667,0.1060893446108013,-1.316327403668971,-0.0418118255692922,0.4064269661903381,0.2626010179519653,-0.1520010828971863,-0.2989330887794495,0.1713503897190094,-0.04620277881622314,1,0.01590872555971146,-0.6115481853485107,0.05470418930053711,0.7891534566879272,-0.9669512510299683,0.0417996421456337,-0.2515114545822144,0,0,0,-1,169670.19417675,3,1,1561841854.140676,1561841239.621676,50,1.74607,0,0,49.30045,0,0,1561841859.327276,169674.654979,0,-0.7053223,75.19961,0,182478453,3,1,0.98,-34.25555,-38.73522,2
1561841860.982761,68,0,0,1561841859.998191,4.634564858865583,-74.15094989358833,2554.224,0,124.8046875,4,50,-9999,1561841860.960878,-17.02885437011719,-21.22751617431641,13.25592041015625,134.4940795898438,141.9871826171875,15,169677.2853906667,-1.077545166015625,0.2410736083984375,-0.2800445556640625,169677.2661336667,0.4443236604815832,0.272943651696695,-0.1120144196614958,169677.2579246667,-91.64163208007812,-47.65383911132812,-549.53125,169677.2813316667,0.1148544669594748,-1.310096382720843,-0.03800713733482514,0.5099592208862305,0.3399897813796997,0.03221083432435989,-0.1626617312431335,0.1956751048564911,-0.02323669195175171,1,0.0199145469814539,-0.608948290348053,0.05706476047635078,0.7909039855003357,-0.9655120968818665,0.03799798712134361,-0.2575707733631134,0,0,0,-1,169670.19417675,3,1,1561841854.140676,1561841239.621676,50,1.74607,0,0,49.30045,0,0,1561841859.327276,169674.654979,0,-0.7053223,75.19961,0,182478453,3,1,0.98,-34.25555,-38.73522,2
1561841861.002804,69,0,0,1561841859.998191,4.634564858865583,-74.15094989358833,2554.224,0,124.8046875,4,50,-9999,1561841860.987053,-17.16056823730469,-20.9375,13.471435546875,133.8101959228516,141.3032989501953,15,169677.3056236667,-0.974029541015625,0.2433319091796875,-0.29962158203125,169677.2863976667,0.5225401690649923,0.387349590017082,0.1123947190651591,169677.2780356667,-91.64656066894531,-47.6121826171875,-549.3985595703125,169677.3015946667,0.1262524352155485,-1.301173832932111,-0.0391659318809731,0.5432575345039368,0.4863776564598083,0.3851332068443298,-0.07214593887329102,0.2036419361829758,-0.02697324752807617,1,0.02264920808374882,-0.6053142547607422,0.06202445924282074,0.7932431697845459,-0.963132381439209,0.03915591910481453,-0.2661633193492889,0,0,0,-1,169670.19417675,3,1,1561841854.140676,1561841239.621676,50,1.74607,0,0,49.30045,0,0,1561841859.327276,169674.654979,0,-0.7053223,75.19961,0,182478453,3,1,0.98,-29.17146,-38.61535,2
1561841861.046095,70,0,0,1561841859.998191,4.634564858865583,-74.15094989358833,2554.224,0,124.8046875,4,50,-9999,1561841861.039594,-17.63075256347656,-20.35042953491211,13.48968505859375,131.6445465087891,139.1376495361328,15,169677.3258866667,-0.8454437255859375,0.255462646484375,-0.282958984375,169677.3066306667,0.5591980488377151,0.5019134537901107,0.4656981913905591,169677.2981466667,-91.99177551269531,-47.4561767578125,-549.5477905273438,169677.3218586667,0.1405828483730464,-1.291216010416153,-0.04614017759685609,0.6553230881690979,0.3873333334922791,0.6349957585334778,0.0561261773109436,0.2079960703849792,-0.01788997650146484,1,0.02386744134128094,-0.6013327240943909,0.06992840766906738,0.7955748438835144,-0.9601483941078186,0.04612380638718605,-0.2756586074829102,0,0,0,-1,169670.19417675,3,1,1561841854.140676,1561841239.621676,50,1.74607,0,0,49.30045,0,0,1561841859.327276,169674.654979,0,-0.7053223,75.19961,0,182478453,3,1,0.98,-29.17146,-37.90952,2
1561841861.04892,71,0,0,1561841859.998191,4.634564858865583,-74.15094989358833,2554.224,0,124.8046875,4,50,-9999,1561841861.039594,-17.63075256347656,-20.35042953491211,13.48968505859375,131.6445465087891,139.1376495361328,15,169677.3461506667,-0.768646240234375,0.2210540771484375,-0.281219482421875,169677.3268946667,0.7015386827802702,0.3533226470852486,0.6723214087771199,169677.3182576667,-91.90835571289062,-46.87257385253906,-549.4482421875,169677.3420916667,0.1588369833151607,-1.284091499834399,-0.05513359756392337,0.8144421577453613,0.2136915177106857,0.6943634748458862,0.1494958400726318,0.1848540455102921,0.005660474300384521,1,0.02548544481396675,-0.5984720587730408,0.0799669474363327,0.7967351078987122,-0.9577233791351318,0.05510567128658295,-0.2823633849620819,0,0,0,-1,169670.19417675,3,1,1561841854.140676,1561841239.621676,50,1.74607,0,0,49.30045,0,0,1561841859.327276,169674.654979,0,-0.7053223,75.19961,0,182478453,3,1,0.98,-29.17146,-37.90952,2
1561841861.063512,72,0,0,1561841860.998181,4.634564858865583,-74.15094989358833,2554.304,0,103.7109375,4,50,-9999,1561841861.039594,-17.63075256347656,-20.35042953491211,13.48968505859375,131.6445465087891,139.1376495361328,15,169677.3664146667,-0.701690673828125,0.1998443603515625,-0.2926177978515625,169677.3471576667,0.8357902312278186,0.1659807159908615,0.6969886720578699,169677.3383686667,-92.31759643554688,-46.33482360839844,-549.14111328125,169677.3623556667,0.1791158528893883,-1.280120296570459,-0.06373786217938428,0.8409126400947571,0.1138006150722504,0.6805747151374817,0.2223403453826904,0.1415817737579346,-0.006828665733337402,1,0.02793526463210583,-0.5968338251113892,0.09065243601799011,0.7967378497123718,-0.9561049938201904,0.06369471549987793,-0.2860180139541626,0,0,0,-1,169670.19417675,3,1,1561841854.140676,1561841239.621676,50,1.74607,0,0,49.30045,0,0,1561841859.327276,169674.654979,0,-0.7053223,75.19961,0,182478453,3,1,0.98,-29.17146,-38.05967,2
1561841861.083759,73,0,0,1561841860.998181,4.634564858865583,-74.15094989358833,2554.304,0,103.7109375,4,50,-9999,1561841861.072481,-18.06520843505859,-19.7258186340332,13.76776123046875,130.1937561035156,137.6868591308594,15,169677.3866776667,-0.60992431640625,0.1806640625,-0.2787628173828125,169677.3674216667,0.8386193072538098,0.1466826517838203,0.6737752284161941,169677.3584796667,-92.72914123535156,-46.05445861816406,-548.8653564453125,169677.3826196667,0.1991854658965636,-1.275168503127877,-0.07188690787804698,0.8228920698165894,0.2400163412094116,0.6695849299430847,0.3025374412536621,0.121854804456234,0.01019257307052612,1,0.03041443228721619,-0.5947948694229126,0.1011274755001068,0.7969111204147339,-0.9541487693786621,0.07182500511407852,-0.2905880510807037,0,0,0,-1,169670.19417675,3,1,1561841854.140676,1561841239.621676,50,1.74607,0,0,49.30045,0,0,1561841859.327276,169674.654979,0,-0.7053223,75.19961,0,182478453,3,1,0.98,-29.17146,-38.69778,2
1561841861.116353,74,0,0,1561841860.998181,4.634564858865583,-74.15094989358833,2554.304,0,103.7109375,4,50,-9999,1561841861.112653,-19.01667022705078,-18.22417449951172,14.19659423828125,127.3043441772461,134.7974548339844,15,169677.4069416667,-0.52850341796875,0.1475830078125,-0.2685394287109375,169677.4079486667,0.8488980437970797,0.2937732998466407,0.6574830741315254,169677.3786216667,-92.93731689453125,-45.49742126464844,-548.6981201171875,169677.4028826667,0.219392513836077,-1.268403728714682,-0.0797762783469729,0.8487836122512817,0.2649602890014648,0.6562358140945435,0.3862218856811523,0.08362312614917755,0.01635557413101196,1,0.03288688510656357,-0.5920215249061584,0.111604817211628,0.7974793314933777,-0.9515905380249023,0.07969168573617935,-0.2968579232692719,0,0,0,-1,169670.19417675,3,1,1561841854.140676,1561841239.621676,50,1.74607,0,0,49.30045,0,0,1561841859.327276,169674.654979,0,-0.7053223,75.19961,0,182478453,3,1,0.98,-29.17146,-39.13337,2
1561841861.124253,75,0,0,1561841860.998181,4.634564858865583,-74.15094989358833,2554.304,0,103.7109375,4,50,-9999,1561841861.112653,-19.01667022705078,-18.22417449951172,14.19659423828125,127.3043441772461,134.7974548339844,15,169677.4272056667,-0.488128662109375,0.14691162109375,-0.2391204833984375,169677.4079486667,0.8488980437970797,0.2937732998466407,0.6574830741315254,169677.3987326667,-93.43196105957031,-45.010986328125,-548.7120361328125,169677.4231466667,0.2394296199381178,-1.260181254435178,-0.08753410476534912,0.7653928399085999,0.3809968829154968,0.6887431740760803,0.4461961984634399,0.05636121332645416,0.0551455020904541,1,0.03520402684807777,-0.5886625647544861,0.1219987720251083,0.7983441352844238,-0.9485003352165222,0.08742236346006393,-0.3044741153717041,0,0,0,-1,169670.19417675,3,1,1561841854.140676,1561841239.621676,50,1.74607,0,0,49.30045,0,0,1561841859.327276,169674.654979,0,-0.7053223,75.19961,0,182478453,3,1,0.98,-29.17146,-39.13337,2
1561841861.144486,76,0,0,1561841860.998181,4.634564858865583,-74.15094989358833,2554.304,0,103.7109375,4,50,-9999,1561841861.138963,-19.21962738037109,-17.76847076416016,14.5198974609375,126.0234451293945,133.5165557861328,15,169677.4474686667,-0.521575927734375,0.1580352783203125,-0.2190704345703125,169677.4282126667,0.70738272347634,0.3998448755356248,0.7237915242167543,169677.4188436667,-93.57038879394531,-44.51898193359375,-548.283935546875,169677.4434106667,0.2563485413217266,-1.250504675647307,-0.09814213604584188,0.4765107035636902,0.4174116253852844,0.8155996203422546,0.4328727126121521,0.05585444718599319,0.0745435357093811,1,0.03527998179197311,-0.5848855972290039,0.1319909542798996,0.7995263934135437,-0.9445762038230896,0.09798466414213181,-0.3133283257484436,0,0,0,-1,169670.19417675,3,1,1561841854.140676,1561841239.621676,50,1.74607,0,0,49.30045,0,0,1561841859.327276,169674.654979,0,-0.7053223,75.19961,0,182478453,3,1,0.98,-29.17146,-39.60712,2
1561841861.165053,77,0,0,1561841860.998181,4.634564858865583,-74.15094989358833,2554.304,0,103.7109375,4,50,-9999,1561841861.16358,-19.78059387207031,-17.23485946655273,14.23345947265625,125.1686782836914,132.6617889404297,15,169677.4677326667,-0.5100860595703125,0.13482666015625,-0.171173095703125,169677.4484766667,0.4049064795034293,0.4229912075178304,0.8350818303778575,169677.4389546667,-93.96603393554688,-43.87075805664062,-548.4818725585938,169677.4636736667,0.2684062458688689,-1.241367740294142,-0.1122704229314378,0.2015571594238281,0.3281813263893127,0.890062689781189,0.4372488856315613,0.03452595323324203,0.1379024386405945,1,0.03246421366930008,-0.5815610289573669,0.141010046005249,0.8005303740501404,-0.9402701258659363,0.1120347157120705,-0.3214657008647919,0,0,0,-1,169670.19417675,3,1,1561841854.140676,1561841239.621676,50,1.74607,0,0,49.30045,0,0,1561841859.327276,169674.654979,0,-0.7053223,75.19961,0,182478453,3,1,0.98,-29.17146,-39.86742,2
1561841861.196063,78,0,0,1561841860.998181,4.634564858865583,-74.15094989358833,2554.304,0,103.7109375,4,50,-9999,1561841861.190262,-20.55025482177734,-16.55620193481445,14.000244140625,124.6732406616211,132.1663513183594,15,169677.4879966667,-0.544586181640625,0.141876220703125,-0.195526123046875,169677.4687396667,0.1356086953390528,0.2986977510183063,0.9167138430592934,169677.4590656667,-94.39674377441406,-43.68626403808594,-548.49755859375,169677.4839376667,0.2761930025556519,-1.234857608016192,-0.1296340179405749,-0.02082424983382225,0.2553334832191467,0.9789171814918518,0.4048838019371033,0.0117962658405304,0.1423192024230957,1,0.0272184032946825,-0.5794949531555176,0.1491483896970749,0.8007493615150452,-0.9361795783042908,0.1292712390422821,-0.3268895149230957,0,0,0,-1,169670.19417675,3,1,1561841854.140676,1561841239.621676,50,1.74607,0,0,49.30045,0,0,1561841859.327276,169674.654979,0,-0.7053223,75.19961,0,182478453,3,1,0.98,-29.17146,-38.24428,2
1561841861.205289,79,0,0,1561841860.998181,4.634564858865583,-74.15094989358833,2554.304,0,103.7109375,4,50,-9999,1561841861.190262,-20.55025482177734,-16.55620193481445,14.000244140625,124.6732406616211,132.1663513183594,15,169677.5082296667,-0.5920562744140625,0.128570556640625,-0.2144317626953125,169677.4890036667,-0.05915786255836615,0.2731668245960436,1.008051480017414,169677.4791766667,-94.71171569824219,-43.217529296875,-548.8145751953125,169677.5042016667,0.2811902225217811,-1.228373805903999,-0.1498080719675498,-0.1735512167215347,0.3161185383796692,1.046958804130554,0.3609137535095215,-0.01748871803283691,0.1196984648704529,1,0.01997696049511433,-0.5775779485702515,0.1569018512964249,0.8008661270141602,-0.931394100189209,0.1492483615875244,-0.3320092558860779,0,0,0,-1,169670.19417675,3,1,1561841854.140676,1561841239.621676,50,1.74607,0,0,49.30045,0,0,1561841859.327276,169674.654979,0,-0.7053223,75.19961,0,182478453,3,1,0.98,-29.17146,-38.24428,2
1561841861.225599,80,0,0,1561841860.998181,4.634564858865583,-74.15094989358833,2554.304,0,103.7109375,4,50,-9999,1561841861.213831,-21.00579833984375,-15.94277954101562,13.674072265625,124.3931503295898,131.8862609863281,15,169677.5284936667,-0.632568359375,0.135009765625,-0.2010955810546875,169677.5092366667,-0.1984489107366715,0.3183814409511909,1.052825875844371,169677.4992876667,-95.20703125,-42.63604736328125,-548.9091796875,169677.5244646667,0.2844604619454074,-1.221984674746395,-0.1712233369108557,-0.2182680815458298,0.24654321372509,1.044013023376465,0.3176082372665405,-0.03757542371749878,0.1267919540405273,1,0.01169217005372047,-0.5757356882095337,0.1642386466264725,0.8008853793144226,-0.9260371923446655,0.1703879237174988,-0.3367834091186523,0,0,0,-1,169670.19417675,3,1,1561841854.140676,1561841239.621676,50,1.74607,0,0,49.30045,0,0,1561841859.327276,169674.654979,0,-0.7053223,75.19961,0,182478453,3,1,0.98,-29.17146,-38.32763,2
1561841861.245833,81,0,0,1561841860.998181,4.634564858865583,-74.15094989358833,2554.304,0,103.7109375,4,50,-9999,1561841861.240443,-21.29600524902344,-15.55760955810547,13.90802001953125,124.149299621582,131.6424102783203,15,169677.5487566667,-0.666900634765625,0.1062469482421875,-0.18902587890625,169677.5295006667,-0.2054314527987503,0.2383441291304945,1.04084031935847,169677.5395096667,-96.04470825195312,-41.97053527832031,-548.8435668945312,169677.5446976667,0.2880398062294869,-1.216860656973745,-0.19206742448563,-0.1523319482803345,0.201172798871994,1.000837564468384,0.2662416100502014,-0.06507998704910278,0.1461576223373413,1,0.003792180446907878,-0.5743484497070312,0.1714634746313095,0.8004434704780579,-0.9207673668861389,0.1908887028694153,-0.3402189612388611,0,0,0,-1,169670.19417675,3,1,1561841854.140676,1561841239.621676,50,1.74607,0,0,49.30045,0,0,1561841859.327276,169674.654979,0,-0.7053223,75.19961,0,182478453,3,1,0.98,-29.17146,-38.82599,2
1561841861.283534,82,0,0,1561841860.998181,4.634564858865583,-74.15094989358833,2554.304,0,103.7109375,4,50,-9999,1561841861.273355,-21.97920989990234,-15.27997970581055,13.57427978515625,123.815055847168,131.3081665039062,15,169677.5690206667,-0.7148284912109375,0.1020965576171875,-0.1748046875,169677.5497636667,-0.1275038971936147,0.1971498207569309,0.9810243896947448,169677.5596216667,-96.22695922851562,-41.75796508789062,-549.3906860351562,169677.5649616667,0.2927082588582487,-1.212238042182765,-0.2109473723891508,-0.08276085555553436,0.1633146405220032,0.8982271552085876,0.2328460812568665,-0.1113181263208389,0.162649393081665,1,-0.002983173821121454,-0.573077917098999,0.1785223186016083,0.7998140454292297,-0.9156464338302612,0.2093863636255264,-0.3431456089019775,0,0,0,-1,169670.19417675,3,1,1561841854.140676,1561841239.621676,50,1.74607,0,0,49.30045,0,0,1561841859.327276,169674.654979,0,-0.7053223,75.19961,0,182478453,3,1,0.98,-29.17146,-39.30427,2
1561841861.286553,83,0,0,1561841860.998181,4.634564858865583,-74.15094989358833,2554.304,0,103.7109375,4,50,-9999,1561841861.273355,-21.97920989990234,-15.27997970581055,13.57427978515625,123.815055847168,131.3081665039062,15,169677.5892846667,-0.7824249267578125,0.1082305908203125,-0.1832733154296875,169677.5700276667,-0.07176446821047423,0.1578231872558398,0.8762428492377953,169677.5797326667,-96.4967041015625,-41.24154663085938,-549.2772216796875,169677.5852256667,0.2976619902505831,-1.208633468233766,-0.2274736094946693,-0.04591282457113266,0.06605412811040878,0.7974403500556946,0.166124165058136,-0.1208111196756363,0.1686417460441589,1,-0.008649312891066074,-0.5721362233161926,0.185004711151123,0.7989735007286072,-0.9110430479049683,0.2255169302225113,-0.3451706767082214,0,0,0,-1,169670.19417675,3,1,1561841854.140676,1561841239.621676,50,1.74607,0,0,49.30045,0,0,1561841859.327276,169674.654979,0,-0.7053223,75.19961,0,182478453,3,1,0.98,-29.17146,-39.30427,2
1561841861.306697,84,0,0,1561841860.998181,4.634564858865583,-74.15094989358833,2554.304,0,103.7109375,4,50,-9999,1561841861.273355,-21.97920989990234,-15.27997970581055,13.57427978515625,123.815055847168,131.3081665039062,15,169677.6095476667,-0.83056640625,0.101226806640625,-0.2155609130859375,169677.5902916667,-0.04059669502494989,0.03793060445767157,0.7738490990142106,169677.5998436667,-97.00477600097656,-40.86958312988281,-549.50048828125,169677.6054886667,0.3022950157994049,-1.207286905236185,-0.2416981738512751,-0.04094869270920753,-0.008706926368176937,0.659489631652832,0.09315609931945801,-0.1306024044752121,0.1528692841529846,1,-0.01326967962086201,-0.5720254778862,0.1907106935977936,0.797646701335907,-0.907487154006958,0.2393517792224884,-0.3452215492725372,0,0,0,-1,169670.19417675,3,1,1561841854.140676,1561841239.621676,50,1.74607,0,0,49.30045,0,0,1561841859.327276,169674.654979,0,-0.7053223,75.19961,0,182478453,3,1,0.98,-29.17146,-40.09257,2
1561841861.326842,85,0,0,1561841860.998181,4.634564858865583,-74.15094989358833,2554.304,0,103.7109375,4,50,-9999,1561841861.315319,-22.35712432861328,-14.17494583129883,13.442138671875,123.1786117553711,130.6717224121094,15,169677.6298116667,-0.8816375732421875,0.0849456787109375,-0.2689056396484375,169677.6105546667,-0.04451527025289248,0.02783962077125232,0.6187284876325833,169677.6199546667,-97.19549560546875,-40.43951416015625,-549.66162109375,169677.6257526667,0.3053719883220564,-1.204632836465563,-0.2529710192999331,-0.08931409567594528,0.2593657970428467,0.4874734282493591,0.05288600921630859,-0.1595832705497742,0.1070624589920044,1,-0.01725966483354568,-0.5712983012199402,0.1949659734964371,0.7970624566078186,-0.9039907455444336,0.2502815127372742,-0.3466407060623169,0,0,0,-1,169670.19417675,3,1,1561841854.140676,1561841239.621676,50,1.74607,0,0,49.30045,0,0,1561841859.327276,169674.654979,0,-0.7053223,75.19961,0,182478453,3,1,0.98,-29.17146,-40.42614,2
1561841861.366867,86,0,0,1561841860.998181,4.634564858865583,-74.15094989358833,2554.304,0,103.7109375,4,50,-9999,1561841861.342321,-22.82356262207031,-13.89333343505859,13.1859130859375,123.1094131469727,130.6025238037109,15,169677.6500756667,-0.920440673828125,0.0903167724609375,-0.3129425048828125,169677.6308186667,-0.1124216169921689,0.3824347262253407,0.4495205530327638,169677.6400656667,-97.32150268554688,-40.34748840332031,-549.6700439453125,169677.6460166667,0.3056219922982187,-1.194861290148537,-0.2615718251526895,-0.1980568170547485,0.6676316261291504,0.3021318018436432,-0.01248574256896973,-0.1713189482688904,0.05547487735748291,1,-0.02167337387800217,-0.5676295161247253,0.1972809731960297,0.7990039587020874,-0.8985249996185303,0.2585992217063904,-0.3546539843082428,0,0,0,-1,169670.19417675,3,1,1561841854.140676,1561841239.621676,50,1.74607,0,0,49.30045,0,0,1561841859.327276,169674.654979,0,-0.7053223,75.19961,0,182478453,3,1,0.98,-29.17146,-38.99151,2
1561841861.370351,87,0,0,1561841860.998181,4.634564858865583,-74.15094989358833,2554.304,0,103.7109375,4,50,-9999,1561841861.368013,-22.93798065185547,-13.77405166625977,13.03594970703125,123.3397750854492,130.8328857421875,15,169677.6703386667,-0.895782470703125,0.108795166015625,-0.2840118408203125,169677.6510826667,-0.2199555344357154,0.7321019183983466,0.2455074998305897,169677.6601766667,-97.59791564941406,-40.32722473144531,-549.930419921875,169677.6662806667,0.302413091253011,-1.180581482730838,-0.2667763859898787,-0.2609926462173462,0.7700405120849609,0.0632755383849144,-0.01302385330200195,-0.1697969436645508,0.06389164924621582,1,-0.02613026276230812,-0.5620067715644836,0.1972090750932693,0.8028537631034851,-0.8921122550964355,0.2636232376098633,-0.3669312000274658,0,0,0,-1,169670.19417675,3,1,1561841854.140676,1561841239.621676,50,1.74607,0,0,49.30045,0,0,1561841859.327276,169674.654979,0,-0.7053223,75.19961,0,182478453,3,1,0.98,-29.17146,-38.99151,2
1561841861.387721,88,0,0,1561841860.998181,4.634564858865583,-74.15094989358833,2554.304,0,103.7109375,4,50,-9999,1561841861.368013,-22.93798065185547,-13.77405166625977,13.03594970703125,123.3397750854492,130.8328857421875,15,169677.6905726667,-0.9126129150390625,0.170013427734375,-0.2872467041015625,169677.6713456667,-0.2637530827748316,0.7419950292157729,0.01574487468065746,169677.6802876667,-97.55172729492188,-40.67311096191406,-550.6441650390625,169677.6865436667,0.2969833212656854,-1.168662069746282,-0.2684261603997223,-0.2745736837387085,0.4902879595756531,-0.09603794664144516,-0.02166157960891724,-0.1274579465389252,0.1032129526138306,1,-0.02950111404061317,-0.5571767091751099,0.1952928453683853,0.8065633773803711,-0.8872739672660828,0.2652142941951752,-0.3773675858974457,0,0,0,-1,169670.19417675,3,1,1561841854.140676,1561841239.621676,50,1.74607,0,0,49.30045,0,0,1561841859.327276,169674.654979,0,-0.7053223,75.19961,0,182478453,3,1,0.98,-29.17146,-39.08229,2
1561841861.408,89,0,0,1561841860.998181,4.634564858865583,-74.15094989358833,2554.304,0,103.7109375,4,50,-9999,1561841861.392297,-23.34326171875,-13.95354080200195,12.09930419921875,123.7505264282227,131.2436370849609,15,169677.7108356667,-0.8993377685546875,0.187652587890625,-0.32232666015625,169677.6915796667,-0.2697880721210601,0.390442318990991,-0.1126218867061429,169677.7003986667,-97.78291320800781,-40.63168334960938,-551.0042724609375,169677.7068076667,0.2910193151812081,-1.164450652165326,-0.268148607469176,-0.215222492814064,0.1045866087079048,-0.1338942497968674,-0.01974260807037354,-0.08080360293388367,0.07677823305130005,1,-0.0314534455537796,-0.5553788542747498,0.192748174071312,0.8083397746086121,-0.8857444524765015,0.2649466693401337,-0.3811300098896027,0,0,0,-1,169670.19417675,3,1,1561841854.140676,1561841239.621676,50,1.74607,0,0,49.30045,0,0,1561841859.327276,169674.654979,0,-0.7053223,75.19961,0,182478453,3,1,0.98,-29.17146,-34.28328,2
1561841861.445514,90,0,0,1561841860.998181,4.634564858865583,-74.15094989358833,2554.304,0,103.7109375,4,50,-9999,1561841861.417177,-23.53250122070312,-14.30287170410156,11.87115478515625,124.1120376586914,131.6051483154297,15,169677.7310996667,-0.888916015625,0.19354248046875,-0.353302001953125,169677.7118426667,-0.1780546894249537,0.05168929359734793,-0.1307715958511419,169677.7205096667,-97.97781372070312,-40.74983215332031,-550.7040405273438,169677.7270406667,0.2873591319219,-1.164833434349934,-0.2668810961588909,-0.04401638731360435,0.002026944421231747,-0.1157783642411232,-0.007265031337738037,-0.07321825623512268,0.03825664520263672,1,-0.03190738335251808,-0.5554460287094116,0.1909429132938385,0.8087041974067688,-0.886198103427887,0.2637242376804352,-0.3809232413768768,0,0,0,-1,169670.19417675,3,1,1561841854.140676,1561841239.621676,50,1.74607,0,0,49.30045,0,0,1561841859.327276,169674.654979,0,-0.7053223,75.19961,0,182478453,3,1,0.98,-29.17146,-34.52312,2
1561841861.450775,91,0,0,1561841860.998181,4.634564858865583,-74.15094989358833,2554.304,0,103.7109375,4,50,-9999,1561841861.443096,-23.39757537841797,-14.06874465942383,11.97650146484375,124.1708450317383,131.6639556884766,15,169677.7513636667,-0.8968505859375,0.2098541259765625,-0.3390960693359375,169677.7321066667,0.008671252509298,0.01769830334023059,-0.1107749844901729,169677.7406516667,-97.77963256835938,-40.44288635253906,-550.9803466796875,169677.7473046667,0.2873549984538099,-1.16425267180138,-0.2643259737192354,0.1274075657129288,0.07123184949159622,-0.1195629835128784,-0.0078163743019104,-0.05811846256256104,0.02852314710617065,1,-0.03090381436049938,-0.5551517009735107,0.1902631521224976,0.809105396270752,-0.8865927457809448,0.2612587213516235,-0.3817030787467957,0,0,0,-1,169670.19417675,3,1,1561841854.140676,1561841239.621676,50,1.74607,0,0,49.30045,0,0,1561841859.327276,169674.654979,0,-0.7053223,75.19961,0,182478453,3,1,0.98,-29.17146,-34.66329,2
1561841861.46883,92,0,0,1561841860.998181,4.634564858865583,-74.15094989358833,2554.304,0,103.7109375,4,50,-9999,1561841861.443096,-23.39757537841797,-14.06874465942383,11.97650146484375,124.1708450317383,131.6639556884766,15,169677.7716266667,-0.9096221923828125,0.23193359375,-0.3306121826171875,169677.7523706667,0.144858386437116,0.1259941511716487,-0.1233355174554226,169677.7607626667,-97.89923095703125,-40.84849548339844,-550.9718017578125,169677.7675676667,0.2884095237411129,-1.160689834109442,-0.2606224561297847,0.04722031578421593,0.2679821848869324,-0.150226354598999,-0.01232904195785522,-0.04056471586227417,0.06100857257843018,1,-0.02941232733428478,-0.5536367297172546,0.1896678656339645,0.8103378415107727,-0.8861084580421448,0.2576820254325867,-0.3852425813674927,0,0,0,-1,169670.19417675,3,1,1561841854.140676,1561841239.621676,50,1.74607,0,0,49.30045,0,0,1561841859.327276,169674.654979,0,-0.7053223,75.19961,0,182478453,3,1,0.98,-29.17146,-34.66329,2
1561841861.489087,93,0,0,1561841860.998181,4.634564858865583,-74.15094989358833,2554.304,0,103.7109375,4,50,-9999,1561841861.467487,-23.60767364501953,-14.26046752929688,11.853515625,124.1105575561523,131.6036682128906,15,169677.7918906667,-0.9192657470703125,0.2745819091796875,-0.3758697509765625,169677.7726336667,-0.02383555807231819,0.2987084036626666,-0.1423550150124415,169677.7808736667,-97.84730529785156,-40.87843322753906,-550.9764404296875,169677.7878316667,0.2852589548778584,-1.155988849649202,-0.2588043464348311,-0.2333764582872391,0.2434411644935608,-0.1132702007889748,-0.03880804777145386,-0.001850783824920654,0.03159034252166748,1,-0.02997069619596004,-0.5516391396522522,0.1878459602594376,0.8121021389961243,-0.8847149014472961,0.2559249103069305,-0.3895920217037201,0,0,0,-1,169670.19417675,3,1,1561841854.140676,1561841239.621676,50,1.74607,0,0,49.30045,0,0,1561841859.327276,169674.654979,0,-0.7053223,75.19961,0,182478453,3,1,0.98,-29.17146,-35.00201,2
1561841861.522306,94,0,0,1561841860.998181,4.634564858865583,-74.15094989358833,2554.304,0,103.7109375,4,50,-9999,1561841861.517971,-23.44680023193359,-14.44696426391602,11.6318359375,124.6838912963867,132.177001953125,15,169677.8121546667,-0.8831024169921875,0.2910308837890625,-0.329345703125,169677.7928976667,-0.2537553097265651,0.1973916357839101,-0.1021812299685962,169677.8009846667,-98.1287841796875,-40.96145629882812,-551.3265380859375,169677.8080956667,0.2799179808327742,-1.154658373710652,-0.2588075003206286,-0.1841564476490021,0.04809989780187607,-0.07350227981805801,-0.01082444190979004,0.02834329009056091,0.03612369298934937,1,-0.03156856074929237,-0.5510165095329285,0.1856564432382584,0.8129673600196838,-0.88419508934021,0.2559279501438141,-0.3907684683799744,0,0,0,-1,169670.19417675,3,1,1561841854.140676,1561841239.621676,50,1.74607,0,0,49.30045,0,0,1561841859.327276,169674.654979,0,-0.7053223,75.19961,0,182478453,3,1,0.98,-29.17146,-35.88652,2
1561841861.529811,95,0,0,1561841860.998181,4.634564858865583,-74.15094989358833,2554.304,0,103.7109375,4,50,-9999,1561841861.517971,-23.44680023193359,-14.44696426391602,11.6318359375,124.6838912963867,132.177001953125,15,169677.8324176667,-0.8828277587890625,0.290313720703125,-0.3340606689453125,169677.8131616667,-0.1262085356394001,0.01651000086183723,-0.05602545248421495,169677.8210956667,-97.91807556152344,-41.14413452148438,-551.3955078125,169677.8283586667,0.2783061967069586,-1.155500863381737,-0.2584149675302315,0.06129032373428345,-0.05096623301506042,-0.01171188428997993,0.004260063171386719,0.03664207458496094,0.06155747175216675,1,-0.03177130222320557,-0.5513244271278381,0.1849123537540436,0.8129203319549561,-0.8846158385276794,0.2555484771728516,-0.3900639116764069,0,0,0,-1,169670.19417675,3,1,1561841854.140676,1561841239.621676,50,1.74607,0,0,49.30045,0,0,1561841859.327276,169674.654979,0,-0.7053223,75.19961,0,182478453,3,1,0.98,-29.17146,-35.88652,2
1561841861.549885,96,0,0,1561841860.998181,4.634564858865583,-74.15094989358833,2554.304,0,103.7109375,4,50,-9999,1561841861.544454,-23.48996734619141,-14.54833602905273,11.37994384765625,124.5344924926758,132.0276031494141,15,169677.8526816667,-0.8751678466796875,0.2713165283203125,-0.3564300537109375,169677.8334246667,0.1216795638896114,-0.02563771918197481,0.0006492786737613183,169677.8412066667,-97.75450134277344,-41.389404296875,-551.4134521484375,169677.8486226667,0.2812872617945301,-1.154866289567028,-0.2571010087302876,0.2201484143733978,0.07936806976795197,0.02147882431745529,0.003357350826263428,0.02887943387031555,0.04846012592315674,1,-0.03046157583594322,-0.55108243227005,0.1857717931270599,0.8129385113716125,-0.8846744894981384,0.2542779147624969,-0.3907604813575745,0,0,0,-1,169670.19417675,3,1,1561841854.140676,1561841239.621676,50,1.74607,0,0,49.30045,0,0,1561841859.327276,169674.654979,0,-0.7053223,75.19961,0,182478453,3,1,0.98,-29.17146,-36.34834,2
1561841861.570055,97,0,0,1561841860.998181,4.634564858865583,-74.15094989358833,2554.304,0,103.7109375,4,50,-9999,1561841861.544454,-23.48996734619141,-14.54833602905273,11.37994384765625,124.5344924926758,132.0276031494141,15,169677.8729456667,-0.89263916015625,0.277130126953125,-0.3827362060546875,169677.8536886667,0.2241686552802208,0.1270892430118893,0.04157034671948286,169677.8613176667,-97.84246826171875,-40.97714233398438,-551.102783203125,169677.8688866667,0.2854944045311678,-1.150937610381082,-0.256371968696743,0.139288991689682,0.2029328793287277,0.07818818092346191,0.006546854972839355,0.01533287763595581,0.02283334732055664,1,-0.02936667576432228,-0.5495300889015198,0.1872343420982361,0.8136938214302063,-0.8833015561103821,0.2535727620124817,-0.3943085670471191,0,0,0,-1,169670.19417675,3,1,1561841854.140676,1561841239.621676,50,1.74607,0,0,49.30045,0,0,1561841859.327276,169674.654979,0,-0.7053223,75.19961,0,182478453,3,1,0.98,-29.17146,-37.07112,2
1561841861.605098,98,0,0,1561841860.998181,4.634564858865583,-74.15094989358833,2554.304,0,103.7109375,4,50,-9999,1561841861.594952,-23.51314544677734,-14.53858184814453,11.501220703125,124.257682800293,131.7507934570312,15,169677.8931786667,-0.912994384765625,0.2747955322265625,-0.3911285400390625,169677.8739526667,0.089098717429691,0.2092019562700845,0.08850962619656547,169677.8814286667,-97.98258972167969,-41.17485046386719,-551.2822875976562,169677.8891496667,0.2866232359691523,-1.146904826848028,-0.2579417483122534,-0.1051391288638115,0.17107854783535,0.09148960560560226,-0.02565741539001465,0.02405336499214172,0.008283734321594238,1,-0.03008989058434963,-0.5479443073272705,0.1880405247211456,0.8145503997802734,-0.8813402652740479,0.2550909221172333,-0.3977032601833344,0,0,0,-1,169670.19417675,3,1,1561841854.140676,1561841239.621676,50,1.74607,0,0,49.30045,0,0,1561841859.327276,169674.654979,0,-0.7053223,75.19961,0,182478453,3,1,0.98,-29.17146,-37.42283,2
1561841861.610595,99,0,0,1561841860.998181,4.634564858865583,-74.15094989358833,2554.304,0,103.7109375,4,50,-9999,1561841861.594952,-23.51314544677734,-14.53858184814453,11.501220703125,124.257682800293,131.7507934570312,15,169677.9134416667,-0.911041259765625,0.2627716064453125,-0.41204833984375,169677.8941856667,-0.1621031534437061,0.1608400161386815,0.08680493678280575,169677.9015406667,-98.17945861816406,-41.1356201171875,-551.4521484375,169677.9094136667,0.2833716650691006,-1.14520153927513,-0.2609706695465609,-0.240181639790535,0.1050172448158264,0.02891996502876282,-0.03493255376815796,0.01406100392341614,-0.00223994255065918,1,-0.03240424394607544,-0.5472736358642578,0.18747179210186,0.8150435090065002,-0.8799538612365723,0.2580184638500214,-0.3988830745220184,0,0,0,-1,169670.19417675,3,1,1561841854.140676,1561841239.621676,50,1.74607,0,0,49.30045,0,0,1561841859.327276,169674.654979,0,-0.7053223,75.19961,0,182478453,3,1,0.98,-29.17146,-37.42283,2
1561841861.631183,100,0,0,1561841860.998181,4.634564858865583,-74.15094989358833,2554.304,0,103.7109375,4,50,-9999,1561841861.620734,-23.5458984375,-14.4448127746582,11.4957275390625,124.5422592163086,132.0353698730469,15,169677.9337056667,-0.8802642822265625,0.2416229248046875,-0.40155029296875,169677.9347126667,0.04536215547953768,0.04466440727393692,-0.05963882945123446,169677.9216816667,-98.03471374511719,-41.01927185058594,-551.3175048828125,169677.9296466667,0.2800012021759298,-1.144749921540739,-0.2621409842915091,-0.04226988554000854,0.0434231199324131,-0.05487559735774994,-0.01488065719604492,-0.0124754011631012,-0.01113826036453247,1,-0.03385718166828156,-0.5470612645149231,0.186392679810524,0.8153743743896484,-0.8794980049133301,0.2591489851474762,-0.39915531873703,0,0,0,-1,169670.19417675,3,1,1561841854.140676,1561841239.621676,50,1.74607,0,0,49.30045,0,0,1561841859.327276,169674.654979,0,-0.7053223,75.19961,0,182478453,3,1,0.98,-29.17146,-37.87482,2
1561841861.65114,101,0,0,1561841860.998181,4.634564858865583,-74.15094989358833,2554.304,0,103.7109375,4,50,-9999,1561841861.645591,-23.70633697509766,-14.38881301879883,11.268310546875,124.5101547241211,132.0032653808594,15,169677.9539696667,-0.8653106689453125,0.2479400634765625,-0.3846282958984375,169677.9347126667,0.04536215547953768,0.04466440727393692,-0.05963882945123446,169677.9417926667,-98.25767517089844,-41.06088256835938,-551.6469116210938,169677.9499106667,0.2817964254954163,-1.143596545668502,-0.2600303900603388,0.2757797241210938,0.04413658007979393,-0.05532274395227432,0.009415745735168457,-0.01223689317703247,0.00728297233581543,1,-0.03259243071079254,-0.5465712547302246,0.1865608394145966,0.815716028213501,-0.8795329332351685,0.2571099102497101,-0.4003951847553253,0,0,0,-1,169670.19417675,3,1,1561841854.140676,1561841239.621676,50,1.74607,0,0,49.30045,0,0,1561841859.327276,169674.654979,0,-0.7053223,75.19961,0,182478453,3,1,0.98,-29.17146,-37.21152,2
1561841861.677438,102,0,0,1561841860.998181,4.634564858865583,-74.15094989358833,2554.304,0,103.7109375,4,50,-9999,1561841861.669874,-23.65456390380859,-14.27471542358398,11.52923583984375,124.1147384643555,131.6078491210938,15,169677.9742326667,-0.8704681396484375,0.2622528076171875,-0.3986663818359375,169677.9549766667,0.3276806668455296,0.04436453533519399,-0.04505216352865245,169677.9619036667,-97.83943176269531,-40.95928955078125,-551.4500122070312,169677.9701746667,0.2875314256738674,-1.141568282529719,-0.2565715760218731,0.3001987934112549,0.0108268279582262,-0.03781219199299812,0.01161777973175049,0.001712054014205933,0.0172463059425354,1,-0.02977107465267181,-0.5457478165626526,0.1879773736000061,0.8160499930381775,-0.879522442817688,0.2537658512592316,-0.4025460183620453,0,0,0,-1,169670.19417675,3,1,1561841854.140676,1561841239.621676,50,1.74607,0,0,49.30045,0,0,1561841861.921037,169674.654979,0,-0.7053223,75.19961,0,182478453,3,1,0.98,-29.17146,-37.22482,2
1561841861.691614,103,0,0,1561841860.998181,4.634564858865583,-74.15094989358833,2554.304,0,103.7109375,4,50,-9999,1561841861.669874,-23.65456390380859,-14.27471542358398,11.52923583984375,124.1147384643555,131.6078491210938,15,169677.9944966667,-0.859710693359375,0.2728729248046875,-0.405059814453125,169677.9752396667,0.2554101980279403,0.008592955573249669,-0.03627651510462335,169677.9820146667,-98.01974487304688,-40.56227111816406,-551.5075073242188,169677.9904376667,0.2909173388693783,-1.141029983205935,-0.2541315184813988,0.1019293665885925,-0.04015592858195305,-0.05430914461612701,0.01345646381378174,0.01774486899375916,-0.003507912158966064,1,-0.02787820622324944,-0.5455132722854614,0.1887232065200806,0.8161014318466187,-0.879865825176239,0.2514049112796783,-0.4032761454582214,0,0,0,-1,169670.19417675,3,1,1561841854.140676,1561841239.621676,50,1.74607,0,0,49.30045,0,0,1561841861.921037,169674.654979,0,-0.7053223,75.19961,0,182478453,3,1,0.98,-29.17146,-37.53113,2
1561841861.712003,104,0,0,1561841860.998181,4.634564858865583,-74.15094989358833,2554.304,0,103.7109375,4,50,-9999,1561841861.695993,-23.47400665283203,-14.27480316162109,11.51153564453125,123.9432907104492,131.4364013671875,15,169678.0147606667,-0.862091064453125,0.273468017578125,-0.3852996826171875,169677.9955036667,0.06982488798856953,-0.04107260191174705,-0.05754345430556011,169678.0021256667,-97.84954833984375,-40.83010864257812,-551.315185546875,169678.0107016667,0.2914866376500723,-1.141819934217225,-0.2524145419102244,0.04943100363016129,-0.04038975387811661,-0.07041008025407791,0.02149033546447754,0.02364900708198547,0.007358968257904053,1,-0.02693083509802818,-0.5457973480224609,0.1885243356227875,0.8159893751144409,-0.88057541847229,0.249742716550827,-0.4027599692344666,0,0,0,-1,169670.19417675,3,1,1561841854.140676,1561841239.621676,50,1.74607,0,0,49.30045,0,0,1561841861.921037,169675.599608,0,-0.3830566,75.19656,0,182478453,3,1,0.98,-29.17146,-33.07468,2
1561841861.732573,105,0,0,1561841860.998181,4.634564858865583,-74.15094989358833,2554.304,0,103.7109375,4,50,-9999,1561841861.720604,-23.38075256347656,-14.4308967590332,11.5562744140625,123.9083786010742,131.4014892578125,15,169678.0350236667,-0.8628692626953125,0.27203369140625,-0.399169921875,169678.0157676667,0.05943642920838844,-0.02297588967244061,-0.05851284494234896,169678.0222376667,-98.02970886230469,-40.9552001953125,-551.3226928710938,169678.0309656667,0.2923392146841701,-1.142056495632224,-0.2508765471946175,0.09055928885936737,-0.004316242411732674,-0.0303852055221796,0.0145944356918335,0.02802246809005737,0.01330655813217163,1,-0.02603319846093655,-0.5458633899688721,0.1884791851043701,0.8159847855567932,-0.8810189962387085,0.2482531666755676,-0.4027108550071716,0,0,0,-1,169670.19417675,3,1,1561841854.140676,1561841239.621676,50,1.74607,0,0,49.30045,0,0,1561841861.921037,169675.599608,0,-0.3830566,75.19656,0,182478453,3,1,0.98,-29.17146,-33.17459,2
1561841861.760862,106,0,0,1561841860.998181,4.634564858865583,-74.15094989358833,2554.304,0,103.7109375,4,50,-9999,1561841861.754652,-23.48770141601562,-14.39520645141602,11.56011962890625,123.7998733520508,131.2929840087891,15,169678.0552876667,-0.8641510009765625,0.2491455078125,-0.3948974609375,169678.0360306667,0.099013666168056,0.0155781607964185,-0.02057291942086211,169678.0423486667,-97.76654052734375,-40.90695190429688,-551.037109375,169678.0512286667,0.293955299347949,-1.141243991258118,-0.2496991032955301,0.09023544937372208,0.04486142471432686,-0.01814398542046547,0.02132219076156616,0.01097476482391357,0.004179716110229492,1,-0.02517684362828732,-0.5455200672149658,0.1888250261545181,0.8161611557006836,-0.8809565305709839,0.2471124082803726,-0.4035479724407196,0,0,0,-1,169670.19417675,3,1,1561841854.140676,1561841239.621676,50,1.74607,0,0,49.30045,0,0,1561841861.921037,169675.599608,0,-0.3830566,75.19656,0,182478453,3,1,0.98,-29.17146,-33.70733,2
1561841861.7726,107,0,0,1561841860.998181,4.634564858865583,-74.15094989358833,2554.304,0,103.7109375,4,50,-9999,1561841861.754652,-23.48770141601562,-14.39520645141602,11.56011962890625,123.7998733520508,131.2929840087891,15,169678.0755206667,-0.877166748046875,0.252593994140625,-0.3942108154296875,169678.0562946667,0.07868975230911629,0.06058691479930267,-0.01188675320945967,169678.0624596667,-97.72169494628906,-41.09445190429688,-551.45458984375,169678.0714926667,0.2949922608268521,-1.139776284154628,-0.2490236527455296,0.03052418306469917,0.06354749202728271,-0.009947309270501137,0.006827056407928467,0.004244059324264526,0.01097404956817627,1,-0.02475047297775745,-0.5449149608612061,0.1890561878681183,0.8165249228477478,-0.8805148601531982,0.2464578449726105,-0.4049102067947388,0,0,0,-1,169670.19417675,3,1,1561841854.140676,1561841239.621676,50,1.74607,0,0,49.30045,0,0,1561841861.921037,169675.599608,0,-0.3830566,75.19656,0,182478453,3,1,0.98,-29.17146,-33.70733,2
1561841861.793457,108,0,0,1561841860.998181,4.634564858865583,-74.15094989358833,2554.304,0,103.7109375,4,50,-9999,1561841861.754652,-23.48770141601562,-14.39520645141602,11.56011962890625,123.7998733520508,131.2929840087891,15,169678.0957846667,-0.8664703369140625,0.2397003173828125,-0.3897247314453125,169678.0765276667,0.02905482117665548,0.06291771338534002,-0.004988367037827421,169678.0825706667,-97.76725769042969,-40.75576782226562,-551.4552001953125,169678.0917566667,0.2955203978013723,-1.1387902798649,-0.2488327405237626,0.03585130348801613,0.01193063799291849,0.008529968559741974,0.008804738521575928,0.0009195655584335327,0.01285356283187866,1,-0.02462003938853741,-0.544513463973999,0.1892106086015701,0.8167608976364136,-0.8801578879356384,0.2462728172540665,-0.4057978689670563,0,0,0,-1,169670.19417675,3,1,1561841854.140676,1561841239.621676,50,1.74607,0,0,49.30045,0,0,1561841861.921037,169675.599608,0,-0.3830566,75.19656,0,182478453,3,1,0.98,-29.17146,-34.25569,2
1561841861.8136,109,0,0,1561841860.998181,4.634564858865583,-74.15094989358833,2554.304,0,103.7109375,4,50,-9999,1561841861.797662,-23.55464935302734,-14.35382461547852,11.40570068359375,123.6814193725586,131.1745300292969,15,169678.1160486667,-0.86309814453125,0.2220916748046875,-0.3883514404296875,169678.0967916667,0.04982801031149155,0.004385427367033482,0.02037211707467014,169678.1026816667,-97.89529418945312,-40.62001037597656,-551.5180053710938,169678.1119896667,0.296955027564887,-1.138550817885916,-0.2488892515622568,0.09627550095319748,-0.01015282608568668,0.04299473389983177,0.01490515470504761,-0.01343269646167755,0.01585078239440918,1,-0.02427579462528229,-0.5444348454475403,0.1898080557584763,0.816684901714325,-0.8800479769706726,0.2463275939226151,-0.4060027599334717,0,0,0,-1,169670.19417675,3,1,1561841854.140676,1561841239.621676,50,1.74607,0,0,49.30045,0,0,1561841861.921037,169675.599608,0,-0.3830566,75.19656,0,182478453,3,1,0.98,-29.17146,-34.30461,2
1561841861.839516,110,0,0,1561841860.998181,4.634564858865583,-74.15094989358833,2554.304,0,103.7109375,4,50,-9999,1561841861.821898,-23.73387908935547,-14.29063034057617,11.4334716796875,123.521125793457,131.0142364501953,15,169678.1363116667,-0.869537353515625,0.2109527587890625,-0.393768310546875,169678.1170556667,0.1194225348657692,-0.006765494433237297,0.05390238046320378,169678.1228226667,-98.13739013671875,-40.84504699707031,-551.3035888671875,169678.1322526667,0.299943954884135,-1.138021753564816,-0.2488809221297438,0.1631293594837189,-0.0002226973883807659,0.06582814455032349,0.01441735029220581,-0.03359673917293549,0.01636296510696411,1,-0.02350916899740696,-0.5442543029785156,0.1910200119018555,0.8165450096130371,-0.8798348307609558,0.246319517493248,-0.4064691364765167,0,0,0,-1,169670.19417675,3,1,1561841854.140676,1561841239.621676,50,1.74607,0,0,49.30045,0,0,1561841861.921037,169675.599608,0,-0.3830566,75.19656,0,182478453,3,1,0.98,-29.17146,-32.1124,2
1561841861.853775,111,0,0,1561841860.998181,4.634564858865583,-74.15094989358833,2554.304,0,103.7109375,4,50,-9999,1561841861.848248,-23.58192443847656,-14.29432678222656,11.57672119140625,123.2269668579102,130.7200775146484,15,169678.156587125,-0.8663177490234375,0.1923370361328125,-0.384429931640625,169678.1373186667,0.1806038672203776,0.01813559439122159,0.0730872603239166,169678.1429346667,-98.10386657714844,-40.88815307617188,-551.2169189453125,169678.1525166667,0.3044305272213185,-1.136047497338153,-0.2484122907419975,0.2643806338310242,0.1134351566433907,0.06482786685228348,0.01150524616241455,-0.04229779541492462,0.01364642381668091,1,-0.02228245511651039,-0.5434855222702026,0.1927092522382736,0.8166945576667786,-0.8791352510452271,0.2458653002977371,-0.4082539677619934,0,0,0,-1,169670.19417675,3,1,1561841854.140676,1561841239.621676,50,1.74607,0,0,49.30045,0,0,1561841861.921037,169675.599608,0,-0.3830566,75.19656,0,182478453,3,1,0.98,-29.17146,-32.71582,2
1561841861.874069,112,0,0,1561841860.998181,4.634564858865583,-74.15094989358833,2554.304,0,103.7109375,4,50,-9999,1561841861.872524,-23.78440093994141,-14.13510513305664,11.74884033203125,122.7485580444336,130.2416687011719,15,169678.176851125,-0.8673248291015625,0.1911468505859375,-0.3518218994140625,169678.157594125,0.2987326384285863,0.1624086180207382,0.06085802459827273,169678.163057125,-97.99371337890625,-40.41546630859375,-551.0501708984375,169678.172792125,0.3110981736789482,-1.130536847963769,-0.2464857731114901,0.3926142454147339,0.2631191909313202,0.03058227337896824,0.01145440340042114,-0.05863368511199951,0.04619747400283813,1,-0.0202015358954668,-0.5412440896034241,0.1948834508657455,0.8177207112312317,-0.8772991299629211,0.2439974546432495,-0.4132934808731079,0,0,0,-1,169670.19417675,3,1,1561841854.140676,1561841239.621676,50,1.74607,0,0,49.30045,0,0,1561841861.921037,169675.599608,0,-0.3830566,75.19656,0,182478453,3,1,0.98,-29.17146,-33.5204,2
1561841861.894328,113,0,0,1561841860.998181,4.634564858865583,-74.15094989358833,2554.304,0,103.7109375,4,50,-9999,1561841861.872524,-23.78440093994141,-14.13510513305664,11.74884033203125,122.7485580444336,130.2416687011719,15,169678.197114125,-0.90338134765625,0.2365570068359375,-0.355865478515625,169678.177858125,0.415784959924185,0.293344530911138,0.02456766105598097,169678.183168125,-98.27310180664062,-40.73126220703125,-551.3580322265625,169678.193055125,0.3189705078156789,-1.12215272720939,-0.2429201775332404,0.4177014827728271,0.4000975489616394,-0.03811663016676903,-0.006689727306365967,-0.0304703414440155,0.07437503337860107,1,-0.01740370504558086,-0.5377663373947144,0.1971227824687958,0.8195408582687378,-0.8745816349983215,0.240538090467453,-0.4210089445114136,0,0,0,-1,169670.19417675,3,1,1561841854.140676,1561841239.621676,50,1.74607,0,0,49.30045,0,0,1561841861.921037,169675.599608,0,-0.3830566,75.19656,0,182478453,3,1,0.98,-29.17146,-33.64853,2
1561841861.922093,114,0,0,1561841860.998181,4.634564858865583,-74.15094989358833,2554.304,0,103.7109375,4,50,-9999,1561841861.899355,-23.75402069091797,-14.04294967651367,11.58953857421875,122.2027206420898,129.6958312988281,15,169678.217378125,-0.9114837646484375,0.2544708251953125,-0.4269866943359375,169678.198121125,0.4063808054828972,0.4409150806023908,-0.069538065539168,169678.203279125,-98.19161987304688,-40.39341735839844,-551.2625122070312,169678.213319125,0.3249732537789985,-1.112028487374609,-0.2374968029288819,0.3100176155567169,0.4176179468631744,-0.1926185786724091,-0.04298216104507446,0.01979547739028931,0.04924851655960083,1,-0.01451544091105461,-0.5334630012512207,0.1981415897607803,0.8221596479415894,-0.871431291103363,0.2352704405784607,-0.4304130673408508,0,0,0,-1,169670.19417675,3,1,1561841854.140676,1561841239.621676,50,1.74607,0,0,49.30045,0,0,1561841861.921037,169675.599608,0,-0.3830566,75.19656,0,182478453,3,1,0.98,-29.72874,-34.29577,2
1561841861.934807,115,0,0,1561841860.998181,4.634564858865583,-74.15094989358833,2554.304,0,103.7109375,4,50,-9999,1561841861.923223,-23.75379943847656,-13.95174026489258,11.66192626953125,121.9435806274414,129.4366912841797,15,169678.237642125,-0.898773193359375,0.2535858154296875,-0.49493408203125,169678.218385125,0.2552104609461844,0.3864278699638056,-0.2254584241961462,169678.223390125,-98.47372436523438,-40.40170288085938,-551.4833984375,169678.233583125,0.3258289562415277,-1.105120598405755,-0.2311452810429036,0.01791731268167496,0.2542106509208679,-0.3103353679180145,-0.03731894493103027,0.01932059228420258,-0.03111600875854492,1,-0.01229202374815941,-0.5303834080696106,0.1968605369329453,0.8244928121566772,-0.8697549700737,0.2290924936532974,-0.4370847046375275,0,0,0,-1,169670.19417675,3,1,1561841854.140676,1561841239.621676,50,1.74607,0,0,49.30045,0,0,1561841861.921037,169675.599608,0,-0.3830566,75.19656,0,182478453,3,1,0.98,-29.72874,-34.29577,2
1561841861.955136,116,0,0,1561841860.998181,4.634564858865583,-74.15094989358833,2554.304,0,103.7109375,4,50,-9999,1561841861.94989,-23.92525482177734,-14.03238677978516,11.15234375,122.242805480957,129.7359161376953,15,169678.257905125,-0.8762969970703125,0.276153564453125,-0.5045928955078125,169678.238649125,-0.06334941179804186,0.2330066216737577,-0.3200397913619833,169678.243501125,-98.29139709472656,-40.69551086425781,-551.40576171875,169678.253846125,0.3203306081266708,-1.102453397947776,-0.2262989808597227,-0.2332510054111481,0.160808801651001,-0.3249097764492035,-0.01791518926620483,0.04415176808834076,-0.06783729791641235,1,-0.01196197047829628,-0.529062807559967,0.1933675408363342,0.8261709213256836,-0.8695665001869202,0.2243724167346954,-0.4398989081382751,0,0,0,-1,169670.19417675,3,1,1561841854.140676,1561841239.621676,50,1.74607,0,0,49.30045,0,0,1561841861.921037,169675.599608,0,-0.3830566,75.19656,0,182478453,3,1,0.98,-30.28602,-34.61517,2
1561841861.976996,117,0,0,1561841860.998181,4.634564858865583,-74.15094989358833,2554.304,0,103.7109375,4,50,-9999,1561841861.974283,-23.76411437988281,-14.48155975341797,11.09979248046875,122.7312088012695,130.2243194580078,15,169678.278138125,-0.858428955078125,0.27972412109375,-0.470947265625,169678.258912125,-0.2436566028729846,0.1580767201916153,-0.3087663641515689,169678.263612125,-98.24598693847656,-40.89715576171875,-552.014404296875,169678.274110125,0.3133603102734565,-1.101418002094488,-0.2230403894367662,-0.1739767640829086,0.1273238211870193,-0.2485761195421219,0.001716017723083496,0.05770441889762878,-0.04843556880950928,1,-0.01252669468522072,-0.528468906879425,0.1896673142910004,0.8273994922637939,-0.8697580099105835,0.221195712685585,-0.4411273896694183,0,0,0,-1,169670.19417675,3,1,1561841854.140676,1561841239.621676,50,1.74607,0,0,49.30045,0,0,1561841861.921037,169675.599608,0,-0.3830566,75.19656,0,182478453,3,1,0.98,-30.46406,-35.30242,2
1561841862.005125,118,0,0,1561841860.998181,4.634564858865583,-74.15094989358833,2554.304,0,103.7109375,4,50,-9999,1561841862.000179,-23.78179931640625,-14.5536994934082,11.05108642578125,122.9342575073242,130.4273681640625,15,169678.298402125,-0.841339111328125,0.27398681640625,-0.4527587890625,169678.279146125,-0.1279939188341893,0.126572856076523,-0.2253055587495756,169678.283723125,-98.42683410644531,-40.89523315429688,-551.6991577148438,169678.294374125,0.3096008530720474,-1.100336093516196,-0.2201464622374914,-0.01767210848629475,0.07723640650510788,-0.1837385445833206,0.02103126049041748,0.05939844250679016,-0.01360666751861572,1,-0.01239769067615271,-0.5278902053833008,0.1873824894428253,0.8282909989356995,-0.8698471784591675,0.2183725535869598,-0.4423564672470093,0,0,0,-1,169670.19417675,3,1,1561841854.140676,1561841239.621676,50,1.74607,0,0,49.30045,0,0,1561841861.921037,169675.599608,0,-0.3830566,75.19656,0,182478453,3,1,0.98,-29.1313,-34.7128,2
1561841862.015815,119,0,0,1561841860.998181,4.634564858865583,-74.15094989358833,2554.304,0,103.7109375,4,50,-9999,1561841862.000179,-23.78179931640625,-14.5536994934082,11.05108642578125,122.9342575073242,130.4273681640625,15,169678.318666125,-0.8269500732421875,0.2532958984375,-0.435455322265625,169678.299409125,0.01779391082336443,0.05632399284241283,-0.1680156373797911,169678.303865125,-98.26863098144531,-41.20838928222656,-551.959716796875,169678.314607125,0.3089020852320676,-1.099995146392816,-0.2168794842193002,0.1044647172093391,-0.01481016166508198,-0.1460430920124054,0.03783845901489258,0.04996871948242188,-0.005023777484893799,1,-0.01123188994824886,-0.5276236534118652,0.1862756907939911,0.8287270069122314,-0.8703274726867676,0.2151832580566406,-0.4429742395877838,0,0,0,-1,169670.19417675,3,1,1561841854.140676,1561841239.621676,50,1.74607,0,0,49.30045,0,0,1561841861.921037,169675.599608,0,-0.3830566,75.19656,0,182478453,3,1,0.98,-29.1313,-33.18997,2
1561841862.036068,120,0,0,1561841860.998181,4.634564858865583,-74.15094989358833,2554.304,0,103.7109375,4,50,-9999,1561841862.024437,-23.82201385498047,-14.70505523681641,11.01025390625,122.9031600952148,130.3962707519531,15,169678.338929125,-0.837371826171875,0.2376251220703125,-0.42718505859375,169678.319673125,0.123817549612727,-0.02378336011495264,-0.134708813206715,169678.323976125,-97.87710571289062,-41.10882568359375,-551.8421630859375,169678.334871125,0.3100146079031263,-1.100332863212885,-0.213587964113875,0.1136891096830368,-0.04844215512275696,-0.104409895837307,0.04003369808197021,0.03238655626773834,0.01607328653335571,1,-0.009514521807432175,-0.5276457071304321,0.185916543006897,0.8288151025772095,-0.8711036443710327,0.2119676917791367,-0.4429989755153656,0,0,0,-1,169670.19417675,3,1,1561841854.140676,1561841239.621676,50,1.74607,0,0,49.30045,0,0,1561841861.921037,169675.599608,0,-0.3830566,75.19656,0,182478453,3,1,0.98,-29.1313,-34.00492,2
1561841862.057333,121,0,0,1561841860.998181,4.634564858865583,-74.15094989358833,2554.304,0,103.7109375,4,50,-9999,1561841862.024437,-23.82201385498047,-14.70505523681641,11.01025390625,122.9031600952148,130.3962707519531,15,169678.359193125,-0.8488311767578125,0.2265625,-0.4360809326171875,169678.339937125,0.09500827188857683,-0.04405401075209076,-0.0878084158815476,169678.344087125,-97.87338256835938,-41.10020446777344,-551.8411865234375,169678.355134125,0.3106010880187809,-1.101057572379469,-0.211882758749069,0.01967153698205948,-0.04609031975269318,-0.03531551733613014,0.0286669135093689,0.02062559127807617,0.008097529411315918,1,-0.008571188896894455,-0.527883768081665,0.1857367157936096,0.82871413230896,-0.8717455267906189,0.2103009223937988,-0.4425305128097534,0,0,0,-1,169670.19417675,3,1,1561841854.140676,1561841239.621676,50,1.74607,0,0,49.30045,0,0,1561841861.921037,169675.599608,0,-0.3830566,75.19656,0,182478453,3,1,0.98,-29.1313,-34.84142,2
