loggingTime,loggingSample,identifierForVendor,deviceID,locationTimestamp_since1970,locationLatitude,locationLongitude,locationAltitude,locationSpeed,locationCourse,locationVerticalAccuracy,locationHorizontalAccuracy,locationFloor,locationHeadingTimestamp_since1970,locationHeadingX,locationHeadingY,locationHeadingZ,locationTrueHeading,locationMagneticHeading,locationHeadingAccuracy,accelerometerTimestamp_sinceReboot,accelerometerAccelerationX,accelerometerAccelerationY,accelerometerAccelerationZ,gyroTimestamp_sinceReboot,gyroRotationX,gyroRotationY,gyroRotationZ,magnetometerTimestamp_sinceReboot,magnetometerX,magnetometerY,magnetometerZ,motionTimestamp_sinceReboot,motionYaw,motionRoll,motionPitch,motionRotationRateX,motionRotationRateY,motionRotationRateZ,motionUserAccelerationX,motionUserAccelerationY,motionUserAccelerationZ,motionAttitudeReferenceFrame,motionQuaternionX,motionQuaternionY,motionQuaternionZ,motionQuaternionW,motionGravityX,motionGravityY,motionGravityZ,motionMagneticFieldX,motionMagneticFieldY,motionMagneticFieldZ,motionMagneticFieldCalibrationAccuracy,activityTimestamp_sinceReboot,activity,activityActivityConfidence,activityActivityStartDate,pedometerStartDate,pedometerNumberofSteps,pedometerAverageActivePace,pedometerCurrentPace,pedometerCurrentCadence,pedometerDistance,pedometerFloorAscended,pedometerFloorDescended,pedometerEndDate,altimeterTimestamp_sinceReboot,altimeterReset,altimeterRelativeAltitude,altimeterPressure,IP_en0,IP_pdp_ip0,deviceOrientation,batteryState,batteryLevel,avAudioRecorderPeakPower,avAudioRecorderAveragePower,label
1561841866.129072,1,0,0,1561841865.998133,4.634538288232529,-74.15092566988817,2554.264,0,293.203125,4,50,-9999,1561841866.107836,-21.53627014160156,-19.37803649902344,9.08648681640625,131.655029296875,139.1481323242188,15,169682.4316035,-0.8646392822265625,0.1237030029296875,-0.4677886962890625,169682.4123475,-0.1919201713243423,0.1094564534344747,0.001527056569051435,169682.4074945,-96.0968017578125,-45.94987487792969,-554.0205688476562,169682.4275445,0.1499840422772726,-1.083311706127312,-0.1198473929796563,-0.1592231690883636,0.06931552290916443,-0.0002603784669190645,0.01169776916503906,0.0005870088934898376,-0.001156747341156006,1,-0.0126140434294939,-0.5170283913612366,0.0948706716299057,0.8506009578704834,-0.8771762847900391,0.1195606961846352,-0.4650450646877289,0,0,0,-1,169680.5664607917,3,2,1561841864.512959,1561841239.621676,50,1.74607,0,0,49.30045,0,0,1561841864.513082,169679.378371,0,-0.4675293,75.19736,0,182478453,3,1,0.98,-23.53432,-32.78309,3
1561841866.154224,2,0,0,1561841865.998133,4.634538288232529,-74.15092566988817,2554.264,0,293.203125,4,50,-9999,1561841866.127995,-21.89141845703125,-19.21933746337891,8.73980712890625,132.1108093261719,139.6039123535156,15,169682.4518675,-0.8603363037109375,0.124725341796875,-0.4702606201171875,169682.4528745,-0.1175077220420023,0.03719956673844482,-0.005798766957538533,169682.4276365,-96.12983703613281,-45.67018127441406,-554.1390991210938,169682.4478085,0.1474890504587922,-1.082696129374753,-0.1210741766158217,-0.1198914796113968,0.03607474640011787,-0.008706593886017799,0.01431769132614136,0.004114598035812378,-0.003600418567657471,1,-0.01381260808557272,-0.51677006483078,0.09411770105361938,0.8508229851722717,-0.8767596483230591,0.1207785904407501,-0.4655158221721649,0,0,0,-1,169680.5664607917,3,2,1561841864.512959,1561841239.621676,50,1.74607,0,0,49.30045,0,0,1561841864.513082,169679.378371,0,-0.4675293,75.19736,0,182478453,3,1,0.98,-23.53432,-33.47343,3
1561841866.169328,3,0,0,1561841865.998133,4.634538288232529,-74.15092566988817,2554.264,0,293.203125,4,50,-9999,1561841866.153285,-21.80637359619141,-19.23141098022461,8.66845703125,132.2815551757812,139.774658203125,15,169682.4721315,-0.85906982421875,0.126220703125,-0.4722442626953125,169682.4528745,-0.1175077220420023,0.03719956673844482,-0.005798766957538533,169682.4477475,-96.10302734375,-45.99482727050781,-554.44775390625,169682.4680725,0.1452923425907246,-1.082609537822735,-0.1220316547431458,-0.1131808459758759,-0.005638344679027796,-0.0009525339119136333,0.01635682582855225,0.002981081604957581,-0.005898237228393555,1,-0.01479377970099449,-0.5167325139045715,0.09342627227306366,0.8509055376052856,-0.8766168355941772,0.1217290014028549,-0.4655373096466064,0,0,0,-1,169680.5664607917,3,2,1561841864.512959,1561841239.621676,50,1.74607,0,0,49.30045,0,0,1561841864.513082,169679.378371,0,-0.4675293,75.19736,0,182478453,3,1,0.98,-23.53432,-33.97783,3
1561841866.189919,4,0,0,1561841865.998133,4.634538288232529,-74.15092566988817,2554.264,0,293.203125,4,50,-9999,1561841866.177653,-21.74188232421875,-19.33008193969727,8.364501953125,132.4292144775391,139.9223175048828,15,169682.4923945,-0.85693359375,0.126220703125,-0.4725189208984375,169682.4731385,-0.108962703368374,-0.01367879430697399,0.006748716518369798,169682.4678585,-96.27835083007812,-45.85433959960938,-554.4742431640625,169682.4883355,0.1434439235656302,-1.083587577077816,-0.1231569328093738,-0.1014498844742775,-0.06750144809484482,0.01941851899027824,0.02097779512405396,0.004870228469371796,-0.006835520267486572,1,-0.0157072264701128,-0.5171514749526978,0.0929340124130249,0.8506884574890137,-0.8769500851631165,0.1228458359837532,-0.4646152555942535,0,0,0,-1,169680.5664607917,3,2,1561841864.512959,1561841239.621676,50,1.74607,0,0,49.30045,0,0,1561841864.513082,169679.378371,0,-0.4675293,75.19736,0,182478453,3,1,0.98,-23.53432,-34.42185,3
1561841866.209691,5,0,0,1561841865.998133,4.634538288232529,-74.15092566988817,2554.264,0,293.203125,4,50,-9999,1561841866.204614,-21.83444976806641,-19.28818511962891,8.3546142578125,132.53857421875,140.0316772460938,15,169682.5126585,-0.8659515380859375,0.1239776611328125,-0.4692840576171875,169682.4934015,-0.09448602599881228,-0.07292853592294787,0.02601961648229217,169682.4879695,-96.0787353515625,-45.76826477050781,-554.4207153320312,169682.5085995,0.1420115882579376,-1.085478670829296,-0.1245323194905491,-0.08486771583557129,-0.09435249865055084,0.03941326588392258,0.01787465810775757,0.00150647759437561,-0.01077127456665039,1,-0.01657810434699059,-0.5179640650749207,0.09269093722105026,0.8502039313316345,-0.8776769042015076,0.1242106854915619,-0.4628767967224121,0,0,0,-1,169682.5041445,3,2,1561841866.450643,1561841239.621676,50,1.74607,0,0,49.30045,0,0,1561841864.513082,169679.378371,0,-0.4675293,75.19736,0,182478453,3,1,0.98,-23.53432,-34.42185,3
1561841866.234167,6,0,0,1561841865.998133,4.634538288232529,-74.15092566988817,2554.264,0,293.203125,4,50,-9999,1561841866.228466,-21.93552398681641,-19.22034454345703,8.57843017578125,132.5972137451172,140.0903167724609,15,169682.5329225,-0.87628173828125,0.123260498046875,-0.45806884765625,169682.5136655,-0.07534295776721371,-0.09338001519810238,0.04525669430037054,169682.5080805,-96.23985290527344,-45.71287536621094,-554.39013671875,169682.5288635,0.1411514301545823,-1.087562321561081,-0.1258763568397273,-0.04683750495314598,-0.09919173270463943,0.03376017138361931,0.005505025386810303,-0.00217689573764801,-0.003050744533538818,1,-0.01727874018251896,-0.5188611745834351,0.09268632531166077,0.849643349647522,-0.8784908652305603,0.1255442053079605,-0.4609690606594086,0,0,0,-1,169682.5041445,3,2,1561841866.450643,1561841239.621676,50,1.74607,0,0,49.30045,0,0,1561841864.513082,169679.378371,0,-0.4675293,75.19736,0,182478453,3,1,0.98,-23.53432,-35.20993,3
1561841866.250464,7,0,0,1561841865.998133,4.634538288232529,-74.15092566988817,2554.264,0,293.203125,4,50,-9999,1561841866.228466,-21.93552398681641,-19.22034454345703,8.57843017578125,132.5972137451172,140.0903167724609,15,169682.5531855,-0.8758392333984375,0.1277923583984375,-0.455230712890625,169682.5541925,0.03107402991515356,-0.1060113882483482,0.03964008756139343,169682.5281915,-95.93476867675781,-45.97674560546875,-553.891845703125,169682.5491265,0.1411005223959306,-1.089688481824021,-0.1266649585688606,0.007681394927203655,-0.1148926615715027,0.03644730150699615,0.002626121044158936,-0.002242058515548706,0.005120515823364258,1,-0.01753003336489201,-0.5197745561599731,0.09288498014211655,0.8490579724311829,-0.8793808817863464,0.1263265311717987,-0.4590542316436768,0,0,0,-1,169682.5041445,3,2,1561841866.450643,1561841239.621676,50,1.74607,0,0,49.30045,0,0,1561841864.513082,169679.378371,0,-0.4675293,75.19736,0,182478453,3,1,0.98,-23.53432,-35.20993,3
1561841866.270602,8,0,0,1561841865.998133,4.634538288232529,-74.15092566988817,2554.264,0,293.203125,4,50,-9999,1561841866.254675,-21.55496215820312,-19.27901077270508,8.57232666015625,132.5773620605469,140.0704650878906,15,169682.5734185,-0.8784637451171875,0.1358489990234375,-0.4516448974609375,169682.5541925,0.03107402991515356,-0.1060113882483482,0.03964008756139343,169682.5483035,-96.05563354492188,-45.66754150390625,-554.4214477539062,169682.5693905,0.1422367639469085,-1.091651983430707,-0.1267823055875672,0.07940751314163208,-0.09984660148620605,0.0182091761380434,0.00256657600402832,0.00562189519405365,0.002775728702545166,1,-0.01719311997294426,-0.5206193327903748,0.093414306640625,0.848488986492157,-0.8802673816680908,0.126442939043045,-0.4573198258876801,0,0,0,-1,169682.5041445,3,2,1561841866.450643,1561841239.621676,50,1.74607,0,0,49.30045,0,0,1561841864.513082,169679.378371,0,-0.4675293,75.19736,0,182478453,3,1,0.98,-23.53432,-35.72112,3
1561841866.290823,9,0,0,1561841865.998133,4.634538288232529,-74.15092566988817,2554.264,0,293.203125,4,50,-9999,1561841866.279636,-21.56903076171875,-19.17263412475586,8.79620361328125,132.46142578125,139.9545288085938,15,169682.5936825,-0.8786468505859375,0.135223388671875,-0.4477996826171875,169682.5744265,0.09375179248627744,-0.08751067447167675,0.01948421916723772,169682.5684145,-96.22261047363281,-45.67552185058594,-554.264892578125,169682.5896545,0.144168587846529,-1.093108881240424,-0.1262047486976821,0.1058537662029266,-0.0776776522397995,0.02078258991241455,0.001877546310424805,0.009948492050170898,0.006332814693450928,1,-0.01637533120810986,-0.5212453007698059,0.09409768134355545,0.8480452299118042,-0.8809974193572998,0.1258699893951416,-0.4560703635215759,0,0,0,-1,169682.5041445,3,2,1561841866.450643,1561841239.621676,50,1.74607,0,0,49.30045,0,0,1561841864.513082,169679.378371,0,-0.4675293,75.19736,0,182478453,3,1,0.98,-23.53432,-31.35872,3
1561841866.319334,10,0,0,1561841865.998133,4.634538288232529,-74.15092566988817,2554.264,0,293.203125,4,50,-9999,1561841866.305688,-21.70455932617188,-19.18437957763672,8.73486328125,132.3119506835938,139.8050537109375,15,169682.6139465,-0.87249755859375,0.128936767578125,-0.44366455078125,169682.6149535,0.07014526626770606,-0.04562580842745553,0.05078834620057412,169682.5885255,-95.88166809082031,-45.86732482910156,-554.1317138671875,169682.6098875,0.1462406670767794,-1.09414596943931,-0.1258487373923444,0.0817047581076622,-0.05714281648397446,0.0440618135035038,0.006051957607269287,0.007875531911849976,0.01082581281661987,1,-0.01563430018723011,-0.5216963291168213,0.0948929637670517,0.8476932644844055,-0.8815097808837891,0.125516802072525,-0.4551770091056824,0,0,0,-1,169682.5041445,3,2,1561841866.450643,1561841239.621676,50,1.74607,0,0,49.30045,0,0,1561841864.513082,169679.378371,0,-0.4675293,75.19736,0,182478453,3,1,0.98,-23.53432,-31.75962,3
1561841866.331385,11,0,0,1561841865.998133,4.634538288232529,-74.15092566988817,2554.264,0,293.203125,4,50,-9999,1561841866.3297,-21.74669647216797,-19.09046936035156,8.8189697265625,132.2033386230469,139.6964416503906,15,169682.6342105,-0.8730621337890625,0.1259765625,-0.4470367431640625,169682.6149535,0.07014526626770606,-0.04562580842745553,0.05078834620057412,169682.6086365,-95.90585327148438,-45.67730712890625,-554.1843872070312,169682.6301515,0.1477661642742989,-1.094992227601651,-0.1262436480441707,0.03828830644488335,-0.05717823654413223,0.05969856306910515,0.0103905200958252,2.220273017883301e-05,0.01091140508651733,1,-0.01536422315984964,-0.5220726728439331,0.09564746916294098,0.8473816514015198,-0.8818504810333252,0.1259085834026337,-0.4544081389904022,0,0,0,-1,169682.5041445,3,2,1561841866.450643,1561841239.621676,50,1.74607,0,0,49.30045,0,0,1561841864.513082,169679.378371,0,-0.4675293,75.19736,0,182478453,3,1,0.98,-23.53432,-32.58261,3
1561841866.35168,12,0,0,1561841865.998133,4.634538288232529,-74.15092566988817,2554.264,0,293.203125,4,50,-9999,1561841866.3297,-21.74669647216797,-19.09046936035156,8.8189697265625,132.2033386230469,139.6964416503906,15,169682.6544735,-0.8751983642578125,0.1292724609375,-0.462127685546875,169682.6352175,0.03585360512351877,-0.05348319890762531,0.05914481306902476,169682.6287475,-96.06571960449219,-45.76414489746094,-554.033935546875,169682.6504145,0.1490070853496398,-1.095900667503347,-0.1267838151107016,0.06265543401241302,-0.03580024093389511,0.04199040681123734,0.007583737373352051,0.001515775918960571,-0.007010877132415771,1,-0.01522671245038509,-0.5224751830101013,0.09631898254156113,0.8470599055290222,-0.8822023272514343,0.1264444291591644,-0.4535756707191467,0,0,0,-1,169682.5041445,3,2,1561841866.450643,1561841239.621676,50,1.74607,0,0,49.30045,0,0,1561841864.513082,169679.378371,0,-0.4675293,75.19736,0,182478453,3,1,0.98,-23.53432,-33.09108,3
1561841866.371935,13,0,0,1561841865.998133,4.634538288232529,-74.15092566988817,2554.264,0,293.203125,4,50,-9999,1561841866.356062,-21.61404418945312,-18.93990707397461,8.90252685546875,132.1019897460938,139.5950927734375,15,169682.6747375,-0.871063232421875,0.138427734375,-0.45709228515625,169682.6554805,0.08491622293772155,-0.0211942349031776,0.03674097039873317,169682.6488585,-95.82568359375,-45.45419311523438,-553.9579467773438,169682.6706785,0.1513299293827412,-1.096452372873022,-0.1262615561441019,0.1770224869251251,-0.07130949944257736,0.0166389774531126,0.00882333517074585,0.009342819452285767,-0.004751503467559814,1,-0.01437061745673418,-0.5227178931236267,0.09717237204313278,0.8468276262283325,-0.8825110793113708,0.1259263455867767,-0.4531189799308777,0,0,0,-1,169682.5041445,3,2,1561841866.450643,1561841239.621676,50,1.74607,0,0,49.30045,0,0,1561841864.513082,169679.378371,0,-0.4675293,75.19736,0,182478453,3,1,0.98,-23.53432,-33.09108,3
1561841866.400146,14,0,0,1561841865.998133,4.634538288232529,-74.15092566988817,2554.264,0,293.203125,4,50,-9999,1561841866.380747,-21.51689147949219,-19.01253509521484,8.78466796875,131.8516540527344,139.3447570800781,15,169682.6950015,-0.8690643310546875,0.1307373046875,-0.458282470703125,169682.6757445,0.2134430403060357,-0.08890830141175032,0.02357163880829134,169682.6689695,-95.99429321289062,-45.66217041015625,-553.7860717773438,169682.6909425,0.1560363468568183,-1.098170135788346,-0.1246179155020643,0.3026051819324493,-0.1346101760864258,0.05585269257426262,0.01333868503570557,0.01336917281150818,-0.005136966705322266,1,-0.01235573180019855,-0.5234494805335999,0.09875277429819107,0.8462244272232056,-0.8834711313247681,0.1242956221103668,-0.4516959488391876,0,0,0,-1,169682.5041445,3,2,1561841866.450643,1561841239.621676,50,1.74607,0,0,49.30045,0,0,1561841864.513082,169679.378371,0,-0.4675293,75.19736,0,182478453,3,1,0.98,-23.53432,-34.34101,3
1561841866.41237,15,0,0,1561841865.998133,4.634538288232529,-74.15092566988817,2554.264,0,293.203125,4,50,-9999,1561841866.406861,-21.48686218261719,-19.08362579345703,9.11541748046875,131.4044342041016,138.8975372314453,15,169682.7152645,-0.883697509765625,0.1307373046875,-0.4688873291015625,169682.6960085,0.3233844553750138,-0.1204300087061462,0.07011410728295213,169682.6890805,-95.87457275390625,-45.52255249023438,-553.7745971679688,169682.7112055,0.1625585405082336,-1.099911849143002,-0.1227342695546905,0.3407847881317139,-0.1273227035999298,0.04458858445286751,0.009875595569610596,0.006556183099746704,-0.01276600360870361,1,-0.009759006090462208,-0.5241886973381042,0.1010354459285736,0.8455310463905334,-0.8844636082649231,0.1224263608455658,-0.4502619504928589,0,0,0,-1,169682.5041445,3,2,1561841866.450643,1561841239.621676,50,1.74607,0,0,49.30045,0,0,1561841864.513082,169679.378371,0,-0.4675293,75.19736,0,182478453,3,1,0.98,-23.53432,-34.34101,3
1561841866.432564,16,0,0,1561841865.998133,4.634538288232529,-74.15092566988817,2554.264,0,293.203125,4,50,-9999,1561841866.406861,-21.48686218261719,-19.08362579345703,9.11541748046875,131.4044342041016,138.8975372314453,15,169682.7355285,-0.8850250244140625,0.1222076416015625,-0.4554290771484375,169682.7162715,0.3514014426748654,-0.1305785166721112,0.02444036195587519,169682.7091915,-95.89462280273438,-45.58531188964844,-553.7973022460938,169682.7314695,0.1689585717283745,-1.102067796303482,-0.1193265069168824,0.3652075529098511,-0.1560952216386795,-0.07105252891778946,0.003017425537109375,0.005315601825714111,-0.01612067222595215,1,-0.006521312054246664,-0.5250595211982727,0.1028693988919258,0.8448005318641663,-0.8857994675636292,0.1190435290336609,-0.4485399425029755,0,0,0,-1,169682.5041445,3,2,1561841866.450643,1561841239.621676,50,1.74607,0,0,49.30045,0,0,1561841864.513082,169680.322971,0,-0.4306641,75.19701,0,182478453,3,1,0.98,-23.53432,-31.4131,3
1561841866.45302,17,0,0,1561841865.998133,4.634538288232529,-74.15092566988817,2554.264,0,293.203125,4,50,-9999,1561841866.431591,-21.56557464599609,-18.975341796875,9.05877685546875,130.9495391845703,138.4426422119141,15,169682.7557925,-0.8885650634765625,0.11370849609375,-0.433380126953125,169682.7365355,0.3798418725880396,-0.1428828535404953,-0.08817966053750464,169682.7293335,-96.01840209960938,-45.48989868164062,-553.31640625,169682.7517335,0.1753555340202163,-1.104037950562113,-0.1141300626883979,0.4365730881690979,-0.1080033332109451,-0.08846107870340347,0.003920972347259521,0.0005126819014549255,0.002898097038269043,1,-0.002530874218791723,-0.5257951021194458,0.1042319908738136,0.8441970944404602,-0.8872218132019043,0.113882452249527,-0.4470662176609039,0,0,0,-1,169682.5041445,3,2,1561841866.450643,1561841239.621676,50,1.74607,0,0,49.30045,0,0,1561841864.513082,169680.322971,0,-0.4306641,75.19701,0,182478453,3,1,0.98,-23.53432,-31.63557,3
1561841866.488208,18,0,0,1561841865.998133,4.634538288232529,-74.15092566988817,2554.264,0,293.203125,4,50,-9999,1561841866.48177,-21.46910858154297,-18.78763198852539,9.81640625,129.9295196533203,137.4226226806641,15,169682.7760255,-0.87841796875,0.127685546875,-0.429931640625,169682.7567995,0.4533741471301084,-0.08424643792356662,-0.08290260683751263,169682.7494445,-96.00320434570312,-45.49874877929688,-553.2999877929688,169682.7719965,0.1829101414644871,-1.104750132834258,-0.1086317711535385,0.4555702209472656,-0.06446623802185059,-0.07043414562940598,0.0002990961074829102,0.01536105573177338,0.01989001035690308,1,0.00182770995888859,-0.5259678959846497,0.1059978604316711,0.8438713550567627,-0.8880859613418579,0.1084182411432266,-0.4467088580131531,0,0,0,-1,169682.5041445,3,2,1561841866.450643,1561841239.621676,50,1.74607,0,0,49.30045,0,0,1561841864.513082,169680.322971,0,-0.4306641,75.19701,0,182478453,3,1,0.98,-23.53432,-32.23919,3
1561841866.493382,19,0,0,1561841865.998133,4.634538288232529,-74.15092566988817,2554.264,0,293.203125,4,50,-9999,1561841866.48177,-21.46910858154297,-18.78763198852539,9.81640625,129.9295196533203,137.4226226806641,15,169682.7962885,-0.8716583251953125,0.104644775390625,-0.440185546875,169682.7770325,0.4448088884321956,-0.05892962965294636,-0.06433824351078829,169682.7695555,-95.80168151855469,-45.28695678710938,-553.1357421875,169682.7922605,0.1900465988146993,-1.105581146993728,-0.1037913253572407,0.3804975748062134,-0.1107157617807388,-0.04310504719614983,0.01263374090194702,0.01880093663930893,0.009509623050689697,1,0.005803737789392471,-0.5261804461479187,0.1077538728713989,0.8434984087944031,-0.888915479183197,0.1036050766706467,-0.4462009072303772,0,0,0,-1,169682.5041445,3,2,1561841866.450643,1561841239.621676,50,1.74607,0,0,49.30045,0,0,1561841864.513082,169680.322971,0,-0.4306641,75.19701,0,182478453,3,1,0.98,-23.53432,-32.31519,3
1561841866.513735,20,0,0,1561841865.998133,4.634538288232529,-74.15092566988817,2554.264,0,293.203125,4,50,-9999,1561841866.508145,-21.31194305419922,-18.69921112060547,10.08892822265625,129.4882049560547,136.9813079833984,15,169682.8165525,-0.8714447021484375,0.084228515625,-0.42486572265625,169682.7972955,0.3561149714881967,-0.118475248466028,-0.02603639439715967,169682.7896665,-95.78227233886719,-45.17562866210938,-552.8611450195312,169682.8124935,0.1959217134656702,-1.107523383282385,-0.1006546617500386,0.275957316160202,-0.1427471935749054,0.01805497892200947,0.01912558078765869,-0.01378434896469116,0.01106864213943481,1,0.008786383084952831,-0.5268913507461548,0.1094109639525414,0.8428152203559875,-0.8900667428970337,0.1004847884178162,-0.4446166157722473,0,0,0,-1,169682.5041445,3,2,1561841866.450643,1561841239.621676,50,1.74607,0,0,49.30045,0,0,1561841864.513082,169680.322971,0,-0.4306641,75.19701,0,182478453,3,1,0.98,-23.53432,-32.71874,3
1561841866.534025,21,0,0,1561841865.998133,4.634538288232529,-74.15092566988817,2554.264,0,293.203125,4,50,-9999,1561841866.53249,-21.56092071533203,-18.85188674926758,10.18011474609375,129.2008056640625,136.6939086914062,15,169682.8368165,-0.8837432861328125,0.0985870361328125,-0.4453887939453125,169682.8175595,0.2466760949169165,-0.1398471162139139,0.03002927181951547,169682.8097775,-95.74507141113281,-45.25918579101562,-552.8123168945312,169682.8327575,0.1999992937536249,-1.109962188940541,-0.09939499141977901,0.1414405107498169,-0.1263802051544189,0.03971952944993973,0.01514714956283569,-0.006808929145336151,0.0134996771812439,1,0.01052971184253693,-0.527862548828125,0.1107898205518723,0.8420069813728333,-0.891261100769043,0.09923141449689865,-0.442500501871109,0,0,0,-1,169682.5041445,3,2,1561841866.450643,1561841239.621676,50,1.74607,0,0,49.30045,0,0,1561841864.513082,169680.322971,0,-0.4306641,75.19701,0,182478453,3,1,0.98,-23.53432,-32.71874,3
1561841866.567469,22,0,0,1561841865.998133,4.634538288232529,-74.15092566988817,2554.264,0,293.203125,4,50,-9999,1561841866.53249,-21.56092071533203,-18.85188674926758,10.18011474609375,129.2008056640625,136.6939086914062,15,169682.8570795,-0.894775390625,0.0956268310546875,-0.447723388671875,169682.8580865,0.144956923397449,-0.03414998097419508,0.0315962758049181,169682.8298885,-95.98680114746094,-45.25369262695312,-552.7149658203125,169682.8530215,0.2024296170972948,-1.111476775658776,-0.09923259010385818,0.1173354536294937,-0.04890991747379303,0.03953257575631142,-0.0003587603569030762,0.0004785284399986267,-0.01022821664810181,1,0.011324567720294,-0.5284819006919861,0.1117621958255768,0.8414795398712158,-0.8919447064399719,0.09906981140375137,-0.4411572813987732,0,0,0,-1,169682.5041445,3,2,1561841866.450643,1561841239.621676,50,1.74607,0,0,49.30045,0,0,1561841864.513082,169680.322971,0,-0.4306641,75.19701,0,182478453,3,1,0.98,-23.53432,-33.36729,3
1561841866.574423,23,0,0,1561841865.998133,4.634538288232529,-74.15092566988817,2554.264,0,293.203125,4,50,-9999,1561841866.53249,-21.56092071533203,-18.85188674926758,10.18011474609375,129.2008056640625,136.6939086914062,15,169682.8773435,-0.897186279296875,0.0982818603515625,-0.4337615966796875,169682.8783505,0.238561709391554,-0.08499718303485995,-0.02817997275856445,169682.8499995,-95.74232482910156,-45.22892761230469,-552.667236328125,169682.8732845,0.2056448102151976,-1.112034703765276,-0.09805704922170687,0.2198402583599091,-0.05713136494159698,-0.01584120281040668,-0.003732085227966309,-0.003066606819629669,0.002615690231323242,1,0.01270325761288404,-0.5286617279052734,0.1128057241439819,0.8412075638771057,-0.8922944664955139,0.09789998829364777,-0.4407108128070831,0,0,0,-1,169682.5041445,3,2,1561841866.450643,1561841239.621676,50,1.74607,0,0,49.30045,0,0,1561841864.513082,169680.322971,0,-0.4306641,75.19701,0,182478453,3,1,0.98,-23.53432,-33.36729,3
1561841866.594546,24,0,0,1561841865.998133,4.634538288232529,-74.15092566988817,2554.264,0,293.203125,4,50,-9999,1561841866.57627,-21.16779327392578,-18.64547729492188,10.1990966796875,129.0235748291016,136.5166778564453,15,169682.8976075,-0.8831634521484375,0.075439453125,-0.4418182373046875,169682.8783505,0.238561709391554,-0.08499718303485995,-0.02817997275856445,169682.8701105,-95.88189697265625,-45.25302124023438,-552.2620239257812,169682.8935485,0.2092913681609708,-1.115502500040664,-0.09519113643611302,0.1831237971782684,-0.305443674325943,-0.07378466427326202,0.001930117607116699,0.0002589523792266846,-0.001961767673492432,1,0.01507691759616137,-0.5300046801567078,0.1135681495070457,0.8402201533317566,-0.8940657377243042,0.09504744410514832,-0.4377354383468628,0,0,0,-1,169682.5041445,3,2,1561841866.450643,1561841239.621676,50,1.74607,0,0,49.30045,0,0,1561841864.513082,169680.322971,0,-0.4306641,75.19701,0,182478453,3,1,0.98,-23.53432,-33.75714,3
1561841866.638058,25,0,0,1561841865.998133,4.634538288232529,-74.15092566988817,2554.264,0,293.203125,4,50,-9999,1561841866.633874,-21.28903198242188,-18.59413528442383,10.74053955078125,128.4440307617188,135.9371337890625,15,169682.9178705,-0.8833465576171875,0.0999603271484375,-0.45452880859375,169682.9188775,0.09648685892578882,-0.1954451313431712,0.06361466264261376,169682.8902215,-95.67535400390625,-45.076171875,-552.1148681640625,169682.9138125,0.2115400354749622,-1.118569220684635,-0.09344475867891056,0.1065970584750175,-0.163994163274765,0.02923865988850594,0.02178788185119629,-0.003495596349239349,-0.003291070461273193,1,0.01658587157726288,-0.5312185883522034,0.114032082259655,0.8393619060516357,-0.8955519199371338,0.09330882877111435,-0.4350634515285492,0,0,0,-1,169682.5041445,3,2,1561841866.450643,1561841239.621676,50,1.74607,0,0,49.30045,0,0,1561841864.513082,169680.322971,0,-0.4306641,75.19701,0,182478453,3,1,0.98,-23.53432,-35.03923,3
1561841866.640732,26,0,0,1561841865.998133,4.634538288232529,-74.15092566988817,2554.264,0,293.203125,4,50,-9999,1561841866.633874,-21.28903198242188,-18.59413528442383,10.74053955078125,128.4440307617188,135.9371337890625,15,169682.9381345,-0.87646484375,0.0832366943359375,-0.404083251953125,169682.9188775,0.09648685892578882,-0.1954451313431712,0.06361466264261376,169682.9103335,-95.71675109863281,-45.05244445800781,-552.322998046875,169682.9340755,0.2134811437187415,-1.121940256063926,-0.09384457610287841,0.04475046694278717,-0.1346842050552368,0.05364067107439041,-0.003197252750396729,-0.009356305003166199,0.006000399589538574,1,0.01712634414434433,-0.532629132270813,0.1149224787950516,0.8383350372314453,-0.8969797492027283,0.0937068909406662,-0.4320257902145386,0,0,0,-1,169682.5041445,3,2,1561841866.450643,1561841239.621676,50,1.74607,0,0,49.30045,0,0,1561841864.513082,169680.322971,0,-0.4306641,75.19701,0,182478453,3,1,0.98,-23.53432,-35.03923,3
1561841866.65595,27,0,0,1561841865.998133,4.634538288232529,-74.15092566988817,2554.264,0,293.203125,4,50,-9999,1561841866.633874,-21.28903198242188,-18.59413528442383,10.74053955078125,128.4440307617188,135.9371337890625,15,169682.9583985,-0.904876708984375,0.087860107421875,-0.4199066162109375,169682.9391415,0.0261783408832609,-0.1077957061787013,0.05357561059745106,169682.9304445,-95.70909118652344,-45.03045654296875,-551.9688720703125,169682.9543395,0.2139210095308639,-1.123984862294357,-0.09478320101107414,-0.04874459654092789,-0.09331413358449936,0.04981637001037598,0.006744503974914551,-0.008642815053462982,0.01401501893997192,1,0.0169654730707407,-0.5335127115249634,0.1153355464339256,0.8377195000648499,-0.8977814316749573,0.09464134275913239,-0.4301527142524719,0,0,0,-1,169682.5041445,3,2,1561841866.450643,1561841239.621676,50,1.74607,0,0,49.30045,0,0,1561841864.513082,169680.322971,0,-0.4306641,75.19701,0,182478453,3,1,0.98,-23.53432,-34.37337,3
1561841866.675757,28,0,0,1561841865.998133,4.634538288232529,-74.15092566988817,2554.264,0,293.203125,4,50,-9999,1561841866.659854,-21.17716979980469,-18.33463287353516,10.80865478515625,128.4470672607422,135.9401702880859,15,169682.9786315,-0.8908233642578125,0.093780517578125,-0.4205322265625,169682.9594055,-0.06458325433107558,-0.09441225643661709,0.04988873038434536,169682.9505555,-95.62026977539062,-45.0234375,-551.9373779296875,169682.9746035,0.2128712055683321,-1.126356520235058,-0.09628796704854943,-0.100097268819809,-0.1313384771347046,0.04239946603775024,0.00198674201965332,-0.006280243396759033,0.009289920330047607,1,0.016187759116292,-0.5345630645751953,0.1152716651558876,0.8370738625526428,-0.8986695408821106,0.09613925218582153,-0.4279605746269226,0,0,0,-1,169682.5041445,3,2,1561841866.450643,1561841239.621676,50,1.74607,0,0,49.30045,0,0,1561841864.513082,169680.322971,0,-0.4306641,75.19701,0,182478453,3,1,0.98,-23.53432,-34.98379,3
1561841866.69699,29,0,0,1561841865.998133,4.634538288232529,-74.15092566988817,2554.264,0,293.203125,4,50,-9999,1561841866.684862,-21.21919250488281,-18.54824066162109,10.94366455078125,128.547607421875,136.0407104492188,15,169682.9988955,-0.8879241943359375,0.10394287109375,-0.4254608154296875,169682.9796385,-0.1021647183698377,-0.1254945421511499,0.04695019843755193,169682.9706665,-95.67349243164062,-44.961181640625,-551.942626953125,169682.9948665,0.2114187670146082,-1.128986695396506,-0.09799937522588346,-0.0956156998872757,-0.1180112287402153,0.05539782345294952,0.01151949167251587,0.002712830901145935,0.0007045269012451172,1,0.01522990688681602,-0.5357292294502258,0.1150938495993614,0.8363705277442932,-0.8996419906616211,0.09784258902072906,-0.4255244731903076,0,0,0,-1,169682.5041445,3,2,1561841866.450643,1561841239.621676,50,1.74607,0,0,49.30045,0,0,1561841864.513082,169680.322971,0,-0.4306641,75.19701,0,182478453,3,1,0.98,-23.53432,-34.27872,3
1561841866.72664,30,0,0,1561841865.998133,4.634538288232529,-74.15092566988817,2554.264,0,293.203125,4,50,-9999,1561841866.711188,-21.22394561767578,-18.54948425292969,10.78350830078125,128.6183013916016,136.1114044189453,15,169683.0191585,-0.8894805908203125,0.1034698486328125,-0.422607421875,169682.9999025,-0.08229513979286557,-0.1129262860187389,0.06186922686417582,169682.9908075,-95.53410339355469,-45.12358093261719,-551.9194946289062,169683.0150995,0.2106240620100736,-1.131514343972017,-0.09962429254122449,-0.03827757388353348,-0.1246424987912178,0.04898892715573311,0.011607825756073,0.00527675449848175,-0.0006777048110961914,1,0.01447857264429331,-0.5368425250053406,0.1151714622974396,0.8356589674949646,-0.9005695581436157,0.09945958107709885,-0.4231809377670288,0,0,0,-1,169682.5041445,3,2,1561841866.450643,1561841239.621676,50,1.74607,0,0,49.30045,0,0,1561841864.513082,169680.322971,0,-0.4306641,75.19701,0,182478453,3,1,0.98,-23.53432,-34.42985,3
1561841866.736489,31,0,0,1561841865.998133,4.634538288232529,-74.15092566988817,2554.264,0,293.203125,4,50,-9999,1561841866.711188,-21.22394561767578,-18.54948425292969,10.78350830078125,128.6183013916016,136.1114044189453,15,169683.0394225,-0.8924407958984375,0.1073150634765625,-0.4180145263671875,169683.0201655,-0.01798645737017716,-0.1146991523564047,0.04141934548567537,169683.0109185,-95.76640319824219,-45.114013671875,-552.1693115234375,169683.0353635,0.2108070447572027,-1.133686581045086,-0.1001753175618695,0.02875611931085587,-0.08508765697479248,0.02144902013242245,0.01012533903121948,0.005277782678604126,5.78761100769043e-05,1,0.01442122738808393,-0.5377655625343323,0.1153777837753296,0.8350378274917603,-0.9014369249343872,0.1000078544020653,-0.4212004542350769,0,0,0,-1,169682.5041445,3,2,1561841866.450643,1561841239.621676,50,1.74607,0,0,49.30045,0,0,1561841864.513082,169680.322971,0,-0.4306641,75.19701,0,182478453,3,1,0.98,-23.53432,-34.42985,3
1561841866.756777,32,0,0,1561841865.998133,4.634538288232529,-74.15092566988817,2554.264,0,293.203125,4,50,-9999,1561841866.735376,-21.40005493164062,-18.44627380371094,11.03643798828125,128.6050109863281,136.0981140136719,15,169683.0596865,-0.8863677978515625,0.106781005859375,-0.4109344482421875,169683.0404295,0.04000813642404238,-0.06885682893232573,0.02768302689915567,169683.0310305,-95.76730346679688,-44.93380737304688,-551.7374267578125,169683.0556275,0.2118262425624106,-1.135095249554756,-0.1004896970302329,0.03281504288315773,-0.07074734568595886,0.05954979732632637,0.01180315017700195,0.00739113986492157,0.006419062614440918,1,0.01464474108070135,-0.5383558869361877,0.1158761382102966,0.8345844745635986,-0.902000904083252,0.1003206521272659,-0.4199169278144836,0,0,0,-1,169682.5041445,3,2,1561841866.450643,1561841239.621676,50,1.74607,0,0,49.30045,0,0,1561841864.513082,169680.322971,0,-0.4306641,75.19701,0,182478453,3,1,0.98,-23.53432,-35.20539,3
1561841866.777377,33,0,0,1561841865.998133,4.634538288232529,-74.15092566988817,2554.264,0,293.203125,4,50,-9999,1561841866.761304,-21.26660919189453,-18.30825424194336,11.02349853515625,128.5343780517578,136.0274810791016,15,169683.0799495,-0.8856353759765625,0.0972137451171875,-0.4173736572265625,169683.0606935,0.01593342648583507,-0.061908641648309,0.07393627607943386,169683.0511415,-95.75407409667969,-45.03215026855469,-551.9666748046875,169683.0758905,0.2121429438519418,-1.136450114066724,-0.101926260435123,-0.07399635761976242,-0.07516606152057648,0.0717255026102066,0.01902967691421509,0.0003009214997291565,0.003868997097015381,1,0.01420527137815952,-0.5389633774757385,0.1163789182901382,0.8341298699378967,-0.9024372696876526,0.1017498672008514,-0.418633371591568,0,0,0,-1,169682.5041445,3,2,1561841866.450643,1561841239.621676,50,1.74607,0,0,49.30045,0,0,1561841864.513082,169680.322971,0,-0.4306641,75.19701,0,182478453,3,1,0.98,-23.53432,-35.35014,3
1561841866.806495,34,0,0,1561841865.998133,4.634538288232529,-74.15092566988817,2554.264,0,293.203125,4,50,-9999,1561841866.785899,-21.16490936279297,-18.38614654541016,11.036376953125,128.5889739990234,136.0820770263672,15,169683.1002135,-0.89959716796875,0.0959320068359375,-0.41845703125,169683.0809565,-0.1001769349322026,-0.07690809753985328,0.07126379392553935,169683.0712525,-95.44639587402344,-44.82969665527344,-551.6655883789062,169683.0961545,0.2105133799050551,-1.13841777940806,-0.1040728289584627,-0.1405703276395798,-0.1087980568408966,0.04947692528367043,0.006437182426452637,-0.009356863796710968,-0.001097500324249268,1,0.01297895796597004,-0.5398604869842529,0.1162552535533905,0.8335868120193481,-0.9030588865280151,0.1038850620388985,-0.4167644083499908,0,0,0,-1,169682.5041445,3,2,1561841866.450643,1561841239.621676,50,1.74607,0,0,49.30045,0,0,1561841864.513082,169680.322971,0,-0.4306641,75.19701,0,182478453,3,1,0.98,-23.53432,-36.11436,3
1561841866.817714,35,0,0,1561841865.998133,4.634538288232529,-74.15092566988817,2554.264,0,293.203125,4,50,-9999,1561841866.812131,-21.20260620117188,-18.48727798461914,11.17291259765625,128.7282562255859,136.2213592529297,15,169683.1204775,-0.891876220703125,0.1072998046875,-0.4231719970703125,169683.1012205,-0.1331500650206917,-0.1137204406558006,0.04975983338758553,169683.0913635,-95.58003234863281,-44.94419860839844,-551.5216064453125,169683.1164185,0.2086786099584117,-1.14127298490819,-0.1059434307073988,-0.08673985302448273,-0.1514368504285812,0.04354739934206009,0.01048165559768677,-0.005662962794303894,-0.001882493495941162,1,0.01186405215412378,-0.5411173105239868,0.1159700304269791,0.8328278064727783,-0.9040668606758118,0.1057453602552414,-0.4141026139259338,0,0,0,-1,169682.5041445,3,2,1561841866.450643,1561841239.621676,50,1.74607,0,0,49.30045,0,0,1561841864.513082,169680.322971,0,-0.4306641,75.19701,0,182478453,3,1,0.98,-23.53432,-36.63934,3
1561841866.837755,36,0,0,1561841865.998133,4.634538288232529,-74.15092566988817,2554.264,0,293.203125,4,50,-9999,1561841866.812131,-21.20260620117188,-18.48727798461914,11.17291259765625,128.7282562255859,136.2213592529297,15,169683.1407405,-0.8982391357421875,0.113800048828125,-0.414459228515625,169683.1214845,-0.06164791817759024,-0.1461508185141315,0.04152294245207945,169683.1114745,-95.68980407714844,-45.05842590332031,-551.7522583007812,169683.1366815,0.208264070328111,-1.144195993678994,-0.1068790322649977,0.01124264020472765,-0.1279571056365967,0.02214383892714977,0.01110947132110596,0.005308583378791809,-0.01256358623504639,1,0.01152909174561501,-0.5423638224601746,0.1160294711589813,0.8320130109786987,-0.905182957649231,0.1066756695508957,-0.4114171266555786,0,0,0,-1,169682.5041445,3,2,1561841866.450643,1561841239.621676,50,1.74607,0,0,49.30045,0,0,1561841864.513082,169680.322971,0,-0.4306641,75.19701,0,182478453,3,1,0.98,-23.53432,-36.81832,3
1561841866.887159,37,0,0,1561841865.998133,4.634538288232529,-74.15092566988817,2554.264,0,293.203125,4,50,-9999,1561841866.873235,-21.00061798095703,-18.32726287841797,11.12078857421875,128.6514587402344,136.1445617675781,15,169683.1609815,-0.901275634765625,0.10528564453125,-0.4038848876953125,169683.1417475,0.0376863925857113,-0.1238590949257322,0.02492851938368671,169683.1517045,-95.66934204101562,-45.05213928222656,-551.550048828125,169683.1569455,0.2093795688124883,-1.146781398650031,-0.1069449211784725,0.07591857016086578,-0.1478517055511475,0.03779204189777374,0.005892276763916016,0.004861608147621155,0.001357734203338623,1,0.01195459440350533,-0.5434342622756958,0.1164957135915756,0.8312429785728455,-0.9062371253967285,0.1067411825060844,-0.4090725779533386,0,0,0,-1,169682.5041445,3,2,1561841866.450643,1561841239.621676,50,1.74607,0,0,49.30045,0,0,1561841867.108182,169680.322971,0,-0.4306641,75.19701,0,182478453,3,1,0.98,-23.53432,-37.93585,3
1561841866.8902,38,0,0,1561841865.998133,4.634538288232529,-74.15092566988817,2554.264,0,293.203125,4,50,-9999,1561841866.873235,-21.00061798095703,-18.32726287841797,11.12078857421875,128.6514587402344,136.1445617675781,15,169683.1812455,-0.9016265869140625,0.0929718017578125,-0.398406982421875,169683.1619885,0.08490210818394413,-0.1477359319949466,0.05508988399327011,169683.1718155,-95.48527526855469,-44.81098937988281,-551.37548828125,169683.1772175,0.211507302383297,-1.149761838154522,-0.1074267804821505,0.08813422173261642,-0.1754545718431473,0.09377461671829224,0.006526470184326172,-0.008709527552127838,0.005485117435455322,1,0.01250610500574112,-0.5446735024452209,0.1174901053309441,0.8302833437919617,-0.9074053764343262,0.1072202697396278,-0.4063487350940704,0,0,0,-1,169682.5041445,3,2,1561841866.450643,1561841239.621676,50,1.74607,0,0,49.30045,0,0,1561841867.108182,169680.322971,0,-0.4306641,75.19701,0,182478453,3,1,0.98,-23.53432,-37.93585,3
1561841866.898691,39,0,0,1561841865.998133,4.634538288232529,-74.15092566988817,2554.264,0,293.203125,4,50,-9999,1561841866.873235,-21.00061798095703,-18.32726287841797,11.12078857421875,128.6514587402344,136.1445617675781,15,169683.2015095,-0.900970458984375,0.09466552734375,-0.4028778076171875,169683.1822525,0.08134092917429017,-0.1754104367786141,0.1092095784014244,169683.1919265,-95.49307250976562,-44.8331298828125,-551.3298950195312,169683.1974805,0.2138861161015884,-1.153370468056399,-0.1089669578657686,0.06497324258089066,-0.220121905207634,0.142699807882309,0.008140146732330322,-0.01854148507118225,0.002338945865631104,1,0.01272433251142502,-0.5462014079093933,0.1188667863607407,0.8290795683860779,-0.9087138772010803,0.1087514460086823,-0.4030042290687561,0,0,0,-1,169682.5041445,3,2,1561841866.450643,1561841239.621676,50,1.74607,0,0,49.30045,0,0,1561841867.108182,169680.322971,0,-0.4306641,75.19701,0,182478453,3,1,0.98,-23.53432,-37.93585,3
1561841866.918899,40,0,0,1561841865.998133,4.634538288232529,-74.15092566988817,2554.264,0,293.203125,4,50,-9999,1561841866.913457,-21.10895538330078,-18.29077911376953,11.39404296875,128.2844543457031,135.7775573730469,15,169683.2217725,-0.89959716796875,0.104888916015625,-0.4119415283203125,169683.2025165,0.07282706948541585,-0.2375451808034708,0.1612141902718377,169683.2120685,-95.45663452148438,-44.79959106445312,-551.419921875,169683.2177145,0.216979874461885,-1.15863165797644,-0.1115694626786123,0.1297293305397034,-0.3608793020248413,0.2193107008934021,0.01033633947372437,-0.009821422398090363,-0.007979154586791992,1,0.01280010212212801,-0.5484383702278137,0.1208136305212975,0.8273183703422546,-0.9105591177940369,0.1113381385803223,-0.3981030285358429,0,0,0,-1,169682.5041445,3,2,1561841866.450643,1561841239.621676,50,1.74607,0,0,49.30045,0,0,1561841867.108182,169680.322971,0,-0.4306641,75.19701,0,182478453,3,1,0.98,-24.09159,-38.31358,3
1561841866.96479,41,0,0,1561841865.998133,4.634538288232529,-74.15092566988817,2554.264,0,293.203125,4,50,-9999,1561841866.938182,-21.04166412353516,-18.36228179931641,11.6019287109375,127.7907485961914,135.2838592529297,15,169683.2420365,-0.913055419921875,0.10888671875,-0.442626953125,169683.2227805,0.1797037187719308,-0.4105931273790756,0.2420611030639181,169683.2321795,-95.6868896484375,-44.57752990722656,-551.1607055664062,169683.2379775,0.2236495294417298,-1.167503859677538,-0.1141946271197901,0.4040197432041168,-0.5999025106430054,0.2616365849971771,0.00847935676574707,-0.007913276553153992,-0.03378283977508545,1,0.01408580876886845,-0.5521369576454163,0.124216690659523,0.8243280053138733,-0.9137833118438721,0.1139466017484665,-0.3898927271366119,0,0,0,-1,169682.5041445,3,2,1561841866.450643,1561841239.621676,50,1.74607,0,0,49.30045,0,0,1561841867.108182,169680.322971,0,-0.4306641,75.19701,0,182478453,3,1,0.98,-25.20615,-39.92144,3
1561841866.96866,42,0,0,1561841865.998133,4.634538288232529,-74.15092566988817,2554.264,0,293.203125,4,50,-9999,1561841866.967614,-20.80655670166016,-17.67817687988281,12.40618896484375,126.7198104858398,134.2129211425781,15,169683.2623005,-0.9396209716796875,0.1099853515625,-0.439971923828125,169683.2430435,0.512884079584583,-0.646142268945532,0.2550219091410068,169683.2522905,-95.31082153320312,-44.390625,-550.5319213867188,169683.2582415,0.2369650106538999,-1.179361734263347,-0.113347783052073,0.8220382928848267,-0.6722621917724609,0.1313291788101196,-0.009226977825164795,-0.004859380424022675,-0.07599610090255737,1,0.01888059452176094,-0.5568753480911255,0.1293634027242661,0.8202430009841919,-0.9184311032295227,0.1131052300333977,-0.3790667355060577,0,0,0,-1,169682.5041445,3,2,1561841866.450643,1561841239.621676,50,1.74607,0,0,49.30045,0,0,1561841867.108182,169680.322971,0,-0.4306641,75.19701,0,182478453,3,1,0.98,-25.20615,-39.92144,3
1561841866.979675,43,0,0,1561841865.998133,4.634538288232529,-74.15092566988817,2554.264,0,293.203125,4,50,-9999,1561841866.967614,-20.80655670166016,-17.67817687988281,12.40618896484375,126.7198104858398,134.2129211425781,15,169683.2825635,-0.937774658203125,0.1356201171875,-0.4026336669921875,169683.2633075,0.9073112865146596,-0.6397674602442093,0.06899584594122786,169683.2724015,-95.20701599121094,-44.07807922363281,-550.118896484375,169683.2785055,0.2548465743729853,-1.19001901210008,-0.1058956061002017,1.0284343957901,-0.5866897702217102,-0.1510141044855118,-0.02366286516189575,0.01432783901691437,-0.0485762357711792,1,0.02765738219022751,-0.5607627630233765,0.1345156729221344,0.8165082335472107,-0.9231755137443542,0.1056978031992912,-0.3695603907108307,0,0,0,-1,169682.5041445,3,2,1561841866.450643,1561841239.621676,50,1.74607,0,0,49.30045,0,0,1561841867.108182,169680.322971,0,-0.4306641,75.19701,0,182478453,3,1,0.98,-25.76343,-40.81222,3
1561841866.999939,44,0,0,1561841865.998133,4.634538288232529,-74.15092566988817,2554.264,0,293.203125,4,50,-9999,1561841866.988756,-20.85423278808594,-17.40918731689453,12.94451904296875,125.439094543457,132.9322052001953,15,169683.3028275,-0.9332122802734375,0.114044189453125,-0.388427734375,169683.2835715,1.029534135266647,-0.5818700718297777,-0.2000803632204541,169683.2925125,-94.98689270019531,-43.92686462402344,-549.2574462890625,169683.2987685,0.2717976163778622,-1.200189196873398,-0.09429214094303955,0.8870042562484741,-0.577885627746582,-0.2635049521923065,-0.00613027811050415,0.03611180931329727,-0.0312579870223999,1,0.03788803890347481,-0.5641615390777588,0.138054832816124,0.8131586909294128,-0.9279669523239136,0.09415248036384583,-0.3605725169181824,0,0,0,-1,169682.5041445,3,2,1561841866.450643,1561841239.621676,50,1.74607,0,0,49.30045,0,0,1561841867.108182,169680.322971,0,-0.4306641,75.19701,0,182478453,3,1,0.98,-26.32071,-41.32998,3
1561841867.047994,45,0,0,1561841865.998133,4.634538288232529,-74.15092566988817,2554.264,0,293.203125,4,50,-9999,1561841867.039085,-20.26850891113281,-17.22613906860352,13.92645263671875,124.0730209350586,131.5661315917969,15,169683.3230915,-0.91314697265625,0.118927001953125,-0.3393096923828125,169683.3038345,0.8122859703951063,-0.5649560694305754,-0.2576539112463321,169683.3126235,-94.76109313964844,-43.98556518554688,-548.9967041015625,169683.3190325,0.2836815087951,-1.210508971738706,-0.08431150103607248,0.5499556064605713,-0.5373270511627197,-0.2301057279109955,0.006339192390441895,0.03251808136701584,-0.01797181367874146,1,0.04605276510119438,-0.5676563382148743,0.1398872882127762,0.8099856972694397,-0.9324713945388794,0.08421164751052856,-0.3512908518314362,0,0,0,-1,169682.5041445,3,2,1561841866.450643,1561841239.621676,50,1.74607,0,0,49.30045,0,0,1561841867.108182,169680.322971,0,-0.4306641,75.19701,0,182478453,3,1,0.98,-27.43527,-42.3093,3
1561841867.050813,46,0,0,1561841865.998133,4.634538288232529,-74.15092566988817,2554.264,0,293.203125,4,50,-9999,1561841867.039085,-20.26850891113281,-17.22613906860352,13.92645263671875,124.0730209350586,131.5661315917969,15,169683.3433545,-0.9140777587890625,0.08966064453125,-0.282470703125,169683.3240985,0.466600736683987,-0.5008604398950933,-0.2081002065271187,169683.3327345,-94.58460998535156,-43.84397888183594,-548.525146484375,169683.3392965,0.2897037766278698,-1.219482148928918,-0.07827433302487403,0.2178216427564621,-0.3880778849124908,-0.1052649766206741,0.03141379356384277,0.02809829264879227,0.03457611799240112,1,0.05085673183202744,-0.570854127407074,0.1404153257608414,0.8073553442955017,-0.9360463619232178,0.07819442451000214,-0.3430783152580261,0,0,0,-1,169682.5041445,3,2,1561841866.450643,1561841239.621676,50,1.74607,0,0,49.30045,0,0,1561841867.108182,169680.322971,0,-0.4306641,75.19701,0,182478453,3,1,0.98,-27.43527,-42.3093,3
1561841867.060631,47,0,0,1561841866.998123,4.634538288232529,-74.15092566988817,2554.22,0,95.625,4,50,-9999,1561841867.039085,-20.26850891113281,-17.22613906860352,13.92645263671875,124.0730209350586,131.5661315917969,15,169683.3635885,-0.9322662353515625,0.0909423828125,-0.2708740234375,169683.3443625,0.1432583592541964,-0.3412486736511563,-0.06951889077931943,169683.3528455,-94.31301879882812,-43.82107543945312,-548.5856323242188,169683.3595595,0.2906550618793794,-1.225546122735459,-0.07679857744154694,-0.07398064434528351,-0.2142962366342545,-0.01828321255743504,0.01362603902816772,0.008542999625205994,0.06770491600036621,1,0.05215411260724068,-0.5732038617134094,0.1402274519205093,0.8056385517120361,-0.9382171630859375,0.07672310620546341,-0.3374345600605011,0,0,0,-1,169682.5041445,3,2,1561841866.450643,1561841239.621676,50,1.74607,0,0,49.30045,0,0,1561841867.108182,169680.322971,0,-0.4306641,75.19701,0,182478453,3,1,0.98,-27.43527,-42.3093,3
1561841867.080833,48,0,0,1561841866.998123,4.634538288232529,-74.15092566988817,2554.22,0,95.625,4,50,-9999,1561841867.069986,-20.13948059082031,-17.26747894287109,14.475341796875,124.1010971069336,131.5942077636719,15,169683.3838515,-0.9528656005859375,0.088958740234375,-0.3000030517578125,169683.3645955,-0.1312411111513229,-0.1751603659522556,-0.01009844053747146,169683.3729575,-94.43728637695312,-43.79708862304688,-548.206298828125,169683.3798235,0.2872630186794273,-1.229242527314943,-0.07786253212192183,-0.2492139935493469,-0.1467267870903015,0.006076988764107227,-0.00512319803237915,0.01720207929611206,0.05058097839355469,1,0.05100689828395844,-0.5748303532600403,0.1390670090913773,0.804753839969635,-0.9393806457519531,0.07778388261795044,-0.3339367210865021,0,0,0,-1,169682.5041445,3,2,1561841866.450643,1561841239.621676,50,1.74607,0,0,49.30045,0,0,1561841867.108182,169680.322971,0,-0.4306641,75.19701,0,182478453,3,1,0.98,-27.99255,-41.87453,3
1561841867.115091,49,0,0,1561841866.998123,4.634538288232529,-74.15092566988817,2554.22,0,95.625,4,50,-9999,1561841867.069986,-20.13948059082031,-17.26747894287109,14.475341796875,124.1010971069336,131.5942077636719,15,169683.4041155,-0.941650390625,0.0795745849609375,-0.3281097412109375,169683.3848585,-0.2641954338318937,-0.1380923593716607,0.02123897600949093,169683.3930685,-94.31248474121094,-43.90708923339844,-548.5466918945312,169683.4000565,0.2821990487451047,-1.232371517733521,-0.08023547391204992,-0.2829136252403259,-0.1208174228668213,0.044545017182827,-0.007784426212310791,0.002522706985473633,0.01588535308837891,1,0.04880389198660851,-0.5763257741928101,0.1376242190599442,0.8040686249732971,-0.9402441382408142,0.08014941215515137,-0.3309335708618164,0,0,0,-1,169682.5041445,3,2,1561841866.450643,1561841239.621676,50,1.74607,0,0,49.30045,0,0,1561841867.108182,169680.322971,0,-0.4306641,75.19701,0,182478453,3,1,0.98,-28.54982,-41.89722,3
1561841867.121349,50,0,0,1561841866.998123,4.634538288232529,-74.15092566988817,2554.22,0,95.625,4,50,-9999,1561841867.116852,-19.90871429443359,-17.25496292114258,14.5196533203125,124.7749862670898,132.2680969238281,15,169683.4243795,-0.953338623046875,0.0637054443359375,-0.3441619873046875,169683.4051225,-0.2736073114403428,-0.1066737164114509,0.05766276392239567,169683.4132095,-94.59332275390625,-44.00863647460938,-548.4462280273438,169683.4203205,0.2775081940345427,-1.235205338134522,-0.0831771687960132,-0.2465628087520599,-0.1332067251205444,0.06878563761711121,-0.003201305866241455,-0.00864892452955246,-0.009534060955047607,1,0.04645287245512009,-0.5777090787887573,0.136506661772728,0.8034054636955261,-0.9409515261650085,0.08308129012584686,-0.3281886875629425,0,0,0,-1,169682.5041445,3,2,1561841866.450643,1561841239.621676,50,1.74607,0,0,49.30045,0,0,1561841867.108182,169680.322971,0,-0.4306641,75.19701,0,182478453,3,1,0.98,-29.1071,-38.67029,3
1561841867.141683,51,0,0,1561841866.998123,4.634538288232529,-74.15092566988817,2554.22,0,95.625,4,50,-9999,1561841867.139906,-20.025634765625,-17.29977035522461,14.27191162109375,125.0743637084961,132.5674743652344,15,169683.4446425,-0.95989990234375,0.0720367431640625,-0.341094970703125,169683.4253865,-0.2387840833425756,-0.1305779840398932,0.06858252334004757,169683.4333205,-94.33940124511719,-43.9251708984375,-548.555908203125,169683.4405835,0.2733284063907138,-1.238439796165675,-0.08581016106414988,-0.2225626707077026,-0.1557903289794922,0.04028822109103203,-0.01794928312301636,-0.02178581804037094,-0.01748883724212646,1,0.04439789429306984,-0.5792178511619568,0.1355041116476059,0.802604615688324,-0.9417980313301086,0.08570489287376404,-0.3250710070133209,0,0,0,-1,169682.5041445,3,2,1561841866.450643,1561841239.621676,50,1.74607,0,0,49.30045,0,0,1561841867.108182,169680.322971,0,-0.4306641,75.19701,0,182478453,3,1,0.98,-29.66438,-38.77985,3
1561841867.16204,52,0,0,1561841866.998123,4.634538288232529,-74.15092566988817,2554.22,0,95.625,4,50,-9999,1561841867.139906,-20.025634765625,-17.29977035522461,14.27191162109375,125.0743637084961,132.5674743652344,15,169683.4649065,-0.958984375,0.0752410888671875,-0.338714599609375,169683.4456495,-0.2070120389057123,-0.1596711547362458,0.04233174447513652,169683.4534315,-94.30415344238281,-43.94584655761719,-548.4439697265625,169683.4608475,0.2699795001747476,-1.242515209205151,-0.08795477652225808,-0.1436603963375092,-0.2061075568199158,0.06591369211673737,-0.01432126760482788,-0.01154746115207672,-0.0209929347038269,1,0.04283439740538597,-0.581016480922699,0.1346840113401413,0.8015269041061401,-0.9429389238357544,0.08784141391515732,-0.3211701214313507,0,0,0,-1,169682.5041445,3,2,1561841866.450643,1561841239.621676,50,1.74607,0,0,49.30045,0,0,1561841867.108182,169680.322971,0,-0.4306641,75.19701,0,182478453,3,1,0.98,-30.22166,-36.56706,3
1561841867.200349,53,0,0,1561841866.998123,4.634538288232529,-74.15092566988817,2554.22,0,95.625,4,50,-9999,1561841867.191121,-19.99592590332031,-17.35346603393555,14.462646484375,125.1713027954102,132.6644134521484,15,169683.4851705,-1.008346557617188,0.0879364013671875,-0.3281707763671875,169683.4659135,-0.1117805941177869,-0.2108238213739427,0.08925078392793452,169683.4735425,-94.42257690429688,-44.13427734375,-548.34228515625,169683.4811115,0.2692843952984025,-1.246772066628322,-0.09083240787167528,-0.006660194136202335,-0.1641646325588226,0.2114541083574295,-0.02362799644470215,-0.004922650754451752,-0.01772165298461914,1,0.04175695404410362,-0.5828555822372437,0.1351389139890671,0.8001707196235657,-0.9440539479255676,0.09070755541324615,-0.3170714676380157,0,0,0,-1,169682.5041445,3,2,1561841866.450643,1561841239.621676,50,1.74607,0,0,49.30045,0,0,1561841867.108182,169680.322971,0,-0.4306641,75.19701,0,182478453,3,1,0.98,-30.77894,-36.57701,3
1561841867.202619,54,0,0,1561841866.998123,4.634538288232529,-74.15092566988817,2554.22,0,95.625,4,50,-9999,1561841867.191121,-19.99592590332031,-17.35346603393555,14.462646484375,125.1713027954102,132.6644134521484,15,169683.5054335,-1.096221923828125,0.0708770751953125,-0.3052215576171875,169683.4861775,0.03099786350797729,-0.1149811811158441,0.2778425365218958,169683.4936545,-94.42843627929688,-43.90196228027344,-548.3812866210938,169683.5013745,0.2728280961945446,-1.247654194553285,-0.09700518982623754,0.1405636072158813,0.05990761145949364,0.4878185987472534,-0.1146720051765442,-0.01230417937040329,-0.002060472965240479,1,0.04035926982760429,-0.5833898782730103,0.1383057832717896,0.7993115782737732,-0.9437844157218933,0.09685312211513519,-0.3160547614097595,0,0,0,-1,169682.5041445,3,2,1561841866.450643,1561841239.621676,50,1.74607,0,0,49.30045,0,0,1561841867.108182,169680.322971,0,-0.4306641,75.19701,0,182478453,3,1,0.98,-30.77894,-36.57701,3
1561841867.222831,55,0,0,1561841866.998123,4.634538288232529,-74.15092566988817,2554.22,0,95.625,4,50,-9999,1561841867.21718,-19.99784851074219,-17.36573791503906,14.3692626953125,124.7013320922852,132.1944427490234,15,169683.5256975,-1.10382080078125,0.0372467041015625,-0.3192901611328125,169683.5064405,0.1753718209428079,0.1446932704495311,0.5489291659904786,169683.5137655,-94.40557861328125,-43.61967468261719,-548.561767578125,169683.5216385,0.2799906871113142,-1.242005006537424,-0.1069207502131165,0.1472593247890472,0.4688943326473236,0.6487496495246887,-0.1646233201026917,-0.05421165376901627,0.02282232046127319,1,0.03804139420390129,-0.5813993215560913,0.1441108882427216,0.7998497486114502,-0.9410285353660583,0.1067171469330788,-0.3210553526878357,0,0,0,-1,169682.5041445,3,2,1561841866.450643,1561841239.621676,50,1.74607,0,0,49.30045,0,0,1561841867.108182,169680.322971,0,-0.4306641,75.19701,0,182478453,3,1,0.98,-31.33622,-37.18474,3
1561841867.243652,56,0,0,1561841866.998123,4.634538288232529,-74.15092566988817,2554.22,0,95.625,4,50,-9999,1561841867.241515,-20.5823974609375,-16.71216201782227,14.1104736328125,124.3219528198242,131.8150634765625,15,169683.5459615,-1.038238525390625,0.0423583984375,-0.371856689453125,169683.5267045,0.0956929706048362,0.5723870878202235,0.6703804969746702,169683.5338765,-94.81196594238281,-43.44203186035156,-548.7042846679688,169683.5419025,0.2853656087839043,-1.229865641400319,-0.1188397064570022,-0.01263020187616348,0.5861125588417053,0.5837014317512512,-0.1563662886619568,-0.07675109803676605,-0.03084796667098999,1,0.03387703746557236,-0.5769309401512146,0.1498562395572662,0.8022133708000183,-0.9357967972755432,0.1185601800680161,-0.3320060670375824,0,0,0,-1,169682.5041445,3,2,1561841866.450643,1561841239.621676,50,1.74607,0,0,49.30045,0,0,1561841867.108182,169680.322971,0,-0.4306641,75.19701,0,182478453,3,1,0.98,-30.50912,-30.50912,3
1561841867.278832,57,0,0,1561841866.998123,4.634538288232529,-74.15092566988817,2554.22,0,95.625,4,50,-9999,1561841867.267803,-21.10923767089844,-16.67024612426758,13.95111083984375,124.2066268920898,131.6997375488281,15,169683.5661945,-0.957916259765625,0.0585479736328125,-0.378204345703125,169683.5469685,-0.02725479059587092,0.5950034507455034,0.5224930311136979,169683.5539875,-95.40171813964844,-43.00425720214844,-548.7894897460938,169683.5621655,0.2877400395452046,-1.216756091646076,-0.1278540436519529,-0.07168207317590714,0.7334226369857788,0.3455797135829926,-0.05252534151077271,-0.08325549960136414,-0.02885061502456665,1,0.02989664301276207,-0.5719929337501526,0.1535437107086182,0.8052047491073608,-0.9303237199783325,0.1275060027837753,-0.343860536813736,0,0,0,-1,169682.5041445,3,2,1561841866.450643,1561841239.621676,50,1.74607,0,0,49.30045,0,0,1561841867.108182,169680.322971,0,-0.4306641,75.19701,0,182478453,3,1,0.98,-29.15876,-31.03151,3
1561841867.285058,58,0,0,1561841866.998123,4.634538288232529,-74.15092566988817,2554.22,0,95.625,4,50,-9999,1561841867.267803,-21.10923767089844,-16.67024612426758,13.95111083984375,124.2066268920898,131.6997375488281,15,169683.5864575,-1.007736206054688,0.0739288330078125,-0.444122314453125,169683.5672015,-0.09800779022433306,0.8413708852920797,0.317374499743032,169683.5740985,-95.60272216796875,-42.92449951171875,-549.2280883789062,169683.5824295,0.2869201623352374,-1.197875254131147,-0.1347820648640687,-0.2624368369579315,1.078494071960449,0.299522191286087,-0.0556793212890625,-0.06926511228084564,-0.03915929794311523,1,0.02537059783935547,-0.564659059047699,0.1553886383771896,0.810167133808136,-0.922821044921875,0.1343743503093719,-0.3610329627990723,0,0,0,-1,169682.5041445,3,2,1561841866.450643,1561841239.621676,50,1.74607,0,0,49.30045,0,0,1561841867.108182,169680.322971,0,-0.4306641,75.19701,0,182478453,3,1,0.98,-29.15876,-31.03151,3
1561841867.304415,59,0,0,1561841866.998123,4.634538288232529,-74.15092566988817,2554.22,0,95.625,4,50,-9999,1561841867.292181,-21.40824127197266,-16.12152481079102,13.52911376953125,124.358512878418,131.8516235351562,15,169683.6067215,-1.083572387695312,0.0838775634765625,-0.4110260009765625,169683.5874655,-0.2891836080239982,1.057924764067437,0.3472146871251519,169683.5942095,-96.03407287597656,-42.82061767578125,-549.9183959960938,169683.6026625,0.2851003164952111,-1.178585384172236,-0.1448160937432397,-0.2016792297363281,0.7955238223075867,0.5973138809204102,-0.1328781247138977,-0.06366775929927826,-0.07123148441314697,1,0.01921794749796391,-0.5572386980056763,0.1575958281755447,0.8150333762168884,-0.9143936038017273,0.1443104445934296,-0.378231406211853,0,0,0,-1,169682.5041445,3,2,1561841866.450643,1561841239.621676,50,1.74607,0,0,49.30045,0,0,1561841867.108182,169680.322971,0,-0.4306641,75.19701,0,182478453,3,1,0.98,-29.15876,-31.32198,3
1561841867.324112,60,0,0,1561841866.998123,4.634538288232529,-74.15092566988817,2554.22,0,95.625,4,50,-9999,1561841867.318626,-21.70618438720703,-16.16249847412109,13.04217529296875,124.1000289916992,131.5931396484375,15,169683.6269855,-1.063995361328125,0.0379638671875,-0.38140869140625,169683.6077285,-0.1186840402954903,0.7094602554427109,0.6972627113340389,169683.6143515,-96.70187377929688,-42.45951843261719,-550.322509765625,169683.6229265,0.2906910784635153,-1.164732754018323,-0.1589468894431355,0.1778230965137482,0.5154136419296265,0.815561830997467,-0.1929952502250671,-0.09034633636474609,0.00935596227645874,1,0.01380334515124559,-0.5520878434181213,0.1637826859951019,0.8174250721931458,-0.9071024060249329,0.1582784652709961,-0.3900169730186462,0,0,0,-1,169682.5041445,3,2,1561841866.450643,1561841239.621676,50,1.74607,0,0,49.30045,0,0,1561841867.108182,169680.322971,0,-0.4306641,75.19701,0,182478453,3,1,0.98,-29.15876,-31.82429,3
1561841867.36782,61,0,0,1561841866.998123,4.634538288232529,-74.15092566988817,2554.22,0,95.625,4,50,-9999,1561841867.342864,-22.46011352539062,-15.38252639770508,12.38800048828125,123.282341003418,130.7754516601562,15,169683.6472495,-1.010971069335938,-0.064544677734375,-0.4474334716796875,169683.6279925,0.258021693792872,0.4915319192287638,0.7835400759049,169683.6344625,-96.80648803710938,-42.00653076171875,-550.3324584960938,169683.6431905,0.3022159894907396,-1.154658419308107,-0.1693258638256526,0.4137789011001587,0.2383734881877899,0.5126131176948547,-0.1121873259544373,-0.1759031563997269,-0.01181310415267944,1,0.01181622687727213,-0.5483022928237915,0.1713107228279114,0.8184605836868286,-0.9015761017799377,0.1685178875923157,-0.3984499573707581,0,0,0,-1,169682.5041445,3,2,1561841866.450643,1561841239.621676,50,1.74607,0,0,49.30045,0,0,1561841867.108182,169680.322971,0,-0.4306641,75.19701,0,182478453,3,1,0.98,-29.15876,-32.63874,3
1561841867.37095,62,0,0,1561841866.998123,4.634538288232529,-74.15092566988817,2554.22,0,95.625,4,50,-9999,1561841867.369236,-22.5552978515625,-15.10732650756836,12.40606689453125,122.5015335083008,129.9946441650391,15,169683.6675125,-1.131179809570312,-0.1503753662109375,-0.4558258056640625,169683.6685195,0.5032402406451881,0.005406483328969862,0.07217592659889148,169683.6545735,-96.77766418457031,-41.758056640625,-550.4962158203125,169683.6634535,0.3136176482245461,-1.15047298645339,-0.171246240509891,0.4977153837680817,0.02951135486364365,0.13766910135746,-0.1560453772544861,-0.2880557477474213,-0.05816376209259033,1,0.01377367228269577,-0.546595573425293,0.1765080988407135,0.8184671998023987,-0.8996034264564514,0.1704104989767075,-0.4020871222019196,0,0,0,-1,169682.5041445,3,2,1561841866.450643,1561841239.621676,50,1.74607,0,0,49.30045,0,0,1561841867.108182,169680.322971,0,-0.4306641,75.19701,0,182478453,3,1,0.98,-29.15876,-33.30788,3
1561841867.384986,63,0,0,1561841866.998123,4.634538288232529,-74.15092566988817,2554.22,0,95.625,4,50,-9999,1561841867.369236,-22.5552978515625,-15.10732650756836,12.40606689453125,122.5015335083008,129.9946441650391,15,169683.6877765,-1.257537841796875,-0.1590423583984375,-0.4789276123046875,169683.6685195,0.5032402406451881,0.005406483328969862,0.07217592659889148,169683.6746845,-96.84523010253906,-41.68428039550781,-549.9293212890625,169683.6837175,0.3230507351053774,-1.149885607539845,-0.1672209019121085,0.501631498336792,-0.1366733610630035,-0.1211358308792114,-0.304527759552002,-0.3220517933368683,-0.05912846326828003,1,0.017974603921175,-0.5461050271987915,0.1793178766965866,0.8181021809577942,-0.8999857902526855,0.1664426624774933,-0.4028924405574799,0,0,0,-1,169682.5041445,3,2,1561841866.450643,1561841239.621676,50,1.74607,0,0,49.30045,0,0,1561841867.108182,169681.267742,0,-0.3195801,75.19597,0,182478453,3,1,0.98,-29.15876,-33.30788,3
1561841867.405171,64,0,0,1561841866.998123,4.634538288232529,-74.15092566988817,2554.22,0,95.625,4,50,-9999,1561841867.394022,-22.48110961914062,-15.05007171630859,12.87652587890625,121.8986129760742,129.3917236328125,15,169683.7080405,-1.309661865234375,-0.2007598876953125,-0.5061798095703125,169683.6887835,0.5148241924387058,-0.1711507106150323,-0.182500836864841,169683.6947955,-96.4901123046875,-41.33267211914062,-549.9274291992188,169683.7039815,0.330567625841452,-1.152622719852311,-0.1577099555650682,0.5559269785881042,-0.2200947403907776,-0.4813613593578339,-0.3871055245399475,-0.338178813457489,-0.09134882688522339,1,0.02423120848834515,-0.5467053055763245,0.1798693686723709,0.8174185752868652,-0.90249103307724,0.1570570021867752,-0.401052325963974,0,0,0,-1,169682.5041445,3,2,1561841866.450643,1561841239.621676,50,1.74607,0,0,49.30045,0,0,1561841867.108182,169681.267742,0,-0.3195801,75.19597,0,182478453,3,1,0.98,-29.15876,-33.76496,3
1561841867.449735,65,0,0,1561841866.998123,4.634538288232529,-74.15092566988817,2554.22,0,95.625,4,50,-9999,1561841867.420059,-22.27880859375,-14.89865493774414,13.1480712890625,121.4794387817383,128.9725494384766,15,169683.7283035,-1.373138427734375,-0.2572479248046875,-0.555419921875,169683.7090475,0.5848679922688799,-0.2035794905767092,-0.605847310072088,169683.7149065,-96.37931823730469,-41.82020568847656,-549.6153564453125,169683.7242445,0.3359485570086504,-1.155824671551242,-0.1389379423163705,0.6825368404388428,-0.1648884862661362,-1.007122874259949,-0.4216325879096985,-0.3661677539348602,-0.1241127252578735,1,0.03378674760460854,-0.5470091104507446,0.1770826727151871,0.8174847364425659,-0.9063093066215515,0.1384913623332977,-0.3992789685726166,0,0,0,-1,169682.5041445,3,2,1561841866.450643,1561841239.621676,50,1.74607,0,0,49.30045,0,0,1561841867.108182,169681.267742,0,-0.3195801,75.19597,0,182478453,3,1,0.98,-29.15876,-34.53542,3
1561841867.452367,66,0,0,1561841866.998123,4.634538288232529,-74.15092566988817,2554.22,0,95.625,4,50,-9999,1561841867.444212,-21.58946228027344,-15.43763732910156,13.47198486328125,121.221809387207,128.7149200439453,15,169683.7485675,-1.47607421875,-0.3038482666015625,-0.605804443359375,169683.7293105,0.7219600683351068,-0.123481724999268,-1.143619961624007,169683.7350175,-96.25602722167969,-42.056884765625,-549.2374267578125,169683.7445085,0.3396269168668384,-1.157122373337917,-0.1085870054842525,0.8635556101799011,0.0001156488433480263,-1.612937092781067,-0.514074444770813,-0.3873349130153656,-0.1879616975784302,1,0.04749415814876556,-0.5458388328552246,0.1705328971147537,0.8189767003059387,-0.9102572202682495,0.1083737388253212,-0.3996085524559021,0,0,0,-1,169682.5041445,3,2,1561841866.450643,1561841239.621676,50,1.74607,0,0,49.30045,0,0,1561841867.108182,169681.267742,0,-0.3195801,75.19597,0,182478453,3,1,0.98,-29.15876,-34.53542,3
1561841867.46634,67,0,0,1561841866.998123,4.634538288232529,-74.15092566988817,2554.22,0,95.625,4,50,-9999,1561841867.444212,-21.58946228027344,-15.43763732910156,13.47198486328125,121.221809387207,128.7149200439453,15,169683.7688005,-1.565902709960938,-0.334564208984375,-0.6508026123046875,169683.7495745,0.9080740158508583,0.04912839789312774,-1.807127106141291,169683.7551285,-95.40089416503906,-42.4727783203125,-549.1354370117188,169683.7647725,0.3402247249586844,-1.155314058065854,-0.06280553289122359,1.010236263275146,0.1502886414527893,-2.553325414657593,-0.6197037696838379,-0.3828783929347992,-0.2275204062461853,1,0.06647555530071259,-0.5423682332038879,0.1586519926786423,0.8223425149917603,-0.9131178855895996,0.0627642497420311,-0.4028353989124298,0,0,0,-1,169682.5041445,3,2,1561841866.450643,1561841239.621676,50,1.74607,0,0,49.30045,0,0,1561841867.108182,169681.267742,0,-0.3195801,75.19597,0,182478453,3,1,0.98,-29.15876,-34.29683,3
1561841867.486105,68,0,0,1561841866.998123,4.634538288232529,-74.15092566988817,2554.22,0,95.625,4,50,-9999,1561841867.470737,-20.80469512939453,-16.25382614135742,13.64788818359375,121.2824172973633,128.7755279541016,15,169683.7890645,-1.605804443359375,-0.402130126953125,-0.68572998046875,169683.7698075,1.072836335643009,0.1426178690120324,-2.817138939037112,169683.7752395,-94.60501098632812,-43.38760375976562,-548.8030395507812,169683.7850355,0.3366273066061958,-1.153862056429936,0.00361566613181758,1.363051295280457,-0.05923822149634361,-3.55475115776062,-0.6714865565299988,-0.359085738658905,-0.2647668719291687,1,0.09286817908287048,-0.5374915599822998,0.1394329816102982,0.8264604806900024,-0.9143288135528564,-0.003615658264607191,-0.4049566388130188,0,0,0,-1,169682.5041445,3,2,1561841866.450643,1561841239.621676,50,1.74607,0,0,49.30045,0,0,1561841867.108182,169681.267742,0,-0.3195801,75.19597,0,182478453,3,1,0.98,-29.15876,-34.29683,3
1561841867.52526,69,0,0,1561841866.998123,4.634538288232529,-74.15092566988817,2554.22,0,95.625,4,50,-9999,1561841867.521474,-18.41154479980469,-18.08900833129883,14.9439697265625,121.4387435913086,128.9318542480469,15,169683.8093275,-1.616897583007812,-0.46783447265625,-0.6851043701171875,169683.7900715,1.491841589957317,-0.1606101853366077,-3.769482948004467,169683.7953505,-93.39619445800781,-44.4434814453125,-548.1934814453125,169683.8052695,0.3343836955138415,-1.159834509675429,0.09067107085620821,1.923195242881775,-0.5653536319732666,-4.40099573135376,-0.7109300494194031,-0.3444659411907196,-0.2912824153900146,1,0.1284755617380142,-0.5334500074386597,0.1145765855908394,0.8281288743019104,-0.9129713177680969,-0.09054688364267349,-0.3978502452373505,0,0,0,-1,169682.5041445,3,2,1561841866.450643,1561841239.621676,50,1.74607,0,0,49.30045,0,0,1561841867.108182,169681.267742,0,-0.3195801,75.19597,0,182478453,3,1,0.98,-29.15876,-34.14238,3
1561841867.528295,70,0,0,1561841866.998123,4.634538288232529,-74.15092566988817,2554.22,0,95.625,4,50,-9999,1561841867.521474,-18.41154479980469,-18.08900833129883,14.9439697265625,121.4387435913086,128.9318542480469,15,169683.8295915,-1.552276611328125,-0.4827728271484375,-0.643768310546875,169683.8103345,2.077556201136733,-0.6934871478566337,-4.614114075103021,169683.8154615,-91.51625061035156,-45.36753845214844,-547.38623046875,169683.8255325,0.3369294393874806,-1.176514068758424,0.1984264764771173,2.429445505142212,-0.9953955411911011,-5.289394378662109,-0.6774855852127075,-0.2954573035240173,-0.2893924713134766,1,0.1738185286521912,-0.5305498838424683,0.08461321890354156,0.8253147602081299,-0.9051560163497925,-0.1971269249916077,-0.3766078650951385,0,0,0,-1,169682.5041445,3,2,1561841866.450643,1561841239.621676,50,1.74607,0,0,49.30045,0,0,1561841867.108182,169681.267742,0,-0.3195801,75.19597,0,182478453,3,1,0.98,-29.15876,-34.14238,3
1561841867.547137,71,0,0,1561841866.998123,4.634538288232529,-74.15092566988817,2554.22,0,95.625,4,50,-9999,1561841867.545432,-14.04834747314453,-19.8631591796875,17.19366455078125,121.168815612793,128.6619262695312,15,169683.8498555,-1.536270141601562,-0.426788330078125,-0.6228790283203125,169683.8508625,2.378988752278442,-1.079611683772279,-6.014301910880826,169683.8355725,-89.31227111816406,-46.06399536132812,-545.8634033203125,169683.8457965,0.3410146896846269,-1.199197805577976,0.3233015207345615,2.445420026779175,-1.095263838768005,-5.929267406463623,-0.6587604880332947,-0.1326796412467957,-0.2857266664505005,1,0.2254508137702942,-0.5263318419456482,0.04874950274825096,0.8183948993682861,-0.8834758400917053,-0.317698746919632,-0.3442934453487396,0,0,0,-1,169682.5041445,3,2,1561841866.450643,1561841239.621676,50,1.74607,0,0,49.30045,0,0,1561841867.108182,169681.267742,0,-0.3195801,75.19597,0,182478453,3,1,0.98,-29.15876,-34.49793,3
1561841867.567477,72,0,0,1561841866.998123,4.634538288232529,-74.15092566988817,2554.22,0,95.625,4,50,-9999,1561841867.545432,-14.04834747314453,-19.8631591796875,17.19366455078125,121.168815612793,128.6619262695312,15,169683.8701185,-1.481414794921875,-0.414031982421875,-0.651702880859375,169683.8508625,2.378988752278442,-1.079611683772279,-6.014301910880826,169683.8556845,-86.34088134765625,-47.05274963378906,-544.9397583007812,169683.8660605,0.3408254335104832,-1.220861597474142,0.4547930417916779,2.08839750289917,-1.053198099136353,-6.189326763153076,-0.6650495529174805,0.01940029859542847,-0.3230394124984741,1,0.2767609059810638,-0.5190467238426208,0.008028149604797363,0.8086589574813843,-0.8439072966575623,-0.439276397228241,-0.3079878091812134,0,0,0,-1,169682.5041445,3,2,1561841866.450643,1561841239.621676,50,1.74607,0,0,49.30045,0,0,1561841867.108182,169681.267742,0,-0.3195801,75.19597,0,182478453,3,1,0.98,-29.15876,-35.22895,3
1561841867.601989,73,0,0,1561841866.998123,4.634538288232529,-74.15092566988817,2554.22,0,95.625,4,50,-9999,1561841867.599563,-8.080238342285156,-21.32084274291992,19.27886962890625,122.2341995239258,129.7273101806641,15,169683.8903825,-1.424423217773438,-0.4501953125,-0.6647186279296875,169683.8913895,1.628515549732402,-0.8161374339635789,-6.519523809693142,169683.8758255,-83.3951416015625,-47.66925048828125,-543.9221801757812,169683.8863235,0.3329348533953621,-1.23693997638276,0.5880234813923162,1.693221211433411,-0.8986772298812866,-6.451817989349365,-0.6662179827690125,0.1233820915222168,-0.3885440230369568,1,0.3247989416122437,-0.5081148743629456,-0.03648360073566437,0.7968650460243225,-0.786098301410675,-0.5547175407409668,-0.2726498544216156,0,0,0,-1,169682.5041445,3,2,1561841866.450643,1561841239.621676,50,1.74607,0,0,49.30045,0,0,1561841867.108182,169681.267742,0,-0.3195801,75.19597,0,182478453,3,1,0.98,-29.15876,-35.40721,3
1561841867.607725,74,0,0,1561841866.998123,4.634538288232529,-74.15092566988817,2554.22,0,95.625,4,50,-9999,1561841867.599563,-8.080238342285156,-21.32084274291992,19.27886962890625,122.2341995239258,129.7273101806641,15,169683.9106465,-1.352996826171875,-0.5,-0.636505126953125,169683.9116535,1.573048029496559,-0.3381330414918726,-6.793493843673954,169683.8959365,-80.54386901855469,-47.90138244628906,-543.2970581054688,169683.9065875,0.3168701723013723,-1.241471789302856,0.7249176067223024,1.561948895454407,-0.4754615426063538,-6.732666492462158,-0.6863716244697571,0.1949493885040283,-0.42310631275177,1,0.3706202208995819,-0.491526186466217,-0.08364745229482651,0.7836107015609741,-0.7083274722099304,-0.6630737781524658,-0.2420853227376938,0,0,0,-1,169682.5041445,3,2,1561841866.450643,1561841239.621676,50,1.74607,0,0,49.30045,0,0,1561841867.108182,169681.267742,0,-0.3195801,75.19597,0,182478453,3,1,0.98,-21.08918,-21.08918,3
1561841867.627989,75,0,0,1561841866.998123,4.634538288232529,-74.15092566988817,2554.22,0,95.625,4,50,-9999,1561841867.622356,-5.161033630371094,-21.47918701171875,19.87652587890625,123.7050399780273,131.1981506347656,15,169683.9309095,-1.1971435546875,-0.4897308349609375,-0.5511627197265625,169683.9116535,1.573048029496559,-0.3381330414918726,-6.793493843673954,169683.9160475,-77.38652038574219,-48.00212097167969,-542.5881958007812,169683.9268515,0.2955181517923635,-1.231269732234941,0.8666549261901032,1.653624176979065,-0.07344645261764526,-6.943504810333252,-0.6775873899459839,0.2530124187469482,-0.3745604157447815,1,0.4162277281284332,-0.4679237008094788,-0.1307523548603058,0.7685737609863281,-0.6104222536087036,-0.7621676921844482,-0.2156037837266922,0,0,0,-1,169682.5041445,3,2,1561841866.450643,1561841239.621676,50,1.74607,0,0,49.30045,0,0,1561841867.108182,169681.267742,0,-0.3195801,75.19597,0,182478453,3,1,0.98,-21.08918,-21.77438,3
1561841867.648694,76,0,0,1561841866.998123,4.634538288232529,-74.15092566988817,2554.22,0,95.625,4,50,-9999,1561841867.622356,-5.161033630371094,-21.47918701171875,19.87652587890625,123.7050399780273,131.1981506347656,15,169683.9511735,-0.9702301025390625,-0.413421630859375,-0.4167938232421875,169683.9521805,1.996884258028271,-0.1086769461834085,-6.75295999925073,169683.9361585,-74.28752136230469,-47.43756103515625,-542.09521484375,169683.9471145,0.2712903212409731,-1.212324820346923,1.011154336851755,1.915459513664246,-0.06491608172655106,-6.858429431915283,-0.5918982625007629,0.4043909907341003,-0.3068921566009521,1,0.4617756903171539,-0.4400396347045898,-0.1761536002159119,0.7497320771217346,-0.4971367716789246,-0.8474452495574951,-0.1862566620111465,0,0,0,-1,169682.5041445,3,2,1561841866.450643,1561841239.621676,50,1.74607,0,0,49.30045,0,0,1561841867.108182,169681.267742,0,-0.3195801,75.19597,0,182478453,3,1,0.98,-21.08918,-21.77438,3
1561841867.679173,77,0,0,1561841866.998123,4.634538288232529,-74.15092566988817,2554.22,0,95.625,4,50,-9999,1561841867.673164,3.605499267578125,-19.9010124206543,21.6796875,196.3375549316406,203.8306579589844,15,169683.9714065,-0.7866973876953125,-0.4385833740234375,-0.2561492919921875,169683.9521805,1.996884258028271,-0.1086769461834085,-6.75295999925073,169683.9562705,-71.72286987304688,-46.75407409667969,-541.41845703125,169683.9673785,0.2510192958080643,-1.197331785855759,1.151496198488658,2.093881845474243,-0.1743373721837997,-6.408774375915527,-0.4880683124065399,0.4862958192825317,-0.1840144395828247,1,0.5054075121879578,-0.4126687049865723,-0.2176744490861893,0.7258689403533936,-0.3790581822395325,-0.913374125957489,-0.1485355794429779,0,0,0,-1,169682.5041445,3,2,1561841866.450643,1561841239.621676,50,1.74607,0,0,49.30045,0,0,1561841867.108182,169681.267742,0,-0.3195801,75.19597,0,182478453,3,1,0.98,-21.08918,-22.92153,3
1561841867.688689,78,0,0,1561841866.998123,4.634538288232529,-74.15092566988817,2554.22,0,95.625,4,50,-9999,1561841867.673164,3.605499267578125,-19.9010124206543,21.6796875,196.3375549316406,203.8306579589844,15,169683.9916705,-0.5927886962890625,-0.3593292236328125,-0.230377197265625,169683.9724135,2.022995487252062,-0.1411041282484313,-6.330273191045495,169683.9763815,-68.89265441894531,-45.22427368164062,-541.03173828125,169683.9876425,0.208165135735067,-1.15886999181064,1.284044415462781,1.39448618888855,0.01956338249146938,-6.316165924072266,-0.4368811845779419,0.5546723604202271,-0.1181123852729797,1,0.5439217090606689,-0.3840943872928619,-0.2564822137355804,0.7005979418754578,-0.2591789960861206,-0.9591675996780396,-0.1132413521409035,0,0,0,-1,169682.5041445,3,2,1561841866.450643,1561841239.621676,50,1.74607,0,0,49.30045,0,0,1561841867.108182,169681.267742,0,-0.3195801,75.19597,0,182478453,3,1,0.98,-21.08918,-22.92153,3
1561841867.708968,79,0,0,1561841866.998123,4.634538288232529,-74.15092566988817,2554.22,0,95.625,4,50,-9999,1561841867.698098,6.114547729492188,-18.51395034790039,22.04888916015625,195.7449798583984,203.2380828857422,15,169684.0119345,-0.438232421875,-0.3609466552734375,-0.201019287109375,169683.9926775,1.080567492287509,0.1224228521498525,-6.345706742194722,169683.9964925,-66.89810180664062,-44.29716491699219,-540.728271484375,169684.0078755,-0.02121538692742164,-0.9301026762060643,1.403299526590245,0.06032390147447586,0.4237159192562103,-6.315675258636475,-0.3782649636268616,0.6355718374252319,-0.1144572496414185,1,0.5732619762420654,-0.3486311435699463,-0.296701967716217,0.6795549988746643,-0.1336521655321121,-0.9860051870346069,-0.09965406358242035,0,0,0,-1,169682.5041445,3,2,1561841866.450643,1561841239.621676,50,1.74607,0,0,49.30045,0,0,1561841867.108182,169681.267742,0,-0.3195801,75.19597,0,182478453,3,1,0.98,-21.08918,-23.88191,3
1561841867.729353,80,0,0,1561841866.998123,4.634538288232529,-74.15092566988817,2554.22,0,95.625,4,50,-9999,1561841867.723808,10.18714141845703,-16.5482063293457,22.10772705078125,195.0607452392578,202.5538482666016,15,169684.0321975,-0.2398529052734375,-0.34423828125,-0.2172393798828125,169684.0129415,-0.2439277126719547,0.5059156522762818,-6.260840320369385,169684.0166035,-65.01411437988281,-43.51779174804688,-540.7421264648438,169684.0281385,-0.8732451262284501,-0.07404352325797353,1.460549708413827,-0.8506652116775513,0.5842126607894897,-6.05712366104126,-0.3420501947402954,0.6432057023048401,-0.09618103504180908,1,0.5924180746078491,-0.3068880438804626,-0.337201327085495,0.6641955375671387,-0.008139017038047314,-0.9939289689064026,-0.1097211092710495,0,0,0,-1,169682.5041445,3,2,1561841866.450643,1561841239.621676,50,1.74607,0,0,49.30045,0,0,1561841867.108182,169681.267742,0,-0.3195801,75.19597,0,182478453,3,1,0.98,-21.08918,-24.1703,3
1561841867.761637,81,0,0,1561841866.998123,4.634538288232529,-74.15092566988817,2554.22,0,95.625,4,50,-9999,1561841867.748845,11.58611679077148,-16.04441070556641,21.79962158203125,194.2817840576172,201.7748870849609,15,169684.0524615,0.03497314453125,-0.334747314453125,-0.2324371337890625,169684.0332045,-0.9215251098846305,0.577042027089573,-5.999594870076972,169684.0367145,-63.11814880371094,-42.69407653808594,-540.83642578125,169684.0484025,-1.670378046008665,0.7265884077059396,1.400201999965468,-0.7456854581832886,0.3525190055370331,-5.884384155273438,-0.2179140150547028,0.6423138976097107,-0.0999906063079834,1,0.6056222915649414,-0.2641504406929016,-0.3763782382011414,0.6494502425193787,0.1127809658646584,-0.9854840636253357,-0.1268923729658127,0,0,0,-1,169682.5041445,3,2,1561841866.450643,1561841239.621676,50,1.74607,0,0,49.30045,0,0,1561841867.108182,169681.267742,0,-0.3195801,75.19597,0,182478453,3,1,0.98,-19.76068,-24.67733,3
1561841867.769894,82,0,0,1561841866.998123,4.634538288232529,-74.15092566988817,2554.22,0,95.625,4,50,-9999,1561841867.748845,11.58611679077148,-16.04441070556641,21.79962158203125,194.2817840576172,201.7748870849609,15,169684.0727255,0.282806396484375,-0.339630126953125,-0.196502685546875,169684.0534685,-0.568303662920805,0.2468422761689374,-5.853390522024931,169684.0568255,-61.41555786132812,-42.07524108886719,-540.8626708984375,169684.0686665,-1.992533292604855,1.043416222330479,1.303463795914539,0.2077011913061142,-0.1835585534572601,-5.763648509979248,-0.05695760250091553,0.6246352195739746,-0.08818638324737549,1,0.6183818578720093,-0.2261235862970352,-0.4143310785293579,0.6283325552940369,0.228268027305603,-0.9644789695739746,-0.1329440027475357,0,0,0,-1,169682.5041445,3,2,1561841866.450643,1561841239.621676,50,1.74607,0,0,49.30045,0,0,1561841867.108182,169681.267742,0,-0.3195801,75.19597,0,182478453,3,1,0.98,-19.76068,-25.53234,3
1561841867.79023,83,0,0,1561841866.998123,4.634538288232529,-74.15092566988817,2554.22,0,95.625,4,50,-9999,1561841867.774401,13.41605377197266,-14.8776969909668,21.7901611328125,194.3758239746094,201.8689270019531,15,169684.0929885,0.4529876708984375,-0.3205413818359375,-0.1591949462890625,169684.0737325,0.5029446297641893,-0.336364169895842,-5.728049377952569,169684.0769365,-59.84310913085938,-40.340087890625,-541.3418579101562,169684.0889295,-2.194317945863083,1.225516579130983,1.20492742662758,1.266926407814026,-0.7296079993247986,-5.617335319519043,0.04134464263916016,0.6001645922660828,-0.05260312557220459,1,0.6331537961959839,-0.1963986307382584,-0.4511808156967163,0.5974777936935425,0.3366460502147675,-0.9338132739067078,-0.1210877001285553,0,0,0,-1,169682.5041445,3,2,1561841866.450643,1561841239.621676,50,1.74607,0,0,49.30045,0,0,1561841867.108182,169681.267742,0,-0.3195801,75.19597,0,182478453,3,1,0.98,-19.76068,-26.3894,3
1561841867.810459,84,0,0,1561841866.998123,4.634538288232529,-74.15092566988817,2554.22,0,95.625,4,50,-9999,1561841867.799413,15.04287338256836,-13.09056091308594,21.63671875,195.9567413330078,203.4498443603516,15,169684.1132525,0.5343780517578125,-0.236053466796875,-0.1301422119140625,169684.0939955,1.451862215673048,-0.7872903393519496,-5.561950151293199,169684.0970475,-58.21440124511719,-38.33322143554688,-541.1461181640625,169684.1091935,-2.345509683633013,1.348277750062882,1.106936214438519,1.660356521606445,-0.7041332721710205,-5.258992195129395,0.06454271078109741,0.6056511402130127,-0.04547476768493652,1,0.64869225025177,-0.172714576125145,-0.4854691624641418,0.5600783228874207,0.4363727867603302,-0.8943321108818054,-0.09873607754707336,0,0,0,-1,169682.5041445,3,2,1561841866.450643,1561841239.621676,50,1.74607,0,0,49.30045,0,0,1561841867.108182,169681.267742,0,-0.3195801,75.19597,0,182478453,3,1,0.98,-19.76068,-26.3894,3
1561841867.84199,85,0,0,1561841866.998123,4.634538288232529,-74.15092566988817,2554.22,0,95.625,4,50,-9999,1561841867.825077,17.85932159423828,-8.852725982666016,21.987060546875,197.7088623046875,205.2019653320312,15,169684.1335165,0.6635589599609375,-0.107330322265625,-0.102142333984375,169684.1142595,1.614699069997071,-0.5862440476041237,-5.089945328125223,169684.1171895,-56.904541015625,-36.10733032226562,-541.0725708007812,169684.1294575,-2.44335615910781,1.42486434228342,1.014911229209007,1.201648592948914,-0.1515321731567383,-4.470564842224121,0.0591665506362915,0.6800459027290344,-0.04002565145492554,1,0.6626373529434204,-0.1501480340957642,-0.5128480195999146,0.5247421264648438,0.522086501121521,-0.8494337201118469,-0.07673460990190506,0,0,0,-1,169682.5041445,3,2,1561841866.450643,1561841239.621676,50,1.74607,0,0,49.30045,0,0,1561841867.108182,169681.267742,0,-0.3195801,75.19597,0,182478453,3,1,0.98,-19.76068,-28.08097,3
1561841867.850961,86,0,0,1561841866.998123,4.634538288232529,-74.15092566988817,2554.22,0,95.625,4,50,-9999,1561841867.825077,17.85932159423828,-8.852725982666016,21.987060546875,197.7088623046875,205.2019653320312,15,169684.1537495,0.8079833984375,-0.0220947265625,-0.081329345703125,169684.1345235,1.013734665783643,-0.03297978799121426,-4.212438808950186,169684.1373005,-55.80070495605469,-34.02632141113281,-540.849609375,169684.1497205,-2.491131752788815,1.46480381304383,0.9378436787835118,0.4890881478786469,0.09654848277568817,-3.377328157424927,0.1607540845870972,0.7415109276771545,-0.03191745281219482,1,0.672584056854248,-0.127830296754837,-0.5319784283638,0.4982860684394836,0.5882083177566528,-0.8062844276428223,-0.06258020550012589,0,0,0,-1,169682.5041445,3,2,1561841866.450643,1561841239.621676,50,1.74607,0,0,49.30045,0,0,1561841867.108182,169681.267742,0,-0.3195801,75.19597,0,182478453,3,1,0.98,-19.76068,-28.08097,3
1561841867.871531,87,0,0,1561841866.998123,4.634538288232529,-74.15092566988817,2554.22,0,95.625,4,50,-9999,1561841867.849517,18.69025802612305,-7.303359985351562,21.86334228515625,198.3579559326172,205.8510589599609,15,169684.1740317917,0.8484649658203125,0.075469970703125,-0.04754638671875,169684.1547565,0.3531111920946963,0.09638592512047481,-3.08180042605977,169684.1574307917,-55.52580261230469,-33.01762390136719,-540.8397216796875,169684.1700037917,-2.50838210482431,1.480420558190254,0.8821561824451634,0.06021028757095337,0.1352295577526093,-2.191210985183716,0.2023565769195557,0.8004312515258789,-0.007464766502380371,1,0.6777163743972778,-0.1096505522727966,-0.5448338985443115,0.4814906716346741,0.6328942775726318,-0.7721108794212341,-0.05735454335808754,0,0,0,-1,169682.5041445,3,2,1561841866.450643,1561841239.621676,50,1.74607,0,0,49.30045,0,0,1561841867.108182,169681.267742,0,-0.3195801,75.19597,0,182478453,3,1,0.98,-19.76068,-28.68836,3
1561841867.891465,88,0,0,1561841866.998123,4.634538288232529,-74.15092566988817,2554.22,0,95.625,4,50,-9999,1561841867.875653,18.98075866699219,-6.142734527587891,22.0968017578125,198.3431091308594,205.8362121582031,15,169684.1942957917,0.8630218505859375,0.175811767578125,0.0079803466796875,169684.1750397917,0.002341451230397666,0.2225731554711543,-1.898274327081471,169684.1775417917,-55.3570556640625,-32.10783386230469,-540.7847900390625,169684.1902677917,-2.51100502982081,1.489156756480529,0.8496905663551415,-0.1751343309879303,0.5599840879440308,-1.002779364585876,0.201694130897522,0.8811420202255249,0.04065626859664917,1,0.6809758543968201,-0.09670552611351013,-0.5503577589988708,0.4733140468597412,0.6580165028572083,-0.7510761618614197,-0.05383985489606857,0,0,0,-1,169682.5041445,3,2,1561841866.450643,1561841239.621676,50,1.74607,0,0,49.30045,0,0,1561841867.108182,169681.267742,0,-0.3195801,75.19597,0,182478453,3,1,0.98,-19.76068,-29.74425,3
1561841867.92172,89,0,0,1561841866.998123,4.634538288232529,-74.15092566988817,2554.22,0,95.625,4,50,-9999,1561841867.900034,18.87057495117188,-5.336795806884766,22.1400146484375,197.5640563964844,205.0571594238281,15,169684.2145597917,0.823089599609375,0.2288055419921875,0.0419769287109375,169684.1953027917,-0.2321637311887477,0.6733145015476104,-0.6850569114259878,169684.1976527917,-55.68363952636719,-31.74580383300781,-540.6141357421875,169684.2105007917,-2.503602617953216,1.498290509446573,0.8422137554423708,-0.3294354975223541,0.7965132594108582,0.3326417207717896,0.189513087272644,0.9582618474960327,0.0686492919921875,1,0.6840368509292603,-0.08931447565555573,-0.5472801327705383,0.4739209711551666,0.664063572883606,-0.7461189031600952,-0.0482330210506916,0,0,0,-1,169682.5041445,3,2,1561841866.450643,1561841239.621676,50,1.74607,0,0,49.30045,0,0,1561841867.108182,169681.267742,0,-0.3195801,75.19597,0,182478453,3,1,0.98,-19.76068,-30.11255,3
1561841867.932092,90,0,0,1561841866.998123,4.634538288232529,-74.15092566988817,2554.22,0,95.625,4,50,-9999,1561841867.926211,18.16147994995117,-5.610904693603516,22.30859375,196.5099487304688,204.0030517578125,15,169684.2348227917,0.7288665771484375,0.21234130859375,0.0732574462890625,169684.2155667917,-0.3339409596199789,0.7445474028045048,0.6959929161262892,169684.2177637917,-56.0927734375,-32.08685302734375,-540.416015625,169684.2307647917,-2.49129924954857,1.501319235357444,0.8628583599044102,-0.3113861680030823,0.3312523365020752,1.736161351203918,0.1286746859550476,0.9818571209907532,0.1041328907012939,1,0.6848335862159729,-0.09182455390691757,-0.5383114814758301,0.4824850559234619,0.6486996412277222,-0.7597043514251709,-0.04514241963624954,0,0,0,-1,169682.5041445,3,2,1561841866.450643,1561841239.621676,50,1.74607,0,0,49.30045,0,0,1561841867.108182,169681.267742,0,-0.3195801,75.19597,0,182478453,3,1,0.98,-19.76068,-31.00792,3
1561841867.952235,91,0,0,1561841866.998123,4.634538288232529,-74.15092566988817,2554.22,0,95.625,4,50,-9999,1561841867.950741,17.71797180175781,-6.519130706787109,22.211669921875,196.3068084716797,203.7999114990234,15,169684.2550867917,0.57403564453125,0.1317596435546875,0.095184326171875,169684.2358307917,-0.2854530519690152,0.1675863358120703,2.067901975869087,169684.2378747917,-56.614501953125,-32.73342895507812,-540.5658569335938,169684.2510277917,-2.477397010228052,1.490344808323944,0.91017774692729,-0.2051457613706589,-0.350896418094635,2.930106163024902,0.05419647693634033,0.9675912857055664,0.1396137475967407,1,0.6811262369155884,-0.1068219169974327,-0.5269226431846619,0.4969996809959412,0.6116207838058472,-0.7896128296852112,-0.04931225627660751,0,0,0,-1,169682.5041445,3,2,1561841866.450643,1561841239.621676,50,1.74607,0,0,49.30045,0,0,1561841867.108182,169681.267742,0,-0.3195801,75.19597,0,182478453,3,1,0.98,-19.76068,-31.92901,3
1561841867.972511,92,0,0,1561841866.998123,4.634538288232529,-74.15092566988817,2554.22,0,95.625,4,50,-9999,1561841867.950741,17.71797180175781,-6.519130706787109,22.211669921875,196.3068084716797,203.7999114990234,15,169684.2753507917,0.3364105224609375,0.03533935546875,0.110107421875,169684.2560937917,-0.1787982440013039,-0.4996260647298416,3.160815882970203,169684.2579857917,-56.92802429199219,-33.71096801757812,-540.650390625,169684.2712917917,-2.460988314066193,1.464324591137058,0.9769581592618359,-0.1471213400363922,-0.8441031575202942,3.634042263031006,-0.09811031818389893,0.9192532896995544,0.1626433134078979,1,0.6729409694671631,-0.1319802105426788,-0.5143811702728271,0.5149210095405579,0.5563775897026062,-0.8287991285324097,-0.05946335196495056,0,0,0,-1,169682.5041445,3,2,1561841866.450643,1561841239.621676,50,1.74607,0,0,49.30045,0,0,1561841867.108182,169681.267742,0,-0.3195801,75.19597,0,182478453,3,1,0.98,-19.76068,-31.92901,3
1561841868.005476,93,0,0,1561841866.998123,4.634538288232529,-74.15092566988817,2554.22,0,95.625,4,50,-9999,1561841867.977668,17.24375915527344,-7.524906158447266,22.0538330078125,197.0530548095703,204.5461578369141,15,169684.2956137917,0.06298828125,-0.092193603515625,0.1064453125,169684.2763577917,-0.1499610030857079,-0.878285227477777,3.722698664502827,169684.2781277917,-57.1085205078125,-34.6060791015625,-541.08544921875,169684.2915557917,-2.436706501366239,1.425991074755725,1.051875767862686,-0.1839430034160614,-0.840081512928009,3.789248466491699,-0.2937613427639008,0.8356707096099854,0.1829535961151123,1,0.662011444568634,-0.1611168533563614,-0.5006166100502014,0.5340085029602051,0.4907523095607758,-0.8683550357818604,-0.07156441360712051,0,0,0,-1,169682.5041445,3,2,1561841866.450643,1561841239.621676,50,1.74607,0,0,49.30045,0,0,1561841867.108182,169681.267742,0,-0.3195801,75.19597,0,182478453,3,1,0.98,-19.76068,-33.80955,3
1561841868.012976,94,0,0,1561841866.998123,4.634538288232529,-74.15092566988817,2554.22,0,95.625,4,50,-9999,1561841868.001456,17.22564315795898,-8.445102691650391,21.79986572265625,197.9503936767578,205.4434967041016,15,169684.3158777917,-0.136199951171875,-0.235198974609375,0.118621826171875,169684.2966217917,-0.1830648943837198,-0.7780731388191854,3.78117289360937,169684.2982387917,-57.52569580078125,-36.15264892578125,-541.2962646484375,169684.3118187917,-2.402404755276596,1.381806972280286,1.12612725797522,-0.09791942685842514,-0.468771904706955,3.668877840042114,-0.4716483950614929,0.7524845004081726,0.1842516660690308,1,0.6510742902755737,-0.1889340430498123,-0.4848189353942871,0.5525909066200256,0.422499805688858,-0.9027530550956726,-0.08081239461898804,0,0,0,-1,169682.5041445,3,2,1561841866.450643,1561841239.621676,50,1.74607,0,0,49.30045,0,0,1561841867.108182,169681.267742,0,-0.3195801,75.19597,0,182478453,3,1,0.98,-19.76068,-33.80955,3
1561841868.033289,95,0,0,1561841866.998123,4.634538288232529,-74.15092566988817,2554.22,0,95.625,4,50,-9999,1561841868.027643,15.94031143188477,-10.865478515625,21.4708251953125,198.4077911376953,205.9008941650391,15,169684.3361417917,-0.2211761474609375,-0.4058074951171875,0.1558380126953125,169684.3168847917,-0.01962669828555696,-0.341507266593003,3.62057123038825,169684.3183497917,-58.3564453125,-37.0997314453125,-541.3673706054688,169684.3320827917,-2.368729845379305,1.345796863933236,1.196983490156323,0.2608674764633179,-0.09413918107748032,3.443696260452271,-0.5469578504562378,0.5944244861602783,0.2244459390640259,1,0.6430050730705261,-0.2140302062034607,-0.4661105871200562,0.5687500238418579,0.3559635877609253,-0.9309418201446533,-0.08147109299898148,0,0,0,-1,169682.5041445,3,2,1561841866.450643,1561841239.621676,50,1.74607,0,0,49.30045,0,0,1561841867.108182,169681.267742,0,-0.3195801,75.19597,0,182478453,3,1,0.98,-19.76068,-34.71841,3
1561841868.0534,96,0,0,1561841866.998123,4.634538288232529,-74.15092566988817,2554.22,0,95.625,4,50,-9999,1561841868.027643,15.94031143188477,-10.865478515625,21.4708251953125,198.4077911376953,205.9008941650391,15,169684.3563747917,-0.3055419921875,-0.4829559326171875,0.1323394775390625,169684.3371487917,0.339455567289206,-0.05585074911670575,3.406293022764366,169684.3384607917,-59.05523681640625,-37.88185119628906,-541.4334716796875,169684.3523467917,-2.341694244891504,1.3191498462676,1.265269725876783,0.3978783190250397,-0.0319082960486412,3.336704730987549,-0.5417027473449707,0.5061331391334534,0.2276992201805115,1,0.6371252536773682,-0.2379549890756607,-0.4459432065486908,0.581879198551178,0.2913212478160858,-0.9536886811256409,-0.07489766925573349,0,0,0,-1,169682.5041445,3,2,1561841866.450643,1561841239.621676,50,1.74607,0,0,49.30045,0,0,1561841867.108182,169681.267742,0,-0.3195801,75.19597,0,182478453,3,1,0.98,-19.76068,-35.61144,3
1561841868.083929,97,0,0,1561841867.998114,4.634538288232529,-74.15092566988817,2554.173,0,185.9765625,4,50,-9999,1561841868.027643,15.94031143188477,-10.865478515625,21.4708251953125,198.4077911376953,205.9008941650391,15,169684.3766387917,-0.45233154296875,-0.6080474853515625,0.1280975341796875,169684.3776457917,0.4739393433838093,0.1178406171782622,3.257444422065984,169684.3585717917,-59.72230529785156,-38.45353698730469,-541.157470703125,169684.3726097917,-2.303706995821162,1.283020841045479,1.332249311040395,0.4275177121162415,0.0868295431137085,3.289760589599609,-0.5960351228713989,0.4330317974090576,0.1913926601409912,1,0.6311939358711243,-0.2608872950077057,-0.42501500248909,0.5940490365028381,0.2265740931034088,-0.9716823101043701,-0.067064069211483,0,0,0,-1,169682.5041445,3,2,1561841866.450643,1561841239.621676,50,1.74607,0,0,49.30045,0,0,1561841867.108182,169681.267742,0,-0.3195801,75.19597,0,182478453,3,1,0.98,-19.76068,-36.47957,3
1561841868.093988,98,0,0,1561841867.998114,4.634538288232529,-74.15092566988817,2554.173,0,185.9765625,4,50,-9999,1561841868.079058,15.19449615478516,-11.49410629272461,21.557373046875,198.6532135009766,206.1463165283203,15,169684.3969017917,-0.59326171875,-0.7885894775390625,0.1307373046875,169684.3776457917,0.4739393433838093,0.1178406171782622,3.257444422065984,169684.3786827917,-60.46429443359375,-39.01927185058594,-541.0557250976562,169684.3928427917,-2.258484859697186,1.241526416296927,1.397300443287942,0.6893213391304016,0.1741252839565277,3.098448514938354,-0.6938706636428833,0.2959004044532776,0.1811244487762451,1,0.6262455582618713,-0.2826780080795288,-0.4032421112060547,0.6044050455093384,0.1633531302213669,-0.9849873185157776,-0.05581928789615631,0,0,0,-1,169682.5041445,3,2,1561841866.450643,1561841239.621676,50,1.74607,0,0,49.30045,0,0,1561841867.108182,169681.267742,0,-0.3195801,75.19597,0,182478453,3,1,0.98,-19.76068,-37.31304,3
1561841868.114317,99,0,0,1561841867.998114,4.634538288232529,-74.15092566988817,2554.173,0,185.9765625,4,50,-9999,1561841868.103137,14.42828369140625,-12.04491424560547,21.8831787109375,198.7188873291016,206.2119903564453,15,169684.4171657917,-0.592132568359375,-0.9849395751953125,0.1258544921875,169684.4181727917,1.193413350841327,-0.5068948966091039,2.932972065385673,169684.3987937917,-61.17665100097656,-39.46650695800781,-540.803466796875,169684.4131067917,-2.232896959892175,1.216609113549207,1.46093669110953,1.079585194587708,-0.2637742757797241,2.954936027526855,-0.7197004556655884,0.09484732151031494,0.1727304458618164,1,0.6227847337722778,-0.3051659464836121,-0.3818910717964172,0.6108781695365906,0.1028334274888039,-0.9939715266227722,-0.03802584111690521,0,0,0,-1,169682.5041445,3,2,1561841866.450643,1561841239.621676,50,1.74607,0,0,49.30045,0,0,1561841867.108182,169681.267742,0,-0.3195801,75.19597,0,182478453,3,1,0.98,-19.76068,-38.19282,3
1561841868.134506,100,0,0,1561841867.998114,4.634538288232529,-74.15092566988817,2554.173,0,185.9765625,4,50,-9999,1561841868.128727,12.52350234985352,-12.84006500244141,22.5247802734375,199.6781311035156,207.1712341308594,15,169684.4374297917,-0.548431396484375,-1.127243041992188,0.0904388427734375,169684.4181727917,1.193413350841327,-0.5068948966091039,2.932972065385673,169684.4189047917,-61.81155395507812,-39.45889282226562,-540.3228759765625,169684.4333707917,-2.327106714966512,1.294471224559875,1.525082987739452,1.592582821846008,-1.320305943489075,2.815189123153687,-0.5889172554016113,-0.05492347478866577,0.1225902438163757,1,0.6186111569404602,-0.3332963585853577,-0.3646921515464783,0.6109283566474915,0.04396487399935722,-0.9989553093910217,-0.01246754731982946,0,0,0,-1,169682.5041445,3,2,1561841866.450643,1561841239.621676,50,1.74607,0,0,49.30045,0,0,1561841867.108182,169681.267742,0,-0.3195801,75.19597,0,182478453,3,1,0.98,-19.76068,-38.19282,3
1561841868.154934,101,0,0,1561841867.998114,4.634538288232529,-74.15092566988817,2554.173,0,185.9765625,4,50,-9999,1561841868.153225,12.48521041870117,-12.60547256469727,22.452880859375,201.9514312744141,209.4445343017578,15,169684.4576927917,-0.6418304443359375,-1.257110595703125,0.0695037841796875,169684.4586997917,1.723389864618148,-1.542859500643856,2.243211478842387,169684.4390167917,-61.91879272460938,-39.03288269042969,-540.263427734375,169684.4536337917,1.696243051954546,-2.760884572740792,1.545444708374799,1.858612895011902,-1.624183058738708,2.407679319381714,-0.5854274034500122,-0.2039346694946289,0.05711865425109863,1,0.6146966218948364,-0.3659476935863495,-0.351758748292923,0.6037352681159973,-0.009421229362487793,-0.9996786713600159,0.02353930287063122,0,0,0,-1,169682.5041445,3,2,1561841866.450643,1561841239.621676,50,1.74607,0,0,49.30045,0,0,1561841867.108182,169681.267742,0,-0.3195801,75.19597,0,182478453,3,1,0.98,-19.76068,-38.31027,3
1561841868.174987,102,0,0,1561841867.998114,4.634538288232529,-74.15092566988817,2554.173,0,185.9765625,4,50,-9999,1561841868.153225,12.48521041870117,-12.60547256469727,22.452880859375,201.9514312744141,209.4445343017578,15,169684.4779567917,-0.6253509521484375,-1.300155639648438,0.0168914794921875,169684.4586997917,1.723389864618148,-1.542859500643856,2.243211478842387,169684.4591277917,-61.45405578613281,-38.99006652832031,-540.290283203125,169684.4738977917,1.289316688685871,-2.383348260871639,1.497902089806196,0.7218867540359497,-1.184009909629822,1.734321713447571,-0.6123026013374329,-0.2827612161636353,-0.004629611968994141,1,0.6102868318557739,-0.3924142122268677,-0.3426874876022339,0.5967632532119751,-0.05008144304156303,-0.9973443746566772,0.05287786200642586,0,0,0,-1,169682.5041445,3,2,1561841866.450643,1561841239.621676,50,1.74607,0,0,49.30045,0,0,1561841867.108182,169681.267742,0,-0.3195801,75.19597,0,182478453,3,1,0.98,-19.76068,-38.78939,3
1561841868.195218,103,0,0,1561841867.998114,4.634538288232529,-74.15092566988817,2554.173,0,185.9765625,4,50,-9999,1561841868.179461,12.7748908996582,-12.4476203918457,22.5540771484375,203.7717132568359,211.2648162841797,15,169684.4982207917,-0.4499053955078125,-1.425003051757812,-0.0509796142578125,169684.4789637917,0.2592627268608489,-1.023616325008382,1.616330522480853,169684.4792387917,-61.80903625488281,-39.11119079589844,-540.3052978515625,169684.4941617917,1.010911304901519,-2.123175186332378,1.475637753426122,-1.081204533576965,-0.4837801456451416,1.521113514900208,-0.4602527320384979,-0.3587721586227417,-0.07137107849121094,1,0.5997423529624939,-0.406493753194809,-0.3392317891120911,0.5999948382377625,-0.08088496327400208,-0.9954758286476135,0.04985612258315086,0,0,0,-1,169682.5041445,3,2,1561841866.450643,1561841239.621676,50,1.74607,0,0,49.30045,0,0,1561841867.108182,169681.267742,0,-0.3195801,75.19597,0,182478453,3,1,0.98,-19.76068,-36.78788,3
1561841868.216875,104,0,0,1561841867.998114,4.634538288232529,-74.15092566988817,2554.173,0,185.9765625,4,50,-9999,1561841868.204488,12.60523986816406,-12.82066345214844,22.43487548828125,204.5925598144531,212.0856628417969,15,169684.5184837917,-0.42034912109375,-1.4803466796875,-0.09246826171875,169684.4992277917,-1.415921791497992,-0.2933887393852333,1.544513323680796,169684.4993797917,-61.55647277832031,-39.84040832519531,-540.684814453125,169684.5144247917,0.6101619686739663,-1.728024973918305,1.457524404331535,-1.937738656997681,0.05370167642831802,1.487451910972595,-0.2976505756378174,-0.4779202938079834,-0.08921635150909424,1,0.5828898549079895,-0.4112038910388947,-0.3375236392021179,0.6141893863677979,-0.1116359233856201,-0.9935916066169739,0.01769844628870487,0,0,0,-1,169682.5041445,3,2,1561841866.450643,1561841239.621676,50,1.74607,0,0,49.30045,0,0,1561841867.108182,169681.267742,0,-0.3195801,75.19597,0,182478453,3,1,0.98,-19.76068,-37.33361,3
1561841868.242501,105,0,0,1561841867.998114,4.634538288232529,-74.15092566988817,2554.173,0,185.9765625,4,50,-9999,1561841868.239283,12.06858062744141,-14.73533630371094,21.63323974609375,204.8147735595703,212.3078765869141,15,169684.5387477917,-0.43939208984375,-1.417098999023438,-0.14788818359375,169684.5194907917,-1.970481146349008,0.1063125917676362,1.410236741519,169684.5194907917,-62.17672729492188,-40.89631652832031,-541.0838623046875,169684.5346887917,0.2997788509152263,-1.417795465761714,1.431384128112978,-1.793964505195618,0.1381089687347412,1.025928020477295,-0.3003599643707275,-0.470639705657959,-0.1017159223556519,1,0.5658385157585144,-0.4113849401473999,-0.3368154764175415,0.6301941275596619,-0.1373384147882462,-0.9902978539466858,-0.02117840945720673,0,0,0,-1,169682.5041445,3,2,1561841866.450643,1561841239.621676,50,1.74607,0,0,49.30045,0,0,1561841867.108182,169681.267742,0,-0.3195801,75.19597,0,182478453,3,1,0.98,-19.76068,-38.03537,3
1561841868.25605,106,0,0,1561841867.998114,4.634538288232529,-74.15092566988817,2554.173,0,185.9765625,4,50,-9999,1561841868.239283,12.06858062744141,-14.73533630371094,21.63323974609375,204.8147735595703,212.3078765869141,15,169684.5589807917,-0.423370361328125,-1.312606811523438,-0.1848602294921875,169684.5397547917,-1.668320486965271,0.1416799036761065,0.9058076657632009,169684.5396017917,-62.34489440917969,-41.83587646484375,-541.5529174804688,169684.5549527917,0.1276258081136815,-1.245005357036347,1.408262086575899,-1.166031360626221,0.1061640903353691,0.6095479130744934,-0.2817660272121429,-0.3731802701950073,-0.121273398399353,1,0.5532076954841614,-0.4099577367305756,-0.3372081816196442,0.6420176029205322,-0.1533078402280807,-0.9868203401565552,-0.05179179832339287,0,0,0,-1,169682.5041445,3,2,1561841866.450643,1561841239.621676,50,1.74607,0,0,49.30045,0,0,1561841867.108182,169681.267742,0,-0.3195801,75.19597,0,182478453,3,1,0.98,-19.76068,-38.53276,3
1561841868.276878,107,0,0,1561841867.998114,4.634538288232529,-74.15092566988817,2554.173,0,185.9765625,4,50,-9999,1561841868.239283,12.06858062744141,-14.73533630371094,21.63323974609375,204.8147735595703,212.3078765869141,15,169684.5792447917,-0.37725830078125,-1.257217407226562,-0.166168212890625,169684.5599877917,-0.9486565961220308,0.08427360216668543,0.5382698637274363,169684.5597137917,-62.79415893554688,-42.64279174804688,-541.7073974609375,169684.5752167917,0.06834579340425025,-1.185630134383417,1.394260808067985,-0.2008831053972244,-0.01633839309215546,0.3690029382705688,-0.2324491739273071,-0.2952661514282227,-0.1153984665870667,1,0.5467972159385681,-0.4099041521549225,-0.3367606997489929,0.6477527618408203,-0.1627534627914429,-0.9844580292701721,-0.06598278135061264,0,0,0,-1,169682.5041445,3,2,1561841866.450643,1561841239.621676,50,1.74607,0,0,49.30045,0,0,1561841867.108182,169681.267742,0,-0.3195801,75.19597,0,182478453,3,1,0.98,-19.76068,-39.23017,3
1561841868.318464,108,0,0,1561841867.998114,4.634538288232529,-74.15092566988817,2554.173,0,185.9765625,4,50,-9999,1561841868.305408,11.55755233764648,-15.9749641418457,20.95013427734375,205.0409240722656,212.5340270996094,15,169684.5995077917,-0.3436279296875,-1.248992919921875,-0.1094970703125,169684.5802517917,0.06517101398365606,-0.03780943062807296,0.3403197630629367,169684.5798247917,-63.00518798828125,-42.84400939941406,-542.0521850585938,169684.5954497917,0.1121049624323085,-1.230122734715086,1.390222432994446,0.7055919170379639,-0.1276524066925049,0.3021709024906158,-0.1913231313228607,-0.2685022354125977,-0.07932174205780029,1,0.5471010804176331,-0.413131058216095,-0.3338369727134705,0.6469590067863464,-0.1692725867033005,-0.9837408065795898,-0.0600062720477581,0,0,0,-1,169682.5041445,3,2,1561841866.450643,1561841239.621676,50,1.74607,0,0,49.30045,0,0,1561841867.108182,169681.267742,0,-0.3195801,75.19597,0,182478453,3,1,0.98,-19.76068,-39.64532,3
1561841868.321014,109,0,0,1561841867.998114,4.634538288232529,-74.15092566988817,2554.173,0,185.9765625,4,50,-9999,1561841868.305408,11.55755233764648,-15.9749641418457,20.95013427734375,205.0409240722656,212.5340270996094,15,169684.6197717917,-0.3251190185546875,-1.249649047851562,-0.04339599609375,169684.6005157917,0.8437770513369662,-0.1466829180999293,0.3048099720361471,169684.5999357917,-62.72203063964844,-42.50650024414062,-541.8114624023438,169684.6157127917,0.2191394808858045,-1.338401898179748,1.389842488358335,1.013737559318542,-0.1238019987940788,0.254487544298172,-0.1608842313289642,-0.2599951028823853,-0.03980505466461182,1,0.5513121485710144,-0.4187253415584564,-0.3289727866649628,0.6422622799873352,-0.1751295924186707,-0.9836724996566772,-0.04144800454378128,0,0,0,-1,169682.5041445,3,2,1561841866.450643,1561841239.621676,50,1.74607,0,0,49.30045,0,0,1561841867.108182,169681.267742,0,-0.3195801,75.19597,0,182478453,3,1,0.98,-19.76068,-39.64532,3
1561841868.337166,110,0,0,1561841867.998114,4.634538288232529,-74.15092566988817,2554.173,0,185.9765625,4,50,-9999,1561841868.331845,11.71100234985352,-15.53782272338867,21.6182861328125,204.9020385742188,212.3951416015625,15,169684.6400357917,-0.29852294921875,-1.280593872070312,0.036285400390625,169684.6207787917,1.027568189749951,-0.0823502672274302,0.2450744698373428,169684.6200467917,-62.76174926757812,-42.20664978027344,-541.1979370117188,169684.6359767917,0.3360554815986039,-1.454496244251252,1.388737285607274,0.9933286309242249,0.008407433517277241,0.2161033749580383,-0.1311271488666534,-0.2840746641159058,0.01824736595153809,1,0.5567170977592468,-0.4237469136714935,-0.3234231173992157,0.6371044516563416,-0.1798317283391953,-0.983473002910614,-0.02100925333797932,0,0,0,-1,169682.5041445,3,2,1561841866.450643,1561841239.621676,50,1.74607,0,0,49.30045,0,0,1561841867.108182,169682.212249,0,-0.2800293,75.19559,0,182478453,3,1,0.98,-19.76068,-40.14859,3
1561841868.357523,111,0,0,1561841867.998114,4.634538288232529,-74.15092566988817,2554.173,0,185.9765625,4,50,-9999,1561841868.355867,11.52695846557617,-15.2163200378418,21.88836669921875,204.6552276611328,212.1483306884766,15,169684.6602997917,-0.2654571533203125,-1.282257080078125,0.108795166015625,169684.6410427917,0.9761438806810656,0.02889929256899485,0.2023272722321539,169684.6401577917,-62.65806579589844,-41.73699951171875,-541.0673828125,169684.6562407917,0.4434127162669109,-1.559958972616411,1.386377599047731,0.9236361384391785,-0.04283258318901062,0.1445197314023972,-0.09571903944015503,-0.2994735240936279,0.07638907432556152,1,0.5621132850646973,-0.427825927734375,-0.3181320428848267,0.632286012172699,-0.1833641976118088,-0.9830430150032043,-0.001987260533496737,0,0,0,-1,169682.5041445,3,2,1561841866.450643,1561841239.621676,50,1.74607,0,0,49.30045,0,0,1561841867.108182,169682.212249,0,-0.2800293,75.19559,0,182478453,3,1,0.98,-19.76068,-40.51402,3
1561841868.404364,112,0,0,1561841867.998114,4.634538288232529,-74.15092566988817,2554.173,0,185.9765625,4,50,-9999,1561841868.383263,11.40659713745117,-14.87202835083008,22.10302734375,204.6792144775391,212.1723175048828,15,169684.6805627917,-0.2518768310546875,-1.271820068359375,0.1360626220703125,169684.6613067917,0.9056510718911043,-0.08479957648197609,0.1402431282680087,169684.6602687917,-63.10537719726562,-41.6375732421875,-540.8753662109375,169684.6765037917,0.5382988209412841,-1.655950981068876,1.383225114678444,0.7900399565696716,-0.2118037641048431,0.09593889117240906,-0.07888105511665344,-0.2961654663085938,0.1090943813323975,1,0.566699206829071,-0.432182788848877,-0.3143256306648254,0.6271120309829712,-0.1857978850603104,-0.9824600219726562,0.01585990749299526,0,0,0,-1,169682.5041445,3,2,1561841866.450643,1561841239.621676,50,1.74607,0,0,49.30045,0,0,1561841867.108182,169682.212249,0,-0.2800293,75.19559,0,182478453,3,1,0.98,-19.76068,-42.13582,3
1561841868.407071,113,0,0,1561841867.998114,4.634538288232529,-74.15092566988817,2554.173,0,185.9765625,4,50,-9999,1561841868.383263,11.40659713745117,-14.87202835083008,22.10302734375,204.6792144775391,212.1723175048828,15,169684.7008267917,-0.2525787353515625,-1.2265625,0.142242431640625,169684.7018337917,0.2503070487471305,-0.1174225008871197,0.03335795686600551,169684.6804107917,-62.88955688476562,-41.32344055175781,-540.406494140625,169684.6967677917,0.6028078834676479,-1.723494983384402,1.380253909682841,0.3833606243133545,-0.1638218611478806,0.04746243357658386,-0.06212505698204041,-0.2744154930114746,0.1137857437133789,1,0.5695873498916626,-0.4358601570129395,-0.3123535513877869,0.6229217648506165,-0.1871882975101471,-0.9819016456604004,0.02880765125155449,0,0,0,-1,169682.5041445,3,2,1561841866.450643,1561841239.621676,50,1.74607,0,0,49.30045,0,0,1561841867.108182,169682.212249,0,-0.2800293,75.19559,0,182478453,3,1,0.98,-19.76068,-42.13582,3
1561841868.418301,114,0,0,1561841867.998114,4.634538288232529,-74.15092566988817,2554.173,0,185.9765625,4,50,-9999,1561841868.406798,11.57535171508789,-14.63723373413086,22.408935546875,204.7955780029297,212.2886810302734,15,169684.7210907917,-0.240875244140625,-1.183929443359375,0.129852294921875,169684.7018337917,0.2503070487471305,-0.1174225008871197,0.03335795686600551,169684.7005217917,-62.63333129882812,-40.98269653320312,-540.3446044921875,169684.7170317917,0.6150397357794222,-1.737098040020051,1.379615587145264,-0.1151713877916336,-0.001769303344190121,-0.02249001897871494,-0.05837640166282654,-0.2204594612121582,0.1054469347000122,1,0.5700260400772095,-0.4368040561676025,-0.3122042417526245,0.6219333410263062,-0.187396913766861,-0.9817805290222168,0.03145493939518929,0,0,0,-1,169682.5041445,3,2,1561841866.450643,1561841239.621676,50,1.74607,0,0,49.30045,0,0,1561841867.108182,169682.212249,0,-0.2800293,75.19559,0,182478453,3,1,0.98,-19.76068,-42.2757,3
1561841868.43847,115,0,0,1561841867.998114,4.634538288232529,-74.15092566988817,2554.173,0,185.9765625,4,50,-9999,1561841868.432903,11.86632537841797,-14.68091201782227,22.3385009765625,204.8489990234375,212.3421020507812,15,169684.7413537917,-0.2127227783203125,-1.136627197265625,0.0906524658203125,169684.7220977917,-0.1934834468842188,0.02089116717112658,-0.03466450369679839,169684.7206327917,-62.64503479003906,-40.9495849609375,-540.53857421875,169684.7372947917,0.5916162443251733,-1.714077795851104,1.380989170491581,-0.2782039940357208,-0.03309313952922821,-0.01476498786360025,-0.04069614410400391,-0.1785581111907959,0.09001815319061279,1,0.5687462687492371,-0.435887485742569,-0.3134103417396545,0.6231402158737183,-0.1867361217737198,-0.9820406436920166,0.02694043703377247,0,0,0,-1,169682.5041445,3,2,1561841866.450643,1561841239.621676,50,1.74607,0,0,49.30045,0,0,1561841867.108182,169682.212249,0,-0.2800293,75.19559,0,182478453,3,1,0.98,-19.76068,-42.29319,3
1561841868.487018,116,0,0,1561841867.998114,4.634538288232529,-74.15092566988817,2554.173,0,185.9765625,4,50,-9999,1561841868.457837,11.83260726928711,-14.61430740356445,22.005615234375,204.999267578125,212.4923706054688,15,169684.7615867917,-0.208099365234375,-1.087692260742188,0.0472259521484375,169684.7423607917,-0.2677531507321306,-0.04390540636326434,0.008248076212084409,169684.7407437917,-62.63369750976562,-41.26177978515625,-540.9033203125,169684.7575587917,0.5647372587751176,-1.688890987692563,1.381259696913345,-0.2094659358263016,-0.07048364728689194,0.04048415273427963,-0.01926824450492859,-0.1323645114898682,0.04254531860351562,1,0.5668928027153015,-0.4355817437171936,-0.3147338926792145,0.6243746280670166,-0.1870916187763214,-0.9820916652679443,0.02219781093299389,0,0,0,-1,169682.5041445,3,2,1561841866.450643,1561841239.621676,50,1.74607,0,0,49.30045,0,0,1561841867.108182,169682.212249,0,-0.2800293,75.19559,0,182478453,3,1,0.98,-19.76068,-38.01076,3
1561841868.489548,117,0,0,1561841867.998114,4.634538288232529,-74.15092566988817,2554.173,0,185.9765625,4,50,-9999,1561841868.457837,11.83260726928711,-14.61430740356445,22.005615234375,204.999267578125,212.4923706054688,15,169684.7818507917,-0.2318878173828125,-1.037063598632812,0.02716064453125,169684.7625937917,-0.1876969304676946,-0.05505952395684321,0.04100868604558515,169684.7608547917,-62.62234497070312,-41.12713623046875,-540.835205078125,169684.7778227917,0.5446833976872447,-1.670066564697039,1.381155455502791,-0.1817938387393951,-0.007221060805022717,-0.001621222938410938,-0.03414705395698547,-0.07974135875701904,0.01459705829620361,1,0.5654736161231995,-0.435408741235733,-0.3156352639198303,0.6253265142440796,-0.1875784397125244,-0.9820719957351685,0.01868236437439919,0,0,0,-1,169682.5041445,3,2,1561841866.450643,1561841239.621676,50,1.74607,0,0,49.30045,0,0,1561841867.108182,169682.212249,0,-0.2800293,75.19559,0,182478453,3,1,0.98,-19.76068,-38.01076,3
1561841868.499452,118,0,0,1561841867.998114,4.634538288232529,-74.15092566988817,2554.173,0,185.9765625,4,50,-9999,1561841868.487843,11.8235969543457,-14.75666809082031,22.1712646484375,205.085205078125,212.5783081054688,15,169684.8021147917,-0.2245025634765625,-0.9951934814453125,0.02191162109375,169684.7828577917,-0.1884061302659827,0.01600053814530507,-0.01748391887247921,169684.7809657917,-62.86482238769531,-41.26585388183594,-540.8013305664062,169684.7980557917,0.5243916111408415,-1.649750225889304,1.382330458374323,-0.1895380318164825,0.03446193784475327,-0.07876874506473541,-0.04630884528160095,-0.03029567003250122,0.008202791213989258,1,0.5644940137863159,-0.4344363510608673,-0.3166347742080688,0.6263817548751831,-0.1867691427469254,-0.9822928309440613,0.0147768696770072,0,0,0,-1,169682.5041445,3,2,1561841866.450643,1561841239.621676,50,1.74607,0,0,49.30045,0,0,1561841867.108182,169682.212249,0,-0.2800293,75.19559,0,182478453,3,1,0.98,-19.76068,-38.01076,3
1561841868.519477,119,0,0,1561841867.998114,4.634538288232529,-74.15092566988817,2554.173,0,185.9765625,4,50,-9999,1561841868.487843,11.8235969543457,-14.75666809082031,22.1712646484375,205.085205078125,212.5783081054688,15,169684.8223777917,-0.2115631103515625,-0.995758056640625,0.0157623291015625,169684.8031217917,-0.1705075572117782,0.04213813266388775,-0.08847314088963137,169684.8010767917,-62.5255126953125,-41.32855224609375,-541.1171875,169684.8183197917,0.5097543211611473,-1.634692868893991,1.384684740789112,-0.08059956133365631,0.02875904366374016,-0.1377516388893127,-0.03428640961647034,-0.01076853275299072,0.008967161178588867,1,0.5641639232635498,-0.4331590235233307,-0.3177450001239777,0.6270012259483337,-0.184661939740181,-0.9827311635017395,0.01181534398347139,0,0,0,-1,169682.5041445,3,2,1561841866.450643,1561841239.621676,50,1.74607,0,0,49.30045,0,0,1561841867.108182,169682.212249,0,-0.2800293,75.19559,0,182478453,3,1,0.98,-19.76068,-38.69613,3
1561841868.565301,120,0,0,1561841867.998114,4.634538288232529,-74.15092566988817,2554.173,0,185.9765625,4,50,-9999,1561841868.534283,11.86130523681641,-15.01046752929688,21.8465576171875,205.0687713623047,212.5618743896484,15,169684.8426417917,-0.1973114013671875,-0.9868927001953125,0.0036773681640625,169684.8233847917,-0.04315013387811786,0.03390363857336275,-0.1414998739864171,169684.8212187917,-62.29360961914062,-41.4794921875,-540.8953857421875,169684.8385827917,0.5084019932938635,-1.632922014393265,1.387620888082625,0.01841996237635612,0.01372603233903646,-0.1367308497428894,-0.02452787756919861,-0.009542882442474365,-0.0006279945373535156,1,0.5647290945053101,-0.4321291446685791,-0.3186277449131012,0.6267549991607666,-0.1818014830350876,-0.9832702279090881,0.01130909565836191,0,0,0,-1,169682.5041445,3,2,1561841866.450643,1561841239.621676,50,1.74607,0,0,49.30045,0,0,1561841867.108182,169682.212249,0,-0.2800293,75.19559,0,182478453,3,1,0.98,-19.76068,-39.07671,3
1561841868.569432,121,0,0,1561841867.998114,4.634538288232529,-74.15092566988817,2554.173,0,185.9765625,4,50,-9999,1561841868.534283,11.86130523681641,-15.01046752929688,21.8465576171875,205.0687713623047,212.5618743896484,15,169684.8629057917,-0.1767425537109375,-0.95855712890625,1.52587890625e-05,169684.8436487917,0.02602467648836332,0.01656725882527393,-0.123884661272197,169684.8413297917,-62.39926147460938,-41.33053588867188,-540.8753051757812,169684.8588467917,0.5109549712191372,-1.635224074104211,1.389786658725461,0.0003440214786678553,0.01200829353183508,-0.06999841332435608,-0.006461441516876221,0.008976757526397705,-0.01023244857788086,1,0.5653369426727295,-0.4314966797828674,-0.3191847801208496,0.6263592839241028,-0.1796500086784363,-0.9836624264717102,0.01159048639237881,0,0,0,-1,169682.5041445,3,2,1561841866.450643,1561841239.621676,50,1.74607,0,0,49.30045,0,0,1561841867.108182,169682.212249,0,-0.2800293,75.19559,0,182478453,3,1,0.98,-19.76068,-39.07671,3
1561841868.580696,122,0,0,1561841867.998114,4.634538288232529,-74.15092566988817,2554.173,0,185.9765625,4,50,-9999,1561841868.534283,11.86130523681641,-15.01046752929688,21.8465576171875,205.0687713623047,212.5618743896484,15,169684.8831687917,-0.1680908203125,-0.927276611328125,-0.001739501953125,169684.8639127917,-0.009139702545042937,0.0199673165889781,-0.04407957709855552,169684.8614407917,-62.59043884277344,-41.43429565429688,-540.883056640625,169684.8791107917,0.5091560912116776,-1.633094655165622,1.390298765498065,-0.0272684320807457,0.02080231904983521,0.02322101034224033,0.007586121559143066,0.04185998439788818,-0.0124582052230835,1,0.5653889775276184,-0.431188553571701,-0.3193134367465973,0.6264588832855225,-0.1791712045669556,-0.9837545156478882,0.011176529340446,0,0,0,-1,169682.5041445,3,2,1561841866.450643,1561841239.621676,50,1.74607,0,0,49.30045,0,0,1561841867.108182,169682.212249,0,-0.2800293,75.19559,0,182478453,3,1,0.98,-19.76068,-39.2902,3
1561841868.600655,123,0,0,1561841867.998114,4.634538288232529,-74.15092566988817,2554.173,0,185.9765625,4,50,-9999,1561841868.585221,12.0360221862793,-14.94614028930664,22.02777099609375,205.0513153076172,212.5444183349609,15,169684.9034327917,-0.1759033203125,-0.9211273193359375,0.00262451171875,169684.9044397917,0.06451534372327855,-0.008853146411750411,0.05992032557845584,169684.8815517917,-62.46051025390625,-41.40983581542969,-540.6964111328125,169684.8993737917,0.5087012325334392,-1.632369880322226,1.38917331873403,0.03832282871007919,0.000945522915571928,0.06427016854286194,0.0121777355670929,0.06372147798538208,-0.01079440116882324,1,0.5651861429214478,-0.4314185976982117,-0.3188843131065369,0.6267020106315613,-0.1802838146686554,-0.9835518598556519,0.01111476495862007,0,0,0,-1,169682.5041445,3,2,1561841866.450643,1561841239.621676,50,1.74607,0,0,49.30045,0,0,1561841867.108182,169682.212249,0,-0.2800293,75.19559,0,182478453,1,1,0.98,-19.76068,-39.2902,3
