loggingTime,loggingSample,identifierForVendor,deviceID,locationTimestamp_since1970,locationLatitude,locationLongitude,locationAltitude,locationSpeed,locationCourse,locationVerticalAccuracy,locationHorizontalAccuracy,locationFloor,locationHeadingTimestamp_since1970,locationHeadingX,locationHeadingY,locationHeadingZ,locationTrueHeading,locationMagneticHeading,locationHeadingAccuracy,accelerometerTimestamp_sinceReboot,accelerometerAccelerationX,accelerometerAccelerationY,accelerometerAccelerationZ,gyroTimestamp_sinceReboot,gyroRotationX,gyroRotationY,gyroRotationZ,magnetometerTimestamp_sinceReboot,magnetometerX,magnetometerY,magnetometerZ,motionTimestamp_sinceReboot,motionYaw,motionRoll,motionPitch,motionRotationRateX,motionRotationRateY,motionRotationRateZ,motionUserAccelerationX,motionUserAccelerationY,motionUserAccelerationZ,motionAttitudeReferenceFrame,motionQuaternionX,motionQuaternionY,motionQuaternionZ,motionQuaternionW,motionGravityX,motionGravityY,motionGravityZ,motionMagneticFieldX,motionMagneticFieldY,motionMagneticFieldZ,motionMagneticFieldCalibrationAccuracy,activityTimestamp_sinceReboot,activity,activityActivityConfidence,activityActivityStartDate,pedometerStartDate,pedometerNumberofSteps,pedometerAverageActivePace,pedometerCurrentPace,pedometerCurrentCadence,pedometerDistance,pedometerFloorAscended,pedometerFloorDescended,pedometerEndDate,altimeterTimestamp_sinceReboot,altimeterReset,altimeterRelativeAltitude,altimeterPressure,IP_en0,IP_pdp_ip0,deviceOrientation,batteryState,batteryLevel,avAudioRecorderPeakPower,avAudioRecorderAveragePower,label
1561241873.612401,1,0,0,1561241868.58598,4.603056527952023,-74.06478126190531,2651.017,-1,-1,10,65,-9999,1561241873.580829,-26.79504013061523,-4.203161239624023,-5.69464111328125,264.0401916503906,271.5838928222656,15,64333.96136529167,-0.6902313232421875,0.6757049560546875,-0.252105712890625,64333.95224029167,-0.007797469355643002,0.02092978300693273,0.01810603330312172,64333.94030829167,10.9580078125,-3.279464721679688,-538.9688720703125,64333.94210829167,-1.917092034795481,-1.245572170053891,-0.747672636386684,-0.02023912779986858,0.02487995289266109,0.00684422766789794,0.006449580192565918,-0.00654834508895874,-0.01716846227645874,1,0.6148539185523987,0.06932859122753143,0.4963838756084442,-0.6088935732841492,-0.6948345899581909,0.679934024810791,-0.2342964112758636,0,0,0,-1,64333.71064804167,2,0,1561241873.373563,1561241546.732582,16,16.27515,0,0,14.2948,0,0,1561241691.513234,64330.654014,0,-1.13623,74.44052,2650659446,177292352,1,1,0.2,-32.14124,-32.14124,3
1561241873.615575,2,0,0,1561241868.58598,4.603056527952023,-74.06478126190531,2651.017,-1,-1,10,65,-9999,1561241873.60905,-26.80268478393555,-4.180356979370117,-5.73974609375,264.0873107910156,271.6310119628906,15,64333.98162929167,-0.6946258544921875,0.667327880859375,-0.2442169189453125,64333.97250429167,0.04305133060167592,-0.009236108976503806,0.01554460496668351,64333.96045029167,10.80320739746094,-3.26214599609375,-539.4154663085938,64333.98263629167,-1.916107639694118,-1.244920176472944,-0.7479594311357352,0.043556097894907,-0.01538118161261082,0.01084988936781883,0.001137435436248779,-0.007552146911621094,-0.01390922069549561,1,0.6146953701972961,0.06932631880044937,0.4962049126625061,-0.6091996431350708,-0.6944968700408936,0.6801443099975586,-0.2346869260072708,0,0,0,-1,64333.71064804167,2,0,1561241873.373563,1561241546.732582,16,16.27515,0,0,14.2948,0,0,1561241691.513234,64330.654014,0,-1.13623,74.44052,2650659446,177292352,1,1,0.2,-32.14124,-32.14124,3
1561241873.640312,3,0,0,1561241868.58598,4.603056527952023,-74.06478126190531,2651.017,-1,-1,10,65,-9999,1561241873.60905,-26.80268478393555,-4.180356979370117,-5.73974609375,264.0873107910156,271.6310119628906,15,64334.00189229167,-0.694580078125,0.6628570556640625,-0.233367919921875,64333.99276829167,0.03818227318068405,0.008829177961939699,0.004809935244792112,64333.98059129167,10.70738220214844,-3.2447509765625,-538.9107055664062,64333.98263629167,-1.916107639694118,-1.244920176472944,-0.7479594311357352,0.043556097894907,-0.01538118161261082,0.01084988936781883,0.001137435436248779,-0.007552146911621094,-0.01390922069549561,1,0.6146953701972961,0.06932631880044937,0.4962049126625061,-0.6091996431350708,-0.6944968700408936,0.6801443099975586,-0.2346869260072708,0,0,0,-1,64333.71064804167,2,0,1561241873.373563,1561241546.732582,16,16.27515,0,0,14.2948,0,0,1561241691.513234,64330.654014,0,-1.13623,74.44052,2650659446,177292352,1,1,0.2,-32.14124,-32.74223,3
1561241873.654523,4,0,0,1561241868.58598,4.603056527952023,-74.06478126190531,2651.017,-1,-1,10,65,-9999,1561241873.60905,-26.80268478393555,-4.180356979370117,-5.73974609375,264.0873107910156,271.6310119628906,15,64334.02215629167,-0.6907958984375,0.67156982421875,-0.2345733642578125,64334.01303129167,0.00552605926191442,0.03793726236039677,-0.006178267412874825,64334.00070229167,10.68693542480469,-3.333236694335938,-539.119140625,64334.00289929167,-1.915204620020293,-1.244258371767527,-0.7477029185886424,0.01935728453099728,0.0196380540728569,-0.009062833152711391,-7.355213165283203e-05,-0.01709914207458496,0.001834511756896973,1,0.6144663691520691,0.06949722766876221,0.4962043166160583,-0.6094115972518921,-0.6945065855979919,0.6799561977386475,-0.235202431678772,0,0,0,-1,64333.71064804167,2,0,1561241873.373563,1561241546.732582,16,16.27515,0,0,14.2948,0,0,1561241691.513234,64330.654014,0,-1.13623,74.44052,2650659446,177292352,1,1,0.2,-32.14124,-32.8784,3
1561241873.674741,5,0,0,1561241868.58598,4.603056527952023,-74.06478126190531,2651.017,-1,-1,10,65,-9999,1561241873.654515,-26.74911117553711,-4.179092407226562,-5.6920166015625,264.0531616210938,271.5968627929688,15,64334.04242029167,-0.688720703125,0.6823272705078125,-0.2372283935546875,64334.03329529167,0.0002873550816195498,0.02252954387374333,0.01033652713892455,64334.02084429167,10.95724487304688,-3.34503173828125,-539.0137939453125,64334.02316329167,-1.915116858150854,-1.243610786062738,-0.7475120231156394,-0.006178169511258602,0.02601419575512409,0.0012649055570364,0.00368112325668335,-0.008246421813964844,0.001120507717132568,1,0.6142776608467102,0.06939761340618134,0.4964294731616974,-0.6094298362731934,-0.6944770216941833,0.6798162460327148,-0.2356938570737839,0,0,0,-1,64333.71064804167,2,0,1561241873.373563,1561241546.732582,16,16.27515,0,0,14.2948,0,0,1561241691.513234,64331.603309,0,-1.202393,74.44113,2650659446,177292352,1,1,0.2,-32.14124,-32.97124,3
1561241873.694887,6,0,0,1561241868.58598,4.603056527952023,-74.06478126190531,2651.017,-1,-1,10,65,-9999,1561241873.67886,-26.64411735534668,-4.188614845275879,-5.6097412109375,264.0657958984375,271.6094970703125,15,64334.06268329167,-0.6995697021484375,0.682861328125,-0.233917236328125,64334.05355929167,0.02769261427907995,-0.007548996425938609,0.01017407431242971,64334.04098529167,10.73861694335938,-3.217666625976562,-538.981201171875,64334.04342729167,-1.91504215386486,-1.243254504692658,-0.7476538753724645,0.01263706386089325,-0.005650257226079702,0.008265556767582893,0.005581021308898926,0.0024070143699646,-0.001318156719207764,1,0.6142051815986633,0.06925942748785019,0.496476799249649,-0.609480082988739,-0.6943017244338989,0.6799202561378479,-0.2359102517366409,0,0,0,-1,64333.71064804167,2,0,1561241873.373563,1561241546.732582,16,16.27515,0,0,14.2948,0,0,1561241691.513234,64331.603309,0,-1.202393,74.44113,2650659446,177292352,1,1,0.2,-32.14124,-32.97124,3
1561241873.726417,7,0,0,1561241868.58598,4.603056527952023,-74.06478126190531,2651.017,-1,-1,10,65,-9999,1561241873.705661,-26.48969268798828,-4.183259963989258,-5.536376953125,264.0274047851562,271.5711059570312,15,64334.08291729167,-0.6937713623046875,0.6781158447265625,-0.2373046875,64334.07382229167,0.0261077671143738,0.006560963661519211,-0.004735366734269894,64334.06112729167,10.99444580078125,-3.271957397460938,-538.8047485351562,64334.06369029167,-1.91433204123224,-1.243047768644548,-0.7475982770423528,0.03200836479663849,-0.01835992746055126,-0.000921283382922411,-0.005280971527099609,0.002981841564178467,0.002148687839508057,1,0.6141219735145569,0.06943507492542267,0.4963392615318298,-0.6096559166908264,-0.6942887306213379,0.6798794865608215,-0.2360659390687943,0,0,0,-1,64333.71064804167,2,0,1561241873.373563,1561241546.732582,16,16.27515,0,0,14.2948,0,0,1561241691.513234,64331.603309,0,-1.202393,74.44113,2650659446,177292352,1,1,0.2,-32.14124,-34.40407,3
1561241873.735532,8,0,0,1561241868.58598,4.603056527952023,-74.06478126190531,2651.017,-1,-1,10,65,-9999,1561241873.730336,-26.56098937988281,-4.206880569458008,-5.66009521484375,264.0309143066406,271.5746154785156,15,64334.10318029167,-0.6857452392578125,0.6793670654296875,-0.240966796875,64334.09405529167,0.01452727743027324,0.03057308931410966,0.003132143758042192,64334.08126929167,10.60865783691406,-3.162551879882812,-538.9652709960938,64334.08392429167,-1.913783810407826,-1.242683302439364,-0.7473337112605059,0.01207513641566038,0.018915805965662,-0.001458176644518971,0.0006015300750732422,-0.001569628715515137,-0.0009277462959289551,1,0.6139777898788452,0.06959032267332077,0.4963574111461639,-0.6097686290740967,-0.694372832775116,0.6796854734420776,-0.2363769263029099,0,0,0,-1,64333.71064804167,2,0,1561241873.373563,1561241546.732582,16,16.27515,0,0,14.2948,0,0,1561241691.513234,64331.603309,0,-1.202393,74.44113,2650659446,177292352,1,1,0.2,-32.14124,-34.40407,3
1561241873.755876,9,0,0,1561241868.58598,4.603056527952023,-74.06478126190531,2651.017,-1,-1,10,65,-9999,1561241873.730336,-26.56098937988281,-4.206880569458008,-5.66009521484375,264.0309143066406,271.5746154785156,15,64334.12344429167,-0.6822662353515625,0.6791534423828125,-0.2435760498046875,64334.11431929167,0.02391598553723858,0.001641572495924842,0.0157797620909375,64334.10141029167,10.69406127929688,-3.229766845703125,-539.2208862304688,64334.10418729167,-1.913452198725332,-1.242049257129732,-0.7472506250582335,0.01663979515433311,0.01378948614001274,0.006488962564617395,0.008531093597412109,-0.0002574324607849121,-0.00413137674331665,1,0.6137979626655579,0.06952960044145584,0.4964739978313446,-0.6098617315292358,-0.6942763328552246,0.6796244978904724,-0.236835390329361,0,0,0,-1,64333.71064804167,2,0,1561241873.373563,1561241546.732582,16,16.27515,0,0,14.2948,0,0,1561241691.513234,64331.603309,0,-1.202393,74.44113,2650659446,177292352,1,1,0.2,-32.14124,-34.97462,3
1561241873.775948,10,0,0,1561241868.58598,4.603056527952023,-74.06478126190531,2651.017,-1,-1,10,65,-9999,1561241873.755891,-26.59807395935059,-4.175365447998047,-5.66400146484375,264.0125427246094,271.5562438964844,15,64334.14370829167,-0.6891937255859375,0.6713714599609375,-0.2442474365234375,64334.13458329167,0.03248950003453067,-0.03865738111915419,0.02763562263175225,64334.12152129167,10.71023559570312,-3.045745849609375,-539.0357055664062,64334.12445129167,-1.912778365625379,-1.241742669741451,-0.7473880126443827,0.02781441807746887,-0.02978595346212387,0.02402401342988014,0.01184910535812378,-0.0005718469619750977,-0.006558001041412354,1,0.6137164831161499,0.06959197670221329,0.4963244795799255,-0.6100583076477051,-0.6941153407096863,0.6797252893447876,-0.2370180636644363,0,0,0,-1,64333.71064804167,2,0,1561241873.373563,1561241546.732582,16,16.27515,0,0,14.2948,0,0,1561241691.513234,64331.603309,0,-1.202393,74.44113,2650659446,177292352,1,1,0.2,-32.14124,-35.14136,3
1561241873.808511,11,0,0,1561241868.58598,4.603056527952023,-74.06478126190531,2651.017,-1,-1,10,65,-9999,1561241873.806555,-26.66984939575195,-4.027271747589111,-5.5499267578125,263.9137573242188,271.4574584960938,15,64334.16397129167,-0.6958465576171875,0.662750244140625,-0.2415008544921875,64334.15484629167,0.02570270031257274,-0.02140675515816592,0.002095375145674345,64334.14166329167,10.94331359863281,-3.4169921875,-539.0472412109375,64334.14471529167,-1.911858844490606,-1.241974787524435,-0.7476360188897888,0.02525884844362736,-0.0447009839117527,0.01451226882636547,0.004816949367523193,-0.008535683155059814,-0.007444977760314941,1,0.6137746572494507,0.06985301524400711,0.4959038197994232,-0.6103118658065796,-0.6940106153488159,0.6799071431159973,-0.2368024587631226,0,0,0,-1,64333.71064804167,2,0,1561241873.373563,1561241546.732582,16,16.27515,0,0,14.2948,0,0,1561241691.513234,64331.603309,0,-1.202393,74.44113,2650659446,177292352,1,1,0.2,-32.14124,-35.56796,3
1561241873.817155,12,0,0,1561241868.58598,4.603056527952023,-74.06478126190531,2651.017,-1,-1,10,65,-9999,1561241873.806555,-26.66984939575195,-4.027271747589111,-5.5499267578125,263.9137573242188,271.4574584960938,15,64334.18423529167,-0.6966705322265625,0.6580352783203125,-0.2363433837890625,64334.17511029167,0.01073520235410941,0.03395450495018326,-1.304948934138827e-05,64334.16180429167,10.67375183105469,-3.18377685546875,-538.7645263671875,64334.16497829167,-1.911268170381511,-1.24213864572684,-0.7475103406834505,0.02286999300122261,-0.005925894249230623,-0.002218509092926979,-0.001716196537017822,-0.01706475019454956,-0.004784524440765381,1,0.6137780547142029,0.07013086974620819,0.495708167552948,-0.6104355454444885,-0.6941303610801697,0.6798149943351746,-0.2367163151502609,0,0,0,-1,64333.71064804167,2,0,1561241873.373563,1561241546.732582,16,16.27515,0,0,14.2948,0,0,1561241691.513234,64331.603309,0,-1.202393,74.44113,2650659446,177292352,1,1,0.2,-32.14124,-36.48358,3
1561241873.836786,13,0,0,1561241868.58598,4.603056527952023,-74.06478126190531,2651.017,-1,-1,10,65,-9999,1561241873.831789,-26.66439437866211,-4.072268962860107,-5.73541259765625,263.968505859375,271.51220703125,15,64334.20449929167,-0.6852874755859375,0.657257080078125,-0.2337188720703125,64334.19537429167,0.002906840329821489,0.06634813118547109,-0.01297092608923093,64334.18194629167,10.87657165527344,-3.246292114257812,-538.974609375,64334.18524229167,-1.911091530414927,-1.241492053954444,-0.747391463580419,-0.005014901049435139,0.05298429355025291,-0.006674776785075665,-0.00261688232421875,-0.02169251441955566,0.0008478760719299316,1,0.6135959029197693,0.07003176957368851,0.4958856701850891,-0.6104859113693237,-0.6940536499023438,0.6797277927398682,-0.2371912449598312,0,0,0,-1,64333.71064804167,2,0,1561241873.373563,1561241546.732582,16,16.27515,0,0,14.2948,0,0,1561241691.513234,64331.603309,0,-1.202393,74.44113,2650659446,177292352,1,1,0.2,-32.14124,-36.89249,3
1561241873.857195,14,0,0,1561241868.58598,4.603056527952023,-74.06478126190531,2651.017,-1,-1,10,65,-9999,1561241873.831789,-26.66439437866211,-4.072268962860107,-5.73541259765625,263.968505859375,271.51220703125,15,64334.22476229167,-0.6784210205078125,0.6619110107421875,-0.2346954345703125,64334.21563729167,0.03824672167906397,0.01561145031004449,-0.006036853558991617,64334.20205729167,10.7242431640625,-3.143173217773438,-538.9315795898438,64334.20550629167,-1.911121660891413,-1.240418832567035,-0.7471271463795095,0.01708544418215752,0.03935196623206139,-0.01389802806079388,0.008681237697601318,-0.02227681875228882,0.00427544116973877,1,0.61329585313797,0.06979291886091232,0.4962974488735199,-0.6104802489280701,-0.6939687132835388,0.6795338988304138,-0.2379942834377289,0,0,0,-1,64333.71064804167,2,0,1561241873.373563,1561241546.732582,16,16.27515,0,0,14.2948,0,0,1561241691.513234,64331.603309,0,-1.202393,74.44113,2650659446,177292352,1,1,0.2,-32.14124,-36.89249,3
1561241873.892779,15,0,0,1561241868.58598,4.603056527952023,-74.06478126190531,2651.017,-1,-1,10,65,-9999,1561241873.857199,-26.71296691894531,-4.220862865447998,-5.8089599609375,263.960205078125,271.50390625,15,64334.24502629167,-0.685791015625,0.6690521240234375,-0.24261474609375,64334.23590129167,0.02632854316874136,-0.06227455998208589,-0.01205639657089772,64334.22219929167,10.56526184082031,-3.119949340820312,-538.8593139648438,64334.22576929167,-1.910333842942597,-1.239739930369438,-0.7467241876683655,0.03970766812562943,-0.03016479313373566,-0.01049823686480522,0.01564484834671021,-0.01732718944549561,0.00385892391204834,1,0.6130465865135193,0.06997650116682053,0.4963768422603607,-0.6106449961662292,-0.6940658688545227,0.6792382597923279,-0.2385543435811996,0,0,0,-1,64333.71064804167,2,0,1561241873.373563,1561241546.732582,16,16.27515,0,0,14.2948,0,0,1561241691.513234,64331.603309,0,-1.202393,74.44113,2650659446,177292352,1,1,0.2,-32.12312,-37.81724,3
1561241873.89971,16,0,0,1561241868.58598,4.603056527952023,-74.06478126190531,2651.017,-1,-1,10,65,-9999,1561241873.857199,-26.71296691894531,-4.220862865447998,-5.8089599609375,263.960205078125,271.50390625,15,64334.26529029167,-0.70062255859375,0.6803131103515625,-0.250152587890625,64334.25616529167,-0.0182903240505552,-0.06072699707264084,-0.01555499129493482,64334.24234029167,10.72036743164062,-2.914337158203125,-539.2025146484375,64334.24603329167,-1.909851127628682,-1.240735906053834,-0.7463110636211449,0.001637777779251337,-0.08596121519804001,-0.01040049828588963,0.008777439594268799,-0.009882807731628418,-0.004660844802856445,1,0.613222062587738,0.07058163732290268,0.4960387051105499,-0.6106739044189453,-0.6945684552192688,0.6789349913597107,-0.2379538714885712,0,0,0,-1,64333.71064804167,2,0,1561241873.373563,1561241546.732582,16,16.27515,0,0,14.2948,0,0,1561241691.513234,64331.603309,0,-1.202393,74.44113,2650659446,177292352,1,1,0.2,-32.12312,-37.81724,3
1561241873.917719,17,0,0,1561241868.58598,4.603056527952023,-74.06478126190531,2651.017,-1,-1,10,65,-9999,1561241873.911152,-26.64781951904297,-4.040470123291016,-5.619384765625,263.871337890625,271.4150390625,15,64334.28555329167,-0.70599365234375,0.6841888427734375,-0.24658203125,64334.27642929167,0.0008295746795596827,0.005302087414238756,-0.0002269013248747511,64334.26248229167,10.93426513671875,-3.264694213867188,-538.8416748046875,64334.26629729167,-1.910414074841434,-1.242465921103471,-0.7460765282477921,-0.02017244696617126,-0.03976122662425041,-0.01249933522194624,-0.005492806434631348,0.001550376415252686,-0.01334935426712036,1,0.6136399507522583,0.07102395594120026,0.4957449734210968,-0.610441267490387,-0.6951297521591187,0.6787627339363098,-0.2368032187223434,0,0,0,-1,64333.71064804167,2,0,1561241873.373563,1561241546.732582,16,16.27515,0,0,14.2948,0,0,1561241691.513234,64331.603309,0,-1.202393,74.44113,2650659446,177292352,1,1,0.2,-32.12312,-38.40488,3
1561241873.937989,18,0,0,1561241868.58598,4.603056527952023,-74.06478126190531,2651.017,-1,-1,10,65,-9999,1561241873.932231,-26.74198150634766,-4.039564609527588,-5.53564453125,263.8499145507812,271.3936157226562,15,64334.30581729167,-0.696502685546875,0.6761322021484375,-0.235687255859375,64334.29669229167,0.04175623536357039,0.05088448631592599,0.009602293626389702,64334.28259329167,10.64750671386719,-2.855026245117188,-539.0490112304688,64334.28656029167,-1.91046242581226,-1.242568808317376,-0.7459873503861515,0.02221948653459549,0.02811262756586075,0.003058318980038166,-0.01078224182128906,0.005491554737091064,-0.009830832481384277,1,0.6136553883552551,0.07107356935739517,0.4957529306411743,-0.6104135513305664,-0.6952114701271057,0.6786972880363464,-0.2367512285709381,0,0,0,-1,64333.71064804167,2,0,1561241873.373563,1561241546.732582,16,16.27515,0,0,14.2948,0,0,1561241691.513234,64331.603309,0,-1.202393,74.44113,2650659446,177292352,1,1,0.2,-32.12312,-38.4161,3
1561241873.95846,19,0,0,1561241868.58598,4.603056527952023,-74.06478126190531,2651.017,-1,-1,10,65,-9999,1561241873.932231,-26.74198150634766,-4.039564609527588,-5.53564453125,263.8499145507812,271.3936157226562,15,64334.32608129167,-0.68328857421875,0.673126220703125,-0.2314453125,64334.31695629167,0.02960503025786585,0.05276920541937506,0.003631486462432049,64334.30273529167,10.43260192871094,-3.150253295898438,-539.1493530273438,64334.30682429167,-1.909503503592767,-1.241030145298217,-0.7458323700029256,0.03519627079367638,0.05464303866028786,0.001431926153600216,-0.001556932926177979,-0.002451241016387939,0.002167403697967529,1,0.6132193803787231,0.07095533609390259,0.4959750771522522,-0.610684871673584,-0.694945752620697,0.6785834431648254,-0.2378546595573425,0,0,0,-1,64333.71064804167,2,0,1561241873.373563,1561241546.732582,16,16.27515,0,0,14.2948,0,0,1561241691.513234,64331.603309,0,-1.202393,74.44113,2650659446,177292352,1,1,0.2,-32.12312,-36.36674,3
1561241873.979042,20,0,0,1561241868.58598,4.603056527952023,-74.06478126190531,2651.017,-1,-1,10,65,-9999,1561241873.958472,-26.91730880737305,-4.027872085571289,-5.53704833984375,263.8645629882812,271.4082641601562,15,64334.34634429167,-0.67901611328125,0.6719818115234375,-0.2401885986328125,64334.33722029167,0.04356052700209907,-0.03464000261476966,0.01429558241543634,64334.32287629167,10.51734924316406,-3.276229858398438,-539.0009155273438,64334.32708829167,-1.908728709706366,-1.239691859251903,-0.7456949096756141,0.02674179896712303,0.008942395448684692,0.009206492453813553,0.01142656803131104,-0.005356252193450928,0.007369518280029297,1,0.6128417253494263,0.07083505392074585,0.4961868226528168,-0.6109059453010559,-0.6947150826454163,0.6784824728965759,-0.2388148307800293,0,0,0,-1,64333.71064804167,2,0,1561241873.373563,1561241546.732582,16,16.27515,0,0,14.2948,0,0,1561241691.513234,64331.603309,0,-1.202393,74.44113,2650659446,177292352,1,1,0.2,-32.12312,-37.2821,3
1561241873.998859,21,0,0,1561241868.58598,4.603056527952023,-74.06478126190531,2651.017,-1,-1,10,65,-9999,1561241873.982763,-26.79927825927734,-4.205169677734375,-5.66998291015625,263.7806396484375,271.3243408203125,15,64334.36657729167,-0.69097900390625,0.672454833984375,-0.2438812255859375,64334.35748329167,0.02946175219121959,-0.08771919998502994,0.01809964171650553,64334.34301829167,10.6309814453125,-3.255691528320312,-539.0333862304688,64334.34735129167,-1.907641039386449,-1.239751270028948,-0.7456410792276289,0.03893881291151047,-0.07955444604158401,0.01139001827687025,0.0157477855682373,-0.006461143493652344,-0.001403152942657471,1,0.6128106713294983,0.07120644301176071,0.4958512783050537,-0.6111663579940796,-0.6947638988494873,0.6784428954124451,-0.238785445690155,0,0,0,-1,64333.71064804167,2,0,1561241873.373563,1561241546.732582,16,16.27515,0,0,14.2948,0,0,1561241691.513234,64331.603309,0,-1.202393,74.44113,2650659446,177292352,1,1,0.2,-32.12312,-37.52466,3
1561241874.019158,22,0,0,1561241868.58598,4.603056527952023,-74.06478126190531,2651.017,-1,-1,10,65,-9999,1561241874.009081,-26.87183570861816,-4.180070877075195,-5.60089111328125,263.6587524414062,271.2024536132812,15,64334.38684129167,-0.6976165771484375,0.6705474853515625,-0.2436065673828125,64334.37771629167,0.03500698621298258,-0.07600635119475245,0.009933590865995559,64334.36312929167,10.67137145996094,-3.154434204101562,-539.0057373046875,64334.36758529167,-1.906755330077537,-1.241018178971303,-0.7457157067427403,0.02767790108919144,-0.09256105870008469,0.01465105917304754,0.004038691520690918,-0.006042897701263428,-0.005992650985717773,1,0.6131028532981873,0.07183736562728882,0.495171457529068,-0.611350417137146,-0.6950176954269409,0.6784977316856384,-0.2378885746002197,0,0,0,-1,64333.71064804167,2,0,1561241873.373563,1561241546.732582,16,16.27515,0,0,14.2948,0,0,1561241691.513234,64331.603309,0,-1.202393,74.44113,2650659446,177292352,1,1,0.2,-32.12312,-37.52466,3
1561241874.043157,23,0,0,1561241868.58598,4.603056527952023,-74.06478126190531,2651.017,-1,-1,10,65,-9999,1561241874.034178,-26.85688781738281,-4.118860244750977,-5.50506591796875,263.55859375,271.102294921875,15,64334.40710529167,-0.6953125,0.6653900146484375,-0.2429046630859375,64334.39798029167,0.04013037551807701,-0.03829066383705028,-0.006703176463729443,64334.38327129167,10.49703979492188,-3.208297729492188,-538.85498046875,64334.38784829167,-1.905845632311852,-1.242059750815688,-0.7456451320907037,0.035345409065485,-0.06440798193216324,-0.004523966927081347,-0.002305865287780762,-0.007898449897766113,-0.006426513195037842,1,0.6133183240890503,0.07246094942092896,0.4945937395095825,-0.6115285754203796,-0.6953107118606567,0.6784458756446838,-0.237180083990097,0,0,0,-1,64333.71064804167,2,0,1561241873.373563,1561241546.732582,16,16.27515,0,0,14.2948,0,0,1561241691.513234,64331.603309,0,-1.202393,74.44113,2650659446,177292352,1,1,0.2,-32.12312,-37.11681,3
1561241874.059772,24,0,0,1561241868.58598,4.603056527952023,-74.06478126190531,2651.017,-1,-1,10,65,-9999,1561241874.034178,-26.85688781738281,-4.118860244750977,-5.50506591796875,263.55859375,271.102294921875,15,64334.42736829167,-0.6826934814453125,0.673065185546875,-0.252288818359375,64334.41824429167,-0.005180380952422134,0.03308711338314445,0.009260876374641543,64334.40341229167,10.80427551269531,-3.126007080078125,-538.8063354492188,64334.40811229167,-1.905020101940272,-1.242354740609837,-0.7453121551682443,0.0184420570731163,-0.01050560362637043,0.002618630882352591,0.0002818107604980469,-0.01281124353408813,-0.005856871604919434,1,0.6133169531822205,0.07292748987674713,0.4943432509899139,-0.6116769313812256,-0.695594310760498,0.6782012581825256,-0.2370477914810181,0,0,0,-1,64333.71064804167,2,0,1561241873.373563,1561241546.732582,16,16.27515,0,0,14.2948,0,0,1561241691.513234,64331.603309,0,-1.202393,74.44113,2650659446,177292352,1,1,0.2,-32.12312,-37.64879,3
1561241874.079783,25,0,0,1561241868.58598,4.603056527952023,-74.06478126190531,2651.017,-1,-1,10,65,-9999,1561241874.059795,-26.43638610839844,-4.059563159942627,-5.58856201171875,263.5674133300781,271.1111145019531,15,64334.44763229167,-0.6748504638671875,0.6755828857421875,-0.260650634765625,64334.43850729167,-0.0009222526854944402,0.02455620946329363,0.01458506802592796,64334.42352329167,10.91378784179688,-3.194000244140625,-538.7835693359375,64334.42837629167,-1.905056668665443,-1.241953947866178,-0.7454638383928779,-0.01327219605445862,0.03540010377764702,0.009091976098716259,0.01270842552185059,-0.005247533321380615,-0.01499545574188232,1,0.6132394075393677,0.07273758202791214,0.4944352209568024,-0.6117029786109924,-0.6954019069671631,0.6783127188682556,-0.2372933477163315,0,0,0,-1,64333.71064804167,2,0,1561241873.373563,1561241546.732582,16,16.27515,0,0,14.2948,0,0,1561241691.513234,64331.603309,0,-1.202393,74.44113,2650659446,177292352,1,1,0.2,-32.12312,-38.36149,3
1561241874.102273,26,0,0,1561241868.58598,4.603056527952023,-74.06478126190531,2651.017,-1,-1,10,65,-9999,1561241874.084106,-26.64657211303711,-4.037930011749268,-5.53607177734375,263.5767211914062,271.1204223632812,15,64334.46789629167,-0.68206787109375,0.668792724609375,-0.253631591796875,64334.45877129167,0.05363286856088776,-0.05208290880646164,0.02373409163478617,64334.44366529167,10.5302734375,-3.008926391601562,-538.9716186523438,64334.44863929167,-1.904958048314095,-1.241590691098497,-0.745699895556834,0.01949454098939896,-0.01702875085175037,0.01675708591938019,0.02031362056732178,-0.002903223037719727,-0.02315646409988403,1,0.613177478313446,0.07256933301687241,0.4944508373737335,-0.611772358417511,-0.6951640844345093,0.6784861087799072,-0.2374941408634186,0,0,0,-1,64333.71064804167,2,0,1561241873.373563,1561241546.732582,16,16.27515,0,0,14.2948,0,0,1561241691.513234,64331.603309,0,-1.202393,74.44113,2650659446,177292352,1,1,0.2,-32.12312,-38.8523,3
1561241874.129822,27,0,0,1561241868.58598,4.603056527952023,-74.06478126190531,2651.017,-1,-1,10,65,-9999,1561241874.111962,-26.94851112365723,-4.171246528625488,-5.4996337890625,263.4386596679688,270.9823608398438,15,64334.48815929167,-0.6988983154296875,0.66802978515625,-0.2342987060546875,64334.47903529167,0.06311025993215275,-0.09211607894475077,0.01112988282765915,64334.46380629167,10.30653381347656,-3.154373168945312,-538.9932861328125,64334.46890329167,-1.903517903082622,-1.241777264406059,-0.7457522890277621,0.06655952334403992,-0.09442953020334244,0.02157740667462349,0.0131068229675293,-0.009731888771057129,-0.01627862453460693,1,0.6131781339645386,0.07304857671260834,0.4939384460449219,-0.6121284961700439,-0.6951747536659241,0.6785246133804321,-0.2373529672622681,0,0,0,-1,64333.71064804167,2,0,1561241873.373563,1561241546.732582,16,16.27515,0,0,14.2948,0,0,1561241691.513234,64331.603309,0,-1.202393,74.44113,2650659446,177292352,1,1,0.2,-32.12312,-38.9971,3
1561241874.140726,28,0,0,1561241868.58598,4.603056527952023,-74.06478126190531,2651.017,-1,-1,10,65,-9999,1561241874.134971,-26.85762405395508,-4.056056022644043,-5.3521728515625,263.3297119140625,270.8734130859375,15,64334.50842329167,-0.709075927734375,0.6677093505859375,-0.2344970703125,64334.49929829167,0.01316879895822382,-0.04114583884172423,-0.01191018902705237,64334.48394829167,10.45245361328125,-3.148361206054688,-538.733642578125,64334.48916729167,-1.901943938063162,-1.242624255957787,-0.7454526479684366,0.03957584127783775,-0.07962875068187714,-0.01617396622896194,-0.003330469131469727,-0.01027464866638184,0.002530813217163086,1,0.6132893562316895,0.07390125095844269,0.4932800829410553,-0.6124454140663147,-0.695567786693573,0.6783044934272766,-0.2368295341730118,0,0,0,-1,64333.71064804167,2,0,1561241873.373563,1561241546.732582,16,16.27515,0,0,14.2948,0,0,1561241691.513234,64331.603309,0,-1.202393,74.44113,2650659446,177292352,1,1,0.2,-32.12312,-39.09883,3
1561241874.16112,29,0,0,1561241868.58598,4.603056527952023,-74.06478126190531,2651.017,-1,-1,10,65,-9999,1561241874.134971,-26.85762405395508,-4.056056022644043,-5.3521728515625,263.3297119140625,270.8734130859375,15,64334.52868729167,-0.6987762451171875,0.6807708740234375,-0.2368011474609375,64334.51956229167,-0.02619352090147435,0.04074529941377631,-0.009497631395549587,64334.50409029167,10.55519104003906,-3.228866577148438,-538.9798583984375,64334.50943029167,-1.901787694738544,-1.243392380909505,-0.7450612372008691,-0.01844298839569092,-0.002657800912857056,-0.01838305592536926,-0.01307505369186401,-0.01030749082565308,0.001883447170257568,1,0.6134206652641296,0.07432909309864044,0.4931054711341858,-0.6124027371406555,-0.696000874042511,0.6780168414115906,-0.23638054728508,0,0,0,-1,64333.71064804167,2,0,1561241873.373563,1561241546.732582,16,16.27515,0,0,14.2948,0,0,1561241691.513234,64331.603309,0,-1.202393,74.44113,2650659446,177292352,1,1,0.2,-32.12312,-39.67649,3
1561241874.182392,30,0,0,1561241868.58598,4.603056527952023,-74.06478126190531,2651.017,-1,-1,10,65,-9999,1561241874.161133,-26.86472320556641,-4.16618537902832,-5.32373046875,263.3744506835938,270.9181518554688,15,64334.54895029167,-0.687286376953125,0.677642822265625,-0.2322845458984375,64334.53982629167,-0.00533351271510169,0.05452982121602645,0.007209177070844498,64334.52420129167,10.62063598632812,-3.42950439453125,-538.6290283203125,64334.52969429167,-1.902460177088328,-1.243179759345368,-0.7450022267031257,-0.02288727089762688,0.04998623579740524,0.0005102062132209539,-0.002787649631500244,0.002797424793243408,-0.000259697437286377,1,0.6133852601051331,0.07407963275909424,0.4933930635452271,-0.6122369170188904,-0.695988655090332,0.6779734492301941,-0.2365414649248123,0,0,0,-1,64333.71064804167,2,0,1561241873.373563,1561241546.732582,16,16.27515,0,0,14.2948,0,0,1561241691.513234,64331.603309,0,-1.202393,74.44113,2650659446,177292352,1,1,0.2,-32.12312,-39.67649,3
1561241874.211015,31,0,0,1561241868.58598,4.603056527952023,-74.06478126190531,2651.017,-1,-1,10,65,-9999,1561241874.18561,-26.90757942199707,-4.046366691589355,-5.38232421875,263.425048828125,270.96875,15,64334.56921429167,-0.6881256103515625,0.6771697998046875,-0.228179931640625,64334.56008929167,0.01905811339282504,-0.0029374666823574,0.008929312818926678,64334.54434229167,10.73216247558594,-2.850799560546875,-538.7838134765625,64334.54995829167,-1.90259913464988,-1.242359240649647,-0.7451184976484267,0.004127300810068846,0.02249389141798019,0.003896149341017008,0.008433282375335693,-0.000416100025177002,0.004802465438842773,1,0.6132034659385681,0.0737428292632103,0.493654876947403,-0.6122485995292664,-0.6957196593284607,0.678058922290802,-0.2370870113372803,0,0,0,-1,64333.71064804167,2,0,1561241873.373563,1561241546.732582,16,16.27515,0,0,14.2948,0,0,1561241691.513234,64331.603309,0,-1.202393,74.44113,2650659446,177292352,1,1,0.2,-32.12312,-37.75731,3
1561241874.221915,32,0,0,1561241868.58598,4.603056527952023,-74.06478126190531,2651.017,-1,-1,10,65,-9999,1561241874.211974,-26.76090431213379,-3.963982820510864,-5.41119384765625,263.3734130859375,270.9171142578125,15,64334.58947829167,-0.6942596435546875,0.672943115234375,-0.24017333984375,64334.58035329167,0.03395530389851029,-0.05247279559004925,0.0007965514820427002,64334.56448429167,10.47695922851562,-3.169998168945312,-538.8435668945312,64334.59048529167,-1.901375483184187,-1.24287018170378,-0.7448428578646543,0.02536707744002342,-0.05686511099338531,0.00048650405369699,0.005420148372650146,-0.002853214740753174,0.004186749458312988,1,0.6132473349571228,0.07437640428543091,0.4932001829147339,-0.6124944686889648,-0.6960176825523376,0.6778562664985657,-0.2367917150259018,0,0,0,-1,64333.71064804167,2,0,1561241873.373563,1561241546.732582,16,16.27515,0,0,14.2948,0,0,1561241691.513234,64331.603309,0,-1.202393,74.44113,2650659446,177292352,1,1,0.2,-32.12312,-37.75731,3
1561241874.242061,33,0,0,1561241868.58598,4.603056527952023,-74.06478126190531,2651.017,-1,-1,10,65,-9999,1561241874.236129,-26.78694915771484,-4.239097595214844,-5.32049560546875,263.2964477539062,270.8401489257812,15,64334.60974129167,-0.70196533203125,0.671661376953125,-0.24566650390625,64334.60061729167,0.02025387272227062,-0.032500418995,0.008065117045195965,64334.58462629167,10.50357055664062,-3.265731811523438,-538.6292724609375,64334.59048529167,-1.901375483184187,-1.24287018170378,-0.7448428578646543,0.02536707744002342,-0.05686511099338531,0.00048650405369699,0.005420148372650146,-0.002853214740753174,0.004186749458312988,1,0.6132473349571228,0.07437640428543091,0.4932001829147339,-0.6124944686889648,-0.6960176825523376,0.6778562664985657,-0.2367917150259018,0,0,0,-1,64333.71064804167,2,0,1561241873.373563,1561241546.732582,16,16.27515,0,0,14.2948,0,0,1561241691.513234,64331.603309,0,-1.202393,74.44113,2650659446,177292352,1,1,0.2,-32.12312,-37.97734,3
1561241874.280331,34,0,0,1561241868.58598,4.603056527952023,-74.06478126190531,2651.017,-1,-1,10,65,-9999,1561241874.262402,-26.76821517944336,-4.169264793395996,-5.3690185546875,263.2942504882812,270.8379516601562,15,64334.63000529167,-0.703125,0.6763458251953125,-0.24493408203125,64334.62088029167,-0.001025583335789515,0.0112422682256605,0.01018206379569995,64334.60473729167,10.67890930175781,-3.428192138671875,-538.8052978515625,64334.61074929167,-1.900922571743689,-1.243372568082648,-0.7448050205399931,0.005618138238787651,-0.02004558034241199,0.00795587245374918,-0.005804598331451416,-0.006167113780975342,-0.009216248989105225,1,0.6133492588996887,0.07468311488628387,0.4929178953170776,-0.612582266330719,-0.6961607336997986,0.6778284907341003,-0.2364502400159836,0,0,0,-1,64333.71064804167,2,0,1561241873.373563,1561241546.732582,16,16.27515,0,0,14.2948,0,0,1561241691.513234,64331.603309,0,-1.202393,74.44113,2650659446,177292352,1,1,0.2,-32.12312,-39.10851,3
1561241874.28357,35,0,0,1561241868.58598,4.603056527952023,-74.06478126190531,2651.017,-1,-1,10,65,-9999,1561241874.262402,-26.76821517944336,-4.169264793395996,-5.3690185546875,263.2942504882812,270.8379516601562,15,64334.65023829167,-0.6949310302734375,0.6766510009765625,-0.2352447509765625,64334.64114429167,0.01846396215362837,0.02483903717106005,0.01204414602988335,64334.62487829167,10.51695251464844,-3.063125610351562,-538.63037109375,64334.63101229167,-1.900927403158196,-1.243315135583911,-0.744983781572129,-0.005328518804162741,0.01998173072934151,0.009246173314750195,-0.007092535495758057,-0.001614093780517578,-0.008482873439788818,1,0.6133592128753662,0.07459796220064163,0.4928872883319855,-0.6126073002815247,-0.6960324048995972,0.6779598593711853,-0.2364512383937836,0,0,0,-1,64333.71064804167,2,0,1561241873.373563,1561241546.732582,16,16.27515,0,0,14.2948,0,0,1561241691.513234,64331.603309,0,-1.202393,74.44113,2650659446,177292352,1,1,0.2,-32.12312,-39.10851,3
1561241874.302743,36,0,0,1561241868.58598,4.603056527952023,-74.06478126190531,2651.017,-1,-1,10,65,-9999,1561241874.286497,-26.71316337585449,-4.087791442871094,-5.23193359375,263.29443359375,270.838134765625,15,64334.67050229167,-0.6783294677734375,0.67425537109375,-0.246124267578125,64334.66137729167,0.03290894790621816,0.0216546954556523,-0.004378236832090268,64334.64502029167,10.74028015136719,-2.924850463867188,-538.67041015625,64334.65124529167,-1.900458107506854,-1.242688716923608,-0.7450529711308266,0.03660401701927185,0.006652876269072294,0.001206356566399336,0.0009087324142456055,-0.001359760761260986,0.001627326011657715,1,0.6131966114044189,0.07452437281608582,0.4929163455963135,-0.6127555966377258,-0.6958397030830383,0.6780107617378235,-0.236872062087059,0,0,0,-1,64333.71064804167,2,0,1561241873.373563,1561241546.732582,16,16.27515,0,0,14.2948,0,0,1561241691.513234,64331.603309,0,-1.202393,74.44113,2650659446,177292352,1,1,0.2,-32.12312,-39.14639,3
1561241874.323057,37,0,0,1561241868.58598,4.603056527952023,-74.06478126190531,2651.017,-1,-1,10,65,-9999,1561241874.312964,-26.5306282043457,-4.148873805999756,-5.42279052734375,263.2962036132812,270.8399047851562,15,64334.69076629167,-0.66461181640625,0.673431396484375,-0.2586517333984375,64334.68164129167,0.008499212302878881,0.0365905017971437,0.01322712218609655,64334.66516129167,10.58355712890625,-3.466995239257812,-538.818603515625,64334.67150929167,-1.89975748367699,-1.241915611075685,-0.7447599693212534,0.01612643897533417,0.02456130459904671,-0.004653396550565958,0.01751494407653809,-0.003539979457855225,-0.008650124073028564,1,0.6129406094551086,0.07461059093475342,0.4930201470851898,-0.6129177808761597,-0.6958444714546204,0.6777953505516052,-0.2374741435050964,0,0,0,-1,64333.71064804167,2,0,1561241873.373563,1561241546.732582,16,16.27515,0,0,14.2948,0,0,1561241691.513234,64331.603309,0,-1.202393,74.44113,2650659446,177292352,1,1,0.2,-32.12312,-39.14639,3
1561241874.383369,38,0,0,1561241868.58598,4.603056527952023,-74.06478126190531,2651.017,-1,-1,10,65,-9999,1561241874.363774,-26.88475799560547,-3.959025144577026,-5.426025390625,263.2188415527344,270.7625427246094,15,64334.71102929167,-0.6674652099609375,0.6769256591796875,-0.265594482421875,64334.70190529167,0.005053614484534363,-0.01413472748559556,0.0340868640563602,64334.68527329167,10.36705017089844,-3.026412963867188,-538.7335205078125,64334.69177329167,-1.899515548587106,-1.241254439823333,-0.7449106045568644,-0.003656852757558227,0.008484598249197006,0.02664034441113472,0.0309787392616272,-0.0044746994972229,-0.02075064182281494,1,0.6127888560295105,0.07442635297775269,0.4931066632270813,-0.6130222082138062,-0.6955905556678772,0.6779060959815979,-0.2379010766744614,0,0,0,-1,64333.71064804167,2,0,1561241873.373563,1561241546.732582,16,16.27515,0,0,14.2948,0,0,1561241691.513234,64331.603309,0,-1.202393,74.44113,2650659446,177292352,1,1,0.2,-32.12312,-39.08701,3
1561241874.385651,39,0,0,1561241868.58598,4.603056527952023,-74.06478126190531,2651.017,-1,-1,10,65,-9999,1561241874.363774,-26.88475799560547,-3.959025144577026,-5.426025390625,263.2188415527344,270.7625427246094,15,64334.73129329167,-0.68353271484375,0.6672210693359375,-0.2647247314453125,64334.72216829167,0.03644509320162537,-0.05350423788023694,0.02822231701989671,64334.70541429167,10.56684875488281,-2.80169677734375,-538.8125610351562,64334.71203629167,-1.899114071541458,-1.24140070404741,-0.7454425328242337,0.01581724733114243,-0.04681434109807014,0.03103482723236084,0.02781897783279419,-0.001371383666992188,-0.02791178226470947,1,0.6128814220428467,0.07439763098955154,0.4927909672260284,-0.6131871342658997,-0.6952841877937317,0.6782970428466797,-0.2376827150583267,0,0,0,-1,64333.71064804167,2,0,1561241873.373563,1561241546.732582,16,16.27515,0,0,14.2948,0,0,1561241691.513234,64331.603309,0,-1.202393,74.44113,2650659446,177292352,1,1,0.2,-32.12312,-39.08701,3
1561241874.387657,40,0,0,1561241868.58598,4.603056527952023,-74.06478126190531,2651.017,-1,-1,10,65,-9999,1561241874.363774,-26.88475799560547,-3.959025144577026,-5.426025390625,263.2188415527344,270.7625427246094,15,64334.75155729167,-0.6942138671875,0.659881591796875,-0.2471160888671875,64334.74243229167,0.05886225167736735,-0.03356621606324971,0.003640807526247326,64334.72555629167,10.44316101074219,-3.155776977539062,-538.6766967773438,64334.73230029167,-1.898060429587919,-1.241837954374628,-0.7457328964908058,0.04415940493345261,-0.0568440742790699,0.01989375799894333,0.01166898012161255,-0.01128929853439331,-0.02740967273712158,1,0.6129888296127319,0.07474733144044876,0.4922531247138977,-0.6134692430496216,-0.6952016949653625,0.6785103678703308,-0.2373150587081909,0,0,0,-1,64333.71064804167,2,0,1561241873.373563,1561241546.732582,16,16.27515,0,0,14.2948,0,0,1561241691.513234,64331.603309,0,-1.202393,74.44113,2650659446,177292352,1,1,0.2,-32.12312,-39.08701,3
1561241874.40403,41,0,0,1561241868.58598,4.603056527952023,-74.06478126190531,2651.017,-1,-1,10,65,-9999,1561241874.389715,-27.08261680603027,-4.099919319152832,-5.3642578125,263.1416015625,270.685302734375,15,64334.77182029167,-0.700714111328125,0.642730712890625,-0.232940673828125,64334.76269629167,0.01325987906750453,0.06222076412806628,-0.01370729013063784,64334.74569729167,10.47041320800781,-3.219558715820312,-538.4105224609375,64334.75256429167,-1.896726977905285,-1.241668236811508,-0.7454600199416935,0.03804505616426468,-0.003298557829111814,-0.01626531034708023,0.001122593879699707,-0.01842832565307617,-0.009623229503631592,1,0.612860381603241,0.07520467787981033,0.4919718503952026,-0.6137670874595642,-0.6953364014625549,0.6783099174499512,-0.2374928146600723,0,0,0,-1,64333.71064804167,2,0,1561241873.373563,1561241546.732582,16,16.27515,0,0,14.2948,0,0,1561241691.513234,64331.603309,0,-1.202393,74.44113,2650659446,177292352,1,1,0.2,-32.12312,-37.43628,3
1561241874.435109,42,0,0,1561241868.58598,4.603056527952023,-74.06478126190531,2651.017,-1,-1,10,65,-9999,1561241874.415052,-27.02641677856445,-3.988839864730835,-5.20855712890625,263.230712890625,270.7744140625,15,64334.79208429167,-0.685333251953125,0.6555938720703125,-0.2278289794921875,64334.78295929167,-0.0285211236942036,0.1042718114243084,-0.01519013822559396,64334.76583929167,10.52430725097656,-3.107009887695312,-538.6124267578125,64334.77282729167,-1.896590763519086,-1.240498796617211,-0.7450766160157063,-0.0197942778468132,0.09459605067968369,-0.02128084376454353,-0.005409896373748779,-0.0352974534034729,0.005449473857879639,1,0.6125157475471497,0.07502920925617218,0.4923949837684631,-0.6137933135032654,-0.6953042149543762,0.6780281066894531,-0.2383901476860046,0,0,0,-1,64333.71064804167,2,0,1561241873.373563,1561241546.732582,16,16.27515,0,0,14.2948,0,0,1561241691.513234,64331.603309,0,-1.202393,74.44113,2650659446,177292352,1,1,0.2,-32.12312,-37.6589,3
1561241874.444551,43,0,0,1561241868.58598,4.603056527952023,-74.06478126190531,2651.017,-1,-1,10,65,-9999,1561241874.438735,-26.94059371948242,-4.201934814453125,-5.4083251953125,263.34228515625,270.885986328125,15,64334.812360875,-0.68756103515625,0.677032470703125,-0.237213134765625,64334.80322329167,-0.04280898294247872,0.03634096360300327,0.008546616570282292,64334.78598129167,10.46888732910156,-3.263916015625,-538.6281127929688,64334.79309129167,-1.8975008682536,-1.239196796207634,-0.7450023813282562,-0.04542959854006767,0.07082973420619965,-0.003346317214891315,0.00970768928527832,-0.02237969636917114,0.01148265600204468,1,0.6122189164161682,0.07437852025032043,0.4930936098098755,-0.6136078834533691,-0.6950409412384033,0.6779735684394836,-0.2393116652965546,0,0,0,-1,64333.71064804167,2,0,1561241873.373563,1561241546.732582,16,16.27515,0,0,14.2948,0,0,1561241691.513234,64331.603309,0,-1.202393,74.44113,2650659446,177292352,1,1,0.2,-32.12312,-34.5013,3
1561241874.465154,44,0,0,1561241868.58598,4.603056527952023,-74.06478126190531,2651.017,-1,-1,10,65,-9999,1561241874.438735,-26.94059371948242,-4.201934814453125,-5.4083251953125,263.34228515625,270.885986328125,15,64334.832623875,-0.7021636962890625,0.6900177001953125,-0.2431793212890625,64334.823499875,0.02192846841571245,-0.05965640631442898,0.008424910108465669,64334.806104875,10.48751831054688,-3.218643188476562,-538.76513671875,64334.813367875,-1.898450531977206,-1.239231270456486,-0.7453289986179368,-0.01545545551925898,-0.02227118425071239,0.004084967542439699,0.007278740406036377,-0.001181185245513916,0.002002477645874023,1,0.6123067140579224,0.07397760450839996,0.4932835698127747,-0.6134160161018372,-0.6948397755622864,0.6782135963439941,-0.2392155975103378,0,0,0,-1,64333.71064804167,2,0,1561241873.373563,1561241546.732582,16,16.27515,0,0,14.2948,0,0,1561241691.513234,64331.603309,0,-1.202393,74.44113,2650659446,177292352,1,1,0.2,-32.12312,-35.37246,3
1561241874.485132,45,0,0,1561241868.58598,4.603056527952023,-74.06478126190531,2651.017,-1,-1,10,65,-9999,1561241874.465155,-26.99924087524414,-4.248751640319824,-5.25543212890625,263.2892150878906,270.8329162597656,15,64334.852887875,-0.71490478515625,0.6800537109375,-0.2291107177734375,64334.843762875,0.07141319726269278,-0.08175105598216237,0.00664325533920266,64334.826245875,10.61614990234375,-3.24383544921875,-538.8023681640625,64334.833630875,-1.89793493793631,-1.240122335874503,-0.7452958655263503,0.04776452854275703,-0.08724618703126907,0.005574473179876804,-0.007089853286743164,0.01182842254638672,-0.004575729370117188,1,0.6125028133392334,0.07442101836204529,0.4928617477416992,-0.6135056018829346,-0.6950738430023193,0.6781892776489258,-0.2386036366224289,0,0,0,-1,64333.71064804167,2,0,1561241873.373563,1561241546.732582,16,16.27515,0,0,14.2948,0,0,1561241691.513234,64331.603309,0,-1.202393,74.44113,2650659446,177292352,1,1,0.2,-32.12312,-35.37246,3
1561241874.51558,46,0,0,1561241868.58598,4.603056527952023,-74.06478126190531,2651.017,-1,-1,10,65,-9999,1561241874.48924,-26.85107421875,-4.155007362365723,-5.205810546875,263.1464538574219,270.6901550292969,15,64334.87315187501,-0.7169189453125,0.6702117919921875,-0.22119140625,64334.864026875,0.04546149138819763,0.007071491642487401,0.00863663141512697,64334.846387875,10.47868347167969,-3.102615356445312,-538.5844116210938,64334.85389487501,-1.896233256739633,-1.240629056156897,-0.744900770831514,0.06530144065618515,-0.05361419171094894,0.006116426549851894,-0.01945668458938599,0.002154827117919922,0.009227573871612549,1,0.612510621547699,0.07524368166923523,0.4922943115234375,-0.6138529777526855,-0.695448100566864,0.6778988838195801,-0.2383382469415665,0,0,0,-1,64333.71064804167,2,0,1561241873.373563,1561241546.732582,16,16.27515,0,0,14.2948,0,0,1561241691.513234,64331.603309,0,-1.202393,74.44113,2650659446,177292352,1,1,0.2,-32.12312,-36.32391,3
1561241874.52558,47,0,0,1561241868.58598,4.603056527952023,-74.06478126190531,2651.017,-1,-1,10,65,-9999,1561241874.516213,-26.96437072753906,-3.882297515869141,-5.2310791015625,263.1523132324219,270.6960144042969,15,64334.893414875,-0.7003936767578125,0.670135498046875,-0.2232818603515625,64334.884290875,-0.00166500831351754,0.0727277335767559,0.01080790665186857,64334.86652887501,10.45347595214844,-2.988311767578125,-538.6884155273438,64334.87415887501,-1.895115713964519,-1.239862997499459,-0.7447137278932813,0.01278976444154978,0.05436047911643982,0.006343860179185867,-0.02153372764587402,-0.007549524307250977,0.01772075891494751,1,0.6122546792030334,0.07541979104280472,0.4922378063201904,-0.6141319274902344,-0.695385217666626,0.6777613759040833,-0.2389121204614639,0,0,0,-1,64333.71064804167,2,0,1561241873.373563,1561241546.732582,16,16.27515,0,0,14.2948,0,0,1561241691.513234,64331.603309,0,-1.202393,74.44113,2650659446,177292352,1,1,0.2,-32.12312,-36.32391,3
1561241874.545867,48,0,0,1561241868.58598,4.603056527952023,-74.06478126190531,2651.017,-1,-1,10,65,-9999,1561241874.539961,-26.88767623901367,-3.976427316665649,-5.3646240234375,263.1692199707031,270.7129211425781,15,64334.913678875,-0.6826629638671875,0.6809844970703125,-0.23065185546875,64334.90455387501,0.02591042687759892,-0.01233656111757406,0.006679474330027737,64334.886639875,10.4183349609375,-3.03118896484375,-538.6962890625,64334.894421875,-1.895055031262126,-1.238691336199562,-0.7448889151343631,-0.002638459904119372,0.03104876354336739,0.01163955684751272,-0.005401313304901123,-0.007754683494567871,0.01640611886978149,1,0.6119877099990845,0.07501377165317535,0.4925289750099182,-0.6142141819000244,-0.6949924230575562,0.6778901219367981,-0.2396879494190216,0,0,0,-1,64333.71064804167,2,0,1561241873.373563,1561241546.732582,16,16.27515,0,0,14.2948,0,0,1561241691.513234,64331.603309,0,-1.202393,74.44113,2650659446,177292352,1,1,0.2,-32.12312,-37.01023,3
1561241874.566196,49,0,0,1561241868.58598,4.603056527952023,-74.06478126190531,2651.017,-1,-1,10,65,-9999,1561241874.539961,-26.88767623901367,-3.976427316665649,-5.3646240234375,263.1692199707031,270.7129211425781,15,64334.93391187501,-0.6863555908203125,0.681915283203125,-0.240447998046875,64334.92481787501,0.07078309334878004,-0.1043085630473515,0.008222509865619648,64334.906781875,10.78451538085938,-3.154983520507812,-538.5838623046875,64334.914685875,-1.894423975939156,-1.238688916839166,-0.7448419563787921,0.05103515461087227,-0.07711472362279892,0.001640185713768005,0.0123591423034668,0.003128886222839355,0.009048223495483398,1,0.6119570136070251,0.07522353529930115,0.4923490285873413,-0.6143634915351868,-0.6950220465660095,0.6778556108474731,-0.2397000640630722,0,0,0,-1,64333.71064804167,2,0,1561241873.373563,1561241546.732582,16,16.27515,0,0,14.2948,0,0,1561241691.513234,64331.603309,0,-1.202393,74.44113,2650659446,177292352,1,1,0.2,-32.12312,-38.00975,3
1561241874.595727,50,0,0,1561241868.58598,4.603056527952023,-74.06478126190531,2651.017,-1,-1,10,65,-9999,1561241874.590635,-26.88482666015625,-3.955318927764893,-5.26995849609375,262.9239196777344,270.4676208496094,15,64334.95417587501,-0.6951751708984375,0.66717529296875,-0.2529449462890625,64334.945050875,0.04788496798016974,-0.04628440816503212,0.01701946357836939,64334.92692387501,10.6573486328125,-3.186904907226562,-538.4151611328125,64334.93491887501,-1.892715912123393,-1.239599099595438,-0.7444571324260618,0.06581623107194901,-0.09506949037313461,0.0001594680361449718,0.009130954742431641,0.004342615604400635,-0.001295804977416992,1,0.612064003944397,0.07616803795099258,0.4916527271270752,-0.614698052406311,-0.6954865455627441,0.6775726675987244,-0.2391521632671356,0,0,0,-1,64333.71064804167,2,0,1561241873.373563,1561241546.732582,16,16.27515,0,0,14.2948,0,0,1561241691.513234,64331.603309,0,-1.202393,74.44113,2650659446,177292352,1,1,0.2,-32.12312,-38.43046,3
1561241874.606656,51,0,0,1561241868.58598,4.603056527952023,-74.06478126190531,2651.017,-1,-1,10,65,-9999,1561241874.590635,-26.88482666015625,-3.955318927764893,-5.26995849609375,262.9239196777344,270.4676208496094,15,64334.974439875,-0.6876220703125,0.6631927490234375,-0.2571868896484375,64334.965314875,0.007644071276854437,0.04110828827035411,0.02212101496252518,64334.94706487501,10.69441223144531,-3.01263427734375,-538.7745361328125,64334.955182875,-1.891478512855037,-1.239847627039979,-0.7443412579744133,0.02633300423622131,-0.002548877615481615,0.01622791588306427,0.0004450082778930664,-0.01031213998794556,-0.01394015550613403,1,0.6120620369911194,0.07666589319705963,0.4912284910678864,-0.6149771809577942,-0.6956201791763306,0.6774874329566956,-0.2390048056840897,0,0,0,-1,64333.71064804167,2,0,1561241873.373563,1561241546.732582,16,16.27515,0,0,14.2948,0,0,1561241691.513234,64331.603309,0,-1.202393,74.44113,2650659446,177292352,1,1,0.2,-32.12312,-39.23362,3
1561241874.626998,52,0,0,1561241868.58598,4.603056527952023,-74.06478126190531,2651.017,-1,-1,10,65,-9999,1561241874.617005,-26.8033561706543,-4.186426639556885,-5.16229248046875,262.9606018066406,270.5043029785156,15,64334.994702875,-0.682373046875,0.6609039306640625,-0.2581939697265625,64334.98557787501,0.01023532701750154,0.03472975114350533,0.01285294805294042,64334.967206875,10.46847534179688,-3.274856567382812,-538.60205078125,64334.975446875,-1.891177640328356,-1.239097312025205,-0.7446195664236526,-0.003173755249008536,0.04219302907586098,0.01896724477410316,0.007640242576599121,-0.01449930667877197,-0.01772165298461914,1,0.6119041442871094,0.07642443478107452,0.4912880659103394,-0.6151167154312134,-0.6952623128890991,0.6776921153068542,-0.2394652515649796,0,0,0,-1,64333.71064804167,2,0,1561241873.373563,1561241546.732582,16,16.27515,0,0,14.2948,0,0,1561241691.513234,64332.552692,0,-1.300049,74.44205,2650659446,177292352,1,1,0.2,-27.0337,-27.21836,3
1561241874.64713,53,0,0,1561241868.58598,4.603056527952023,-74.06478126190531,2651.017,-1,-1,10,65,-9999,1561241874.641382,-26.89382171630859,-4.004290580749512,-5.24200439453125,262.9415283203125,270.4852294921875,15,64335.014966875,-0.6833648681640625,0.65753173828125,-0.2584228515625,64335.005841875,0.02205203909029212,-0.01928741156268087,-0.002987800426959897,64334.987347875,10.59602355957031,-3.19903564453125,-538.5602416992188,64334.995709875,-1.890895822210868,-1.238406064949235,-0.7447603655546574,0.02046392858028412,0.0005009747110307217,-0.002712484914809465,0.0126335620880127,-0.0168917179107666,-0.01827925443649292,1,0.6117427349090576,0.07624610513448715,0.491373747587204,-0.6152310967445374,-0.6950066089630127,0.6777956485748291,-0.2399147152900696,0,0,0,-1,64333.71064804167,2,0,1561241873.373563,1561241546.732582,16,16.27515,0,0,14.2948,0,0,1561241691.513234,64332.552692,0,-1.300049,74.44205,2650659446,177292352,1,1,0.2,-27.0337,-27.21836,3
1561241874.68483,54,0,0,1561241868.58598,4.603056527952023,-74.06478126190531,2651.017,-1,-1,10,65,-9999,1561241874.667668,-26.97490692138672,-4.014731407165527,-5.25152587890625,262.9009399414062,270.4446411132812,15,64335.035230875,-0.6845550537109375,0.662261962890625,-0.250274658203125,64335.026105875,0.01132029884559982,-0.02419854692889599,-0.01142149896702283,64335.007489875,10.42591857910156,-3.14923095703125,-538.6353759765625,64335.015973875,-1.890451135552562,-1.23857159585946,-0.7445234542417499,0.01705295220017433,-0.03638886660337448,-0.01174033433198929,0.01183319091796875,-0.02008974552154541,-0.01857084035873413,1,0.6117340922355652,0.07652051746845245,0.4912522435188293,-0.6153026223182678,-0.6951980590820312,0.6776214241981506,-0.2398520261049271,0,0,0,-1,64333.71064804167,2,0,1561241873.373563,1561241546.732582,16,16.27515,0,0,14.2948,0,0,1561241691.513234,64332.552692,0,-1.300049,74.44205,2650659446,177292352,1,1,0.2,-17.78346,-27.22267,3
1561241874.687874,55,0,0,1561241868.58598,4.603056527952023,-74.06478126190531,2651.017,-1,-1,10,65,-9999,1561241874.667668,-26.97490692138672,-4.014731407165527,-5.25152587890625,262.9009399414062,270.4446411132812,15,64335.05549387501,-0.68304443359375,0.6648406982421875,-0.24407958984375,64335.046368875,0.001238636222995854,0.02020167476490507,-0.002715625363553799,64335.027631875,10.44197082519531,-3.105850219726562,-538.5782470703125,64335.05650087501,-1.89043173198717,-1.238870969371935,-0.7440175247768583,0.0004643891006708145,0.01993139833211899,0.00940330047160387,0.01340371370315552,-0.0107300877571106,-0.008474469184875488,1,0.611737847328186,0.07680528610944748,0.4912954270839691,-0.6152287721633911,-0.6955936551094055,0.6772492527961731,-0.2397555112838745,0,0,0,-1,64333.71064804167,2,0,1561241873.373563,1561241546.732582,16,16.27515,0,0,14.2948,0,0,1561241691.513234,64332.552692,0,-1.300049,74.44205,2650659446,177292352,1,1,0.2,-17.78346,-27.22267,3
1561241874.707961,56,0,0,1561241868.58598,4.603056527952023,-74.06478126190531,2651.017,-1,-1,10,65,-9999,1561241874.69247,-26.93788909912109,-4.117326736450195,-5.37109375,262.9177856445312,270.4614868164062,15,64335.07575787501,-0.6882476806640625,0.67626953125,-0.236724853515625,64335.066632875,0.009812150720287946,0.01882428784911609,0.02280890947209264,64335.047742875,10.51995849609375,-3.018936157226562,-538.537841796875,64335.05650087501,-1.89043173198717,-1.238870969371935,-0.7440175247768583,0.0004643891006708145,0.01993139833211899,0.00940330047160387,0.01340371370315552,-0.0107300877571106,-0.008474469184875488,1,0.611737847328186,0.07680528610944748,0.4912954270839691,-0.6152287721633911,-0.6955936551094055,0.6772492527961731,-0.2397555112838745,0,0,0,-1,64333.71064804167,2,0,1561241873.373563,1561241546.732582,16,16.27515,0,0,14.2948,0,0,1561241691.513234,64332.552692,0,-1.300049,74.44205,2650659446,177292352,1,1,0.2,-17.78346,-27.22364,3
1561241874.728213,57,0,0,1561241868.58598,4.603056527952023,-74.06478126190531,2651.017,-1,-1,10,65,-9999,1561241874.718486,-26.71702766418457,-4.324527263641357,-5.30316162109375,262.9011840820312,270.4448852539062,15,64335.096021875,-0.70684814453125,0.6763153076171875,-0.23565673828125,64335.08689687501,0.03142423559849898,-0.01838992627532416,0.004047738540811434,64335.067883875,10.44200134277344,-3.240921020507812,-538.5181884765625,64335.076764875,-1.89000493251391,-1.238352697296734,-0.7442313504533146,0.02171002328395844,-0.008843791671097279,0.008841106668114662,0.007084846496582031,-0.001137018203735352,0.003343880176544189,1,0.6116233468055725,0.07669746875762939,0.4912631809711456,-0.6153818964958191,-0.6953325271606445,0.6774066090583801,-0.2400687634944916,0,0,0,-1,64333.71064804167,2,0,1561241873.373563,1561241546.732582,16,16.27515,0,0,14.2948,0,0,1561241691.513234,64332.552692,0,-1.300049,74.44205,2650659446,177292352,1,1,0.2,-17.78346,-26.35903,3
1561241874.770854,58,0,0,1561241868.58598,4.603056527952023,-74.06478126190531,2651.017,-1,-1,10,65,-9999,1561241874.742813,-26.80503845214844,-4.327227115631104,-5.25799560546875,262.8174743652344,270.3611755371094,15,64335.116284875,-0.744964599609375,0.6772308349609375,-0.2326507568359375,64335.10716087501,0.04047871698865938,-0.0603360450246172,0.03391322595328704,64335.088025875,10.54057312011719,-3.29913330078125,-538.4127197265625,64335.097028875,-1.889196002440121,-1.238310182855297,-0.7441535997500607,0.02873570844531059,-0.04302812740206718,0.01796695962548256,-0.01147603988647461,-0.001034140586853027,0.004458785057067871,1,0.611571192741394,0.07696047425270081,0.4910489022731781,-0.615571916103363,-0.6953721642494202,0.6773493885993958,-0.2401155233383179,0,0,0,-1,64333.71064804167,2,0,1561241873.373563,1561241546.732582,16,16.27515,0,0,14.2948,0,0,1561241691.513234,64332.552692,0,-1.300049,74.44205,2650659446,177292352,1,1,0.2,-17.78346,-27.25067,3
1561241874.774159,59,0,0,1561241868.58598,4.603056527952023,-74.06478126190531,2651.017,-1,-1,10,65,-9999,1561241874.769033,-27.00991439819336,-3.998014688491821,-4.99542236328125,262.5351257324219,270.0788269042969,15,64335.136548875,-0.88232421875,0.65081787109375,-0.205352783203125,64335.127423875,0.09591880666527491,-0.2157261683085606,0.06388790297045588,64335.10816787501,10.49745178222656,-3.15771484375,-538.50244140625,64335.117291875,-1.887882188699884,-1.238891825451812,-0.7444510186650205,0.05414998903870583,-0.1293137520551682,0.04296179488301277,-0.04964351654052734,-0.0003373026847839355,0.00699460506439209,1,0.6117039322853088,0.07743149995803833,0.49038365483284,-0.615911066532135,-0.6953210830688477,0.6775681376457214,-0.239645317196846,0,0,0,-1,64333.71064804167,2,0,1561241873.373563,1561241546.732582,16,16.27515,0,0,14.2948,0,0,1561241691.513234,64332.552692,0,-1.300049,74.44205,2650659446,177292352,1,1,0.2,-17.78346,-27.25067,3
1561241874.7891,60,0,0,1561241868.58598,4.603056527952023,-74.06478126190531,2651.017,-1,-1,10,65,-9999,1561241874.769033,-27.00991439819336,-3.998014688491821,-4.99542236328125,262.5351257324219,270.0788269042969,15,64335.156812875,-1.14630126953125,0.5841064453125,-0.192352294921875,64335.147687875,0.1059061933852901,-0.3329542584361045,0.03619448974304891,64335.12830887501,10.44033813476562,-3.2432861328125,-538.4417724609375,64335.137555875,-1.8850790363477,-1.241563627703665,-0.7450163443744819,0.09832384437322617,-0.3365947604179382,0.06898939609527588,-0.1867278814315796,-0.02716594934463501,0.03231006860733032,1,0.6123256683349609,0.07890402525663376,0.4885448217391968,-0.6165674328804016,-0.6955963969230652,0.677983820438385,-0.2376628667116165,0,0,0,-1,64333.71064804167,2,0,1561241873.373563,1561241546.732582,16,16.27515,0,0,14.2948,0,0,1561241691.513234,64332.552692,0,-1.300049,74.44205,2650659446,177292352,1,1,0.2,-17.78346,-27.59704,3
1561241874.810059,61,0,0,1561241868.58598,4.603056527952023,-74.06478126190531,2651.017,-1,-1,10,65,-9999,1561241874.793719,-26.86738204956055,-4.039116859436035,-4.8531494140625,262.1290283203125,269.6727294921875,15,64335.17707587501,-1.571060180664062,0.4375457763671875,-0.2386627197265625,64335.167951875,-0.0009241168982574956,-0.07972039565097695,-0.07332081955151655,64335.14845087501,10.73887634277344,-3.364425659179688,-538.1679077148438,64335.15781987501,-1.882346774495466,-1.246264771305303,-0.7450033682298531,0.05788427218794823,-0.2482614517211914,-0.01812046952545643,-0.4495869874954224,-0.09386783838272095,0.04204058647155762,1,0.6133602261543274,0.08119585365056992,0.486265242099762,-0.6170433759689331,-0.6967142224311829,0.6779742836952209,-0.2343929260969162,0,0,0,-1,64333.71064804167,2,0,1561241873.373563,1561241546.732582,16,16.27515,0,0,14.2948,0,0,1561241691.513234,64332.552692,0,-1.300049,74.44205,2650659446,177292352,1,1,0.2,-17.78346,-28.5711,3
1561241874.861383,62,0,0,1561241868.58598,4.603056527952023,-74.06478126190531,2651.017,-1,-1,10,65,-9999,1561241874.852579,-26.78101921081543,-3.961029767990112,-4.94793701171875,262.28515625,269.828857421875,15,64335.19733987501,-1.915252685546875,0.25811767578125,-0.323822021484375,64335.188214875,-0.1090026507847252,0.5415237139472951,-0.3302269151637544,64335.168591875,10.56529235839844,-3.065811157226562,-538.1936645507812,64335.17808287501,-1.883190730309098,-1.247956017216101,-0.743419108748627,-0.05502283573150635,0.1970598250627518,-0.175975888967514,-0.8729326725006104,-0.239263117313385,-0.005107879638671875,1,0.6135892271995544,0.08204185217618942,0.4864494502544403,-0.6165584921836853,-0.6981275081634521,0.6768088936805725,-0.233554795384407,0,0,0,-1,64333.71064804167,2,0,1561241873.373563,1561241546.732582,16,16.27515,0,0,14.2948,0,0,1561241691.513234,64332.552692,0,-1.300049,74.44205,2650659446,177292352,1,1,0.2,-17.78346,-30.45172,3
1561241874.867286,63,0,0,1561241868.58598,4.603056527952023,-74.06478126190531,2651.017,-1,-1,10,65,-9999,1561241874.852579,-26.78101921081543,-3.961029767990112,-4.94793701171875,262.28515625,269.828857421875,15,64335.217572875,-2.138046264648438,0.0296630859375,-0.528167724609375,64335.208447875,-0.4198904890606512,1.077620704541336,-0.7297508797880246,64335.188733875,10.58551025390625,-3.189117431640625,-538.458251953125,64335.198346875,-1.889529885249622,-1.241124138610109,-0.7378043291545817,-0.2564699351787567,0.9275763630867004,-0.511859655380249,-1.215152740478516,-0.4145471453666687,-0.08427673578262329,1,0.6114054918289185,0.08006681501865387,0.4920566976070404,-0.6145346164703369,-0.7001000046730042,0.6726648807525635,-0.2395452558994293,0,0,0,-1,64333.71064804167,2,0,1561241873.373563,1561241546.732582,16,16.27515,0,0,14.2948,0,0,1561241691.513234,64332.552692,0,-1.300049,74.44205,2650659446,177292352,1,1,0.2,-17.78346,-30.45172,3
1561241874.871221,64,0,0,1561241868.58598,4.603056527952023,-74.06478126190531,2651.017,-1,-1,10,65,-9999,1561241874.852579,-26.78101921081543,-3.961029767990112,-4.94793701171875,262.28515625,269.828857421875,15,64335.23783687501,-2.0989990234375,-0.0769805908203125,-0.5811309814453125,64335.228711875,-0.2414291349372424,0.7504790615004383,-1.545150884445761,64335.20884487501,10.83047485351562,-3.655792236328125,-538.8285522460938,64335.21857987501,-1.906798392674694,-1.231665670068271,-0.7259589497521614,-0.4900635182857513,1.05652379989624,-1.094879865646362,-1.432778120040894,-0.6341898441314697,-0.2793779969215393,1,0.6080997586250305,0.07628779858350754,0.5034934878349304,-0.6090067625045776,-0.7052680850028992,0.6638529300689697,-0.2487897127866745,0,0,0,-1,64333.71064804167,2,0,1561241873.373563,1561241546.732582,16,16.27515,0,0,14.2948,0,0,1561241691.513234,64332.552692,0,-1.300049,74.44205,2650659446,177292352,1,1,0.2,-17.78346,-30.45172,3
1561241874.890446,65,0,0,1561241868.58598,4.603056527952023,-74.06478126190531,2651.017,-1,-1,10,65,-9999,1561241874.874744,-26.58609771728516,-4.694819450378418,-5.63409423828125,264.6571655273438,272.2008666992188,15,64335.25809987501,-2.034896850585938,-0.0279541015625,-0.6090545654296875,64335.248975875,0.6630682555696396,-0.4505807574627243,-2.605228015306199,64335.228986875,11.09579467773438,-4.052688598632812,-539.2095336914062,64335.23884387501,-1.926060488990925,-1.230237013855767,-0.6975287292446776,0.1920829564332962,0.1546186059713364,-2.078259944915771,-1.376585006713867,-0.7193061709403992,-0.3251317739486694,1,0.60457444190979,0.08056141436100006,0.5174812078475952,-0.6001772284507751,-0.7224140763282776,0.6423255801200867,-0.2559992074966431,0,0,0,-1,64333.71064804167,2,0,1561241873.373563,1561241546.732582,16,16.27515,0,0,14.2948,0,0,1561241691.513234,64332.552692,0,-1.300049,74.44205,2650659446,177292352,1,1,0.2,-17.78346,-31.25368,3
1561241874.922167,66,0,0,1561241868.58598,4.603056527952023,-74.06478126190531,2651.017,-1,-1,10,65,-9999,1561241874.920846,-25.59263610839844,-8.656445503234863,-4.42071533203125,261.0433959960938,268.5870971679688,15,64335.278363875,-2.000076293945312,-0.06939697265625,-0.5893707275390625,64335.26923887501,1.292789739549852,-1.074973522417797,-3.238357280217277,64335.249127875,11.41792297363281,-5.531234741210938,-538.875244140625,64335.279370875,-1.92831709977225,-1.26038205448523,-0.5740226243380911,1.302440047264099,-0.9550148844718933,-3.370159864425659,-1.226028919219971,-0.6059568524360657,-0.3313791751861572,1,0.5947352647781372,0.1343200951814651,0.5414995551109314,-0.5788145661354065,-0.7995906472206116,0.5430143475532532,-0.2564961612224579,0,0,0,-1,64333.71064804167,2,0,1561241873.373563,1561241546.732582,16,16.27515,0,0,14.2948,0,0,1561241691.513234,64332.552692,0,-1.300049,74.44205,2650659446,177292352,1,1,0.2,-17.78346,-31.74476,3
1561241874.930756,67,0,0,1561241868.58598,4.603056527952023,-74.06478126190531,2651.017,-1,-1,10,65,-9999,1561241874.920846,-25.59263610839844,-8.656445503234863,-4.42071533203125,261.0433959960938,268.5870971679688,15,64335.298627875,-1.851364135742188,-0.087921142578125,-0.6259307861328125,64335.28950287501,1.173242568745067,-0.6822318301416317,-3.461809278848158,64335.289410875,12.37136840820312,-9.085433959960938,-537.2448120117188,64335.279370875,-1.92831709977225,-1.26038205448523,-0.5740226243380911,1.302440047264099,-0.9550148844718933,-3.370159864425659,-1.226028919219971,-0.6059568524360657,-0.3313791751861572,1,0.5947352647781372,0.1343200951814651,0.5414995551109314,-0.5788145661354065,-0.7995906472206116,0.5430143475532532,-0.2564961612224579,0,0,0,-1,64333.71064804167,2,0,1561241873.373563,1561241546.732582,16,16.27515,0,0,14.2948,0,0,1561241691.513234,64332.552692,0,-1.300049,74.44205,2650659446,177292352,1,1,0.2,-17.78346,-32.55034,3
1561241874.951223,68,0,0,1561241868.58598,4.603056527952023,-74.06478126190531,2651.017,-1,-1,10,65,-9999,1561241874.945213,-24.83994293212891,-10.58975601196289,-3.666259765625,161.6868286132812,169.2305145263672,15,64335.318890875,-1.639495849609375,-0.02447509765625,-0.59210205078125,64335.30976687501,1.31823331428836,-0.7543228019017497,-3.717373940219323,64335.30955287501,13.27891540527344,-11.1138916015625,-536.6375122070312,64335.299634875,-1.925876248692571,-1.273884885988405,-0.4996959321397552,1.161804437637329,-0.6270729303359985,-3.584423780441284,-1.012041091918945,-0.5670797824859619,-0.3691354393959045,1,0.5865694284439087,0.1659476459026337,0.5554404854774475,-0.5655824542045593,-0.8393229842185974,0.4791586697101593,-0.2567953765392303,0,0,0,-1,64333.71064804167,2,0,1561241873.373563,1561241546.732582,16,16.27515,0,0,14.2948,0,0,1561241691.513234,64332.552692,0,-1.300049,74.44205,2650659446,177292352,1,1,0.2,-17.78346,-32.98887,3
1561241874.971553,69,0,0,1561241868.58598,4.603056527952023,-74.06478126190531,2651.017,-1,-1,10,65,-9999,1561241874.945213,-24.83994293212891,-10.58975601196289,-3.666259765625,161.6868286132812,169.2305145263672,15,64335.339154875,-1.569900512695312,0.000579833984375,-0.612548828125,64335.330029875,1.816265477105789,-1.949168134461212,-3.959670466723604,64335.32969487501,14.37779235839844,-12.93678283691406,-535.1983032226562,64335.319898875,-1.921091535474088,-1.288677076701047,-0.4196788876400778,1.564462423324585,-1.258224844932556,-3.867204904556274,-0.7623778581619263,-0.431942343711853,-0.3378692269325256,1,0.5768918395042419,0.2001983523368835,0.569115936756134,-0.5506572723388672,-0.8771180510520935,0.4074672162532806,-0.2542328536510468,0,0,0,-1,64333.71064804167,2,0,1561241873.373563,1561241546.732582,16,16.27515,0,0,14.2948,0,0,1561241691.513234,64332.552692,0,-1.300049,74.44205,2650659446,177292352,1,1,0.2,-17.78346,-32.98887,3
1561241875.002113,70,0,0,1561241868.58598,4.603056527952023,-74.06478126190531,2651.017,-1,-1,10,65,-9999,1561241874.996467,-21.33626174926758,-16.11450386047363,0.81671142578125,159.0200347900391,166.563720703125,15,64335.35941887501,-1.635498046875,-0.02838134765625,-0.5509033203125,64335.350293875,2.132960338138633,-2.909852098698259,-4.204909253600205,64335.349835875,15.67050170898438,-14.7276611328125,-533.4070434570312,64335.34016187501,-1.905972852979093,-1.322640772686918,-0.3325577431433547,2.016672134399414,-2.59373140335083,-4.073122501373291,-0.6536445021629333,-0.3258818686008453,-0.3803895711898804,1,0.5693885087966919,0.2443708330392838,0.5755463242530823,-0.5336911082267761,-0.9162560105323792,0.3264617025852203,-0.2321592420339584,0,0,0,-1,64333.71064804167,2,0,1561241873.373563,1561241546.732582,16,16.27515,0,0,14.2948,0,0,1561241691.513234,64332.552692,0,-1.300049,74.44205,2650659446,177292352,1,1,0.2,-17.78346,-31.99871,3
1561241875.012429,71,0,0,1561241868.58598,4.603056527952023,-74.06478126190531,2651.017,-1,-1,10,65,-9999,1561241874.996467,-21.33626174926758,-16.11450386047363,0.81671142578125,159.0200347900391,166.563720703125,15,64335.37968187501,-1.79107666015625,-0.0475311279296875,-0.4550628662109375,64335.370557875,2.094355687609062,-2.175866792777009,-4.142751340073864,64335.369977875,17.1761474609375,-16.22494506835938,-531.320068359375,64335.36042587501,-1.882117086433168,-1.373245260405125,-0.2403677992647547,2.134019613265991,-2.774396181106567,-4.239054203033447,-0.6831383109092712,-0.2664412260055542,-0.3602772951126099,1,0.5632433295249939,0.2957092523574829,0.5757706165313721,-0.5136157274246216,-0.9523597359657288,0.238059863448143,-0.1906259804964066,0,0,0,-1,64333.71064804167,2,0,1561241873.373563,1561241546.732582,16,16.27515,0,0,14.2948,0,0,1561241691.513234,64332.552692,0,-1.300049,74.44205,2650659446,177292352,1,1,0.2,-17.78346,-31.99871,3
1561241875.032203,72,0,0,1561241868.58598,4.603056527952023,-74.06478126190531,2651.017,-1,-1,10,65,-9999,1561241875.022284,-19.60828971862793,-17.6347713470459,2.470703125,157.0878143310547,164.6315002441406,15,64335.399945875,-1.73895263671875,-0.011810302734375,-0.406494140625,64335.39082087501,1.736911798736916,-0.4373842616291637,-3.589064969428177,64335.390118875,19.09457397460938,-17.46304321289062,-530.1162109375,64335.380689875,-1.854788603430554,-1.41108234868762,-0.1508200982217573,1.986915349960327,-1.300198435783386,-3.911359310150146,-0.8150112628936768,-0.1977800726890564,-0.2978323698043823,1,0.5517277121543884,0.3420252799987793,0.5780149698257446,-0.4944834411144257,-0.976065456867218,0.1502489745616913,-0.157230481505394,0,0,0,-1,64333.71064804167,2,0,1561241873.373563,1561241546.732582,16,16.27515,0,0,14.2948,0,0,1561241691.513234,64332.552692,0,-1.300049,74.44205,2650659446,177292352,1,1,0.2,-17.78346,-24.94604,3
1561241875.052484,73,0,0,1561241868.58598,4.603056527952023,-74.06478126190531,2651.017,-1,-1,10,65,-9999,1561241875.046571,-18.07238388061523,-18.60195541381836,3.41424560546875,156.0134887695312,163.5571746826172,15,64335.420209875,-1.440093994140625,0.1430511474609375,-0.4534912109375,64335.41108487501,0.8805646270547758,-0.1021306299078847,-3.142403586141722,64335.410260875,20.0927734375,-18.55525207519531,-529.611328125,64335.400952875,-1.831653965280302,-1.419090021090938,-0.07331422277632199,1.338728308677673,-0.0008253208361566067,-3.334864616394043,-0.7530932426452637,-0.08505886793136597,-0.2557750344276428,1,0.5332631468772888,0.3745275139808655,0.5867185592651367,-0.4807505011558533,-0.9858593344688416,0.07324856519699097,-0.1507191210985184,0,0,0,-1,64333.71064804167,2,0,1561241873.373563,1561241546.732582,16,16.27515,0,0,14.2948,0,0,1561241691.513234,64332.552692,0,-1.300049,74.44205,2650659446,177292352,1,1,0.2,-15.02861,-19.0034,3
1561241875.089699,74,0,0,1561241868.58598,4.603056527952023,-74.06478126190531,2651.017,-1,-1,10,65,-9999,1561241875.072891,-15.55155754089355,-20.5052318572998,4.69134521484375,156.5639495849609,164.1076354980469,15,64335.440472875,-1.261795043945312,0.358795166015625,-0.53192138671875,64335.431348875,-0.1326206285959839,-1.2411121638613,-2.965990202896585,64335.430371875,21.56031799316406,-19.12567138671875,-528.7655639648438,64335.421216875,-1.82380661451546,-1.422218082463562,-0.007361860251628063,0.3877845704555511,-0.5681033730506897,-3.031277894973755,-0.4511382579803467,0.135689377784729,-0.3054630756378174,1,0.5177543163299561,0.3973869383335114,0.5975674390792847,-0.4657544791698456,-0.9889557361602783,0.007361793890595436,-0.1480281800031662,0,0,0,-1,64333.71064804167,2,0,1561241873.373563,1561241546.732582,16,16.27515,0,0,14.2948,0,0,1561241691.513234,64332.552692,0,-1.300049,74.44205,2650659446,177292352,1,1,0.2,-10.05501,-10.05501,3
1561241875.092881,75,0,0,1561241868.58598,4.603056527952023,-74.06478126190531,2651.017,-1,-1,10,65,-9999,1561241875.072891,-15.55155754089355,-20.5052318572998,4.69134521484375,156.5639495849609,164.1076354980469,15,64335.460736875,-1.14495849609375,0.6453704833984375,-0.434112548828125,64335.451611875,-1.035360066467305,-2.685613668597478,-2.908072840773977,64335.450513875,22.94158935546875,-20.14794921875,-528.218994140625,64335.441480875,-1.834896482084945,-1.447322949210805,0.05199249299481469,-0.6678568124771118,-1.971246838569641,-2.937415361404419,-0.2707492113113403,0.4107642471790314,-0.4089279174804688,1,0.5137507915496826,0.4178078472614288,0.605313241481781,-0.4416929185390472,-0.9910458326339722,-0.05196906998753548,-0.1229934543371201,0,0,0,-1,64333.71064804167,2,0,1561241873.373563,1561241546.732582,16,16.27515,0,0,14.2948,0,0,1561241691.513234,64332.552692,0,-1.300049,74.44205,2650659446,177292352,1,1,0.2,-10.05501,-10.05501,3
1561241875.113114,76,0,0,1561241868.58598,4.603056527952023,-74.06478126190531,2651.017,-1,-1,10,65,-9999,1561241875.097131,-14.0958366394043,-21.20536041259766,5.41845703125,158.4266815185547,165.9703674316406,15,64335.48100087501,-1.144561767578125,0.794219970703125,-0.1644744873046875,64335.471875875,-1.171617507847901,-3.633533101729775,-2.827999309962456,64335.470654875,24.68621826171875,-20.90281677246094,-527.6588134765625,64335.46174387501,-1.860895825433588,-1.499549797019552,0.1085883826764593,-1.174062967300415,-3.34679388999939,-2.853702068328857,-0.1533704400062561,0.7537455558776855,-0.3633455038070679,1,0.5219314694404602,0.4384108185768127,0.6080862879753113,-0.406957745552063,-0.9915881156921387,-0.108375109732151,-0.07076699286699295,0,0,0,-1,64333.71064804167,2,0,1561241873.373563,1561241546.732582,16,16.27515,0,0,14.2948,0,0,1561241691.513234,64332.552692,0,-1.300049,74.44205,2650659446,177292352,1,1,0.2,-10.05501,-10.96339,3
1561241875.134101,77,0,0,1561241875.106207,4.603106881078705,-74.06474911828803,2650.965,-1,-1,10,65,-9999,1561241875.123356,-12.31182289123535,-22.22145652770996,5.93060302734375,160.3588714599609,167.9025573730469,15,64335.501233875,-1.108184814453125,0.948486328125,-0.11517333984375,64335.49210887501,-1.607714930038338,-3.03336524899839,-2.611148755041663,64335.490796875,26.45767211914062,-21.56753540039062,-527.4046630859375,64335.48200787501,-1.887426379213025,-1.568307739970315,0.1647278179918963,-1.270104050636292,-3.557621479034424,-2.739624261856079,-0.1581017971038818,0.9582037925720215,-0.1620196104049683,1,0.5357446670532227,0.4601632356643677,0.6054363250732422,-0.3669800758361816,-0.9864600300788879,-0.1639838367700577,-0.002454896457493305,0,0,0,-1,64333.71064804167,2,0,1561241873.373563,1561241546.732582,16,16.27515,0,0,14.2948,0,0,1561241691.513234,64332.552692,0,-1.300049,74.44205,2650659446,177292352,1,1,0.2,-10.05501,-10.96339,3
1561241875.158209,78,0,0,1561241875.106207,4.603106881078705,-74.06474911828803,2650.965,-1,-1,10,65,-9999,1561241875.148228,-10.55183792114258,-22.85386848449707,6.08270263671875,163.2148132324219,170.7584991455078,15,64335.521497875,-0.883209228515625,1.233642578125,-0.05010986328125,64335.512372875,-2.287378141308588,-1.50509401217377,-1.964103674486595,64335.51093887501,27.60456848144531,-22.74850463867188,-527.67822265625,64335.502240875,-1.919612244351237,-1.622535689914355,0.2181223308225446,-2.055742979049683,-2.236958980560303,-2.376932382583618,-0.1331856250762939,1.164883136749268,-0.1656641960144043,1,0.5474396347999573,0.474926620721817,0.6059317588806152,-0.3280265033245087,-0.9749991297721863,-0.2163968235254288,0.05049089714884758,0,0,0,-1,64333.71064804167,2,0,1561241873.373563,1561241546.732582,16,16.27515,0,0,14.2948,0,0,1561241691.513234,64332.552692,0,-1.300049,74.44205,2650659446,177292352,1,1,0.2,-10.05501,-11.42757,3
1561241875.173914,79,0,0,1561241875.106207,4.603106881078705,-74.06474911828803,2650.965,-1,-1,10,65,-9999,1561241875.148228,-10.55183792114258,-22.85386848449707,6.08270263671875,163.2148132324219,170.7584991455078,15,64335.54176087501,-0.7587127685546875,1.561355590820312,0.13848876953125,64335.532636875,-1.704479024033604,-1.375362913360522,-0.6407546940603016,64335.531049875,28.37771606445312,-23.02589416503906,-528.531982421875,64335.52250487501,-1.962789090320982,-1.644974790599713,0.2599665179087215,-2.049328088760376,-1.295457720756531,-1.347484230995178,0.08053183555603027,1.4906907081604,-0.1217300891876221,1,0.555029034614563,0.4772346317768097,0.6136283874511719,-0.2960577011108398,-0.9637411236763,-0.2570481896400452,0.07162024825811386,0,0,0,-1,64333.71064804167,2,0,1561241873.373563,1561241546.732582,16,16.27515,0,0,14.2948,0,0,1561241691.513234,64332.552692,0,-1.300049,74.44205,2650659446,177292352,1,1,0.2,-10.05501,-11.98368,3
1561241875.194123,80,0,0,1561241875.106207,4.603106881078705,-74.06474911828803,2650.965,-1,-1,10,65,-9999,1561241875.174089,-8.967491149902344,-24.10967826843262,4.814453125,165.8781890869141,173.421875,15,64335.56202487501,-0.521392822265625,1.458114624023438,-0.09906005859375,64335.552899875,-1.922234787408914,-0.7448488726399018,-0.2837672709989951,64335.551190875,28.77278137207031,-23.39883422851562,-528.986572265625,64335.54276787501,-1.998289380609689,-1.662606465067248,0.2773493420504269,-1.61115825176239,-1.241009712219238,-0.3013684451580048,0.1990213394165039,1.835162878036499,0.05031108856201172,1,0.5649816989898682,0.4742198586463928,0.6165786385536194,-0.275212824344635,-0.9577340483665466,-0.2738072574138641,0.08817759156227112,0,0,0,-1,64333.71064804167,2,0,1561241873.373563,1561241546.732582,16,16.27515,0,0,14.2948,0,0,1561241691.513234,64332.552692,0,-1.300049,74.44205,2650659446,177292352,1,1,0.2,-10.05501,-13.01957,3
1561241875.214372,81,0,0,1561241875.106207,4.603106881078705,-74.06474911828803,2650.965,-1,-1,10,65,-9999,1561241875.198601,-8.536510467529297,-24.58231163024902,4.05029296875,168.89111328125,176.4347991943359,15,64335.582288875,-0.4532012939453125,1.29876708984375,-0.4877166748046875,64335.573163875,-2.604966226571045,0.5230368486082921,-0.2480271165379136,64335.57133287501,28.9774169921875,-23.72105407714844,-530.1492919921875,64335.563031875,-2.038901742026717,-1.665186884002735,0.2873855566343084,-2.428235292434692,0.05909207463264465,-0.3816073536872864,0.4333264827728271,1.741560578346252,-0.1894451379776001,1,0.5730999708175659,0.4655630588531494,0.6228181123733521,-0.2586601376533508,-0.9547193050384521,-0.2834459841251373,0.0903850793838501,0,0,0,-1,64333.71064804167,2,0,1561241873.373563,1561241546.732582,16,16.27515,0,0,14.2948,0,0,1561241691.513234,64332.552692,0,-1.300049,74.44205,2650659446,177292352,1,1,0.2,-10.05501,-13.58698,3
1561241875.238582,82,0,0,1561241875.106207,4.603106881078705,-74.06474911828803,2650.965,-1,-1,10,65,-9999,1561241875.224808,-8.531457901000977,-24.76167488098145,2.77728271484375,172.1320190429688,179.6757049560547,15,64335.602551875,-0.316619873046875,0.9869384765625,-0.73992919921875,64335.59342787501,-0.9147763933662607,0.4241408941604177,-0.2341768146567386,64335.59147387501,29.00434875488281,-24.04827880859375,-531.2081909179688,64335.583295875,-2.090751089628622,-1.641271265454341,0.2963631338258094,-2.099777936935425,0.5636511445045471,-0.05687613412737846,0.5008294582366943,1.590811014175415,-0.5550634860992432,1,0.5754770040512085,0.4499995708465576,0.63750821352005,-0.2447647899389267,-0.9540307521820068,-0.2920438349246979,0.06734678894281387,0,0,0,-1,64333.71064804167,2,0,1561241873.373563,1561241546.732582,16,16.27515,0,0,14.2948,0,0,1561241691.513234,64332.552692,0,-1.300049,74.44205,2650659446,177292352,1,1,0.2,-10.05501,-13.7102,3
1561241875.255275,83,0,0,1561241875.106207,4.603106881078705,-74.06474911828803,2650.965,-1,-1,10,65,-9999,1561241875.249328,-8.411722183227539,-25.15431785583496,2.21600341796875,170.8763427734375,178.4200286865234,15,64335.622815875,0.0500946044921875,0.87884521484375,-0.1218414306640625,64335.613690875,2.097284365859823,0.4224495205521083,-0.9650480863153595,64335.61158587501,29.09327697753906,-23.82403564453125,-531.0787963867188,64335.603558875,-2.108770631077238,-1.627000655987904,0.303243972367461,0.5376414060592651,0.3983047604560852,-0.6587739586830139,0.6362458467483521,1.285556197166443,-0.7935408353805542,1,0.5734503269195557,0.4449275732040405,0.6447199583053589,-0.2398548126220703,-0.9528657793998718,-0.2986177206039429,0.05361164733767509,0,0,0,-1,64333.71064804167,2,0,1561241873.373563,1561241546.732582,16,16.27515,0,0,14.2948,0,0,1561241691.513234,64332.552692,0,-1.300049,74.44205,2650659446,177292352,1,1,0.2,-10.05501,-14.75078,3
1561241875.275268,84,0,0,1561241875.106207,4.603106881078705,-74.06474911828803,2650.965,-1,-1,10,65,-9999,1561241875.249328,-8.411722183227539,-25.15431785583496,2.21600341796875,170.8763427734375,178.4200286865234,15,64335.643079875,0.1725006103515625,0.43829345703125,0.6107025146484375,64335.633954875,3.042145158480163,0.6164528164811106,-0.05896105495380929,64335.63172687501,29.69735717773438,-23.92637634277344,-529.7831420898438,64335.623822875,-2.065470565805193,-1.631843470378249,0.318437334702887,3.093063116073608,0.4631417989730835,-0.737001895904541,0.9980513453483582,1.191928029060364,-0.1797834634780884,1,0.561859667301178,0.4618276059627533,0.6401191353797913,-0.2475409358739853,-0.9479567408561707,-0.3130828440189362,0.05794204771518707,0,0,0,-1,64333.71064804167,2,0,1561241873.373563,1561241546.732582,16,16.27515,0,0,14.2948,0,0,1561241691.513234,64332.552692,0,-1.300049,74.44205,2650659446,177292352,1,1,0.2,-10.05501,-15.76771,3
1561241875.29547,85,0,0,1561241875.106207,4.603106881078705,-74.06474911828803,2650.965,-1,-1,10,65,-9999,1561241875.275429,-7.667797088623047,-24.94022750854492,3.9542236328125,166.4103393554688,173.9540252685547,15,64335.66334287501,0.1800689697265625,-0.207977294921875,0.6597747802734375,64335.654218875,1.095616749291437,-0.06635132697877918,0.4966233506007773,64335.65186887501,29.47918701171875,-23.86854553222656,-528.9254150390625,64335.64408687501,-2.003714351556064,-1.640115376823266,0.3165241193665219,2.208784818649292,0.4542452394962311,0.4446847140789032,1.120541453361511,0.749558687210083,0.5448797941207886,1,0.550383985042572,0.479571521282196,0.6296172738075256,-0.2658396661281586,-0.948040783405304,-0.311265230178833,0.06582275032997131,0,0,0,-1,64335.655957875,3,2,1561241875.318873,1561241546.732582,16,16.27515,0,0,14.2948,0,0,1561241691.513234,64332.552692,0,-1.300049,74.44205,2650659446,177292352,1,1,0.2,-10.05501,-15.76771,3
1561241875.320416,86,0,0,1561241875.106207,4.603106881078705,-74.06474911828803,2650.965,-1,-1,10,65,-9999,1561241875.300041,-7.974790573120117,-24.85261535644531,4.66363525390625,164.9609985351562,172.5046844482422,15,64335.68360687501,-0.13714599609375,-0.36016845703125,0.5256805419921875,64335.674481875,-0.5879884181181256,-0.9505916489700824,0.002135588878134541,64335.672009875,29.57107543945312,-24.05426025390625,-528.5388793945312,64335.66434987501,-1.980574733156668,-1.648870474573577,0.3062449096456217,0.1236772760748863,-0.6383581161499023,0.2066231369972229,1.130636811256409,0.09350308775901794,0.5854088068008423,1,0.5499160289764404,0.484536200761795,0.6225166320800781,-0.2743903398513794,-0.9505678415298462,-0.3014803826808929,0.07436593621969223,0,0,0,-1,64335.655957875,3,2,1561241875.318873,1561241546.732582,16,16.27515,0,0,14.2948,0,0,1561241691.513234,64332.552692,0,-1.300049,74.44205,2650659446,177292352,1,1,0.2,-10.05501,-16.83915,3
1561241875.336119,87,0,0,1561241875.106207,4.603106881078705,-74.06474911828803,2650.965,-1,-1,10,65,-9999,1561241875.326109,-7.866331100463867,-24.76744842529297,4.77880859375,166.2134399414062,173.7571258544922,15,64335.703870875,-0.53729248046875,-0.1552886962890625,0.349334716796875,64335.69474587501,-1.159461509052234,-0.4823538671640237,0.2212021601419815,64335.69212087501,29.43000793457031,-23.83549499511719,-529.12255859375,64335.684613875,-1.992005246140857,-1.663168251943753,0.3062635180580225,-1.015485286712646,-0.8542222380638123,0.03750522807240486,0.8122559189796448,-0.05867034196853638,0.4377322196960449,1,0.5571193099021912,0.4833138287067413,0.6201106309890747,-0.2673735618591309,-0.9494019150733948,-0.301498144865036,0.08794836699962616,0,0,0,-1,64335.655957875,3,2,1561241875.318873,1561241546.732582,16,16.27515,0,0,14.2948,0,0,1561241691.513234,64332.552692,0,-1.300049,74.44205,2650659446,177292352,1,1,0.2,-10.05501,-17.79703,3
1561241875.356338,88,0,0,1561241875.106207,4.603106881078705,-74.06474911828803,2650.965,-1,-1,10,65,-9999,1561241875.350701,-8.124160766601562,-24.92292976379395,4.22064208984375,167.692626953125,175.2363128662109,15,64335.724133875,-0.6634368896484375,-0.070159912109375,0.172149658203125,64335.71500987501,-0.7049986616685011,-0.03229482295884589,0.4492537042915378,64335.712262875,29.24674987792969,-23.77363586425781,-529.4315795898438,64335.704877875,-2.015921466894407,-1.666233505108785,0.3040957238883215,-1.034565567970276,-0.188941165804863,0.3752193450927734,0.4124836921691895,0.1441417932510376,0.2584145069122314,1,0.5643010139465332,0.4764708280563354,0.6220707893371582,-0.2599380910396576,-0.9497761726379395,-0.2994305193424225,0.09092016518115997,0,0,0,-1,64335.655957875,3,2,1561241875.318873,1561241546.732582,16,16.27515,0,0,14.2948,0,0,1561241691.513234,64332.552692,0,-1.300049,74.44205,2650659446,177292352,1,1,0.2,-10.05501,-18.80986,3
1561241875.376585,89,0,0,1561241875.106207,4.603106881078705,-74.06474911828803,2650.965,-1,-1,10,65,-9999,1561241875.350701,-8.124160766601562,-24.92292976379395,4.22064208984375,167.692626953125,175.2363128662109,15,64335.744397875,-0.7776947021484375,-0.1804656982421875,0.0874176025390625,64335.735272875,0.05701162103587129,-0.19594474036367,0.4733073752571335,64335.732404875,29.21273803710938,-23.696533203125,-529.7334594726562,64335.725140875,-2.031344616312106,-1.663241543764714,0.2965090212986454,-0.2817168235778809,-0.09052484482526779,0.4830472767353058,0.288841724395752,0.2220234572887421,0.08386445045471191,1,0.5687124133110046,0.4697965681552887,0.6237697601318359,-0.2583963572978973,-0.9522786736488342,-0.2921833395957947,0.08828525245189667,0,0,0,-1,64335.655957875,3,2,1561241875.318873,1561241546.732582,16,16.27515,0,0,14.2948,0,0,1561241691.513234,64332.552692,0,-1.300049,74.44205,2650659446,177292352,1,1,0.2,-10.05501,-19.28925,3
1561241875.400217,90,0,0,1561241875.106207,4.603106881078705,-74.06474911828803,2650.965,-1,-1,10,65,-9999,1561241875.376752,-8.338006973266602,-24.77240180969238,3.933837890625,167.9038391113281,175.4475250244141,15,64335.764661875,-0.9242095947265625,-0.2549896240234375,0.1347503662109375,64335.755536875,0.1674395956360069,0.01381727868365811,0.3929539462150448,64335.752545875,29.1612548828125,-23.61517333984375,-529.4772338867188,64335.745404875,-2.032030264314001,-1.666444253103592,0.2871551003045874,0.1667049080133438,-0.1379355043172836,0.4153784811496735,0.1769751906394958,0.1027592718601227,-0.004174113273620605,1,0.571938693523407,0.4676344394683838,0.6215313076972961,-0.2605820596218109,-0.9546698927879333,-0.2832249701023102,0.09159167855978012,0,0,0,-1,64335.655957875,3,2,1561241875.318873,1561241546.732582,16,16.27515,0,0,14.2948,0,0,1561241691.513234,64332.552692,0,-1.300049,74.44205,2650659446,177292352,1,1,0.2,-10.05501,-19.74888,3
1561241875.417402,91,0,0,1561241875.106207,4.603106881078705,-74.06474911828803,2650.965,-1,-1,10,65,-9999,1561241875.403183,-8.516786575317383,-24.66348266601562,3.9898681640625,167.725830078125,175.2695159912109,15,64335.784894875,-0.971832275390625,-0.278533935546875,0.1739654541015625,64335.77576987501,0.07527744400439776,0.08014623510928062,0.3561077809532534,64335.772687875,28.89559936523438,-23.70045471191406,-529.2427978515625,64335.76566887501,-2.029453870628056,-1.667277005713167,0.2789607065406268,0.1346428394317627,0.08926142752170563,0.3738414347171783,0.03266173601150513,0.02036705613136292,0.04214322566986084,1,0.5733970403671265,0.4663897454738617,0.6197019219398499,-0.2639432549476624,-0.9568713307380676,-0.2753566801548004,0.09260711818933487,0,0,0,-1,64335.655957875,3,2,1561241875.318873,1561241546.732582,16,16.27515,0,0,14.2948,0,0,1561241691.513234,64332.552692,0,-1.300049,74.44205,2650659446,177292352,1,1,0.2,-10.05501,-20.67621,3
1561241875.437398,92,0,0,1561241875.106207,4.603106881078705,-74.06474911828803,2650.965,-1,-1,10,65,-9999,1561241875.427324,-8.853082656860352,-24.54585647583008,4.0001220703125,167.8337249755859,175.3774108886719,15,64335.805158875,-1.0013427734375,-0.2841644287109375,0.109130859375,64335.79603387501,-0.2606691422325198,-0.04813876723205429,0.2557881005866226,64335.792798875,28.77351379394531,-23.49761962890625,-529.326171875,64335.785901875,-2.029072863502444,-1.666055961290376,0.271780688871425,-0.09848334640264511,0.0210094042122364,0.3234275281429291,-0.01290535926818848,-0.0100867748260498,0.08234107494354248,1,0.5745024085044861,0.4644988179206848,0.6188935041427612,-0.2667555510997772,-0.9589269161224365,-0.2684471905231476,0.09162434190511703,0,0,0,-1,64335.655957875,3,2,1561241875.318873,1561241546.732582,16,16.27515,0,0,14.2948,0,0,1561241691.513234,64332.552692,0,-1.300049,74.44205,2650659446,177292352,1,1,0.2,-10.05501,-20.67621,3
1561241875.457687,93,0,0,1561241875.106207,4.603106881078705,-74.06474911828803,2650.965,-1,-1,10,65,-9999,1561241875.451808,-8.940046310424805,-24.5909366607666,3.8843994140625,168.1806945800781,175.7243804931641,15,64335.825447125,-1.018768310546875,-0.20916748046875,0.0946044921875,64335.81632212501,-0.1300115296760333,-0.2581082465282996,0.1784557614851197,64335.81296612501,28.70210266113281,-23.45912170410156,-529.64892578125,64335.806165875,-2.034393838421495,-1.665845318028154,0.267044193039449,-0.2567273080348969,-0.1568183749914169,0.1984291225671768,-0.04114121198654175,-0.02028286457061768,0.01758885383605957,1,0.5767010450363159,0.4617216885089874,0.6189308762550354,-0.2667465806007385,-0.9602015018463135,-0.2638815641403198,0.09154202789068222,0,0,0,-1,64335.655957875,3,2,1561241875.318873,1561241546.732582,16,16.27515,0,0,14.2948,0,0,1561241691.513234,64332.552692,0,-1.300049,74.44205,2650659446,177292352,1,1,0.2,-10.05501,-21.37924,3
1561241875.478573,94,0,0,1561241875.106207,4.603106881078705,-74.06474911828803,2650.965,-1,-1,10,65,-9999,1561241875.451808,-8.940046310424805,-24.5909366607666,3.8843994140625,168.1806945800781,175.7243804931641,15,64335.845711125,-1.029266357421875,-0.2134552001953125,0.117340087890625,64335.83658612501,0.196816925620671,-0.3141430200763298,0.1698060805806513,64335.83310712501,28.40205383300781,-23.46493530273438,-529.4652709960938,64335.826454125,-2.03742259500114,-1.670289302338005,0.2637036107113783,0.02145077288150787,-0.3340789377689362,0.1609118431806564,-0.05811154842376709,0.05149039626121521,-0.001290798187255859,1,0.5794965624809265,0.4605771899223328,0.6175320148468018,-0.2659070193767548,-0.9606567621231079,-0.2606579065322876,0.09589523077011108,0,0,0,-1,64335.655957875,3,2,1561241875.318873,1561241546.732582,16,16.27515,0,0,14.2948,0,0,1561241691.513234,64332.552692,0,-1.300049,74.44205,2650659446,177292352,1,1,0.2,-10.05501,-20.2173,3
1561241875.499978,95,0,0,1561241875.106207,4.603106881078705,-74.06474911828803,2650.965,-1,-1,10,65,-9999,1561241875.479713,-9.119680404663086,-24.4216423034668,4.14630126953125,168.0112457275391,175.554931640625,15,64335.865975125,-1.066192626953125,-0.2704315185546875,0.1638946533203125,64335.856850125,0.2646455080561171,-0.1422511517299285,0.1233419090420388,64335.853249125,28.31663513183594,-23.44374084472656,-529.1468505859375,64335.846718125,-2.034035049519487,-1.677626574670327,0.2600931027124176,0.2962943315505981,-0.2788811922073364,0.1400022953748703,-0.06840956211090088,0.04371529817581177,0.01429927349090576,1,0.5817537903785706,0.4616090953350067,0.6143873333930969,-0.266472727060318,-0.9608567953109741,-0.2571705281734467,0.1030408591032028,0,0,0,-1,64335.655957875,3,2,1561241875.318873,1561241546.732582,16,16.27515,0,0,14.2948,0,0,1561241691.513234,64332.552692,0,-1.300049,74.44205,2650659446,177292352,1,1,0.2,-10.05501,-13.18503,3
1561241875.518604,96,0,0,1561241875.106207,4.603106881078705,-74.06474911828803,2650.965,-1,-1,10,65,-9999,1561241875.502391,-9.149547576904297,-24.42215728759766,4.234375,167.6784973144531,175.2221832275391,15,64335.88623812501,-1.047805786132812,-0.3043365478515625,0.217193603515625,64335.877113125,0.05590001759687221,0.008889631718684498,0.09588977820939305,64335.87336012501,28.4842529296875,-23.36116027832031,-529.1622314453125,64335.866982125,-2.029105841408661,-1.681928793406913,0.2569704138996738,0.1640225648880005,-0.02495622262358665,0.1360195428133011,-0.1049946546554565,-0.01627993583679199,0.056632399559021,1,0.5826056599617004,0.462819367647171,0.6119830012321472,-0.268040269613266,-0.9611979722976685,-0.2541516125202179,0.1072622463107109,0,0,0,-1,64335.655957875,3,2,1561241875.318873,1561241546.732582,16,16.27515,0,0,14.2948,0,0,1561241691.513234,64332.552692,0,-1.300049,74.44205,2650659446,177292352,1,1,0.2,-10.05501,-14.11144,3
1561241875.53875,97,0,0,1561241875.106207,4.603106881078705,-74.06474911828803,2650.965,-1,-1,10,65,-9999,1561241875.528721,-9.047966003417969,-24.52462005615234,4.21484375,167.71630859375,175.2599945068359,15,64335.90650212501,-1.035247802734375,-0.2941741943359375,0.1898651123046875,64335.897377125,-0.1657697936325272,-0.2741242310079272,0.03031449637226296,64335.89350112501,28.39459228515625,-23.46644592285156,-529.2857666015625,64335.88724512501,-2.028234708916975,-1.682663429011031,0.2549875400153025,-0.05962809920310974,-0.1077786684036255,0.04415594041347504,-0.08618783950805664,-0.052103191614151,0.1091692447662354,1,0.5830550789833069,0.4626650810241699,0.6113365292549133,-0.268803745508194,-0.9616179466247559,-0.2522333562374115,0.1080244034528732,0,0,0,-1,64335.655957875,3,2,1561241875.318873,1561241546.732582,16,16.27515,0,0,14.2948,0,0,1561241691.513234,64332.552692,0,-1.300049,74.44205,2650659446,177292352,1,1,0.2,-10.05501,-15.15399,3
1561241875.560124,98,0,0,1561241875.106207,4.603106881078705,-74.06474911828803,2650.965,-1,-1,10,65,-9999,1561241875.553173,-8.965642929077148,-24.28783226013184,4.3848876953125,168.0695495605469,175.6132354736328,15,64335.92676612501,-1.054672241210938,-0.2514495849609375,0.12274169921875,64335.917641125,-0.267126775243744,-0.4776003909343413,0.008912002271841163,64335.913643125,28.27554321289062,-23.54220581054688,-529.1782836914062,64335.90750912501,-2.031685144995886,-1.687291716021753,0.254680880749971,-0.2491996288299561,-0.4092612862586975,0.02864569053053856,-0.07406330108642578,-0.04223760962486267,0.07738220691680908,1,0.5853322744369507,0.4621986150741577,0.6103977560997009,-0.2667829990386963,-0.9611845016479492,-0.2519365847110748,0.1124828606843948,0,0,0,-1,64335.655957875,3,2,1561241875.318873,1561241546.732582,16,16.27515,0,0,14.2948,0,0,1561241691.513234,64332.552692,0,-1.300049,74.44205,2650659446,177292352,1,1,0.2,-10.05501,-16.13385,3
1561241875.57981,99,0,0,1561241875.106207,4.603106881078705,-74.06474911828803,2650.965,-1,-1,10,65,-9999,1561241875.553173,-8.965642929077148,-24.28783226013184,4.3848876953125,168.0695495605469,175.6132354736328,15,64335.947029125,-1.076416015625,-0.2110595703125,0.11395263671875,64335.93790412501,-0.06562987663947671,-0.4360641326768114,-0.0140119557593429,64335.933785125,28.23583984375,-23.47065734863281,-529.428466796875,64335.927773125,-2.036864486583243,-1.695543255490777,0.2551444599224907,-0.1839641630649567,-0.4951269328594208,-0.01356061827391386,-0.09456473588943481,0.0009356141090393066,0.002346038818359375,1,0.5889448523521423,0.4618893563747406,0.6087353229522705,-0.263141393661499,-0.9601075053215027,-0.2523851990699768,0.1203956305980682,0,0,0,-1,64335.655957875,3,2,1561241875.318873,1561241546.732582,16,16.27515,0,0,14.2948,0,0,1561241691.513234,64333.501907,0,-1.300049,74.44205,2650659446,177292352,1,1,0.2,-10.05501,-16.90433,3
1561241875.59992,100,0,0,1561241875.106207,4.603106881078705,-74.06474911828803,2650.965,-1,-1,10,65,-9999,1561241875.579821,-9.023374557495117,-24.38113975524902,4.1585693359375,168.2196350097656,175.7633209228516,15,64335.967293125,-1.074478149414062,-0.24505615234375,0.1641082763671875,64335.95816812501,0.1352984370720586,-0.187945936029617,-0.0293648131275407,64335.953926125,28.55902099609375,-23.3936767578125,-529.2767944335938,64335.948036125,-2.038238891585064,-1.703939165485792,0.2556321390977572,0.05087257921695709,-0.3244766294956207,-0.01827494613826275,-0.117475152015686,0.04179751873016357,-0.01448321342468262,1,0.5917097330093384,0.4627067744731903,0.6065149903297424,-0.2606177628040314,-0.958940863609314,-0.2528570592403412,0.1284359395503998,0,0,0,-1,64335.655957875,3,2,1561241875.318873,1561241546.732582,16,16.27515,0,0,14.2948,0,0,1561241691.513234,64333.501907,0,-1.300049,74.44205,2650659446,177292352,1,1,0.2,-10.05501,-16.90433,3
1561241875.621422,101,0,0,1561241875.106207,4.603106881078705,-74.06474911828803,2650.965,-1,-1,10,65,-9999,1561241875.603695,-9.021965026855469,-24.39844512939453,4.28515625,168.0457611083984,175.5894470214844,15,64335.987557125,-1.028656005859375,-0.2888031005859375,0.173614501953125,64335.978432125,0.03288497945640744,0.01013625742495059,-0.07420578798174987,64335.974037125,28.45579528808594,-23.34284973144531,-529.1522216796875,64335.968300125,-2.035781516445445,-1.70856298217291,0.2559643498043945,0.1212418228387833,-0.0786450207233429,-0.04839982464909554,-0.1162247061729431,0.00812232494354248,0.03125131130218506,1,0.5924702286720276,0.4641201496124268,0.6048794388771057,-0.2601776421070099,-0.9582535028457642,-0.2531784474849701,0.1328569650650024,0,0,0,-1,64335.655957875,3,2,1561241875.318873,1561241546.732582,16,16.27515,0,0,14.2948,0,0,1561241691.513234,64333.501907,0,-1.300049,74.44205,2650659446,177292352,1,1,0.2,-10.05501,-17.20448,3
1561241875.640545,102,0,0,1561241875.106207,4.603106881078705,-74.06474911828803,2650.965,-1,-1,10,65,-9999,1561241875.630007,-8.942680358886719,-24.44438362121582,4.395263671875,168.0490875244141,175.5927734375,15,64336.00782012501,-0.9763031005859375,-0.2800445556640625,0.1658172607421875,64335.998696125,-0.09754946020073044,-0.0554928202661991,-0.09528444169361804,64335.994179125,28.69192504882812,-23.4871826171875,-529.1101684570312,64335.988564125,-2.034887047094685,-1.709047112703634,0.2573952804647023,-0.04874669015407562,0.002131054177880287,-0.09888909757137299,-0.07082688808441162,-0.03424063324928284,0.0403437614440918,1,0.5921053886413574,0.4648081362247467,0.6048496961593628,-0.2598486840724945,-0.9578291177749634,-0.2545624971389771,0.1332707852125168,0,0,0,-1,64335.655957875,3,2,1561241875.318873,1561241546.732582,16,16.27515,0,0,14.2948,0,0,1561241691.513234,64333.501907,0,-1.300049,74.44205,2650659446,177292352,1,1,0.2,-10.05501,-18.30078,3
1561241875.660261,103,0,0,1561241875.106207,4.603106881078705,-74.06474911828803,2650.965,-1,-1,10,65,-9999,1561241875.65441,-8.882438659667969,-24.55084609985352,4.433349609375,168.2330932617188,175.7767791748047,15,64336.02808412501,-0.9638671875,-0.2533721923828125,0.1294708251953125,64336.018959125,-0.1566599184916932,-0.2322553439302464,-0.1332025292941662,64336.014321125,28.53572082519531,-23.64486694335938,-529.3944702148438,64336.00882712501,-2.036699491451702,-1.709919800889823,0.2596769158938239,-0.1500213891267776,-0.147712767124176,-0.1040369868278503,-0.01916825771331787,-0.02327626943588257,0.03179144859313965,1,0.5923062562942505,0.4649582505226135,0.6051921844482422,-0.2583206593990326,-0.9571349024772644,-0.2567683160305023,0.1340257525444031,0,0,0,-1,64335.655957875,3,2,1561241875.318873,1561241546.732582,16,16.27515,0,0,14.2948,0,0,1561241691.513234,64333.501907,0,-1.300049,74.44205,2650659446,177292352,1,1,0.2,-10.05501,-19.31918,3
1561241875.681017,104,0,0,1561241875.106207,4.603106881078705,-74.06474911828803,2650.965,-1,-1,10,65,-9999,1561241875.65441,-8.882438659667969,-24.55084609985352,4.433349609375,168.2330932617188,175.7767791748047,15,64336.048348125,-0.9771728515625,-0.2352447509765625,0.096893310546875,64336.039223125,-0.1927068691103517,-0.06991596809785024,-0.1432892519228413,64336.034462125,28.82569885253906,-23.68003845214844,-529.207763671875,64336.029091125,-2.039599212746785,-1.713584450889849,0.2628867076631026,-0.1713719516992569,-0.2166036814451218,-0.1725670546293259,-0.008050858974456787,0.006496965885162354,-0.007943630218505859,1,0.5934082269668579,0.4653749763965607,0.6049913763999939,-0.2554957270622253,-0.9558163285255432,-0.2598691582679749,0.1374143809080124,0,0,0,-1,64335.655957875,3,2,1561241875.318873,1561241546.732582,16,16.27515,0,0,14.2948,0,0,1561241691.513234,64333.501907,0,-1.300049,74.44205,2650659446,177292352,1,1,0.2,-10.05501,-20.25683,3
1561241875.702286,105,0,0,1561241875.106207,4.603106881078705,-74.06474911828803,2650.965,-1,-1,10,65,-9999,1561241875.681428,-8.667379379272461,-24.80320167541504,4.23406982421875,168.4653930664062,176.0090789794922,15,64336.068581125,-0.9257354736328125,-0.226806640625,0.114471435546875,64336.059456125,-0.104123207035482,0.2611818007423601,-0.1239115591992068,64336.05460412501,28.80783081054688,-23.55613708496094,-529.0179443359375,64336.049355125,-2.043056518842775,-1.714068782953186,0.2663808287041907,-0.1763552576303482,0.1083789318799973,-0.123551033437252,-0.02232736349105835,0.02799686789512634,-0.04085350036621094,1,0.593617856502533,0.4652862250804901,0.6058430671691895,-0.2531419992446899,-0.9548454880714417,-0.2632416486740112,0.1377468556165695,0,0,0,-1,64335.655957875,3,2,1561241875.318873,1561241546.732582,16,16.27515,0,0,14.2948,0,0,1561241691.513234,64333.501907,0,-1.300049,74.44205,2650659446,177292352,1,1,0.2,-10.05501,-21.00675,3
1561241875.72142,106,0,0,1561241875.106207,4.603106881078705,-74.06474911828803,2650.965,-1,-1,10,65,-9999,1561241875.705017,-8.625392913818359,-24.69834136962891,4.19073486328125,168.5782318115234,176.1219177246094,15,64336.08884412501,-0.87255859375,-0.239227294921875,0.1282958984375,64336.079720125,0.007841145197520301,0.2416472478305198,-0.08282004884372018,64336.074715125,29.03099060058594,-23.45098876953125,-529.245361328125,64336.06958812501,-2.044889626672993,-1.708955713418519,0.2691136238235587,-0.03305561095476151,0.2777362465858459,-0.1052399352192879,0.02908563613891602,0.03907045722007751,-0.01829183101654053,1,0.591911792755127,0.4647817611694336,0.6080217361450195,-0.2528398334980011,-0.9548211693763733,-0.2658770680427551,0.1327633112668991,0,0,0,-1,64335.655957875,3,2,1561241875.318873,1561241546.732582,16,16.27515,0,0,14.2948,0,0,1561241691.513234,64333.501907,0,-1.300049,74.44205,2650659446,177292352,1,1,0.2,-10.05501,-22.01022,3
1561241875.741276,107,0,0,1561241875.106207,4.603106881078705,-74.06474911828803,2650.965,-1,-1,10,65,-9999,1561241875.731882,-8.677690505981445,-24.7143611907959,4.0372314453125,168.5760955810547,176.1197814941406,15,64336.10910812501,-0.86517333984375,-0.257415771484375,0.1316680908203125,64336.099983125,-0.03062448832314818,-0.05770590713205495,-0.01969434257724497,64336.094856125,29.004150390625,-23.68977355957031,-529.4630126953125,64336.08985212501,-2.04476977741155,-1.704572735717341,0.2707751928497718,-0.01205551996827126,0.1194025501608849,-0.04758036881685257,0.08239597082138062,0.02825117111206055,-0.0002220869064331055,1,0.5901957750320435,0.4646804630756378,0.6095624566078186,-0.2533270120620728,-0.9549546241760254,-0.2674784660339355,0.1285179704427719,0,0,0,-1,64335.655957875,3,2,1561241875.318873,1561241546.732582,16,16.27515,0,0,14.2948,0,0,1561241691.513234,64333.501907,0,-1.300049,74.44205,2650659446,177292352,1,1,0.2,-10.05501,-23.08925,3
1561241875.761546,108,0,0,1561241875.106207,4.603106881078705,-74.06474911828803,2650.965,-1,-1,10,65,-9999,1561241875.755684,-8.541849136352539,-24.70314788818359,3.9686279296875,168.6083526611328,176.1520385742188,15,64336.129372125,-0.9185943603515625,-0.25860595703125,0.1291961669921875,64336.12024712501,-0.034315363277889,-0.2240221814202664,-0.05783746728990486,64336.11499812501,28.93344116210938,-23.70674133300781,-529.4595336914062,64336.110115125,-2.045234764719591,-1.705606762525848,0.2714983840497732,-0.02358407899737358,-0.2059041559696198,-0.05323692411184311,0.08945590257644653,0.01075947284698486,0.002188682556152344,1,0.5904646515846252,0.4648560583591461,0.6094292402267456,-0.2526980340480804,-0.9546292424201965,-0.2681752443313599,0.129479318857193,0,0,0,-1,64335.655957875,3,2,1561241875.318873,1561241546.732582,16,16.27515,0,0,14.2948,0,0,1561241691.513234,64333.501907,0,-1.300049,74.44205,2650659446,177292352,1,1,0.2,-10.05501,-23.08925,3
1561241875.798108,109,0,0,1561241875.106207,4.603106881078705,-74.06474911828803,2650.965,-1,-1,10,65,-9999,1561241875.782434,-8.468019485473633,-24.81683349609375,4.0948486328125,168.6390533447266,176.1827392578125,15,64336.149635125,-0.921234130859375,-0.2596435546875,0.1150054931640625,64336.14051112501,-0.02052551515345871,-0.1160443150230037,-0.02904363590007715,64336.13514012501,29.107177734375,-23.83482360839844,-529.4022216796875,64336.130379125,-2.045844212887431,-1.709830534870973,0.2726463282217767,-0.04612427577376366,-0.2005855590105057,-0.04572973772883415,0.03517407178878784,0.01067501306533813,-0.004271388053894043,1,0.5916476249694824,0.4654963612556458,0.6084374785423279,-0.2511375844478607,-0.9537684321403503,-0.2692809402942657,0.1334675550460815,0,0,0,-1,64335.655957875,3,2,1561241875.318873,1561241546.732582,16,16.27515,0,0,14.2948,0,0,1561241691.513234,64333.501907,0,-1.300049,74.44205,2650659446,177292352,1,1,0.2,-10.05501,-25.19564,3
1561241875.802988,110,0,0,1561241875.106207,4.603106881078705,-74.06474911828803,2650.965,-1,-1,10,65,-9999,1561241875.782434,-8.468019485473633,-24.81683349609375,4.0948486328125,168.6390533447266,176.1827392578125,15,64336.169899125,-0.9351348876953125,-0.2646331787109375,0.144622802734375,64336.160774125,0.05136625215712132,-0.05266454318853495,0.02411226050957742,64336.155281125,29.037353515625,-23.90184020996094,-529.326416015625,64336.150643125,-2.046218282129274,-1.712264243247672,0.2731902237513472,0.01265142299234867,-0.06371773034334183,0.002481198869645596,0.03206145763397217,0.01016116142272949,-0.02076220512390137,1,0.5923588871955872,0.4658269882202148,0.6078491806983948,-0.2502709031105042,-0.9532955884933472,-0.2698047161102295,0.1357676684856415,0,0,0,-1,64335.655957875,3,2,1561241875.318873,1561241546.732582,16,16.27515,0,0,14.2948,0,0,1561241691.513234,64333.501907,0,-1.300049,74.44205,2650659446,177292352,1,1,0.2,-10.05501,-25.19564,3
1561241875.822368,111,0,0,1561241875.106207,4.603106881078705,-74.06474911828803,2650.965,-1,-1,10,65,-9999,1561241875.806295,-8.451440811157227,-24.97442054748535,4.15277099609375,168.5713806152344,176.1150665283203,15,64336.19016312501,-0.96051025390625,-0.297454833984375,0.1662750244140625,64336.181038125,0.04590464139358682,-0.06520403718117304,-0.04093331858673591,64336.175423125,29.09352111816406,-23.89202880859375,-529.2813720703125,64336.170906125,-2.045344243974843,-1.713747255853808,0.2728283744565328,0.06022479757666588,-0.06633854657411575,-0.01357020530849695,0.01805490255355835,0.004823088645935059,0.007427692413330078,1,0.5926827788352966,0.4661809802055359,0.6072436571121216,-0.250314861536026,-0.9531897902488708,-0.2694562673568726,0.1371951699256897,0,0,0,-1,64335.655957875,3,2,1561241875.318873,1561241546.732582,16,16.27515,0,0,14.2948,0,0,1561241691.513234,64333.501907,0,-1.300049,74.44205,2650659446,177292352,1,1,0.2,-10.05501,-25.97248,3
1561241875.842549,112,0,0,1561241875.106207,4.603106881078705,-74.06474911828803,2650.965,-1,-1,10,65,-9999,1561241875.832952,-8.402944564819336,-25.01593780517578,4.38140869140625,168.5454406738281,176.0891265869141,15,64336.21042612501,-0.95513916015625,-0.2969207763671875,0.1574554443359375,64336.201302125,-0.05300995518191823,-0.008897887518063743,-0.09015466080190741,64336.19553412501,29.01750183105469,-24.08580017089844,-529.369140625,64336.19117012501,-2.044487811972804,-1.715348129853201,0.2736471057155344,-0.01435329578816891,-0.04561809450387955,-0.08026720583438873,-0.00775986909866333,-0.02721017599105835,0.02758598327636719,1,0.5927945375442505,0.4668395817279816,0.6067908406257629,-0.2499207705259323,-0.9527503848075867,-0.2702446281909943,0.1386891156435013,0,0,0,-1,64335.655957875,3,2,1561241875.318873,1561241546.732582,16,16.27515,0,0,14.2948,0,0,1561241691.513234,64333.501907,0,-1.300049,74.44205,2650659446,177292352,1,1,0.2,-10.05501,-26.94737,3
1561241875.875044,113,0,0,1561241875.106207,4.603106881078705,-74.06474911828803,2650.965,-1,-1,10,65,-9999,1561241875.85765,-8.397651672363281,-24.95993232727051,4.1654052734375,168.6209564208984,176.1646423339844,15,64336.230690125,-0.915863037109375,-0.274627685546875,0.1273956298828125,64336.221565125,-0.05624942433189061,-0.1077906461726301,-0.07124994548787093,64336.215675125,29.0078125,-23.68360900878906,-529.219482421875,64336.21143412501,-2.045296339880347,-1.715676626771403,0.2755492055285821,-0.07409282773733139,-0.04295263066887856,-0.07700212299823761,-0.002944886684417725,-0.02484533190727234,0.01852786540985107,1,0.5926777720451355,0.4671154618263245,0.6070930361747742,-0.2489460855722427,-0.9521942138671875,-0.2720754742622375,0.1389275938272476,0,0,0,-1,64335.655957875,3,2,1561241875.318873,1561241546.732582,16,16.27515,0,0,14.2948,0,0,1561241691.513234,64333.501907,0,-1.300049,74.44205,2650659446,177292352,1,1,0.2,-10.05501,-27.92288,3
1561241875.88361,114,0,0,1561241875.106207,4.603106881078705,-74.06474911828803,2650.965,-1,-1,10,65,-9999,1561241875.85765,-8.397651672363281,-24.95993232727051,4.1654052734375,168.6209564208984,176.1646423339844,15,64336.250954125,-0.92724609375,-0.2683258056640625,0.1284332275390625,64336.24182912501,0.02566461710898461,-0.1780613473276789,-0.04617202276703078,64336.235817125,29.02101135253906,-23.92353820800781,-528.8421630859375,64336.231697125,-2.046130816587235,-1.717733246949852,0.277184075198691,-0.00228947913274169,-0.1808092892169952,-0.07043024152517319,0.0356021523475647,-0.0009793639183044434,-0.01342463493347168,1,0.5931484699249268,0.4675307869911194,0.6068432927131653,-0.2476509362459183,-0.9514651894569397,-0.2736482918262482,0.1408202946186066,0,0,0,-1,64335.655957875,3,2,1561241875.318873,1561241546.732582,16,16.27515,0,0,14.2948,0,0,1561241691.513234,64333.501907,0,-1.300049,74.44205,2650659446,177292352,1,1,0.2,-10.05501,-28.81848,3
1561241875.903714,115,0,0,1561241875.106207,4.603106881078705,-74.06474911828803,2650.965,-1,-1,10,65,-9999,1561241875.85765,-8.397651672363281,-24.95993232727051,4.1654052734375,168.6209564208984,176.1646423339844,15,64336.271217125,-0.9106597900390625,-0.2742462158203125,0.124664306640625,64336.26209312501,0.02777783543396248,-0.02855574478837463,-0.008523979701016617,64336.255959125,29.33700561523438,-23.678466796875,-528.8516845703125,64336.251961125,-2.045573722363712,-1.721403950609323,0.2781634279219189,0.02721701376140118,-0.1279098689556122,-0.03994743153452873,0.02343058586120605,0.006264328956604004,-0.0158383846282959,1,0.5939222574234009,0.4683931767940521,0.6058388352394104,-0.2466243803501129,-0.9506766796112061,-0.2745901346206665,0.1442716270685196,0,0,0,-1,64335.655957875,3,2,1561241875.318873,1561241546.732582,16,16.27515,0,0,14.2948,0,0,1561241691.513234,64333.501907,0,-1.300049,74.44205,2650659446,177292352,1,1,0.2,-10.05501,-29.70237,3
1561241875.923608,116,0,0,1561241875.106207,4.603106881078705,-74.06474911828803,2650.965,-1,-1,10,65,-9999,1561241875.913932,-8.373336791992188,-24.94915962219238,4.33258056640625,168.5860748291016,176.1297607421875,15,64336.291481125,-0.881134033203125,-0.2823486328125,0.1319580078125,64336.282356125,0.04912946315756377,0.01752439892104841,0.01327426013739095,64336.276100125,29.29359436035156,-23.93447875976562,-529.202392578125,64336.272225125,-2.045009042235677,-1.722477926479167,0.2783685275704296,0.02790277823805809,0.01445899624377489,0.01248008944094181,0.03980565071105957,0.0005411207675933838,-0.02061975002288818,1,0.5940715074539185,0.4687441289424896,0.6054824590682983,-0.2464731484651566,-0.9504654407501221,-0.2747873365879059,0.1452840268611908,0,0,0,-1,64335.655957875,3,2,1561241875.318873,1561241546.732582,16,16.27515,0,0,14.2948,0,0,1561241691.513234,64333.501907,0,-1.300049,74.44205,2650659446,177292352,1,1,0.2,-10.05501,-29.70237,3
1561241875.958641,117,0,0,1561241875.106207,4.603106881078705,-74.06474911828803,2650.965,-1,-1,10,65,-9999,1561241875.935334,-8.474630355834961,-24.76395225524902,4.39227294921875,168.49609375,176.0397796630859,15,64336.31174512501,-0.8959197998046875,-0.2890167236328125,0.15301513671875,64336.302620125,-0.005007541797675992,-0.03488128500953084,0.04009255863059789,64336.296242125,29.2386474609375,-23.83177185058594,-529.0308837890625,64336.29248812501,-2.044252627649767,-1.722708587056533,0.2780321068221853,0.02662206254899502,-0.04320270195603371,0.02232632972300053,0.0693892240524292,-0.007884770631790161,-0.01355922222137451,1,0.5940356850624084,0.4689138829708099,0.6052677631378174,-0.2467638403177261,-0.9505232572555542,-0.2744638621807098,0.1455172449350357,0,0,0,-1,64335.655957875,3,2,1561241875.318873,1561241546.732582,16,16.27515,0,0,14.2948,0,0,1561241691.513234,64333.501907,0,-1.300049,74.44205,2650659446,177292352,1,1,0.2,-10.05501,-31.40027,3
1561241875.964269,118,0,0,1561241875.106207,4.603106881078705,-74.06474911828803,2650.965,-1,-1,10,65,-9999,1561241875.961629,-8.253702163696289,-24.70641708374023,4.23553466796875,168.5607299804688,176.1044158935547,15,64336.33200812501,-0.9107208251953125,-0.2884674072265625,0.148834228515625,64336.322884125,-0.06030541867208129,-0.0424286835388154,0.02180543037335078,64336.31638312501,29.18006896972656,-23.87742614746094,-529.2021484375,64336.31275212501,-2.044545016597649,-1.723476157886354,0.2773860763465033,-0.04313651099801064,-0.03792271763086319,0.03978894278407097,0.05466645956039429,-0.01517415046691895,0.00674140453338623,1,0.5944740772247314,0.4687615931034088,0.6049739718437195,-0.2467176914215088,-0.9505862593650818,-0.2738425731658936,0.1462737172842026,0,0,0,-1,64335.655957875,3,2,1561241875.318873,1561241546.732582,16,16.27515,0,0,14.2948,0,0,1561241691.513234,64333.501907,0,-1.300049,74.44205,2650659446,177292352,1,1,0.2,-10.05501,-31.40027,3
1561241875.985124,119,0,0,1561241875.106207,4.603106881078705,-74.06474911828803,2650.965,-1,-1,10,65,-9999,1561241875.961629,-8.253702163696289,-24.70641708374023,4.23553466796875,168.5607299804688,176.1044158935547,15,64336.352242125,-0.924102783203125,-0.2667694091796875,0.1229705810546875,64336.343117125,-0.0612804019471593,-0.06460455961979621,-0.007088535873463908,64336.336495125,29.37025451660156,-23.66485595703125,-529.33056640625,64336.33301612501,-2.045888458781746,-1.724115184687401,0.2771852307624497,-0.06644876301288605,-0.06423714756965637,-0.002352386014536023,0.03982627391815186,-0.01481801271438599,0.001944661140441895,1,0.5950248241424561,0.4683911204338074,0.6049179434776306,-0.246230885386467,-0.9505470991134644,-0.2736493945121765,0.1468895673751831,0,0,0,-1,64335.655957875,3,2,1561241875.318873,1561241546.732582,16,16.27515,0,0,14.2948,0,0,1561241691.513234,64333.501907,0,-1.300049,74.44205,2650659446,177292352,1,1,0.2,-10.05501,-32.25556,3
1561241876.004715,120,0,0,1561241875.106207,4.603106881078705,-74.06474911828803,2650.965,-1,-1,10,65,-9999,1561241875.985811,-8.294570922851562,-24.84217643737793,4.30487060546875,168.6463623046875,176.1900482177734,15,64336.372505125,-0.9267120361328125,-0.25341796875,0.113525390625,64336.363381125,0.01619867733040697,-0.05367468019000201,0.01155758649872588,64336.35663612501,29.11408996582031,-23.95292663574219,-529.2833251953125,64336.353249125,-2.047074329029004,-1.725184161999604,0.2775643523671147,-0.0267048068344593,-0.07112541049718857,-0.01112137641757727,0.02618408203125,0.007244616746902466,-0.02491903305053711,1,0.59554523229599,0.4682634770870209,0.6048051714897156,-0.2454912662506104,-0.950286865234375,-0.27401402592659,0.1478896141052246,0,0,0,-1,64335.655957875,3,2,1561241875.318873,1561241546.732582,16,16.27515,0,0,14.2948,0,0,1561241691.513234,64333.501907,0,-1.300049,74.44205,2650659446,177292352,1,1,0.2,-10.05501,-33.24608,3
1561241876.037492,121,0,0,1561241875.106207,4.603106881078705,-74.06474911828803,2650.965,-1,-1,10,65,-9999,1561241876.008896,-8.233423233032227,-24.71720695495605,4.1761474609375,168.6177215576172,176.1614074707031,15,64336.39276912501,-0.93017578125,-0.2563018798828125,0.127197265625,64336.383644125,0.0905341612572437,-0.03022741100461737,0.0572166844398074,64336.37677812501,29.11492919921875,-24.07533264160156,-529.1665649414062,64336.37351212501,-2.046848710060992,-1.726451194071883,0.2773492425210647,0.05143313854932785,-0.04793513938784599,0.03423172608017921,0.02344495058059692,0.02038919925689697,-0.03557729721069336,1,0.5959210991859436,0.4684329032897949,0.6043662428855896,-0.2453369349241257,-0.9501569867134094,-0.273807168006897,0.1491026878356934,0,0,0,-1,64335.655957875,3,2,1561241875.318873,1561241546.732582,16,16.27515,0,0,14.2948,0,0,1561241691.513234,64333.501907,0,-1.300049,74.44205,2650659446,177292352,1,1,0.2,-10.61228,-34.1846,3
