loggingTime,loggingSample,identifierForVendor,deviceID,locationTimestamp_since1970,locationLatitude,locationLongitude,locationAltitude,locationSpeed,locationCourse,locationVerticalAccuracy,locationHorizontalAccuracy,locationFloor,locationHeadingTimestamp_since1970,locationHeadingX,locationHeadingY,locationHeadingZ,locationTrueHeading,locationMagneticHeading,locationHeadingAccuracy,accelerometerTimestamp_sinceReboot,accelerometerAccelerationX,accelerometerAccelerationY,accelerometerAccelerationZ,gyroTimestamp_sinceReboot,gyroRotationX,gyroRotationY,gyroRotationZ,magnetometerTimestamp_sinceReboot,magnetometerX,magnetometerY,magnetometerZ,motionTimestamp_sinceReboot,motionYaw,motionRoll,motionPitch,motionRotationRateX,motionRotationRateY,motionRotationRateZ,motionUserAccelerationX,motionUserAccelerationY,motionUserAccelerationZ,motionAttitudeReferenceFrame,motionQuaternionX,motionQuaternionY,motionQuaternionZ,motionQuaternionW,motionGravityX,motionGravityY,motionGravityZ,motionMagneticFieldX,motionMagneticFieldY,motionMagneticFieldZ,motionMagneticFieldCalibrationAccuracy,activityTimestamp_sinceReboot,activity,activityActivityConfidence,activityActivityStartDate,pedometerStartDate,pedometerNumberofSteps,pedometerAverageActivePace,pedometerCurrentPace,pedometerCurrentCadence,pedometerDistance,pedometerFloorAscended,pedometerFloorDescended,pedometerEndDate,altimeterTimestamp_sinceReboot,altimeterReset,altimeterRelativeAltitude,altimeterPressure,IP_en0,IP_pdp_ip0,deviceOrientation,batteryState,batteryLevel,avAudioRecorderPeakPower,avAudioRecorderAveragePower,label
1561234032.652711,1,0,0,1561234030.386721,4.603072328766988,-74.06476646240939,2650.802,-1,-1,10,65,-9999,1561234032.632247,-5.565528869628906,-26.82373046875,9.47650146484375,242.9839782714844,250.5269470214844,15,57924.36732979167,-0.8437957763671875,-0.5564727783203125,0.0381622314453125,57924.35615979167,0.01789511094478744,0.01948235495447467,-0.00120188459995276,57924.35646579167,32.01268005371094,-26.33561706542969,-525.3609619140625,57924.36122579167,3.032918455567394,-1.60104526224512,0.5814486972497659,0.01962387189269066,0.007123763207346201,-0.0145680159330368,-0.002711772918701172,-0.003285586833953857,0.01181983947753906,1,0.6974276304244995,0.1619623601436615,0.6549533009529114,0.2416591793298721,-0.8352856636047363,-0.5492351651191711,0.02527421154081821,0,0,0,-1,57922.73883925001,3,2,1561234031.022379,1561233790.755775,20,1.561009,0,0,17.35344,0,0,1561233932.152863,57921.394797,0,-0.2429199,74.43334,2650659446,177292352,1,1,0.59,-35.49479,-40.84548,4
1561234032.669113,2,0,0,1561234030.386721,4.603072328766988,-74.06476646240939,2650.802,-1,-1,10,65,-9999,1561234032.658823,-5.624935150146484,-26.62156295776367,9.68157958984375,242.9457092285156,250.4886779785156,15,57924.38759379167,-0.83978271484375,-0.5541229248046875,0.043670654296875,57924.37642379167,0.0213521603558193,0.02234818260350893,-0.03588369884383667,57924.37657679167,32.02450561523438,-26.51042175292969,-525.193359375,57924.38148979167,3.033432384657629,-1.60106825109678,0.5820449161381931,0.004618857055902481,0.01285127550363541,-0.03670002147555351,-0.008670449256896973,-0.005579829216003418,0.01571691036224365,1,0.6973429918289185,0.1623406857252121,0.6549367308616638,0.2416942119598389,-0.834957480430603,-0.5497332811355591,0.02528349310159683,0,0,0,-1,57922.73883925001,3,2,1561234031.022379,1561233790.755775,20,1.561009,0,0,17.35344,0,0,1561233932.152863,57921.394797,0,-0.2429199,74.43334,2650659446,177292352,1,1,0.59,-35.49479,-40.84548,4
1561234032.688856,3,0,0,1561234030.386721,4.603072328766988,-74.06476646240939,2650.802,-1,-1,10,65,-9999,1561234032.682962,-5.595790863037109,-26.77922439575195,9.4561767578125,242.9508666992188,250.4938354492188,15,57924.40782679167,-0.8359375,-0.546966552734375,0.0355377197265625,57924.39668779167,-0.01945785387244594,0.004166781841537976,-0.01596352020615297,57924.39671779167,32.18850708007812,-26.59065246582031,-525.333984375,57924.40175379167,3.033115094381413,-1.600815349070229,0.5825529524642897,-0.02764294296503067,-0.01012967340648174,-0.01525785028934479,-0.003419637680053711,0.0003681778907775879,0.01746225357055664,1,0.6972428560256958,0.1624326705932617,0.6549264192581177,0.241949200630188,-0.8346846103668213,-0.5501576066017151,0.02506394498050213,0,0,0,-1,57922.73883925001,3,2,1561234031.022379,1561233790.755775,20,1.561009,0,0,17.35344,0,0,1561233932.152863,57921.394797,0,-0.2429199,74.43334,2650659446,177292352,1,1,0.59,-35.49479,-41.58259,4
1561234032.70912,4,0,0,1561234030.386721,4.603072328766988,-74.06476646240939,2650.802,-1,-1,10,65,-9999,1561234032.682962,-5.595790863037109,-26.77922439575195,9.4561767578125,242.9508666992188,250.4938354492188,15,57924.42808979167,-0.840850830078125,-0.55279541015625,0.025726318359375,57924.41695179167,-0.03401895344856318,0.02068210902555536,-0.01873773511368851,57924.41685979167,31.83494567871094,-26.60525512695312,-525.2910766601562,57924.42201679167,3.032313506713681,-1.600327552447281,0.5829544616287318,-0.03283850476145744,0.0193877387791872,-0.0247136689722538,-0.001598894596099854,-0.00242459774017334,0.004539728164672852,1,0.6971141695976257,0.162348285317421,0.654951810836792,0.2423076778650284,-0.8344758749008179,-0.5504928231239319,0.02465026266872883,0,0,0,-1,57922.73883925001,3,2,1561234031.022379,1561233790.755775,20,1.561009,0,0,17.35344,0,0,1561233932.152863,57921.394797,0,-0.2429199,74.43334,2650659446,177292352,1,1,0.59,-35.49479,-41.53714,4
1561234032.72944,5,0,0,1561234030.386721,4.603072328766988,-74.06476646240939,2650.802,-1,-1,10,65,-9999,1561234032.709367,-5.743732452392578,-26.89223861694336,9.4771728515625,242.9783020019531,250.5212707519531,15,57924.44835379167,-0.8450927734375,-0.556976318359375,0.0276336669921875,57924.43721479167,0.0006908239867665543,0.03115632159283701,-0.02382517174406688,57924.43700179167,31.98777770996094,-26.47840881347656,-525.3643188476562,57924.44228079167,3.032006750708498,-1.599745798732656,0.5834909073102331,0.009300427511334419,0.01905111595988274,-0.03084719553589821,-0.009417831897735596,-0.0008171796798706055,0.0008987188339233398,1,0.6969031095504761,0.1624936312437057,0.6550536751747131,0.2425419688224792,-0.8341948390007019,-0.5509406328201294,0.0241562481969595,0,0,0,-1,57922.73883925001,3,2,1561234031.022379,1561233790.755775,20,1.561009,0,0,17.35344,0,0,1561233932.152863,57921.394797,0,-0.2429199,74.43334,2650659446,177292352,1,1,0.59,-35.49479,-39.34302,4
1561234032.749618,6,0,0,1561234030.386721,4.603072328766988,-74.06476646240939,2650.802,-1,-1,10,65,-9999,1561234032.733649,-5.521625518798828,-26.74054336547852,9.506103515625,242.9569702148438,250.4999389648438,15,57924.46861779167,-0.8502960205078125,-0.5506591796875,0.0468902587890625,57924.45747879167,0.0281445527160664,0.02932193623399043,-0.04055541602805366,57924.45714279167,32.06689453125,-26.20423889160156,-525.5272216796875,57924.46254479167,3.032510456375141,-1.599668454615504,0.5842753582108571,0.02549058198928833,0.02397396974265575,-0.04015014693140984,-0.01560074090957642,-0.008005738258361816,0.009352803230285645,1,0.6967702507972717,0.1629442870616913,0.6550484895706177,0.2426354140043259,-0.8337644934654236,-0.5515950918197632,0.02407924644649029,0,0,0,-1,57922.73883925001,3,2,1561234031.022379,1561233790.755775,20,1.561009,0,0,17.35344,0,0,1561233932.152863,57921.394797,0,-0.2429199,74.43334,2650659446,177292352,1,1,0.59,-35.49479,-39.88761,4
1561234032.769901,7,0,0,1561234030.386721,4.603072328766988,-74.06476646240939,2650.802,-1,-1,10,65,-9999,1561234032.760012,-5.546241760253906,-26.67915725708008,9.31427001953125,242.923828125,250.466796875,15,57924.48888079167,-0.8364105224609375,-0.5508880615234375,0.0448760986328125,57924.47774279167,0.004181429227533412,0.0003573962182886338,-0.02700605135005752,57924.47728479167,31.81129455566406,-26.40885925292969,-525.3489990234375,57924.48280779167,3.032775915924448,-1.599775339294352,0.584906358239362,-0.009578455239534378,-0.01888055540621281,-0.02913105487823486,-0.01198422908782959,0.004635930061340332,0.02248787879943848,1,0.6967299580574036,0.1632375568151474,0.6549683213233948,0.2427701354026794,-0.8334137201309204,-0.5521212816238403,0.02415826916694641,0,0,0,-1,57922.73883925001,3,2,1561234031.022379,1561233790.755775,20,1.561009,0,0,17.35344,0,0,1561233932.152863,57921.394797,0,-0.2429199,74.43334,2650659446,177292352,1,1,0.59,-35.49479,-40.14247,4
1561234032.790142,8,0,0,1561234030.386721,4.603072328766988,-74.06476646240939,2650.802,-1,-1,10,65,-9999,1561234032.784285,-5.762292861938477,-26.84564971923828,9.49432373046875,242.9575500488281,250.5005187988281,15,57924.50914479167,-0.8342437744140625,-0.5517578125,0.0260772705078125,57924.49800579167,-0.008844624296262158,-0.03036775959406455,-0.04902746408781374,57924.49742579167,32.17840576171875,-26.31558227539062,-525.4124145507812,57924.50307179167,3.032518917633909,-1.600315207397229,0.5857731101280028,0.003138138679787517,-0.05388833954930305,-0.06489677727222443,-0.001092970371246338,0.002657592296600342,0.01416325569152832,1,0.6968538761138916,0.1633759737014771,0.6546458601951599,0.2431908398866653,-0.8329219222068787,-0.5528437495231628,0.02459406666457653,0,0,0,-1,57922.73883925001,3,2,1561234031.022379,1561233790.755775,20,1.561009,0,0,17.35344,0,0,1561233932.152863,57921.394797,0,-0.2429199,74.43334,2650659446,177292352,1,1,0.59,-35.49479,-38.01703,4
1561234032.810407,9,0,0,1561234030.386721,4.603072328766988,-74.06476646240939,2650.802,-1,-1,10,65,-9999,1561234032.784285,-5.762292861938477,-26.84564971923828,9.49432373046875,242.9575500488281,250.5005187988281,15,57924.52940879167,-0.837310791015625,-0.5579833984375,0.023468017578125,57924.51826979167,0.04760427080127539,-0.05708272743697641,-0.07731849066383449,57924.51756779167,32.06852722167969,-26.46946716308594,-525.3383178710938,57924.52333579167,3.033337193074395,-1.602037176445262,0.5873054352796337,0.04681078344583511,-0.06214041262865067,-0.07011470198631287,-0.0008702278137207031,-0.002429068088531494,-0.005646586418151855,1,0.6972192525863647,0.1639701724052429,0.6539627909660339,0.2435813397169113,-0.8320307731628418,-0.5541200041770935,0.02600180730223656,0,0,0,-1,57922.73883925001,3,2,1561234031.022379,1561233790.755775,20,1.561009,0,0,17.35344,0,0,1561233932.152863,57921.394797,0,-0.2429199,74.43334,2650659446,177292352,1,1,0.59,-35.49479,-38.01703,4
1561234032.830734,10,0,0,1561234030.386721,4.603072328766988,-74.06476646240939,2650.802,-1,-1,10,65,-9999,1561234032.810681,-5.611316680908203,-26.76329803466797,9.4227294921875,242.9564208984375,250.4993896484375,15,57924.54967179167,-0.840362548828125,-0.5526123046875,0.0311126708984375,57924.53853379167,0.05437375997614781,-0.03077682113750072,-0.035626171166426,57924.53770979167,31.69935607910156,-26.487548828125,-525.4583740234375,57924.54359879167,3.034597073114457,-1.603685520694739,0.5882744071268107,0.05469773337244987,-0.02891507931053638,-0.02629079297184944,-0.006883442401885986,-0.00111919641494751,0.0003849267959594727,1,0.6975712180137634,0.1645362675189972,0.6534260511398315,0.2436323016881943,-0.8314496874809265,-0.554926335811615,0.02735557593405247,0,0,0,-1,57922.73883925001,3,2,1561234031.022379,1561233790.755775,20,1.561009,0,0,17.35344,0,0,1561233932.152863,57921.394797,0,-0.2429199,74.43334,2650659446,177292352,1,1,0.59,-35.49479,-38.70527,4
1561234032.850926,11,0,0,1561234030.386721,4.603072328766988,-74.06476646240939,2650.802,-1,-1,10,65,-9999,1561234032.83495,-5.621112823486328,-26.92134094238281,9.49249267578125,242.9132995605469,250.4562683105469,15,57924.56993579167,-0.847991943359375,-0.5470123291015625,0.033935546875,57924.55879679167,0.05186559486151118,0.02526221346827364,-0.003220560706232823,57924.55785079167,32.04440307617188,-26.43443298339844,-525.3408203125,57924.56386279167,3.035907130000072,-1.604420248754717,0.5884272243158959,0.03948096558451653,0.03480211272835732,-0.008193016052246094,-0.01449579000473022,0.006637334823608398,0.004644393920898438,1,0.6976901292800903,0.1649554073810577,0.6533110737800598,0.2433165162801743,-0.8313446044921875,-0.5550534725189209,0.02796360664069653,0,0,0,-1,57922.73883925001,3,2,1561234031.022379,1561233790.755775,20,1.561009,0,0,17.35344,0,0,1561233932.152863,57921.394797,0,-0.2429199,74.43334,2650659446,177292352,1,1,0.59,-35.49479,-38.84781,4
1561234032.871782,12,0,0,1561234030.386721,4.603072328766988,-74.06476646240939,2650.802,-1,-1,10,65,-9999,1561234032.861329,-5.470516204833984,-26.73899078369141,9.59771728515625,242.8469848632812,250.3899536132812,15,57924.59019979167,-0.83026123046875,-0.5593719482421875,0.0496978759765625,57924.57906079167,0.0003150519569563739,0.05306508261648287,-0.01809271749767132,57924.57799279167,32.14332580566406,-26.4876708984375,-525.4119873046875,57924.58412679167,3.036211746686122,-1.603740293898578,0.5887584748362614,-0.02247987315058708,0.03498959913849831,-0.02348115853965282,-0.01260083913803101,0.002167344093322754,0.01403534412384033,1,0.6974141597747803,0.1652562320232391,0.6535459160804749,0.2432728707790375,-0.8311796188354492,-0.5553289651870728,0.02739226445555687,0,0,0,-1,57922.73883925001,3,2,1561234031.022379,1561233790.755775,20,1.561009,0,0,17.35344,0,0,1561233932.152863,57921.394797,0,-0.2429199,74.43334,2650659446,177292352,1,1,0.59,-35.49479,-39.23287,4
1561234032.891466,13,0,0,1561234030.386721,4.603072328766988,-74.06476646240939,2650.802,-1,-1,10,65,-9999,1561234032.885663,-5.475345611572266,-26.58309936523438,9.3642578125,242.8861389160156,250.4291076660156,15,57924.61046279167,-0.8239593505859375,-0.5543670654296875,0.0443572998046875,57924.59932479167,-0.04554378306588108,-0.01482927989788822,-0.03930186610295337,57924.59813379167,32.45341491699219,-26.5604248046875,-525.4627075195312,57924.60438979167,3.035229016079701,-1.603234974653581,0.5894862962146631,-0.04075981304049492,-0.04028224945068359,-0.05368619784712791,0.007730066776275635,-0.00275123119354248,0.02389848232269287,1,0.6972672343254089,0.1652209758758545,0.6535158157348633,0.243798241019249,-0.8307891488075256,-0.5559340715408325,0.02695913426578045,0,0,0,-1,57922.73883925001,3,2,1561234031.022379,1561233790.755775,20,1.561009,0,0,17.35344,0,0,1561233932.152863,57921.394797,0,-0.2429199,74.43334,2650659446,177292352,1,1,0.59,-35.49479,-40.22046,4
1561234032.911722,14,0,0,1561234030.386721,4.603072328766988,-74.06476646240939,2650.802,-1,-1,10,65,-9999,1561234032.885663,-5.475345611572266,-26.58309936523438,9.3642578125,242.8861389160156,250.4291076660156,15,57924.63072679167,-0.8274383544921875,-0.54083251953125,0.0254974365234375,57924.61958779167,-0.006689594342170038,-0.04024861987047654,-0.08955837903383868,57924.61827579167,32.24456787109375,-26.33634948730469,-525.2547607421875,57924.62465379167,3.034779473205153,-1.603900639010837,0.5910902269619821,0.002726680366322398,-0.03505047038197517,-0.09989816695451736,0.0003346800804138184,0.01022374629974365,0.00536954402923584,1,0.6973828673362732,0.1655247360467911,0.653037428855896,0.2445420771837234,-0.8298786878585815,-0.5572665929794312,0.02748260460793972,0,0,0,-1,57922.73883925001,3,2,1561234031.022379,1561233790.755775,20,1.561009,0,0,17.35344,0,0,1561233932.152863,57921.394797,0,-0.2429199,74.43334,2650659446,177292352,1,1,0.59,-35.49479,-40.99546,4
1561234032.932008,15,0,0,1561234030.386721,4.603072328766988,-74.06476646240939,2650.802,-1,-1,10,65,-9999,1561234032.912006,-5.372123718261719,-26.50342178344727,9.4635009765625,242.9283142089844,250.4712829589844,15,57924.65099079167,-0.810333251953125,-0.5457305908203125,0.019287109375,57924.63982079167,0.03033074165491245,0.01444738259757086,-0.07948417326228693,57924.63841779167,32.04534912109375,-26.24122619628906,-525.2809448242188,57924.64491779167,3.035315070672004,-1.604329885745373,0.5928464070147688,0.02966189198195934,0.01827693358063698,-0.0735003799200058,0.009841501712799072,0.01795250177383423,-0.002522110939025879,1,0.6973258256912231,0.1662518531084061,0.652743399143219,0.2449962049722672,-0.8288875222206116,-0.5587239861488342,0.02780597098171711,0,0,0,-1,57922.73883925001,3,2,1561234031.022379,1561233790.755775,20,1.561009,0,0,17.35344,0,0,1561233932.152863,57921.394797,0,-0.2429199,74.43334,2650659446,177292352,1,1,0.59,-35.49479,-41.14404,4
1561234032.95229,16,0,0,1561234030.386721,4.603072328766988,-74.06476646240939,2650.802,-1,-1,10,65,-9999,1561234032.936294,-5.406894683837891,-26.67107391357422,9.4066162109375,242.88134765625,250.42431640625,15,57924.67125379167,-0.813323974609375,-0.540374755859375,0.033782958984375,57924.66008479167,0.04802664815016196,0.0402038787641632,-0.03013340141813757,57924.65855879167,32.28878784179688,-26.4710693359375,-525.4000854492188,57924.66518079167,3.036340595515739,-1.604352155312472,0.5936891216435493,0.05326468870043755,0.02563285268843174,-0.01663070917129517,0.02209573984146118,0.01477545499801636,-0.001304030418395996,1,0.697174072265625,0.1668910533189774,0.65276038646698,0.2449481040239334,-0.8284159302711487,-0.5594226717948914,0.02780862152576447,0,0,0,-1,57922.73883925001,3,2,1561234031.022379,1561233790.755775,20,1.561009,0,0,17.35344,0,0,1561233932.152863,57921.394797,0,-0.2429199,74.43334,2650659446,177292352,1,1,0.59,-35.49479,-42.06218,4
1561234032.972624,17,0,0,1561234030.386721,4.603072328766988,-74.06476646240939,2650.802,-1,-1,10,65,-9999,1561234032.962722,-5.208358764648438,-26.73019409179688,9.6163330078125,242.7987670898438,250.3417358398438,15,57924.69151779167,-0.819366455078125,-0.54510498046875,0.04974365234375,57924.68034879167,0.05755490589824746,0.0123919548682477,0.02695625023767304,57924.67870079167,32.35614013671875,-26.58451843261719,-525.2103881835938,57924.68544479167,3.037679687993359,-1.604917419025365,0.5934257333641043,0.04838204756379128,-0.00298281479626894,0.02579371258616447,0.01136296987533569,0.0196382999420166,0.01349663734436035,1,0.6972697973251343,0.1671998500823975,0.6527587175369263,0.2444692254066467,-0.8285474181175232,-0.5592043399810791,0.02828191965818405,0,0,0,-1,57922.73883925001,3,2,1561234031.022379,1561233790.755775,20,1.561009,0,0,17.35344,0,0,1561233932.152863,57921.394797,0,-0.2429199,74.43334,2650659446,177292352,1,1,0.59,-35.49479,-42.06218,4
1561234032.992823,18,0,0,1561234030.386721,4.603072328766988,-74.06476646240939,2650.802,-1,-1,10,65,-9999,1561234032.986996,-5.289196014404297,-26.96923065185547,9.7564697265625,242.7729797363281,250.3159484863281,15,57924.71178179167,-0.8228759765625,-0.5574951171875,0.0509490966796875,57924.70061179167,0.02091806509813638,-0.02482598768171866,-0.003796336133907954,57924.69884179167,32.31793212890625,-26.42584228515625,-525.4005126953125,57924.70570879167,3.038389241588566,-1.605784671460213,0.5932665925914273,0.00864209420979023,-0.04012645781040192,-0.01923608034849167,0.006009995937347412,0.007818102836608887,0.02046537399291992,1,0.6975074410438538,0.1672876477241516,0.6525618433952332,0.2442564070224762,-0.8286113142967224,-0.5590723752975464,0.0290035754442215,0,0,0,-1,57922.73883925001,3,2,1561234031.022379,1561233790.755775,20,1.561009,0,0,17.35344,0,0,1561233932.152863,57921.394797,0,-0.2429199,74.43334,2650659446,177292352,1,1,0.59,-35.49479,-42.80713,4
1561234033.013777,19,0,0,1561234030.386721,4.603072328766988,-74.06476646240939,2650.802,-1,-1,10,65,-9999,1561234032.986996,-5.289196014404297,-26.96923065185547,9.7564697265625,242.7729797363281,250.3159484863281,15,57924.73204479167,-0.8258514404296875,-0.5600433349609375,0.0500946044921875,57924.72087579167,-0.01769404228248646,-0.04855049193658054,-0.02911820441059937,57924.71898379167,32.25398254394531,-26.4268798828125,-525.3623046875,57924.72594179167,3.038117043859749,-1.606649953042024,0.5938544494625774,-0.02784747444093227,-0.05944609269499779,-0.0338594950735569,0.004633605480194092,-0.00339806079864502,0.02226269245147705,1,0.6977607607841492,0.1672850847244263,0.65215665102005,0.2446164637804031,-0.8282572627067566,-0.55955970287323,0.02970875799655914,0,0,0,-1,57922.73883925001,3,2,1561234031.022379,1561233790.755775,20,1.561009,0,0,17.35344,0,0,1561233932.152863,57921.394797,0,-0.2429199,74.43334,2650659446,177292352,1,1,0.59,-35.49479,-41.21569,4
1561234033.033407,20,0,0,1561234030.386721,4.603072328766988,-74.06476646240939,2650.802,-1,-1,10,65,-9999,1561234033.014996,-5.221572875976562,-26.83229064941406,9.72015380859375,242.8308868408203,250.3738555908203,15,57924.75230879167,-0.8344268798828125,-0.55474853515625,0.036529541015625,57924.74113979167,-0.03403013872514151,-0.03663604185178405,-0.02923298665358178,57924.73912579167,32.17074584960938,-26.67048645019531,-525.2578735351562,57924.74620579167,3.037240709634544,-1.607148337855407,0.5945333571034725,-0.03899626806378365,-0.02521994337439537,-0.02733262255787849,8.863210678100586e-05,0.002611875534057617,0.01409697532653809,1,0.6979367733001709,0.1671470254659653,0.6517944931983948,0.2451735138893127,-0.8278626203536987,-0.5601222515106201,0.03010773472487926,0,0,0,-1,57922.73883925001,3,2,1561234031.022379,1561233790.755775,20,1.561009,0,0,17.35344,0,0,1561233932.152863,57921.394797,0,-0.2429199,74.43334,2650659446,177292352,1,1,0.59,-35.49479,-41.24414,4
1561234033.0572,21,0,0,1561234030.386721,4.603072328766988,-74.06476646240939,2650.802,-1,-1,10,65,-9999,1561234033.037565,-5.289085388183594,-26.91917037963867,9.54595947265625,242.8906097412109,250.4335784912109,15,57924.77257279167,-0.8279571533203125,-0.550445556640625,0.028961181640625,57924.76140279167,-0.03228230610172251,0.06714707951249485,-0.0003656520176678794,57924.75926679167,32.10595703125,-26.78410339355469,-525.1893310546875,57924.76646879167,3.036398570693264,-1.606054817962824,0.5947675565098648,-0.03371281921863556,0.07699111104011536,0.005045291502028704,-0.007410705089569092,0.009275615215301514,0.003562808036804199,1,0.6976301074028015,0.1670662611722946,0.6520446538925171,0.2454358786344528,-0.8277638554573059,-0.560316264629364,0.0291978046298027,0,0,0,-1,57922.73883925001,3,2,1561234031.022379,1561233790.755775,20,1.561009,0,0,17.35344,0,0,1561233932.152863,57922.344813,0,-0.2006836,74.43296,2650659446,177292352,1,1,0.59,-35.49479,-42.14071,4
1561234033.073925,22,0,0,1561234030.386721,4.603072328766988,-74.06476646240939,2650.802,-1,-1,10,65,-9999,1561234033.064073,-5.440212249755859,-27.02682495117188,9.601318359375,242.8647766113281,250.4077453613281,15,57924.79280579167,-0.811981201171875,-0.5571746826171875,0.029022216796875,57924.78166679167,-0.01395416516368818,0.07855739320293935,0.0273850191731758,57924.77940879167,32.31451416015625,-26.69818115234375,-525.4537353515625,57924.78673279167,3.035857526408705,-1.604293567873087,0.5943937572457554,-0.002701640827581286,0.05550818890333176,0.01719409972429276,0.01134264469146729,0.005227565765380859,-0.0004336833953857422,1,0.6971336007118225,0.1669676154851913,0.6526373624801636,0.2453389018774033,-0.8280235528945923,-0.5600066184997559,0.02774688415229321,0,0,0,-1,57922.73883925001,3,2,1561234031.022379,1561233790.755775,20,1.561009,0,0,17.35344,0,0,1561233932.152863,57922.344813,0,-0.2006836,74.43296,2650659446,177292352,1,1,0.59,-35.49479,-42.39183,4
1561234033.094235,23,0,0,1561234030.386721,4.603072328766988,-74.06476646240939,2650.802,-1,-1,10,65,-9999,1561234033.088343,-5.391826629638672,-27.0196418762207,9.281005859375,242.8160705566406,250.3590393066406,15,57924.81306979167,-0.820068359375,-0.5589141845703125,0.036529541015625,57924.80193079167,0.05133962054622053,-0.003057308931410966,0.002014148732426928,57924.79954979167,32.25709533691406,-26.26481628417969,-525.22802734375,57924.80699679167,3.036635556370674,-1.604539733985521,0.5943000536946793,0.06462226808071136,-0.03262779116630554,-0.001056809327565134,0.01283776760101318,0.001777708530426025,0.0006120204925537109,1,0.6971571445465088,0.1671770215034485,0.6526581048965454,0.2450739294290543,-0.8280690908432007,-0.5599289536476135,0.02795248106122017,0,0,0,-1,57922.73883925001,3,2,1561234031.022379,1561233790.755775,20,1.561009,0,0,17.35344,0,0,1561233932.152863,57922.344813,0,-0.2006836,74.43296,2650659446,177292352,1,1,0.59,-35.49479,-39.77872,4
1561234033.114819,24,0,0,1561234030.386721,4.603072328766988,-74.06476646240939,2650.802,-1,-1,10,65,-9999,1561234033.088343,-5.391826629638672,-27.0196418762207,9.281005859375,242.8160705566406,250.3590393066406,15,57924.83333279167,-0.8369903564453125,-0.563201904296875,0.05401611328125,57924.82219379167,0.09414673927593618,-0.08234840301466714,0.03424798530231,57924.81969179167,32.29025268554688,-26.35957336425781,-525.3107299804688,57924.82725979167,3.038653711907007,-1.607117235660962,0.5939300614497459,0.07669597864151001,-0.08009437471628189,0.0179179459810257,-0.008911490440368652,-0.002114653587341309,0.01255404949188232,1,0.6978615522384644,0.1674406677484512,0.6520501971244812,0.2445061802864075,-0.8282009959220886,-0.5596223473548889,0.03009424731135368,0,0,0,-1,57922.73883925001,3,2,1561234031.022379,1561233790.755775,20,1.561009,0,0,17.35344,0,0,1561233932.152863,57922.344813,0,-0.2006836,74.43296,2650659446,177292352,1,1,0.59,-35.49479,-39.88336,4
1561234033.145934,25,0,0,1561234030.386721,4.603072328766988,-74.06476646240939,2650.802,-1,-1,10,65,-9999,1561234033.088343,-5.391826629638672,-27.0196418762207,9.281005859375,242.8160705566406,250.3590393066406,15,57924.85359679167,-0.85870361328125,-0.57958984375,0.0564727783203125,57924.84245779167,-0.008764463147450772,0.004529770698115776,-0.02584517943089198,57924.83983379167,32.19163513183594,-26.60800170898438,-525.3462524414062,57924.84752379167,3.039160551328919,-1.608060936832587,0.5941892369457316,-0.04311058297753334,0.03822294250130653,-0.03687925264239311,-0.01254874467849731,-0.01479357481002808,0.02699089050292969,1,0.6981038451194763,0.1675894558429718,0.6517520546913147,0.2445077449083328,-0.8280273675918579,-0.5598371624946594,0.03087040781974792,0,0,0,-1,57922.73883925001,3,2,1561234031.022379,1561233790.755775,20,1.561009,0,0,17.35344,0,0,1561233932.152863,57922.344813,0,-0.2006836,74.43296,2650659446,177292352,1,1,0.59,-35.49479,-40.14998,4
1561234033.155042,26,0,0,1561234030.386721,4.603072328766988,-74.06476646240939,2650.802,-1,-1,10,65,-9999,1561234033.149701,-5.3372802734375,-26.75282287597656,9.53466796875,242.77392578125,250.31689453125,15,57924.87386079167,-0.827667236328125,-0.56573486328125,0.043731689453125,57924.86272179167,-0.09928504228313507,0.1018209042731085,-0.05321874701138044,57924.85997479167,32.40043640136719,-26.63835144042969,-525.426513671875,57924.86778779167,3.037124908913969,-1.605335901435259,0.5952662762584134,-0.1041278690099716,0.08474783599376678,-0.0515359602868557,-0.01706868410110474,-0.005997419357299805,0.02618598937988281,1,0.6972910761833191,0.1675758957862854,0.6523247957229614,0.2453074753284454,-0.8275052905082703,-0.5607292652130127,0.02859305217862129,0,0,0,-1,57922.73883925001,3,2,1561234031.022379,1561233790.755775,20,1.561009,0,0,17.35344,0,0,1561233932.152863,57922.344813,0,-0.2006836,74.43296,2650659446,177292352,1,1,0.59,-35.49479,-40.14998,4
1561234033.17525,27,0,0,1561234030.386721,4.603072328766988,-74.06476646240939,2650.802,-1,-1,10,65,-9999,1561234033.149701,-5.3372802734375,-26.75282287597656,9.53466796875,242.77392578125,250.31689453125,15,57924.89412379167,-0.817962646484375,-0.5535736083984375,0.02593994140625,57924.88298479167,-0.05552397925095303,0.02621269566132292,-0.02305764871790604,57924.88011679167,32.46870422363281,-26.63661193847656,-525.4854736328125,57924.88805079167,3.035293844861532,-1.603463742668817,0.5960355907214158,-0.03430723771452904,-0.006676885299384594,-0.01431589014828205,0.006493210792541504,-0.0001268386840820312,0.005853056907653809,1,0.6967660784721375,0.1674272269010544,0.6526601910591125,0.246007889509201,-0.827126145362854,-0.561366081237793,0.02702968940138817,0,0,0,-1,57922.73883925001,3,2,1561234031.022379,1561233790.755775,20,1.561009,0,0,17.35344,0,0,1561233932.152863,57922.344813,0,-0.2006836,74.43296,2650659446,177292352,1,1,0.59,-35.49479,-40.46919,4
1561234033.195549,28,0,0,1561234030.386721,4.603072328766988,-74.06476646240939,2650.802,-1,-1,10,65,-9999,1561234033.18977,-5.125583648681641,-26.94962692260742,9.5479736328125,242.8634185791016,250.4063873291016,15,57924.91438779167,-0.833984375,-0.5549468994140625,0.019287109375,57924.90324879167,0.03170759593848341,-0.03931464927618575,0.01442101730277908,57924.90028879167,32.48037719726562,-26.55075073242188,-525.61962890625,57924.90831479167,3.035520281540313,-1.604352787353293,0.5959828864722948,0.03499433770775795,-0.04060822352766991,0.01672724634408951,0.004575788974761963,0.009640932083129883,-0.008280515670776367,1,0.6970418095588684,0.1673789918422699,0.6523845791816711,0.2459906339645386,-0.8271313309669495,-0.5613224506378174,0.02776602283120155,0,0,0,-1,57922.73883925001,3,2,1561234031.022379,1561233790.755775,20,1.561009,0,0,17.35344,0,0,1561233932.152863,57922.344813,0,-0.2006836,74.43296,2650659446,177292352,1,1,0.59,-35.49479,-41.05178,4
1561234033.221533,29,0,0,1561234030.386721,4.603072328766988,-74.06476646240939,2650.802,-1,-1,10,65,-9999,1561234033.216714,-5.167087554931641,-26.7971076965332,9.38323974609375,242.8246154785156,250.3675842285156,15,57924.934643875,-0.8397674560546875,-0.56231689453125,0.0259246826171875,57924.92350487501,0.04975610496205941,-0.01280421220499197,0.002488724038679048,57924.920422875,32.37812805175781,-26.45634460449219,-525.3720092773438,57924.928570875,3.036619702439713,-1.605589684071798,0.5958188115274151,0.04753249883651733,-0.0195575300604105,-0.008185026235878468,-0.01370835304260254,0.002394556999206543,-0.007872462272644043,1,0.6973675489425659,0.1675548851490021,0.6521081328392029,0.2456802427768707,-0.82718825340271,-0.561186671257019,0.02879227511584759,0,0,0,-1,57922.73883925001,3,2,1561234031.022379,1561233790.755775,20,1.561009,0,0,17.35344,0,0,1561233932.152863,57922.344813,0,-0.2006836,74.43296,2650659446,177292352,1,1,0.59,-35.49479,-41.55252,4
1561234033.23598,30,0,0,1561234030.386721,4.603072328766988,-74.06476646240939,2650.802,-1,-1,10,65,-9999,1561234033.216714,-5.167087554931641,-26.7971076965332,9.38323974609375,242.8246154785156,250.3675842285156,15,57924.95490687501,-0.8304901123046875,-0.556365966796875,0.0376129150390625,57924.943767875,0.03043114282800843,-0.00874049469764006,-0.02450694098312716,57924.940563875,32.4110107421875,-26.47305297851562,-525.1993408203125,57924.948833875,3.037516726542372,-1.606479216711829,0.5962070002605586,0.01400916278362274,-0.01297526061534882,-0.02929989993572235,-0.008306264877319336,0.0009000301361083984,0.002263784408569336,1,0.6975480914115906,0.1678892821073532,0.6518616080284119,0.2455936521291733,-0.8269445300102234,-0.5615079402923584,0.0295203011482954,0,0,0,-1,57922.73883925001,3,2,1561234031.022379,1561233790.755775,20,1.561009,0,0,17.35344,0,0,1561233932.152863,57922.344813,0,-0.2006836,74.43296,2650659446,177292352,1,1,0.59,-35.49479,-41.93714,4
1561234033.256378,31,0,0,1561234030.386721,4.603072328766988,-74.06476646240939,2650.802,-1,-1,10,65,-9999,1561234033.240439,-5.374626159667969,-26.79951477050781,9.52880859375,242.8102722167969,250.3532409667969,15,57924.975170875,-0.816741943359375,-0.5517578125,0.0366363525390625,57924.964031875,-0.00366850440158415,-0.000251668723012488,-0.02884230092166716,57924.960705875,32.24212646484375,-26.78953552246094,-524.989501953125,57924.969097875,3.037577561662119,-1.606752350964284,0.5968443932352285,-0.008240749128162861,-0.005979936104267836,-0.03303045406937599,0.003611207008361816,0.008278489112854004,0.00781857967376709,1,0.6975756883621216,0.168091669678688,0.65169757604599,0.2458122968673706,-0.8265787959098816,-0.5620352029800415,0.02973330020904541,0,0,0,-1,57922.73883925001,3,2,1561234031.022379,1561233790.755775,20,1.561009,0,0,17.35344,0,0,1561233932.152863,57922.344813,0,-0.2006836,74.43296,2650659446,177292352,1,1,0.59,-35.49479,-38.20451,4
1561234033.276629,32,0,0,1561234030.386721,4.603072328766988,-74.06476646240939,2650.802,-1,-1,10,65,-9999,1561234033.266731,-5.292388916015625,-27.00626373291016,9.5615234375,242.8188323974609,250.3618011474609,15,57924.995434875,-0.808502197265625,-0.5536041259765625,0.029022216796875,57924.984295875,0.006555637339339053,-0.004196875561855872,-0.04046087380935585,57924.98084687501,32.1673583984375,-26.62065124511719,-525.2172241210938,57924.98936187501,3.03756191058998,-1.606873175536485,0.597606677294887,0.01741081848740578,-0.01585999689996243,-0.04151901230216026,0.01349419355392456,0.008344292640686035,0.002775073051452637,1,0.6975489258766174,0.1683281064033508,0.6515621542930603,0.2460853308439255,-0.8261467814445496,-0.562665581703186,0.02981771156191826,0,0,0,-1,57922.73883925001,3,2,1561234031.022379,1561233790.755775,20,1.561009,0,0,17.35344,0,0,1561233932.152863,57922.344813,0,-0.2006836,74.43296,2650659446,177292352,1,1,0.59,-35.49479,-38.20451,4
1561234033.303596,33,0,0,1561234030.386721,4.603072328766988,-74.06476646240939,2650.802,-1,-1,10,65,-9999,1561234033.291286,-5.308555603027344,-27.00343704223633,9.45367431640625,242.7916107177734,250.3345794677734,15,57925.015697875,-0.811614990234375,-0.5509490966796875,0.0331878662109375,57925.004558875,0.05660868476294231,-0.03057868195239882,-0.006634999539823414,57925.00098887501,32.26109313964844,-26.57891845703125,-525.2235107421875,57925.00962487501,3.038596683057052,-1.608016853037755,0.5979781669832273,0.06569525599479675,-0.04720407351851463,0.00490334490314126,0.01874375343322754,0.007445931434631348,0.0008614063262939453,1,0.6978012919425964,0.1686734557151794,0.6512459516525269,0.2459703236818314,-0.8259031772613525,-0.5629726052284241,0.03075475618243217,0,0,0,-1,57922.73883925001,3,2,1561234031.022379,1561233790.755775,20,1.561009,0,0,17.35344,0,0,1561233932.152863,57922.344813,0,-0.2006836,74.43296,2650659446,177292352,1,1,0.59,-33.82705,-38.11432,4
1561234033.31704,34,0,0,1561234030.386721,4.603072328766988,-74.06476646240939,2650.802,-1,-1,10,65,-9999,1561234033.291286,-5.308555603027344,-27.00343704223633,9.45367431640625,242.7916107177734,250.3345794677734,15,57925.035961875,-0.81976318359375,-0.5537109375,0.04351806640625,57925.024792875,0.06633881012165581,-0.05461983606087113,0.048431182319745,57925.021130875,32.26510620117188,-26.59817504882812,-525.3675537109375,57925.029888875,3.040160323411551,-1.610065455798868,0.5972607948807012,0.05549641698598862,-0.05947192385792732,0.0437287725508213,0.009118318557739258,0.01330733299255371,0.006828904151916504,1,0.69840008020401,0.168726310133934,0.6508086323738098,0.2453912347555161,-0.826241672039032,-0.5623795986175537,0.032462477684021,0,0,0,-1,57922.73883925001,3,2,1561234031.022379,1561233790.755775,20,1.561009,0,0,17.35344,0,0,1561233932.152863,57922.344813,0,-0.2006836,74.43296,2650659446,177292352,1,1,0.59,-33.82705,-38.11432,4
1561234033.337367,35,0,0,1561234030.386721,4.603072328766988,-74.06476646240939,2650.802,-1,-1,10,65,-9999,1561234033.330586,-5.327953338623047,-26.81001281738281,9.50872802734375,242.7599792480469,250.3029479980469,15,57925.05622587501,-0.834381103515625,-0.5616302490234375,0.0433197021484375,57925.045055875,0.02894589788807124,-0.01932150002463388,0.02384194965893438,57925.041271875,32.48881530761719,-26.30461120605469,-525.1221923828125,57925.050152875,3.040986447465008,-1.611346149462874,0.59662801912841,0.01495085656642914,-0.00178066361695528,0.008540689945220947,-0.001692116260528564,0.003705024719238281,0.01033401489257812,1,0.6988034844398499,0.1686452180147171,0.6505380272865295,0.245015949010849,-0.8265549540519714,-0.5618562698364258,0.03353503718972206,0,0,0,-1,57925.017498875,3,2,1561234033.301039,1561233790.755775,20,1.561009,0,0,17.35344,0,0,1561233932.152863,57922.344813,0,-0.2006836,74.43296,2650659446,177292352,1,1,0.59,-20.09442,-20.93859,4
1561234033.357604,36,0,0,1561234030.386721,4.603072328766988,-74.06476646240939,2650.802,-1,-1,10,65,-9999,1561234033.330586,-5.327953338623047,-26.81001281738281,9.50872802734375,242.7599792480469,250.3029479980469,15,57925.07648887501,-0.8182525634765625,-0.5644989013671875,0.0405731201171875,57925.065319875,-0.002181128932774896,0.03826802696778461,-0.02893417997927489,57925.061413875,32.46049499511719,-26.64405822753906,-525.113037109375,57925.070415875,3.041043498095204,-1.610889124429101,0.5970133347834836,-0.009917208924889565,0.01872754096984863,-0.03477508947253227,-0.0007947683334350586,-0.00229346752166748,0.009453892707824707,1,0.6986156105995178,0.1688506007194519,0.6506587266921997,0.245089516043663,-0.8263536691665649,-0.5621749758720398,0.03314859420061111,0,0,0,-1,57925.017498875,3,2,1561234033.301039,1561233790.755775,20,1.561009,0,0,17.35344,0,0,1561233932.152863,57922.344813,0,-0.2006836,74.43296,2650659446,177292352,1,1,0.59,-20.09442,-21.35545,4
1561234033.377938,37,0,0,1561234030.386721,4.603072328766988,-74.06476646240939,2650.802,-1,-1,10,65,-9999,1561234033.368086,-5.319934844970703,-26.9245491027832,9.56768798828125,242.7360229492188,250.2789916992188,15,57925.096752875,-0.8150482177734375,-0.5535430908203125,0.0469207763671875,57925.08558387501,0.003968908972545089,-0.01394377883543687,-0.009998039364375476,57925.081554875,32.48664855957031,-26.30934143066406,-525.3370361328125,57925.090649875,3.040985592076209,-1.610994910185824,0.5974487844786048,0.006761635653674603,-0.03551892191171646,-0.001769737573340535,0.01153039932250977,0.00613856315612793,0.0112837553024292,1,0.6986160278320312,0.1689637005329132,0.6505628824234009,0.2452649176120758,-0.8261055946350098,-0.5625350475311279,0.03322617337107658,0,0,0,-1,57925.017498875,3,2,1561234033.301039,1561233790.755775,20,1.561009,0,0,17.35344,0,0,1561233932.152863,57922.344813,0,-0.2006836,74.43296,2650659446,177292352,1,1,0.59,-17.1467,-21.68522,4
1561234033.398133,38,0,0,1561234030.386721,4.603072328766988,-74.06476646240939,2650.802,-1,-1,10,65,-9999,1561234033.392304,-5.199542999267578,-26.81131362915039,9.5435791015625,242.7451477050781,250.2881164550781,15,57925.117016875,-0.8166351318359375,-0.5541534423828125,0.0405426025390625,57925.10584687501,0.007260576079883027,-0.01179647204850599,0.02311783615854184,57925.101696875,32.48211669921875,-26.28947448730469,-525.393310546875,57925.110912875,3.041125069322301,-1.61162878736264,0.5971533465179106,0.0008049432653933764,-0.005280323326587677,0.02451885677874088,0.009508252143859863,0.0110974907875061,0.01128733158111572,1,0.6988368034362793,0.1688354760408401,0.6503936052322388,0.245172917842865,-0.8262501955032349,-0.5622907280921936,0.03375659137964249,0,0,0,-1,57925.017498875,3,2,1561234033.301039,1561233790.755775,20,1.561009,0,0,17.35344,0,0,1561233932.152863,57922.344813,0,-0.2006836,74.43296,2650659446,177292352,1,1,0.59,-14.85388,-20.41728,4
1561234033.418995,39,0,0,1561234030.386721,4.603072328766988,-74.06476646240939,2650.802,-1,-1,10,65,-9999,1561234033.392304,-5.199542999267578,-26.81131362915039,9.5435791015625,242.7451477050781,250.2881164550781,15,57925.137279875,-0.816619873046875,-0.5569915771484375,0.0342559814453125,57925.126110875,0.007343134073675484,0.02708701144719593,0.03928721871695793,57925.12183887501,32.33230590820312,-26.4732666015625,-525.1397705078125,57925.131176875,3.041141180131091,-1.611416785683474,0.5965000869404644,0.005914750508964062,0.01189626753330231,0.0324351042509079,0.006418466567993164,0.005628585815429688,0.003665566444396973,1,0.6988248229026794,0.1686476618051529,0.6505473852157593,0.2449282109737396,-0.8266241550445557,-0.5617504119873047,0.03359633311629295,0,0,0,-1,57925.017498875,3,2,1561234033.301039,1561233790.755775,20,1.561009,0,0,17.35344,0,0,1561233932.152863,57922.344813,0,-0.2006836,74.43296,2650659446,177292352,1,1,0.59,-14.85388,-20.9851,4
1561234033.438811,40,0,0,1561234030.386721,4.603072328766988,-74.06476646240939,2650.802,-1,-1,10,65,-9999,1561234033.419276,-5.19000244140625,-26.77782821655273,9.48297119140625,242.7297668457031,250.2727355957031,15,57925.157543875,-0.8221282958984375,-0.5578155517578125,0.046844482421875,57925.146374875,0.01552223441352684,-0.007962052711009899,0.03761874829402329,57925.14197987501,32.35971069335938,-26.3607177734375,-525.1728515625,57925.151440875,3.041393324345036,-1.611740471835878,0.5958225007618153,0.006059893406927586,-0.02205797284841537,0.03158848732709885,0.01347130537033081,0.001756727695465088,0.005656003952026367,1,0.698969304561615,0.1684685498476028,0.6505458354949951,0.2446435689926147,-0.8269936442375183,-0.5611897110939026,0.03387948125600815,0,0,0,-1,57925.017498875,3,2,1561234033.301039,1561233790.755775,20,1.561009,0,0,17.35344,0,0,1561233932.152863,57922.344813,0,-0.2006836,74.43296,2650659446,177292352,1,1,0.59,-14.85388,-20.9851,4
1561234033.464924,41,0,0,1561234030.386721,4.603072328766988,-74.06476646240939,2650.802,-1,-1,10,65,-9999,1561234033.442939,-5.318889617919922,-26.67274475097656,9.55023193359375,242.7333068847656,250.2762756347656,15,57925.177776875,-0.8349456787109375,-0.560455322265625,0.0487060546875,57925.166637875,-0.007885619987724624,-0.007022489478429943,0.01742692722515151,57925.162121875,32.25155639648438,-26.52220153808594,-525.2444458007812,57925.17170387501,3.041296437634405,-1.612108412197287,0.5954437500854313,-0.01372339855879545,0.002737922128289938,0.007816843688488007,-0.001725137233734131,0.001290619373321533,0.01027154922485352,1,0.6991308927536011,0.1682624816894531,0.6504502892494202,0.2445775419473648,-0.8271933197975159,-0.560876190662384,0.0341925360262394,0,0,0,-1,57925.017498875,3,2,1561234033.301039,1561233790.755775,20,1.561009,0,0,17.35344,0,0,1561233932.152863,57922.344813,0,-0.2006836,74.43296,2650659446,177292352,1,1,0.59,-14.85388,-21.87967,4
1561234033.479293,42,0,0,1561234030.386721,4.603072328766988,-74.06476646240939,2650.802,-1,-1,10,65,-9999,1561234033.469397,-5.380027770996094,-26.78028106689453,9.49163818359375,242.7464294433594,250.2893981933594,15,57925.198040875,-0.8282928466796875,-0.5536956787109375,0.0435028076171875,57925.186901875,-0.02485474982149151,0.03216832280706712,0.001238902539104862,57925.182262875,32.37898254394531,-26.23757934570312,-525.363525390625,57925.19196787501,3.040706917636429,-1.611409703685717,0.5954490350916263,-0.03660261631011963,0.02414627559483051,0.004828243982046843,-0.00558006763458252,0.004514575004577637,0.0123298168182373,1,0.6989527344703674,0.1681436747312546,0.650621771812439,0.2447123229503632,-0.8272140622138977,-0.5608805418014526,0.03361444175243378,0,0,0,-1,57925.017498875,3,2,1561234033.301039,1561233790.755775,20,1.561009,0,0,17.35344,0,0,1561233932.152863,57922.344813,0,-0.2006836,74.43296,2650659446,177292352,1,1,0.59,-14.85388,-21.87967,4
1561234033.499502,43,0,0,1561234030.386721,4.603072328766988,-74.06476646240939,2650.802,-1,-1,10,65,-9999,1561234033.493564,-5.149913787841797,-26.7763557434082,9.61614990234375,242.7783203125,250.3212890625,15,57925.218304875,-0.81951904296875,-0.5592498779296875,0.0352630615234375,57925.20716587501,-0.0322953555910639,0.0008114651841471439,0.02343874706989638,57925.202404875,32.41610717773438,-26.30119323730469,-525.353271484375,57925.212231875,3.039767401513014,-1.6107929024577,0.5951659931322294,-0.02728820964694023,-0.003088275901973248,0.0196940079331398,0.008911848068237305,0.005455195903778076,0.007081151008605957,1,0.6988561153411865,0.1677957326173782,0.6507560014724731,0.2448701858520508,-0.8273932933807373,-0.5606462359428406,0.03311055526137352,0,0,0,-1,57925.017498875,3,2,1561234033.301039,1561233790.755775,20,1.561009,0,0,17.35344,0,0,1561233932.152863,57922.344813,0,-0.2006836,74.43296,2650659446,177292352,1,1,0.59,-14.85388,-22.75986,4
1561234033.52182,44,0,0,1561234030.386721,4.603072328766988,-74.06476646240939,2650.802,-1,-1,10,65,-9999,1561234033.520202,-5.310092926025391,-26.77021789550781,9.53436279296875,242.7455444335938,250.2885131835938,15,57925.23856787501,-0.8476104736328125,-0.561004638671875,0.038330078125,57925.227428875,0.003819771951500651,0.05369918127203074,0.007069893745833353,57925.222546875,32.36154174804688,-26.50984191894531,-525.3040771484375,57925.232494875,3.039556265591187,-1.610130366057704,0.5949984615393927,0.00792117603123188,0.07033081352710724,-0.003816376905888319,-0.006734907627105713,0.0004183650016784668,-0.000492095947265625,1,0.6986730694770813,0.1677467525005341,0.6509815454483032,0.2448265254497528,-0.8275088667869568,-0.5605074763298035,0.03256606310606003,0,0,0,-1,57925.017498875,3,2,1561234033.301039,1561233790.755775,20,1.561009,0,0,17.35344,0,0,1561233932.152863,57922.344813,0,-0.2006836,74.43296,2650659446,177292352,1,1,0.59,-14.85388,-23.41168,4
1561234033.550462,45,0,0,1561234030.386721,4.603072328766988,-74.06476646240939,2650.802,-1,-1,10,65,-9999,1561234033.544773,-5.146583557128906,-26.78704833984375,9.46734619140625,242.6562194824219,250.1991882324219,15,57925.25883187501,-0.85552978515625,-0.5673065185546875,0.0517425537109375,57925.247692875,0.002347842817013856,0.1280309367733413,-0.0425767552954238,57925.242687875,32.3924560546875,-26.45169067382812,-525.4201049804688,57925.252758875,3.039686448362925,-1.608089598578233,0.5956182772422397,-0.0105843311175704,0.1275855749845505,-0.05755603685975075,-0.02986001968383789,-0.00283735990524292,0.01485097408294678,1,0.6979426145553589,0.1682505458593369,0.6516361236572266,0.2448227107524872,-0.8272261023521423,-0.5610206723213196,0.03086427971720695,0,0,0,-1,57925.017498875,3,2,1561234033.301039,1561233790.755775,20,1.561009,0,0,17.35344,0,0,1561233932.152863,57922.344813,0,-0.2006836,74.43296,2650659446,177292352,1,1,0.59,-14.85388,-24.29005,4
1561234033.560302,46,0,0,1561234030.386721,4.603072328766988,-74.06476646240939,2650.802,-1,-1,10,65,-9999,1561234033.544773,-5.146583557128906,-26.78704833984375,9.46734619140625,242.6562194824219,250.1991882324219,15,57925.279095875,-0.90057373046875,-0.572174072265625,0.04473876953125,57925.267956875,-0.04741998005384191,0.1278298681110404,-0.1140069967890931,57925.26282987501,32.31916809082031,-26.46372985839844,-525.2902221679688,57925.273022875,3.038933598648956,-1.605178781863245,0.5975822946888066,-0.053787462413311,0.1194781213998795,-0.1482657045125961,-0.04500597715377808,-0.006827890872955322,0.02419400215148926,1,0.6968830823898315,0.1690063029527664,0.6523243188858032,0.2454870641231537,-0.8262098431587219,-0.562645435333252,0.02841832116246223,0,0,0,-1,57925.017498875,3,2,1561234033.301039,1561233790.755775,20,1.561009,0,0,17.35344,0,0,1561233932.152863,57922.344813,0,-0.2006836,74.43296,2650659446,177292352,1,1,0.59,-14.85388,-25.16595,4
1561234033.580677,47,0,0,1561234030.386721,4.603072328766988,-74.06476646240939,2650.802,-1,-1,10,65,-9999,1561234033.570792,-5.305122375488281,-26.85871887207031,9.50115966796875,242.6053466796875,250.1483154296875,15,57925.299358875,-0.9381561279296875,-0.5944366455078125,0.0391387939453125,57925.288219875,-0.05800258327748978,0.1752218849734365,-0.2626950088737431,57925.28297087501,32.39410400390625,-26.38777160644531,-525.3967895507812,57925.29328587501,3.037760020070562,-1.601480429476742,0.6021600483623042,-0.08217649161815643,0.2075533866882324,-0.3031269311904907,-0.09158754348754883,-0.02169561386108398,0.02113401889801025,1,0.6953691244125366,0.170597180724144,0.6529162526130676,0.247100830078125,-0.8237261772155762,-0.5664238929748535,0.02528323419392109,0,0,0,-1,57925.017498875,3,2,1561234033.301039,1561233790.755775,20,1.561009,0,0,17.35344,0,0,1561233932.152863,57922.344813,0,-0.2006836,74.43296,2650659446,177292352,1,1,0.59,-14.85388,-26.15201,4
1561234033.601609,48,0,0,1561234030.386721,4.603072328766988,-74.06476646240939,2650.802,-1,-1,10,65,-9999,1561234033.594979,-4.867496490478516,-27.08038330078125,9.23651123046875,242.4945678710938,250.0375366210938,15,57925.319622875,-1.021835327148438,-0.61590576171875,0.0545196533203125,57925.308483875,-0.1669269371261667,0.4213917129671289,-0.4274189791461962,57925.303112875,32.610107421875,-26.77232360839844,-525.712890625,57925.31354987501,3.03452595473431,-1.592778346386927,0.6100535732537555,-0.219430223107338,0.4886694848537445,-0.4788966178894043,-0.1651997566223145,-0.03008544445037842,0.02640295028686523,1,0.6920985579490662,0.1732261031866074,0.6545698046684265,0.2500613629817963,-0.8194193243980408,-0.5729113817214966,0.01801539398729801,0,0,0,-1,57925.017498875,3,2,1561234033.301039,1561233790.755775,20,1.561009,0,0,17.35344,0,0,1561233932.152863,57922.344813,0,-0.2006836,74.43296,2650659446,177292352,1,1,0.59,-14.85388,-27.22052,4
1561234033.629979,49,0,0,1561234030.386721,4.603072328766988,-74.06476646240939,2650.802,-1,-1,10,65,-9999,1561234033.624037,-4.832302093505859,-27.15715789794922,8.97857666015625,242.3796691894531,249.9226379394531,15,57925.339886875,-1.042129516601562,-0.65496826171875,0.0461883544921875,57925.32874787501,-0.3901427133683571,0.6883062342719934,-0.6848326732622031,57925.323254875,32.71664428710938,-26.77340698242188,-525.8597412109375,57925.333813875,3.026451428510937,-1.575570580116037,0.6225231673783707,-0.4379385709762573,0.7150824069976807,-0.7678858637809753,-0.2320636510848999,-0.05283844470977783,0.05103766918182373,1,0.6860466599464417,0.1768595427274704,0.6579172611236572,0.2553535997867584,-0.8124004602432251,-0.5830868482589722,0.003878634888678789,0,0,0,-1,57925.017498875,3,2,1561234033.301039,1561233790.755775,20,1.561009,0,0,17.35344,0,0,1561233932.152863,57922.344813,0,-0.2006836,74.43296,2650659446,177292352,1,1,0.59,-14.85388,-28.13753,4
1561234033.641367,50,0,0,1561234030.386721,4.603072328766988,-74.06476646240939,2650.802,-1,-1,10,65,-9999,1561234033.624037,-4.832302093505859,-27.15715789794922,8.97857666015625,242.3796691894531,249.9226379394531,15,57925.36014987501,-1.034378051757812,-0.64849853515625,-0.0041046142578125,57925.349010875,-0.5094238343802431,0.7535307777935601,-0.930075987512657,57925.343395875,32.9217529296875,-27.0499267578125,-525.9222412109375,57925.354076875,3.014018198667315,-1.553266042333223,0.6402962207214531,-0.5245794653892517,0.7656699419021606,-0.9582560658454895,-0.2326585650444031,-0.06206709146499634,0.03889840841293335,1,0.678225040435791,0.1816100776195526,0.6615980267524719,0.2632808089256287,-0.8017957806587219,-0.5974330306053162,-0.01405714824795723,0,0,0,-1,57925.017498875,3,2,1561234033.301039,1561233790.755775,20,1.561009,0,0,17.35344,0,0,1561233932.152863,57922.344813,0,-0.2006836,74.43296,2650659446,177292352,1,1,0.59,-14.85388,-28.13753,4
1561234033.661582,51,0,0,1561234030.386721,4.603072328766988,-74.06476646240939,2650.802,-1,-1,10,65,-9999,1561234033.645502,-4.684444427490234,-27.40612411499023,8.6627197265625,242.3145141601562,249.8574829101562,15,57925.38041387501,-1.07061767578125,-0.6636505126953125,-0.0359954833984375,57925.369274875,-0.5134095212676557,0.8396198568753526,-1.03232246492796,57925.363537875,33.40376281738281,-26.96408081054688,-526.4728393554688,57925.374340875,2.999984143525438,-1.528359838137318,0.66045976685457,-0.5096065402030945,0.8626284599304199,-1.096336722373962,-0.257158637046814,-0.03056299686431885,0.006479144096374512,1,0.6694792509078979,0.1872065663337708,0.6653571724891663,0.2721230983734131,-0.7889991998672485,-0.6134799718856812,-0.03350246697664261,0,0,0,-1,57925.017498875,3,2,1561234033.301039,1561233790.755775,20,1.561009,0,0,17.35344,0,0,1561233932.152863,57922.344813,0,-0.2006836,74.43296,2650659446,177292352,1,1,0.59,-14.85388,-29.01118,4
1561234033.699745,52,0,0,1561234030.386721,4.603072328766988,-74.06476646240939,2650.802,-1,-1,10,65,-9999,1561234033.696365,-2.861328125,-27.92692184448242,7.6212158203125,241.9245910644531,249.4675598144531,15,57925.400677875,-1.227874755859375,-0.67919921875,-0.0767822265625,57925.38950787501,-0.5665766029538886,0.953270256394484,-1.315603442711907,57925.383678875,33.75445556640625,-27.11456298828125,-526.99462890625,57925.394604875,2.983954657631541,-1.499781907146533,0.6850316172076558,-0.6254223585128784,0.9725762605667114,-1.397466421127319,-0.3396440744400024,-0.043526291847229,0.003738760948181152,1,0.6593271493911743,0.1944584101438522,0.6690934896469116,0.2824665904045105,-0.7724469900131226,-0.6326975226402283,-0.05494727194309235,0,0,0,-1,57925.017498875,3,2,1561234033.301039,1561233790.755775,20,1.561009,0,0,17.35344,0,0,1561233932.152863,57922.344813,0,-0.2006836,74.43296,2650659446,177292352,1,1,0.59,-14.85388,-30.87993,4
1561234033.704831,53,0,0,1561234030.386721,4.603072328766988,-74.06476646240939,2650.802,-1,-1,10,65,-9999,1561234033.696365,-2.861328125,-27.92692184448242,7.6212158203125,241.9245910644531,249.4675598144531,15,57925.420940875,-1.552139282226562,-0.7372894287109375,-0.135650634765625,57925.40977187501,-0.8712195947896878,1.228117535638368,-1.839952164473172,57925.403850875,34.34339904785156,-27.29373168945312,-527.089599609375,57925.41486787501,2.959062116531707,-1.460843631905449,0.7176275676914983,-0.9432829022407532,1.382964611053467,-2.092531681060791,-0.6441410183906555,-0.03455471992492676,-0.0356486439704895,1,0.6459338068962097,0.2035571187734604,0.6731982231140137,0.2968807518482208,-0.748818576335907,-0.6575992107391357,-0.08266803622245789,0,0,0,-1,57925.017498875,3,2,1561234033.301039,1561233790.755775,20,1.561009,0,0,17.35344,0,0,1561233932.152863,57922.344813,0,-0.2006836,74.43296,2650659446,177292352,1,1,0.59,-14.85388,-30.87993,4
1561234033.723959,54,0,0,1561234030.386721,4.603072328766988,-74.06476646240939,2650.802,-1,-1,10,65,-9999,1561234033.722779,-1.65704345703125,-28.21152114868164,6.667724609375,241.2574615478516,248.8004302978516,15,57925.441204875,-1.656997680664062,-0.7950592041015625,-0.119537353515625,57925.430035875,-1.100856518736168,1.883804307614635,-3.13914813802521,57925.423992875,35.56829833984375,-27.80813598632812,-527.8737182617188,57925.43513187501,2.919577286688267,-1.399309280935644,0.7704114088695355,-1.143089175224304,1.978850126266479,-3.501844882965088,-0.9442232847213745,-0.07734262943267822,-0.01204526424407959,1,0.624938428401947,0.2195938974618912,0.6778327226638794,0.3190191686153412,-0.707098126411438,-0.6964305639266968,-0.1224609613418579,0,0,0,-1,57925.017498875,3,2,1561234033.301039,1561233790.755775,20,1.561009,0,0,17.35344,0,0,1561233932.152863,57922.344813,0,-0.2006836,74.43296,2650659446,177292352,1,1,0.59,-14.85388,-31.86179,4
1561234033.742638,55,0,0,1561234030.386721,4.603072328766988,-74.06476646240939,2650.802,-1,-1,10,65,-9999,1561234033.722779,-1.65704345703125,-28.21152114868164,6.667724609375,241.2574615478516,248.8004302978516,15,57925.461468875,-1.40399169921875,-0.666015625,-0.1253509521484375,57925.450298875,-1.101355595124449,1.871856035383994,-4.220879165392974,57925.444134875,37.41014099121094,-28.2493896484375,-528.5906982421875,57925.455395875,2.862569213165369,-1.319029966973692,0.8449295624784228,-1.04729175567627,1.68395721912384,-4.309770107269287,-0.9090375900268555,-0.0210118293762207,0.05045986175537109,1,0.5984918475151062,0.2431629449129105,0.678869366645813,0.3490211367607117,-0.642857551574707,-0.7479243874549866,-0.1653585880994797,0,0,0,-1,57925.017498875,3,2,1561234033.301039,1561233790.755775,20,1.561009,0,0,17.35344,0,0,1561233932.152863,57922.344813,0,-0.2006836,74.43296,2650659446,177292352,1,1,0.59,-14.85388,-32.68356,4
1561234033.77515,56,0,0,1561234030.386721,4.603072328766988,-74.06476646240939,2650.802,-1,-1,10,65,-9999,1561234033.774148,2.784698486328125,-28.6759033203125,5.25830078125,239.9433898925781,247.4863586425781,15,57925.48173187501,-1.238082885742188,-0.56951904296875,-0.1412506103515625,57925.470562875,-0.8170319897737365,1.086302876011103,-4.369810324085148,57925.46427587501,39.6065673828125,-28.34390258789062,-529.4266967773438,57925.47562887501,2.795068279903555,-1.240815179068915,0.9241870453577863,-0.7331019639968872,0.9217900633811951,-4.444451808929443,-0.7184886932373047,0.2037250995635986,0.04731643199920654,1,0.5751373767852783,0.267594963312149,0.6727203130722046,0.3808638751506805,-0.569978654384613,-0.7981312274932861,-0.1952198594808578,0,0,0,-1,57925.017498875,3,2,1561234033.301039,1561233790.755775,20,1.561009,0,0,17.35344,0,0,1561233932.152863,57922.344813,0,-0.2006836,74.43296,2650659446,177292352,1,1,0.59,-14.85388,-33.46594,4
1561234033.782997,57,0,0,1561234030.386721,4.603072328766988,-74.06476646240939,2650.802,-1,-1,10,65,-9999,1561234033.774148,2.784698486328125,-28.6759033203125,5.25830078125,239.9433898925781,247.4863586425781,15,57925.50199587501,-1.262893676757812,-0.61260986328125,-0.0766143798828125,57925.490826875,-0.6354701835092574,0.6345543224103791,-5.044207666931984,57925.48441787501,42.59725952148438,-28.26170349121094,-529.816162109375,57925.49589187501,2.710332264654103,-1.156517759347402,1.010480108745729,-0.6613427996635437,0.5340966582298279,-5.3389892578125,-0.7724752426147461,0.2642624378204346,0.1093270778656006,1,0.5539259910583496,0.293603390455246,0.6592140197753906,0.4152108430862427,-0.4864969253540039,-0.8470870852470398,-0.2139260917901993,0,0,0,-1,57925.017498875,3,2,1561234033.301039,1561233790.755775,20,1.561009,0,0,17.35344,0,0,1561233932.152863,57922.344813,0,-0.2006836,74.43296,2650659446,177292352,1,1,0.59,-14.85388,-33.46594,4
1561234033.803321,58,0,0,1561234030.386721,4.603072328766988,-74.06476646240939,2650.802,-1,-1,10,65,-9999,1561234033.797363,9.044017791748047,-28.07785034179688,4.34930419921875,239.9775238037109,247.5204925537109,15,57925.522259875,-1.187652587890625,-0.66827392578125,-0.1303863525390625,57925.51108987501,-0.7794542541605004,0.1883637860046505,-6.240642906662225,57925.504558875,45.59178161621094,-27.86656188964844,-530.3275146484375,57925.516155875,2.569166649754587,-1.026878064936572,1.110586346932802,-0.830251157283783,0.1663860231637955,-6.530420303344727,-0.8413325548171997,0.2503598928451538,0.1323184967041016,1,0.5300423502922058,0.3227017521858215,0.6369641423225403,0.4573788940906525,-0.3800419867038727,-0.8959592580795288,-0.2298373728990555,0,0,0,-1,57925.017498875,3,2,1561234033.301039,1561233790.755775,20,1.561009,0,0,17.35344,0,0,1561233932.152863,57922.344813,0,-0.2006836,74.43296,2650659446,177292352,1,1,0.59,-14.85388,-34.32375,4
1561234033.823496,59,0,0,1561234030.386721,4.603072328766988,-74.06476646240939,2650.802,-1,-1,10,65,-9999,1561234033.797363,9.044017791748047,-28.07785034179688,4.34930419921875,239.9775238037109,247.5204925537109,15,57925.542492875,-1.105499267578125,-0.6289520263671875,-0.1624298095703125,57925.53135387501,-1.113769387913635,0.6938408156493961,-7.225897461432451,57925.524700875,49.554931640625,-26.75205993652344,-530.6744384765625,57925.536419875,2.308162927961544,-0.7771589989337203,1.21011905438481,-1.207406878471375,1.02391242980957,-7.359493255615234,-0.9013400077819824,0.2828869819641113,0.1168100833892822,1,0.4980123937129974,0.3552297353744507,0.6087862849235535,0.5051481127738953,-0.2474789619445801,-0.9356580376625061,-0.2515909671783447,0,0,0,-1,57925.017498875,3,2,1561234033.301039,1561233790.755775,20,1.561009,0,0,17.35344,0,0,1561233932.152863,57922.344813,0,-0.2006836,74.43296,2650659446,177292352,1,1,0.59,-14.85388,-35.31735,4
1561234033.846432,60,0,0,1561234030.386721,4.603072328766988,-74.06476646240939,2650.802,-1,-1,10,65,-9999,1561234033.824333,13.06461715698242,-26.70310211181641,3.889404296875,239.4724426269531,247.0154113769531,15,57925.56275587501,-0.94525146484375,-0.570709228515625,-0.190155029296875,57925.551617875,-1.222077219969959,2.028344712617595,-7.362641728660314,57925.544842875,53.50698852539062,-25.08882141113281,-531.3207397460938,57925.556682875,1.873924767943062,-0.3313400163481161,1.269212550395732,-1.149604558944702,2.242567300796509,-7.269323825836182,-0.9479277729988098,0.3656796216964722,0.09467345476150513,1,0.4533169865608215,0.3925117552280426,0.582097053527832,0.5491823554039001,-0.09662790596485138,-0.9548672437667847,-0.2808764576911926,0,0,0,-1,57925.017498875,3,2,1561234033.301039,1561233790.755775,20,1.561009,0,0,17.35344,0,0,1561233932.152863,57922.344813,0,-0.2006836,74.43296,2650659446,177292352,1,1,0.59,-14.85388,-35.98764,4
1561234033.86405,61,0,0,1561234030.386721,4.603072328766988,-74.06476646240939,2650.802,-1,-1,10,65,-9999,1561234033.847982,16.96926116943359,-24.68844223022461,3.39862060546875,236.5227355957031,244.0657043457031,15,57925.583019875,-0.6029510498046875,-0.5131072998046875,-0.1605377197265625,57925.571880875,-0.6431747085428566,2.486703764676114,-6.853504450413364,57925.564983875,57.42022705078125,-22.82328796386719,-531.2852783203125,57925.576946875,1.393385672090715,0.1767120841091498,1.263443048327685,-0.391666054725647,2.43259072303772,-6.720856666564941,-0.8406292200088501,0.4165318012237549,0.1188247799873352,1,0.4054594933986664,0.4320761263370514,0.5557935833930969,0.5831006169319153,0.0531841404736042,-0.9531376361846924,-0.2978256344795227,0,0,0,-1,57925.017498875,3,2,1561234033.301039,1561233790.755775,20,1.561009,0,0,17.35344,0,0,1561233932.152863,57922.344813,0,-0.2006836,74.43296,2650659446,177292352,1,1,0.59,-14.85388,-36.9003,4
1561234033.88432,62,0,0,1561234030.386721,4.603072328766988,-74.06476646240939,2650.802,-1,-1,10,65,-9999,1561234033.874464,20.42407608032227,-22.41513442993164,3.798828125,233.034423828125,240.577392578125,15,57925.603283875,-0.186431884765625,-0.488433837890625,-0.220977783203125,57925.592144875,0.4218431187718973,2.011253077373685,-6.626094994402625,57925.585125875,60.14285278320312,-20.06376647949219,-530.7406616210938,57925.59721087501,1.004171358267012,0.5889015194189667,1.214869210969054,0.6333324313163757,1.831901907920837,-6.665733337402344,-0.5903559923171997,0.4261085987091064,0.1166054010391235,1,0.3641041219234467,0.4717490077018738,0.523358166217804,0.609079122543335,0.1935512125492096,-0.9373238086700439,-0.2897621095180511,0,0,0,-1,57925.017498875,3,2,1561234033.301039,1561233790.755775,20,1.561009,0,0,17.35344,0,0,1561233932.152863,57922.344813,0,-0.2006836,74.43296,2650659446,177292352,1,1,0.59,-14.85388,-37.80441,4
1561234033.904641,63,0,0,1561234030.386721,4.603072328766988,-74.06476646240939,2650.802,-1,-1,10,65,-9999,1561234033.898755,25.74180603027344,-16.61283111572266,5.11859130859375,230.9865112304688,238.5294799804688,15,57925.623547875,-0.0584869384765625,-0.4399261474609375,-0.205596923828125,57925.612408875,1.004071119452182,1.502810617855136,-6.930073527546449,57925.60526687501,62.7635498046875,-17.36956787109375,-529.88671875,57925.61747487501,0.707489170236466,0.8954443892690047,1.133654107907825,1.089938879013062,1.450712203979492,-7.059801578521729,-0.441047191619873,0.4410146474838257,0.0333600640296936,1,0.3275494277477264,0.5102718472480774,0.4814959168434143,0.6328473687171936,0.330420970916748,-0.9059652090072632,-0.2646680176258087,0,0,0,-1,57925.017498875,3,2,1561234033.301039,1561233790.755775,20,1.561009,0,0,17.35344,0,0,1561233932.152863,57922.344813,0,-0.2006836,74.43296,2650659446,177292352,1,1,0.59,-14.85388,-38.69889,4
1561234033.928968,64,0,0,1561234030.386721,4.603072328766988,-74.06476646240939,2650.802,-1,-1,10,65,-9999,1561234033.925224,27.95903015136719,-12.44688701629639,5.94268798828125,230.0051574707031,237.5481262207031,15,57925.643810875,0.1490936279296875,-0.3984222412109375,-0.1978912353515625,57925.63267187501,1.367977435025514,1.371059511355063,-7.246582766251315,57925.62540887501,65.17933654785156,-13.31732177734375,-529.02294921875,57925.637737875,0.4953893537355052,1.111061919505235,1.023948515490561,1.426290512084961,1.321993350982666,-7.228721141815186,-0.395419180393219,0.4480705261230469,0.043853759765625,1,0.2908033132553101,0.5477858781814575,0.4320773184299469,0.6547315120697021,0.4660063087940216,-0.8541678786277771,-0.2307281345129013,0,0,0,-1,57925.017498875,3,2,1561234033.301039,1561233790.755775,20,1.561009,0,0,17.35344,0,0,1561233932.152863,57922.344813,0,-0.2006836,74.43296,2650659446,177292352,1,1,0.59,-14.85388,-39.39911,4
1561234033.945096,65,0,0,1561234030.386721,4.603072328766988,-74.06476646240939,2650.802,-1,-1,10,65,-9999,1561234033.925224,27.95903015136719,-12.44688701629639,5.94268798828125,230.0051574707031,237.5481262207031,15,57925.66407487501,0.3499908447265625,-0.3798828125,-0.1600189208984375,57925.652935875,1.530307489794095,1.33301652149939,-6.858851545250024,57925.645550875,66.58512878417969,-9.050003051757812,-528.1041870117188,57925.658001875,0.3521621951979438,1.255695225134148,0.9038108468648246,1.517838358879089,1.305230379104614,-6.654987812042236,-0.3609744906425476,0.3788144588470459,0.01534187793731689,1,0.2553703784942627,0.5821742415428162,0.3800768852233887,0.6718636155128479,0.5881626009941101,-0.7856900691986084,-0.1917182505130768,0,0,0,-1,57925.017498875,3,2,1561234033.301039,1561233790.755775,20,1.561009,0,0,17.35344,0,0,1561233932.152863,57922.344813,0,-0.2006836,74.43296,2650659446,177292352,1,1,0.59,-14.85388,-39.39911,4
1561234033.965356,66,0,0,1561234030.386721,4.603072328766988,-74.06476646240939,2650.802,-1,-1,10,65,-9999,1561234033.949342,29.57174682617188,-7.999434471130371,6.75274658203125,229.7815704345703,237.3245391845703,15,57925.68433887501,0.6495513916015625,-0.2889862060546875,-0.1934661865234375,57925.673199875,1.485962928167077,1.129657540660939,-5.995573496830953,57925.665722875,67.85186767578125,-5.180679321289062,-527.334228515625,57925.678265875,0.2578550476123131,1.350591310646319,0.7901913058830728,1.468284845352173,1.048787474632263,-5.814223766326904,-0.1993814706802368,0.3735738396644592,-0.03140854835510254,1,0.2237456887960434,0.6108046770095825,0.3312337100505829,0.6834762096405029,0.6867166757583618,-0.7104879021644592,-0.1537110209465027,0,0,0,-1,57925.017498875,3,2,1561234033.301039,1561233790.755775,20,1.561009,0,0,17.35344,0,0,1561233932.152863,57922.344813,0,-0.2006836,74.43296,2650659446,177292352,1,1,0.59,-14.85388,-39.51807,4
1561234033.985618,67,0,0,1561234030.386721,4.603072328766988,-74.06476646240939,2650.802,-1,-1,10,65,-9999,1561234033.975818,30.29785919189453,-4.437079429626465,7.618408203125,230.2208251953125,237.7637939453125,15,57925.704601875,0.8308258056640625,-0.1812591552734375,-0.1718902587890625,57925.693462875,1.404729590700825,0.9697237982412116,-5.399456844749796,57925.68586387501,67.97198486328125,-1.524261474609375,-527.0196533203125,57925.698528875,0.1912262422102068,1.415409548085097,0.6853821920661551,1.372141242027283,0.9999938011169434,-5.29015064239502,-0.009798943996429443,0.3899269104003906,-0.06883102655410767,1,0.1957089155912399,0.6338701248168945,0.2857714593410492,0.6915498971939087,0.7648496031761169,-0.6329689621925354,-0.1198133677244186,0,0,0,-1,57925.017498875,3,2,1561234033.301039,1561233790.755775,20,1.561009,0,0,17.35344,0,0,1561233932.152863,57922.344813,0,-0.2006836,74.43296,2650659446,177292352,1,1,0.59,-14.85388,-23.67997,4
1561234034.009003,68,0,0,1561234030.386721,4.603072328766988,-74.06476646240939,2650.802,-1,-1,10,65,-9999,1561234034.000034,30.14739990234375,2.63140344619751,8.8515625,230.8595886230469,238.4025573730469,15,57925.724865875,0.988311767578125,0.01348876953125,-0.1432952880859375,57925.713726875,1.328996213517806,1.114084706186701,-4.94238010475615,57925.70600587501,67.82208251953125,2.1134033203125,-526.2683715820312,57925.71879287501,0.1412115078135033,1.466877862383277,0.58716260790094,1.343019127845764,1.122229218482971,-4.815634250640869,0.08968454599380493,0.4650423526763916,-0.07668197154998779,1,0.169234037399292,0.6543552279472351,0.2434033900499344,0.6956535577774048,0.8280248045921326,-0.5540010929107666,-0.08635815232992172,0,0,0,-1,57925.017498875,3,2,1561234033.301039,1561233790.755775,20,1.561009,0,0,17.35344,0,0,1561233932.152863,57923.294787,0,-0.1506348,74.4325,2650659446,177292352,1,1,0.59,-14.85388,-24.65482,4
1561234034.026182,69,0,0,1561234030.386721,4.603072328766988,-74.06476646240939,2650.802,-1,-1,10,65,-9999,1561234034.000034,30.14739990234375,2.63140344619751,8.8515625,230.8595886230469,238.4025573730469,15,57925.745129875,1.143478393554688,0.2472991943359375,-0.052154541015625,57925.733990875,1.519996795317744,1.122143165329172,-4.414594040975921,57925.726147875,67.50312805175781,5.325912475585938,-526.02783203125,57925.73905687501,0.09822639807740166,1.511719077332989,0.49765791519026,1.599374771118164,1.118298649787903,-4.277395725250244,0.1841703057289124,0.602048397064209,-0.05767691135406494,1,0.1463527977466583,0.6727854609489441,0.2033400535583496,0.6961274147033691,0.8771700263023376,-0.4773688614368439,-0.05188116431236267,0,0,0,-1,57925.017498875,3,2,1561234033.301039,1561233790.755775,20,1.561009,0,0,17.35344,0,0,1561233932.152863,57923.294787,0,-0.1506348,74.4325,2650659446,177292352,1,1,0.59,-14.85388,-25.25047,4
1561234034.046421,70,0,0,1561234030.386721,4.603072328766988,-74.06476646240939,2650.802,-1,-1,10,65,-9999,1561234034.026554,29.65135955810547,5.80641508102417,9.0892333984375,320.7068481445312,328.2498168945312,15,57925.765392875,1.268203735351562,0.4958343505859375,0.0442352294921875,57925.75425387501,1.768137096201986,0.9455425618594011,-3.728818608687829,57925.746288875,66.88093566894531,8.25921630859375,-525.3633422851562,57925.759319875,0.05600445262133096,1.550845107200691,0.419608076531689,1.778306603431702,0.7679395079612732,-3.53498649597168,0.2937049865722656,0.7895589470863342,0.0320742130279541,1,0.1295015960931778,0.6885635256767273,0.1652903854846954,0.6941099762916565,0.9130668640136719,-0.4074025750160217,-0.01821921579539776,0,0,0,-1,57925.017498875,3,2,1561234033.301039,1561233790.755775,20,1.561009,0,0,17.35344,0,0,1561233932.152863,57923.294787,0,-0.1506348,74.4325,2650659446,177292352,1,1,0.59,-14.85388,-20.20044,4
1561234034.066666,71,0,0,1561234030.386721,4.603072328766988,-74.06476646240939,2650.802,-1,-1,10,65,-9999,1561234034.050713,28.96730804443359,8.446455955505371,9.4708251953125,323.6604919433594,331.2034606933594,15,57925.78565687501,1.31658935546875,0.5632781982421875,0.1137542724609375,57925.774486875,1.789349440600576,-0.0670946152390203,-3.073246885270654,57925.766430875,66.10025024414062,10.49497985839844,-525.5272827148438,57925.779583875,0.0164261198723448,1.570238714723581,0.3546487437162573,1.772250056266785,-0.3494727909564972,-2.967662572860718,0.3771883249282837,0.9047408699989319,0.0743144154548645,1,0.1190469637513161,0.6968259215354919,0.1304101794958115,0.6951651573181152,0.9377683401107788,-0.347260981798172,-0.0005229109665378928,0,0,0,-1,57925.017498875,3,2,1561234033.301039,1561233790.755775,20,1.561009,0,0,17.35344,0,0,1561233932.152863,57923.294787,0,-0.1506348,74.4325,2650659446,177292352,1,1,0.59,-14.85388,-20.20044,4
1561234034.089104,72,0,0,1561234030.386721,4.603072328766988,-74.06476646240939,2650.802,-1,-1,10,65,-9999,1561234034.083238,27.66889953613281,12.77408027648926,8.72210693359375,326.3046264648438,333.8475952148438,15,57925.80592087501,1.33001708984375,0.57611083984375,0.068572998046875,57925.794750875,1.529887509290189,-0.7806273766206804,-2.633360051165142,57925.786541875,65.51370239257812,12.66743469238281,-525.97607421875,57925.799847875,-0.01823858450831532,1.567965628001353,0.2990310193418223,1.373107194900513,-0.7938595414161682,-2.48279881477356,0.3634275197982788,0.8608327507972717,0.1177105307579041,1,0.1118418052792549,0.6972365975379944,0.09879111498594284,0.7011367678642273,0.9556185007095337,-0.2945943772792816,-0.002705075312405825,0,0,0,-1,57925.017498875,3,2,1561234033.301039,1561233790.755775,20,1.561009,0,0,17.35344,0,0,1561233932.152863,57923.294787,0,-0.1506348,74.4325,2650659446,177292352,1,1,0.59,-14.85388,-20.25973,4
1561234034.107234,73,0,0,1561234030.386721,4.603072328766988,-74.06476646240939,2650.802,-1,-1,10,65,-9999,1561234034.083238,27.66889953613281,12.77408027648926,8.72210693359375,326.3046264648438,333.8475952148438,15,57925.826183875,1.358123779296875,0.58148193359375,-0.012725830078125,57925.81501487501,0.8783427517573227,-0.4702695074016801,-1.866243423386652,57925.806682875,64.90103149414062,14.19146728515625,-526.7083740234375,57925.820110875,-0.04045066351226877,1.561987052006403,0.2570119274976357,0.7120202779769897,-0.3106231391429901,-1.63237452507019,0.3760080337524414,0.8290361166000366,0.02472460269927979,1,0.1051171645522118,0.6961971521377563,0.07595416903495789,0.7060388922691345,0.9671163558959961,-0.2541917562484741,-0.008519814349710941,0,0,0,-1,57925.017498875,3,2,1561234033.301039,1561233790.755775,20,1.561009,0,0,17.35344,0,0,1561233932.152863,57923.294787,0,-0.1506348,74.4325,2650659446,177292352,1,1,0.59,-14.85388,-21.09316,4
1561234034.127457,74,0,0,1561234030.386721,4.603072328766988,-74.06476646240939,2650.802,-1,-1,10,65,-9999,1561234034.083238,27.66889953613281,12.77408027648926,8.72210693359375,326.3046264648438,333.8475952148438,15,57925.846447875,1.375137329101562,0.620361328125,-0.0124053955078125,57925.835277875,0.2916936373513979,0.1896732623126424,-0.9086055828044381,57925.82685587501,64.56253051757812,14.971923828125,-527.1184692382812,57925.840343875,-0.04955831320873916,1.564622965043286,0.2338127996308765,0.1980912238359451,0.3186565339565277,-0.6595593094825745,0.3987494707107544,0.8305957317352295,-0.01644033193588257,1,0.1000522673130035,0.6978444457054138,0.06474316865205765,0.7062655091285706,0.9727715253829956,-0.2316882461309433,-0.006005346775054932,0,0,0,-1,57925.017498875,3,2,1561234033.301039,1561233790.755775,20,1.561009,0,0,17.35344,0,0,1561233932.152863,57923.294787,0,-0.1506348,74.4325,2650659446,177292352,1,1,0.59,-14.85388,-21.98771,4
1561234034.147719,75,0,0,1561234030.386721,4.603072328766988,-74.06476646240939,2650.802,-1,-1,10,65,-9999,1561234034.127787,26.74026489257812,14.84980869293213,7.5850830078125,328.513671875,336.056640625,15,57925.866711875,1.344741821289062,0.6490478515625,0.0057373046875,57925.855541875,0.08856288941836706,0.6254140872331182,0.1629204775822514,57925.84699687501,64.23442077636719,15.82937622070312,-526.995361328125,57925.860607875,-0.05199242996784222,1.575837403317052,0.2314419507798097,0.07203502953052521,0.668579638004303,0.4553229510784149,0.3894841074943542,0.861735999584198,-0.002861976623535156,1,0.09971407800912857,0.7017908692359924,0.06361144036054611,0.7024956345558167,0.9733241200447083,-0.229381263256073,0.004906643182039261,0,0,0,-1,57925.017498875,3,2,1561234033.301039,1561233790.755775,20,1.561009,0,0,17.35344,0,0,1561233932.152863,57923.294787,0,-0.1506348,74.4325,2650659446,177292352,1,1,0.59,-14.85388,-22.66689,4
1561234034.168648,76,0,0,1561234030.386721,4.603072328766988,-74.06476646240939,2650.802,-1,-1,10,65,-9999,1561234034.152497,26.56900787353516,15.25258636474609,7.69879150390625,328.6394653320312,336.1824340820312,15,57925.886974875,1.352752685546875,0.64398193359375,0.01983642578125,57925.875805875,0.02445607460630665,0.744821442080674,1.320348130509992,57925.867138875,64.32806396484375,15.1690673828125,-526.7427978515625,57925.880871875,-0.05312744323268257,1.590634169043256,0.2522784205617328,-0.006543939933180809,0.767045259475708,1.568396687507629,0.379256546497345,0.9095382690429688,-0.008985280990600586,1,0.106855608522892,0.7058230638504028,0.0713576003909111,0.6966373920440674,0.968155562877655,-0.2496109008789062,0.01920863799750805,0,0,0,-1,57925.017498875,3,2,1561234033.301039,1561233790.755775,20,1.561009,0,0,17.35344,0,0,1561233932.152863,57923.294787,0,-0.1506348,74.4325,2650659446,177292352,1,1,0.59,-14.85388,-22.88616,4
1561234034.188261,77,0,0,1561234030.386721,4.603072328766988,-74.06476646240939,2650.802,-1,-1,10,65,-9999,1561234034.178419,27.49885559082031,13.56608772277832,8.61785888671875,328.693603515625,336.236572265625,15,57925.907207875,1.310745239257812,0.544219970703125,0.0507965087890625,57925.896068875,-0.01821415764337894,0.8028826149021455,2.129511278210871,57925.887279875,64.86721801757812,14.197998046875,-526.315673828125,57925.90113487501,-0.05390422341957592,1.60683014193247,0.291757915331997,-0.002803530544042587,0.7600736021995544,2.257433652877808,0.3913621306419373,0.890800952911377,-0.008472084999084473,1,0.1200713142752647,0.7091083526611328,0.08607304096221924,0.6894488930702209,0.9571181535720825,-0.2876362800598145,0.03450355306267738,0,0,0,-1,57925.017498875,3,2,1561234033.301039,1561233790.755775,20,1.561009,0,0,17.35344,0,0,1561233932.152863,57923.294787,0,-0.1506348,74.4325,2650659446,177292352,1,1,0.59,-14.85388,-21.65084,4
1561234034.208537,78,0,0,1561234030.386721,4.603072328766988,-74.06476646240939,2650.802,-1,-1,10,65,-9999,1561234034.202675,28.05295562744141,12.3553352355957,9.0321044921875,328.9022521972656,336.4452209472656,15,57925.927494,1.235305786132812,0.429351806640625,0.1144866943359375,57925.916332875,0.06381972604654985,0.5468005013311782,2.596558094377447,57925.907421875,65.38597106933594,13.12167358398438,-525.8687744140625,57925.92139887501,-0.05703882941479016,1.620299108205237,0.3420206775241737,0.05997623130679131,0.4545997083187103,2.727582454681396,0.3155601024627686,0.8251832723617554,0.04106044769287109,1,0.1376264244318008,0.7101881504058838,0.1038535907864571,0.6825732588768005,0.9409248828887939,-0.3353914022445679,0.04661648347973824,0,0,0,-1,57925.017498875,3,2,1561234033.301039,1561233790.755775,20,1.561009,0,0,17.35344,0,0,1561233932.152863,57923.294787,0,-0.1506348,74.4325,2650659446,177292352,1,1,0.59,-14.85388,-22.30623,4
1561234034.228906,79,0,0,1561234030.386721,4.603072328766988,-74.06476646240939,2650.802,-1,-1,10,65,-9999,1561234034.202675,28.05295562744141,12.3553352355957,9.0321044921875,328.9022521972656,336.4452209472656,15,57925.947758,1.2855224609375,0.3252716064453125,0.0829010009765625,57925.936619,-0.06169292560001258,0.3463174681539041,3.136015727951058,57925.92758600001,66.20021057128906,11.85525512695312,-525.6361694335938,57925.94168500001,-0.06021710351104607,1.628895274938294,0.4027931427849655,-0.1264365166425705,0.3550177216529846,3.289829730987549,0.3514798283576965,0.7614352703094482,0.04896724224090576,1,0.1586713045835495,0.7081899642944336,0.1251889914274216,0.6764748692512512,0.9184176325798035,-0.3919894695281982,0.05341921746730804,0,0,0,-1,57925.017498875,3,2,1561234033.301039,1561233790.755775,20,1.561009,0,0,17.35344,0,0,1561233932.152863,57923.294787,0,-0.1506348,74.4325,2650659446,177292352,1,1,0.59,-14.85388,-22.30623,4
1561234034.25143,80,0,0,1561234030.386721,4.603072328766988,-74.06476646240939,2650.802,-1,-1,10,65,-9999,1561234034.229707,28.78076934814453,10.79887962341309,9.29132080078125,329.0886840820312,336.6316528320312,15,57925.968021,1.195602416992188,0.2823028564453125,0.080474853515625,57925.95688200001,-0.2579852084859379,0.3300247812370174,3.951429048414245,57925.94772700001,67.07331848144531,9.609756469726562,-525.5389404296875,57925.961948,-0.06048788249332129,1.63589381781434,0.4782622336077442,-0.2727479040622711,0.2627250850200653,4.174190521240234,0.3529149889945984,0.7618270516395569,0.01681721210479736,1,0.1833101063966751,0.7037568092346191,0.1526800543069839,0.6691879630088806,0.8859155774116516,-0.4602370858192444,0.05775248259305954,0,0,0,-1,57925.017498875,3,2,1561234033.301039,1561233790.755775,20,1.561009,0,0,17.35344,0,0,1561233932.152863,57923.294787,0,-0.1506348,74.4325,2650659446,177292352,1,1,0.59,-14.85388,-22.81138,4
1561234034.269344,81,0,0,1561234030.386721,4.603072328766988,-74.06476646240939,2650.802,-1,-1,10,65,-9999,1561234034.254629,29.4937744140625,8.717340469360352,9.66876220703125,329.1083068847656,336.6512756347656,15,57925.98828500001,1.108062744140625,0.2065887451171875,0.077972412109375,57925.977146,-0.2317203148672495,0.07089148400514626,4.696935721843396,57925.967869,67.64857482910156,7.264556884765625,-524.917724609375,57925.982212,-0.06175828496750577,1.639203824613086,0.5701423645159941,-0.2227361649274826,0.04442789033055305,4.84238338470459,0.3340339660644531,0.7805203199386597,0.02960073947906494,1,0.2135030031204224,0.6951169371604919,0.1852210611104965,0.6610007882118225,0.8398551940917969,-0.5397518873214722,0.05754217877984047,0,0,0,-1,57925.017498875,3,2,1561234033.301039,1561233790.755775,20,1.561009,0,0,17.35344,0,0,1561233932.152863,57923.294787,0,-0.1506348,74.4325,2650659446,177292352,1,1,0.59,-14.85388,-23.77099,4
1561234034.289685,82,0,0,1561234030.386721,4.603072328766988,-74.06476646240939,2650.802,-1,-1,10,65,-9999,1561234034.279708,30.61388397216797,2.890829086303711,10.160888671875,329.3319702148438,336.8749389648438,15,57926.00854900001,0.956695556640625,0.077850341796875,0.072509765625,57925.99741,-0.1975511591332058,0.1809599318581212,5.256588372279188,57925.98801,68.30526733398438,4.1544189453125,-524.878662109375,57926.002476,-0.06565985916993838,1.643984440533981,0.6738892130283939,-0.2047435790300369,0.1954477578401566,5.357007026672363,0.247012734413147,0.7862764596939087,0.01761460304260254,1,0.2476342171430588,0.6835542321205139,0.2209499925374985,0.6500861048698425,0.7793086767196655,-0.6240297555923462,0.05713818594813347,0,0,0,-1,57925.017498875,3,2,1561234033.301039,1561233790.755775,20,1.561009,0,0,17.35344,0,0,1561233932.152863,57923.294787,0,-0.1506348,74.4325,2650659446,177292352,1,1,0.59,-14.85388,-15.03736,4
1561234034.310004,83,0,0,1561234030.386721,4.603072328766988,-74.06476646240939,2650.802,-1,-1,10,65,-9999,1561234034.304226,30.69088745117188,-0.711087703704834,10.22406005859375,329.6879272460938,337.2308959960938,15,57926.028812,0.8356475830078125,-0.075927734375,0.0608673095703125,57926.017674,-0.252980063533243,0.07699385132695383,5.63565366709336,57926.008152,68.54005432128906,0.844818115234375,-524.5531616210938,57926.022739,-0.07076675384541667,1.649810871433546,0.7861949755644012,-0.3071735501289368,-0.003623258788138628,5.731918334960938,0.1918864250183105,0.7072732448577881,0.01675593852996826,1,0.2837874293327332,0.6688417196273804,0.2589929699897766,0.6364259719848633,0.7043386101722717,-0.7076699733734131,0.05576910078525543,0,0,0,-1,57925.017498875,3,2,1561234033.301039,1561233790.755775,20,1.561009,0,0,17.35344,0,0,1561233932.152863,57923.294787,0,-0.1506348,74.4325,2650659446,177292352,1,1,0.59,-14.85388,-15.60028,4
1561234034.337851,84,0,0,1561234030.386721,4.603072328766988,-74.06476646240939,2650.802,-1,-1,10,65,-9999,1561234034.33054,30.24760437011719,-4.232157707214355,10.32440185546875,329.7691955566406,337.3121643066406,15,57926.049076,0.64923095703125,-0.157318115234375,0.0521087646484375,57926.037937,-0.4534303398291091,-0.1670028372172339,6.012373782251609,57926.028294,68.00404357910156,-2.750930786132812,-524.544921875,57926.04300300001,-0.07252858685563242,1.648672292571144,0.9063911102040475,-0.477884829044342,-0.2117325216531754,6.093145370483398,0.1402521729469299,0.6689975261688232,0.0002181529998779297,1,0.3210467398166656,0.64877849817276,0.2990719377994537,0.621748685836792,0.6147221922874451,-0.7872836589813232,0.04796909913420677,0,0,0,-1,57925.017498875,3,2,1561234033.301039,1561233790.755775,20,1.561009,0,0,17.35344,0,0,1561233932.152863,57923.294787,0,-0.1506348,74.4325,2650659446,177292352,1,1,0.59,-15.41116,-16.24483,4
1561234034.350423,85,0,0,1561234030.386721,4.603072328766988,-74.06476646240939,2650.802,-1,-1,10,65,-9999,1561234034.33054,30.24760437011719,-4.232157707214355,10.32440185546875,329.7691955566406,337.3121643066406,15,57926.06934,0.396148681640625,-0.21356201171875,0.0857391357421875,57926.05820100001,-0.4224471237071273,-0.2661677709352064,6.386702378750966,57926.048435,67.09916687011719,-6.239364624023438,-524.4930419921875,57926.063267,-0.07354888202741001,1.644408746624143,1.034032094330339,-0.3742489814758301,-0.2940457463264465,6.479413509368896,0.02297055721282959,0.6759419441223145,0.02736365795135498,1,0.359605073928833,0.6240900158882141,0.340141773223877,0.6045655012130737,0.5099731683731079,-0.8593677878379822,0.0376083143055439,0,0,0,-1,57925.017498875,3,2,1561234033.301039,1561233790.755775,20,1.561009,0,0,17.35344,0,0,1561233932.152863,57923.294787,0,-0.1506348,74.4325,2650659446,177292352,1,1,0.59,-15.96844,-17.25171,4
1561234034.370883,86,0,0,1561234030.386721,4.603072328766988,-74.06476646240939,2650.802,-1,-1,10,65,-9999,1561234034.354785,29.24330902099609,-7.835189819335938,10.2830810546875,236.309326171875,243.852294921875,15,57926.089603,0.0605010986328125,-0.341827392578125,0.062957763671875,57926.07846500001,-0.1497322375480701,-0.2371869856368551,6.633721222500176,57926.06857700001,66.00920104980469,-10.09147644042969,-524.7349853515625,57926.08353,-0.08554356640456663,1.649736422171054,1.167451583686649,-0.05787637084722519,-0.1395320892333984,6.619773387908936,-0.1682677567005157,0.6520378589630127,0.03759086132049561,1,0.3998932540416718,0.5962895154953003,0.3802031576633453,0.583069384098053,0.3912749588489532,-0.9197533130645752,0.03095160238444805,0,0,0,-1,57925.017498875,3,2,1561234033.301039,1561233790.755775,20,1.561009,0,0,17.35344,0,0,1561233932.152863,57923.294787,0,-0.1506348,74.4325,2650659446,177292352,1,1,0.59,-16.52572,-18.05232,4
1561234034.390995,87,0,0,1561234030.386721,4.603072328766988,-74.06476646240939,2650.802,-1,-1,10,65,-9999,1561234034.38112,26.00789642333984,-14.73425197601318,10.3199462890625,236.3581848144531,243.9011535644531,15,57926.10986700001,-0.1161346435546875,-0.4490966796875,0.06439208984375,57926.098728,0.06722670802908823,0.1574625952442431,6.505981102917871,57926.08871800001,64.27003479003906,-13.35104370117188,-524.5181274414062,57926.103794,-0.1270307355621685,1.690144339555207,1.299320127100277,0.03012405894696712,0.09843466430902481,6.457900524139404,-0.3096577525138855,0.5520296692848206,0.04473245143890381,1,0.4384661614894867,0.5689563155174255,0.4180320203304291,0.5561343431472778,0.266246497631073,-0.9633761048316956,0.03192772716283798,0,0,0,-1,57925.017498875,3,2,1561234033.301039,1561233790.755775,20,1.561009,0,0,17.35344,0,0,1561233932.152863,57923.294787,0,-0.1506348,74.4325,2650659446,177292352,1,1,0.59,-16.52572,-18.05232,4
1561234034.425651,88,0,0,1561234030.386721,4.603072328766988,-74.06476646240939,2650.802,-1,-1,10,65,-9999,1561234034.414542,23.69406509399414,-17.73598098754883,10.39788818359375,236.4543762207031,243.9973449707031,15,57926.13013100001,-0.347442626953125,-0.553924560546875,0.0731658935546875,57926.118992,-0.04006086701362595,-0.1907989805054189,6.477210441029527,57926.10886,62.05738830566406,-16.2779541015625,-524.3142700195312,57926.124058,-0.233220441311134,1.792296726546843,1.428528656008458,-0.06884486228227615,-0.238826721906662,6.519217967987061,-0.3377417325973511,0.4940016269683838,0.01075053215026855,1,0.4750374257564545,0.5384370684623718,0.4531715512275696,0.5282618403434753,0.1383246183395386,-0.9898970127105713,0.03115006536245346,0,0,0,-1,57925.017498875,3,2,1561234033.301039,1561233790.755775,20,1.561009,0,0,17.35344,0,0,1561233932.152863,57923.294787,0,-0.1506348,74.4325,2650659446,177292352,1,1,0.59,-17.64028,-19.93137,4
1561234034.431818,89,0,0,1561234030.386721,4.603072328766988,-74.06476646240939,2650.802,-1,-1,10,65,-9999,1561234034.414542,23.69406509399414,-17.73598098754883,10.39788818359375,236.4543762207031,243.9973449707031,15,57926.150394,-0.6304168701171875,-0.5509185791015625,0.1399078369140625,57926.13922500001,-0.115919679083988,-0.1580293159242119,6.530122658199439,57926.129002,59.53036499023438,-19.48448181152344,-524.2679443359375,57926.14432100001,-1.363158619416075,2.916251493865756,1.541306518270789,-0.06556119024753571,-0.1832454800605774,6.493369579315186,-0.5202142000198364,0.4417649507522583,0.0815507173538208,1,0.5099679231643677,0.5042842626571655,0.4867171049118042,0.4987349510192871,0.006588151678442955,-0.9995651841163635,0.02873980067670345,0,0,0,-1,57925.017498875,3,2,1561234033.301039,1561233790.755775,20,1.561009,0,0,17.35344,0,0,1561233932.152863,57923.294787,0,-0.1506348,74.4325,2650659446,177292352,1,1,0.59,-17.64028,-19.93137,4
1561234034.451646,90,0,0,1561234030.386721,4.603072328766988,-74.06476646240939,2650.802,-1,-1,10,65,-9999,1561234034.414542,23.69406509399414,-17.73598098754883,10.39788818359375,236.4543762207031,243.9973449707031,15,57926.170658,-0.6298980712890625,-0.588134765625,0.080841064453125,57926.15948900001,0.3558100395433826,-0.6241192583111217,6.420824929165934,57926.149143,56.63462829589844,-21.94468688964844,-524.0826416015625,57926.16458500001,-2.90489007459468,-1.836366582493278,1.442733412477759,0.5565476417541504,-0.8618232011795044,6.42902135848999,-0.5329674482345581,0.4395192861557007,0.09454727172851562,1,0.5450661182403564,0.4686819911003113,0.5147615075111389,0.467183917760849,-0.1232367381453514,-0.9918111562728882,0.03351976349949837,0,0,0,-1,57925.017498875,3,2,1561234033.301039,1561233790.755775,20,1.561009,0,0,17.35344,0,0,1561233932.152863,57923.294787,0,-0.1506348,74.4325,2650659446,177292352,1,1,0.59,-18.19756,-20.69574,4
1561234034.472295,91,0,0,1561234030.386721,4.603072328766988,-74.06476646240939,2650.802,-1,-1,10,65,-9999,1561234034.456115,18.07088088989258,-22.61695861816406,10.73907470703125,237.7770690917969,245.3200378417969,15,57926.190922,-0.8833465576171875,-0.604827880859375,0.0012359619140625,57926.179752,1.040304225031037,-1.246666985262988,6.395112641473436,57926.16931500001,53.67588806152344,-23.63804626464844,-523.7980346679688,57926.184849,-2.976008111992024,-1.789487721688437,1.312297746839266,1.094157576560974,-1.189102530479431,6.264135837554932,-0.4619308412075043,0.3675469756126404,-0.01825845241546631,1,0.5843843221664429,0.431537538766861,0.5334429144859314,0.4332539141178131,-0.249540701508522,-0.9667748808860779,0.05545936524868011,0,0,0,-1,57925.017498875,3,2,1561234033.301039,1561233790.755775,20,1.561009,0,0,17.35344,0,0,1561233932.152863,57923.294787,0,-0.1506348,74.4325,2650659446,177292352,1,1,0.59,-18.75484,-21.70394,4
1561234034.509699,92,0,0,1561234030.386721,4.603072328766988,-74.06476646240939,2650.802,-1,-1,10,65,-9999,1561234034.48257,12.29548645019531,-25.28842163085938,11.5716552734375,238.7559509277344,246.2989196777344,15,57926.211185,-1.089340209960938,-0.7507781982421875,0.0564422607421875,57926.200016,1.03809673080347,-0.5392155522305235,5.634023279874014,57926.189426,50.63703918457031,-24.82479858398438,-523.6800537109375,57926.205112,-2.991895864729753,-1.790174995902943,1.191953278825825,0.93943190574646,-0.3434876203536987,5.431563377380371,-0.6488909721374512,0.2429511547088623,-0.07030940055847168,1,0.6176859140396118,0.398381233215332,0.5489251017570496,0.3980422914028168,-0.3609814345836639,-0.9290931224822998,0.08048699051141739,0,0,0,-1,57925.017498875,3,2,1561234033.301039,1561233790.755775,20,1.561009,0,0,17.35344,0,0,1561233932.152863,57923.294787,0,-0.1506348,74.4325,2650659446,177292352,1,1,0.59,-19.86939,-23.8795,4
1561234034.51315,93,0,0,1561234030.386721,4.603072328766988,-74.06476646240939,2650.802,-1,-1,10,65,-9999,1561234034.507064,9.226875305175781,-26.24081039428711,11.94451904296875,238.4382629394531,245.9812316894531,15,57926.23144900001,-1.075210571289062,-0.7260284423828125,0.210601806640625,57926.22028,0.5000013041274337,0.1834316116658237,4.927107941168982,57926.209599,47.58189392089844,-25.65068054199219,-522.9364013671875,57926.22534600001,-3.01276749342646,-1.771215834202504,1.088495368996739,0.3455715179443359,0.2840948104858398,4.74940824508667,-0.664850115776062,0.137944221496582,0.02489602565765381,1,0.6399623155593872,0.3696171939373016,0.5660706162452698,0.3652333617210388,-0.454534649848938,-0.885930061340332,0.09233727306127548,0,0,0,-1,57925.017498875,3,2,1561234033.301039,1561233790.755775,20,1.561009,0,0,17.35344,0,0,1561233932.152863,57923.294787,0,-0.1506348,74.4325,2650659446,177292352,1,1,0.59,-19.86939,-23.8795,4
1561234034.532915,94,0,0,1561234030.386721,4.603072328766988,-74.06476646240939,2650.802,-1,-1,10,65,-9999,1561234034.507064,9.226875305175781,-26.24081039428711,11.94451904296875,238.4382629394531,245.9812316894531,15,57926.25171300001,-0.9437255859375,-0.7259674072265625,0.2662506103515625,57926.240543,-0.04605111525354118,0.1516771440921549,4.345509511770393,57926.22974,45.1573486328125,-26.25119018554688,-522.57177734375,57926.24560900001,-3.042725673548801,-1.740916260698252,0.9991450610560627,-0.1580320000648499,-0.01435712911188602,4.320868968963623,-0.4624854326248169,0.1292167901992798,0.1695131063461304,1,0.6551019549369812,0.341524600982666,0.5831219553947449,0.3378922641277313,-0.5332116484642029,-0.841008722782135,0.09159524738788605,0,0,0,-1,57925.017498875,3,2,1561234033.301039,1561233790.755775,20,1.561009,0,0,17.35344,0,0,1561233932.152863,57923.294787,0,-0.1506348,74.4325,2650659446,177292352,1,1,0.59,-20.42667,-24.84165,4
1561234034.553159,95,0,0,1561234030.386721,4.603072328766988,-74.06476646240939,2650.802,-1,-1,10,65,-9999,1561234034.533234,6.72442626953125,-26.77580261230469,12.19287109375,238.267822265625,245.810791015625,15,57926.271976,-1.021636962890625,-0.6497344970703125,0.225250244140625,57926.26080700001,-0.3363463267165385,-0.4265582454818826,4.45456542577692,57926.249851,42.31500244140625,-26.56086730957031,-522.5161743164062,57926.265873,-3.076996063807413,-1.718991425692588,0.9119968481806524,-0.3254638612270355,-0.4969999194145203,4.508490085601807,-0.3310805559158325,0.07452595233917236,0.1609693765640259,1,0.6704740524291992,0.3092876374721527,0.5965820550918579,0.3144766092300415,-0.60545814037323,-0.7907277345657349,0.09038859605789185,0,0,0,-1,57925.017498875,3,2,1561234033.301039,1561233790.755775,20,1.561009,0,0,17.35344,0,0,1561233932.152863,57923.294787,0,-0.1506348,74.4325,2650659446,177292352,1,1,0.59,-20.42667,-24.84165,4
1561234034.590323,96,0,0,1561234030.386721,4.603072328766988,-74.06476646240939,2650.802,-1,-1,10,65,-9999,1561234034.583865,-0.1696128845214844,-27.01156616210938,11.97869873046875,239.7100524902344,247.2530212402344,15,57926.29221000001,-1.15301513671875,-0.6714324951171875,0.1244964599609375,57926.281071,-0.2233215037374666,-0.6198182531506438,4.381150862955033,57926.269993,40.25808715820312,-26.80094909667969,-523.0155639648438,57926.286137,-3.10490797108624,-1.709485398656932,0.8237831283072422,-0.1638430207967758,-0.6166408658027649,4.210817337036133,-0.4127364754676819,0.1226832866668701,0.07730352878570557,1,0.6863715648651123,0.2754257619380951,0.6069520115852356,0.2909364998340607,-0.6729263663291931,-0.7337214946746826,0.09393054991960526,0,0,0,-1,57925.017498875,3,2,1561234033.301039,1561233790.755775,20,1.561009,0,0,17.35344,0,0,1561233932.152863,57923.294787,0,-0.1506348,74.4325,2650659446,177292352,1,1,0.59,-21.54123,-26.76668,4
1561234034.593697,97,0,0,1561234030.386721,4.603072328766988,-74.06476646240939,2650.802,-1,-1,10,65,-9999,1561234034.583865,-0.1696128845214844,-27.01156616210938,11.97869873046875,239.7100524902344,247.2530212402344,15,57926.31247300001,-1.491973876953125,-0.765228271484375,0.236175537109375,57926.301334,0.006906641971011497,-0.2040996059376017,3.297150023390194,57926.290134,38.11561584472656,-26.82647705078125,-522.6610107421875,57926.3064,-3.120709102016312,-1.705798857087531,0.7512540165163298,-0.00992029532790184,-0.05474210157990456,2.888037919998169,-0.6521894931793213,-0.06117284297943115,0.07180106639862061,1,0.6981187462806702,0.2486215978860855,0.6147905588150024,0.2699077725410461,-0.7241837978363037,-0.6825557947158813,0.09836496412754059,0,0,0,-1,57925.017498875,3,2,1561234033.301039,1561233790.755775,20,1.561009,0,0,17.35344,0,0,1561233932.152863,57923.294787,0,-0.1506348,74.4325,2650659446,177292352,1,1,0.59,-21.54123,-26.76668,4
1561234034.613877,98,0,0,1561234030.386721,4.603072328766988,-74.06476646240939,2650.802,-1,-1,10,65,-9999,1561234034.608131,-1.763656616210938,-26.90845108032227,11.986083984375,239.8223266601562,247.3652954101562,15,57926.332737,-1.428482055664062,-0.7787017822265625,0.2965850830078125,57926.321598,-0.2440600717781316,0.1284517162255739,1.748484032621637,57926.310276,36.4990234375,-26.44969177246094,-522.9471435546875,57926.326664,-3.132605853640182,-1.69634164043552,0.7090564498722163,-0.3575107455253601,0.08161333948373795,1.465424776077271,-0.7258023619651794,-0.1319478750228882,0.1641805171966553,1,0.7023864984512329,0.2327469289302826,0.6213905811309814,0.2575963735580444,-0.7530031800270081,-0.6511179208755493,0.0950358510017395,0,0,0,-1,57925.017498875,3,2,1561234033.301039,1561233790.755775,20,1.561009,0,0,17.35344,0,0,1561233932.152863,57923.294787,0,-0.1506348,74.4325,2650659446,177292352,1,1,0.59,-22.09851,-27.75021,4
1561234034.634406,99,0,0,1561234030.386721,4.603072328766988,-74.06476646240939,2650.802,-1,-1,10,65,-9999,1561234034.608131,-1.763656616210938,-26.90845108032227,11.986083984375,239.8223266601562,247.3652954101562,15,57926.353001,-1.232818603515625,-0.6993255615234375,0.210235595703125,57926.341862,-0.7008888714742909,-0.1698660017051781,1.016976531778597,57926.33041800001,35.40162658691406,-26.46324157714844,-523.1495361328125,57926.34692800001,3.131486682260402,-1.685801583142622,0.6874151721952845,-0.7729684114456177,-0.2966316938400269,0.9539423584938049,-0.5701227188110352,-0.1036787033081055,0.1963131427764893,1,0.7040340900421143,0.2206382304430008,0.6251084804534912,0.2547432482242584,-0.7677831649780273,-0.6345415115356445,0.08869045972824097,0,0,0,-1,57925.017498875,3,2,1561234033.301039,1561233790.755775,20,1.561009,0,0,17.35344,0,0,1561233932.152863,57923.294787,0,-0.1506348,74.4325,2650659446,177292352,1,1,0.59,-22.65579,-28.7155,4
1561234034.658058,100,0,0,1561234030.386721,4.603072328766988,-74.06476646240939,2650.802,-1,-1,10,65,-9999,1561234034.636614,-2.470985412597656,-26.9459228515625,11.7303466796875,240.6881866455078,248.2311553955078,15,57926.373264,-1.16448974609375,-0.61822509765625,0.0392303466796875,57926.36212500001,-0.7120744143687326,-0.5470923837866509,0.853280541686914,57926.35055900001,35.10789489746094,-26.55445861816406,-523.5193481445312,57926.367191,3.109568520804824,-1.681671861830106,0.6713601813544405,-0.6278319954872131,-0.5744789838790894,0.843571662902832,-0.3956597447395325,-0.04400980472564697,0.03119325637817383,1,0.7070354819297791,0.2083708196878433,0.6256102323532104,0.2555272877216339,-0.7781683802604675,-0.6220515370368958,0.08663514256477356,0,0,0,-1,57925.017498875,3,2,1561234033.301039,1561233790.755775,20,1.561009,0,0,17.35344,0,0,1561233932.152863,57923.294787,0,-0.1506348,74.4325,2650659446,177292352,1,1,0.59,-23.21307,-29.4516,4
1561234034.674688,101,0,0,1561234030.386721,4.603072328766988,-74.06476646240939,2650.802,-1,-1,10,65,-9999,1561234034.658745,-2.765953063964844,-26.95969390869141,11.32989501953125,241.90087890625,249.44384765625,15,57926.393528,-1.106613159179688,-0.6194000244140625,-0.06103515625,57926.38238900001,-0.3429395146272476,-0.4538846751110766,0.8394467514044974,57926.37070100001,34.61518859863281,-26.60533142089844,-523.5453491210938,57926.387455,3.095894839819004,-1.683459272475896,0.6554595625630204,-0.2668739855289459,-0.362929105758667,0.812889575958252,-0.367226243019104,0.01729953289031982,-0.1219788789749146,1,0.7108168005943298,0.1982494592666626,0.6250677108764648,0.2544150352478027,-0.7877419590950012,-0.6095236539840698,0.08912674337625504,0,0,0,-1,57925.017498875,3,2,1561234033.301039,1561233790.755775,20,1.561009,0,0,17.35344,0,0,1561233932.152863,57923.294787,0,-0.1506348,74.4325,2650659446,177292352,1,1,0.59,-23.77035,-30.40007,4
1561234034.695026,102,0,0,1561234030.386721,4.603072328766988,-74.06476646240939,2650.802,-1,-1,10,65,-9999,1561234034.685037,-3.213909149169922,-27.04846954345703,10.93084716796875,242.4247741699219,249.9677429199219,15,57926.41379200001,-1.087783813476562,-0.6234588623046875,-0.0165557861328125,57926.402653,-0.1768392227034416,0.02392077922720073,0.7585787996398053,57926.390873,34.55648803710938,-26.79388427734375,-523.8800048828125,57926.407719,3.088629125215476,-1.681422157467236,0.6403650602707831,-0.2178382873535156,0.1748246401548386,0.7217961549758911,-0.2948514819145203,-0.0435640811920166,-0.1372488737106323,1,0.7125593423843384,0.1911098062992096,0.6266065239906311,0.2511979639530182,-0.79697585105896,-0.5974882245063782,0.08852754533290863,0,0,0,-1,57925.017498875,3,2,1561234033.301039,1561233790.755775,20,1.561009,0,0,17.35344,0,0,1561233932.152863,57923.294787,0,-0.1506348,74.4325,2650659446,177292352,1,1,0.59,-24.32763,-31.40847,4
1561234034.715205,103,0,0,1561234030.386721,4.603072328766988,-74.06476646240939,2650.802,-1,-1,10,65,-9999,1561234034.709402,-3.593227386474609,-27.03862762451172,10.76116943359375,242.4541015625,249.9970703125,15,57926.43405500001,-1.024658203125,-0.62646484375,0.056976318359375,57926.422916,-0.3077386502869073,0.4532391248628414,0.5101407573456924,57926.41101500001,33.92033386230469,-26.52536010742188,-524.1826171875,57926.427982,3.079979975771251,-1.668772595478955,0.6291745981976492,-0.3193188309669495,0.4335832297801971,0.4445735812187195,-0.2561856508255005,-0.02693986892700195,-0.05932831764221191,1,0.7105917930603027,0.186020240187645,0.6313073039054871,0.248810738325119,-0.8046358823776245,-0.588477611541748,0.07908844947814941,0,0,0,-1,57925.017498875,3,2,1561234033.301039,1561233790.755775,20,1.561009,0,0,17.35344,0,0,1561233932.152863,57923.294787,0,-0.1506348,74.4325,2650659446,177292352,1,1,0.59,-24.32763,-31.40847,4
1561234034.747002,104,0,0,1561234030.386721,4.603072328766988,-74.06476646240939,2650.802,-1,-1,10,65,-9999,1561234034.736355,-3.998634338378906,-26.97835540771484,10.4814453125,242.640380859375,250.183349609375,15,57926.454319,-0.91943359375,-0.606842041015625,0.132537841796875,57926.44318,-0.2961107563354033,0.1906937856423608,0.3399826068689327,57926.43115600001,33.5462646484375,-26.66520690917969,-524.2958984375,57926.448246,3.071453006812311,-1.658194906301549,0.6222917729491526,-0.2837768197059631,0.0376015342772007,0.3242117464542389,-0.1613664031028748,-0.03877472877502441,0.03346049785614014,1,0.7087382078170776,0.182078555226326,0.6347942352294922,0.2481410056352615,-0.8094435334205627,-0.5828988552093506,0.07092489302158356,0,0,0,-1,57925.017498875,3,2,1561234033.301039,1561233790.755775,20,1.561009,0,0,17.35344,0,0,1561233932.152863,57923.294787,0,-0.1506348,74.4325,2650659446,177292352,1,1,0.59,-25.44218,-33.40041,4
1561234034.755927,105,0,0,1561234030.386721,4.603072328766988,-74.06476646240939,2650.802,-1,-1,10,65,-9999,1561234034.736355,-3.998634338378906,-26.97835540771484,10.4814453125,242.640380859375,250.183349609375,15,57926.474583,-0.8404541015625,-0.5955963134765625,0.10968017578125,57926.463444,-0.2742768301383887,-0.3126740204190421,0.2885758746632421,57926.451298,33.31723022460938,-26.6253662109375,-524.5382080078125,57926.46851000001,3.063961066019014,-1.658057577074794,0.6167635129204947,-0.287413090467453,-0.3691729009151459,0.2729008793830872,-0.06022810935974121,-0.02366805076599121,0.06258881092071533,1,0.7099235057830811,0.1776382625102997,0.6345530152320862,0.248587504029274,-0.8126509189605713,-0.5783979892730713,0.07109346985816956,0,0,0,-1,57925.017498875,3,2,1561234033.301039,1561233790.755775,20,1.561009,0,0,17.35344,0,0,1561233932.152863,57923.294787,0,-0.1506348,74.4325,2650659446,177292352,1,1,0.59,-25.44218,-33.40041,4
1561234034.775897,106,0,0,1561234030.386721,4.603072328766988,-74.06476646240939,2650.802,-1,-1,10,65,-9999,1561234034.736355,-3.998634338378906,-26.97835540771484,10.4814453125,242.640380859375,250.183349609375,15,57926.494846,-0.8323822021484375,-0.5668182373046875,0.0352935791015625,57926.48370700001,-0.2214833899530939,-0.3854195971751015,0.2240192519430673,57926.471439,33.47653198242188,-26.76995849609375,-524.522705078125,57926.488773,3.057225139518943,-1.66207169698471,0.6123888330341434,-0.1673658043146133,-0.3888781666755676,0.2133097499608994,-0.01456618309020996,0.00206989049911499,-0.005096316337585449,1,0.7122172117233276,0.1733178943395615,0.6327954530715942,0.2495546787977219,-0.814871072769165,-0.574823796749115,0.07458490133285522,0,0,0,-1,57925.017498875,3,2,1561234033.301039,1561233790.755775,20,1.561009,0,0,17.35344,0,0,1561233932.152863,57923.294787,0,-0.1506348,74.4325,2650659446,177292352,1,1,0.59,-25.99946,-34.40374,4
1561234034.796157,107,0,0,1561234030.386721,4.603072328766988,-74.06476646240939,2650.802,-1,-1,10,65,-9999,1561234034.779326,-4.357219696044922,-27.16043090820312,10.2860107421875,243.2397155761719,250.7826843261719,15,57926.51511,-0.86773681640625,-0.5658111572265625,0.026031494140625,57926.50397100001,0.02218652872534112,-0.3562835495851986,0.2055419739839886,57926.491581,33.03387451171875,-26.81983947753906,-524.3335571289062,57926.509037,3.055660657723089,-1.668708327809847,0.6083186978691427,0.06887656450271606,-0.3407106399536133,0.2103626877069473,-0.02354538440704346,-0.003401577472686768,-0.06456375122070312,1,0.7148444056510925,0.1706080585718155,0.6307048797607422,0.2492024153470993,-0.816679835319519,-0.5714885592460632,0.08021926879882812,0,0,0,-1,57925.017498875,3,2,1561234033.301039,1561233790.755775,20,1.561009,0,0,17.35344,0,0,1561233932.152863,57923.294787,0,-0.1506348,74.4325,2650659446,177292352,1,1,0.59,-26.55674,-35.17676,4
1561234034.81644,108,0,0,1561234030.386721,4.603072328766988,-74.06476646240939,2650.802,-1,-1,10,65,-9999,1561234034.815617,-4.577171325683594,-27.09078598022461,10.510986328125,243.7904510498047,251.3334197998047,15,57926.53537400001,-0.897705078125,-0.5334930419921875,0.103271484375,57926.524204,0.1274588897711924,-0.1843695770017496,0.2828343656691403,57926.511723,33.36227416992188,-26.86933898925781,-524.5358276367188,57926.529301,3.057753427200646,-1.674907699256596,0.6029214808006246,0.09663202613592148,-0.125611886382103,0.3074021339416504,-0.07625466585159302,0.02852284908294678,-0.01933097839355469,1,0.7171429395675659,0.1688370555639267,0.6293653845787048,0.2471828460693359,-0.819222629070282,-0.5670512914657593,0.08559989184141159,0,0,0,-1,57925.017498875,3,2,1561234033.301039,1561233790.755775,20,1.561009,0,0,17.35344,0,0,1561233932.152863,57923.294787,0,-0.1506348,74.4325,2650659446,177292352,1,1,0.59,-27.11402,-36.08937,4
1561234034.836733,109,0,0,1561234030.386721,4.603072328766988,-74.06476646240939,2650.802,-1,-1,10,65,-9999,1561234034.815617,-4.577171325683594,-27.09078598022461,10.510986328125,243.7904510498047,251.3334197998047,15,57926.555637,-0.8468017578125,-0.5641632080078125,0.1329193115234375,57926.544468,-0.04492619600909171,0.04401006859410445,0.326516599133056,57926.531864,32.97743225097656,-26.85484313964844,-524.3580322265625,57926.549564,3.057069994332594,-1.674900760302252,0.5964492981253582,-0.1124703288078308,0.08191333711147308,0.3208436369895935,-0.05458539724349976,0.006608903408050537,0.03881251811981201,1,0.7178204655647278,0.1664952337741852,0.63001948595047,0.2451294809579849,-0.8228560090065002,-0.561708390712738,0.08597376942634583,0,0,0,-1,57925.017498875,3,2,1561234033.301039,1561233790.755775,20,1.561009,0,0,17.35344,0,0,1561233932.152863,57923.294787,0,-0.1506348,74.4325,2650659446,177292352,1,1,0.59,-27.6713,-37.00663,4
1561234034.857174,110,0,0,1561234030.386721,4.603072328766988,-74.06476646240939,2650.802,-1,-1,10,65,-9999,1561234034.837027,-4.685779571533203,-27.12675857543945,10.43212890625,243.8145599365234,251.3575286865234,15,57926.575901,-0.83404541015625,-0.5653076171875,0.1025390625,57926.56473200001,-0.1955098461576601,0.1605569221148061,0.2830700554256123,57926.55200600001,32.98200988769531,-26.63764953613281,-524.411376953125,57926.56982800001,3.052079309857334,-1.669416050581314,0.590832836428434,-0.1824054718017578,0.1324878334999084,0.2529399693012238,-0.008091986179351807,-0.008590459823608398,0.04658818244934082,1,0.7170323729515076,0.1635510176420212,0.6320131421089172,0.2442847043275833,-0.826441764831543,-0.5570528507232666,0.08176872134208679,0,0,0,-1,57925.017498875,3,2,1561234033.301039,1561233790.755775,20,1.561009,0,0,17.35344,0,0,1561233932.152863,57923.294787,0,-0.1506348,74.4325,2650659446,177292352,1,1,0.59,-28.22858,-37.84599,4
1561234034.877254,111,0,0,1561234030.386721,4.603072328766988,-74.06476646240939,2650.802,-1,-1,10,65,-9999,1561234034.861185,-4.924530029296875,-27.16004180908203,10.31573486328125,243.9162902832031,251.4592590332031,15,57926.596165,-0.8448333740234375,-0.538421630859375,0.0848388671875,57926.584995,-0.0376999747072707,0.0005904228136705671,0.1681738291485418,57926.57214700001,32.58673095703125,-26.611328125,-524.7870483398438,57926.590061,3.049393441564402,-1.667046553111395,0.5870816326069686,0.0252023171633482,-0.06082197278738022,0.1279040426015854,-0.01315057277679443,0.003564417362213135,0.006461143493652344,1,0.7168494462966919,0.1616543233394623,0.6329606771469116,0.2436299622058868,-0.8287073373794556,-0.5539336800575256,0.08001049607992172,0,0,0,-1,57925.017498875,3,2,1561234033.301039,1561233790.755775,20,1.561009,0,0,17.35344,0,0,1561233932.152863,57923.294787,0,-0.1506348,74.4325,2650659446,177292352,1,1,0.59,-28.22858,-37.84599,4
1561234034.897812,112,0,0,1561234030.386721,4.603072328766988,-74.06476646240939,2650.802,-1,-1,10,65,-9999,1561234034.887836,-5.0291748046875,-26.90238571166992,10.26470947265625,243.9138336181641,251.4568023681641,15,57926.616428,-0.8209075927734375,-0.5422210693359375,0.1070556640625,57926.605259,0.1489103860356716,-0.1440786128699408,0.02945669218514844,57926.592289,32.77468872070312,-26.62722778320312,-524.5388793945312,57926.610325,3.051872506371302,-1.670917107983313,0.5856230046028656,0.1382519006729126,-0.1112824901938438,-0.003899534698575735,-0.01157999038696289,0.0172266960144043,0.006255745887756348,1,0.7180078625679016,0.1615975648164749,0.6320385932922363,0.2426483780145645,-0.8291946053504944,-0.5527186989784241,0.08329812437295914,0,0,0,-1,57925.017498875,3,2,1561234033.301039,1561233790.755775,20,1.561009,0,0,17.35344,0,0,1561233932.152863,57923.294787,0,-0.1506348,74.4325,2650659446,177292352,1,1,0.59,-28.78586,-38.7215,4
1561234034.91827,113,0,0,1561234030.386721,4.603072328766988,-74.06476646240939,2650.802,-1,-1,10,65,-9999,1561234034.911863,-4.918228149414062,-27.11455535888672,10.28070068359375,243.8287353515625,251.3717041015625,15,57926.636692,-0.7740936279296875,-0.56671142578125,0.12518310546875,57926.625523,0.00459342024816867,0.1131923358116379,-0.05524860839423883,57926.612431,32.74227905273438,-26.7860107421875,-524.7197875976562,57926.630589,3.053243845218716,-1.671120277138212,0.586298972007969,-0.04740770533680916,0.1481323093175888,-0.06992702186107635,0.03663045167922974,-0.006471514701843262,0.04257798194885254,1,0.7178983688354492,0.1622852683067322,0.6320558786392212,0.2424682825803757,-0.828805685043335,-0.5532819032669067,0.08342915028333664,0,0,0,-1,57925.017498875,3,2,1561234033.301039,1561233790.755775,20,1.561009,0,0,17.35344,0,0,1561233932.152863,57923.294787,0,-0.1506348,74.4325,2650659446,177292352,1,1,0.59,-29.34314,-39.52792,4
1561234034.938086,114,0,0,1561234030.386721,4.603072328766988,-74.06476646240939,2650.802,-1,-1,10,65,-9999,1561234034.911863,-4.918228149414062,-27.11455535888672,10.28070068359375,243.8287353515625,251.3717041015625,15,57926.656925,-0.80389404296875,-0.5290374755859375,0.10516357421875,57926.645786,-0.08558254584245938,0.163108230439102,-0.0494631572421507,57926.632572,32.80302429199219,-26.64878845214844,-524.4549560546875,57926.65085200001,3.051489618101397,-1.667106737655281,0.5876885971043976,-0.07212796062231064,0.142253115773201,-0.02781365625560284,0.04418802261352539,0.003382980823516846,0.02667677402496338,1,0.7166424989700317,0.1625962555408478,0.6331254243850708,0.2431834936141968,-0.8283677101135254,-0.5544388890266418,0.08002802729606628,0,0,0,-1,57925.017498875,3,2,1561234033.301039,1561233790.755775,20,1.561009,0,0,17.35344,0,0,1561233932.152863,57923.294787,0,-0.1506348,74.4325,2650659446,177292352,1,1,0.59,-29.90042,-40.07721,4
1561234034.958345,115,0,0,1561234030.386721,4.603072328766988,-74.06476646240939,2650.802,-1,-1,10,65,-9999,1561234034.938379,-4.857551574707031,-27.14802551269531,10.170654296875,243.8003540039062,251.3433227539062,15,57926.677189,-0.80255126953125,-0.531402587890625,0.086669921875,57926.66605000001,-0.001408545900542909,0.01919047249900198,0.01348970986957836,57926.652714,32.88865661621094,-26.5789794921875,-524.7042236328125,57926.671116,3.050824270872582,-1.665529641956005,0.5877254857316253,0.01643172837793827,-0.0428759977221489,0.01934586651623249,0.02776765823364258,0.03150510787963867,0.0181584358215332,1,0.7161937355995178,0.162561759352684,0.6336053013801575,0.2432788759469986,-0.8284726142883301,-0.5544695854187012,0.07871958613395691,0,0,0,-1,57925.017498875,3,2,1561234033.301039,1561233790.755775,20,1.561009,0,0,17.35344,0,0,1561233932.152863,57924.244761,0,0.06884766,74.43043,2650659446,177292352,1,1,0.59,-30.4577,-41.01146,4
1561234034.989034,116,0,0,1561234030.386721,4.603072328766988,-74.06476646240939,2650.802,-1,-1,10,65,-9999,1561234034.962678,-4.933032989501953,-27.10289001464844,10.1732177734375,243.8072814941406,251.3502502441406,15,57926.697453,-0.814239501953125,-0.5366668701171875,0.1007843017578125,57926.68631400001,0.03405091138164413,-0.1217019344427681,0.01012187635506416,57926.672855,32.65646362304688,-26.7579345703125,-524.7628784179688,57926.69138,3.05149936894227,-1.668049839901262,0.5873431990308021,0.01899608783423901,-0.1324354410171509,-0.006467088125646114,0.01058071851730347,0.01879680156707764,0.01711833477020264,1,0.7169721722602844,0.1623724400997162,0.6328276395797729,0.2431362718343735,-0.8284823298454285,-0.5541514158248901,0.08082780987024307,0,0,0,-1,57925.017498875,3,2,1561234033.301039,1561233790.755775,20,1.561009,0,0,17.35344,0,0,1561233932.152863,57924.244761,0,0.06884766,74.43043,2650659446,177292352,1,1,0.59,-31.01497,-41.53045,4
1561234034.998956,117,0,0,1561234030.386721,4.603072328766988,-74.06476646240939,2650.802,-1,-1,10,65,-9999,1561234034.989424,-4.845794677734375,-27.11294174194336,10.1827392578125,243.8840637207031,251.4270324707031,15,57926.71771600001,-0.80517578125,-0.5521240234375,0.0778656005859375,57926.706577,-0.0191742272163525,-0.07222599402738497,-0.003136138499677311,57926.69299700001,32.69793701171875,-26.80476379394531,-524.5732421875,57926.711643,3.05137634531496,-1.67009618060313,0.5875393676777994,-0.02694717049598694,-0.06822183728218079,0.008896954357624054,0.02248203754425049,0.007226049900054932,0.0100170373916626,1,0.7176110744476318,0.1621433347463608,0.6320566534996033,0.2434098124504089,-0.8282071352005005,-0.5543146729469299,0.08251222968101501,0,0,0,-1,57925.017498875,3,2,1561234033.301039,1561233790.755775,20,1.561009,0,0,17.35344,0,0,1561233932.152863,57924.244761,0,0.06884766,74.43043,2650659446,177292352,1,1,0.59,-31.57225,-42.15019,4
1561234035.019209,118,0,0,1561234030.386721,4.603072328766988,-74.06476646240939,2650.802,-1,-1,10,65,-9999,1561234035.013255,-5.084091186523438,-26.94499969482422,10.3096923828125,243.9295043945312,251.4724731445312,15,57926.73798000001,-0.8346099853515625,-0.54205322265625,0.0707855224609375,57926.726841,0.01781574874430308,-0.0329339816204649,0.05484247632800175,57926.71313900001,32.55584716796875,-26.47032165527344,-524.79541015625,57926.731907,3.051293136213079,-1.671113395151919,0.5868661801779769,0.03721557185053825,-0.0302150622010231,0.05493688583374023,0.009768187999725342,0.008130490779876709,-0.01385772228240967,1,0.7180016040802002,0.1617704927921295,0.6317574381828308,0.2432827800512314,-0.8284937739372253,-0.5537542700767517,0.08339199423789978,0,0,0,-1,57925.017498875,3,2,1561234033.301039,1561233790.755775,20,1.561009,0,0,17.35344,0,0,1561233932.152863,57924.244761,0,0.06884766,74.43043,2650659446,177292352,1,1,0.59,-32.12953,-42.95485,4
1561234035.04131,119,0,0,1561234030.386721,4.603072328766988,-74.06476646240939,2650.802,-1,-1,10,65,-9999,1561234035.03974,-4.995029449462891,-26.97366333007812,10.1640625,243.8608551025391,251.4038238525391,15,57926.758244,-0.8391265869140625,-0.54351806640625,0.077239990234375,57926.747105,0.0536877296793434,0.02797730619960942,0.05900739395677667,57926.73328,32.7080078125,-26.50137329101562,-524.776123046875,57926.752171,3.052352392629398,-1.671690933163601,0.5856226473962666,0.03822650760412216,0.04303305223584175,0.05175893381237984,-0.01272773742675781,0.0141289234161377,-0.01193356513977051,1,0.7182136178016663,0.1616758853197098,0.6318190693855286,0.2425591498613358,-0.8291301727294922,-0.5527184009552002,0.08393978327512741,0,0,0,-1,57925.017498875,3,2,1561234033.301039,1561233790.755775,20,1.561009,0,0,17.35344,0,0,1561233932.152863,57924.244761,0,0.06884766,74.43043,2650659446,177292352,1,1,0.59,-32.12953,-42.95485,4
1561234035.069097,120,0,0,1561234030.386721,4.603072328766988,-74.06476646240939,2650.802,-1,-1,10,65,-9999,1561234035.064171,-4.963405609130859,-27.12675476074219,10.2802734375,243.823974609375,251.366943359375,15,57926.778507,-0.8215789794921875,-0.553131103515625,0.0764007568359375,57926.767368,-0.01575872311832588,0.08636950994457779,0.03604535272200447,57926.753422,32.54154968261719,-26.47798156738281,-524.859130859375,57926.77243400001,3.05231252597659,-1.670302770121396,0.5848162144266125,-0.03798570483922958,0.08869054913520813,0.02426765486598015,-0.003578305244445801,0.00189054012298584,-0.005882859230041504,1,0.7178527116775513,0.1615672260522842,0.6324031949043274,0.2421770393848419,-0.8296889662742615,-0.5520461201667786,0.08283296972513199,0,0,0,-1,57925.017498875,3,2,1561234033.301039,1561233790.755775,20,1.561009,0,0,17.35344,0,0,1561233932.152863,57924.244761,0,0.06884766,74.43043,2650659446,177292352,1,1,0.59,-33.24409,-43.9239,4
1561234035.079986,121,0,0,1561234030.386721,4.603072328766988,-74.06476646240939,2650.802,-1,-1,10,65,-9999,1561234035.064171,-4.963405609130859,-27.12675476074219,10.2802734375,243.823974609375,251.366943359375,15,57926.798771,-0.8199920654296875,-0.5536956787109375,0.078826904296875,57926.78763200001,-0.07390218761748084,0.1012025182679921,0.01911856714956984,57926.773563,32.66581726074219,-26.74520874023438,-524.9612426757812,57926.792698,3.05074447091526,-1.667574267639408,0.5845595427637365,-0.07792060822248459,0.07330280542373657,0.01611571758985519,0.01495873928070068,-0.006044507026672363,0.002364277839660645,1,0.7171396017074585,0.1612515300512314,0.633220911026001,0.2423631548881531,-0.8300527334213257,-0.5518321394920349,0.08058252930641174,0,0,0,-1,57925.017498875,3,2,1561234033.301039,1561233790.755775,20,1.561009,0,0,17.35344,0,0,1561233932.152863,57924.244761,0,0.06884766,74.43043,2650659446,177292352,1,1,0.59,-33.24409,-43.9239,4
1561234035.100259,122,0,0,1561234030.386721,4.603072328766988,-74.06476646240939,2650.802,-1,-1,10,65,-9999,1561234035.090307,-5.135833740234375,-26.9830436706543,10.18408203125,243.8544769287109,251.3974456787109,15,57926.819035,-0.8310089111328125,-0.5537109375,0.083892822265625,57926.80789600001,-0.03560646377435941,0.004085022796072544,0.01474965138129485,57926.793705,32.32487487792969,-26.60556030273438,-524.564697265625,57926.812962,3.049405703654478,-1.666374330521059,0.5844105776281892,-0.02069353498518467,-0.03157194331288338,0.001500290585681796,0.003189206123352051,0.0004535913467407227,0.00179600715637207,1,0.7168810963630676,0.1608684360980988,0.6335057020187378,0.2426383793354034,-0.8302308320999146,-0.5517078638076782,0.07959432154893875,0,0,0,-1,57925.017498875,3,2,1561234033.301039,1561233790.755775,20,1.561009,0,0,17.35344,0,0,1561233932.152863,57924.244761,0,0.06884766,74.43043,2650659446,177292352,1,1,0.59,-33.80137,-44.11283,4
