loggingTime,loggingSample,identifierForVendor,deviceID,locationTimestamp_since1970,locationLatitude,locationLongitude,locationAltitude,locationSpeed,locationCourse,locationVerticalAccuracy,locationHorizontalAccuracy,locationFloor,locationHeadingTimestamp_since1970,locationHeadingX,locationHeadingY,locationHeadingZ,locationTrueHeading,locationMagneticHeading,locationHeadingAccuracy,accelerometerTimestamp_sinceReboot,accelerometerAccelerationX,accelerometerAccelerationY,accelerometerAccelerationZ,gyroTimestamp_sinceReboot,gyroRotationX,gyroRotationY,gyroRotationZ,magnetometerTimestamp_sinceReboot,magnetometerX,magnetometerY,magnetometerZ,motionTimestamp_sinceReboot,motionYaw,motionRoll,motionPitch,motionRotationRateX,motionRotationRateY,motionRotationRateZ,motionUserAccelerationX,motionUserAccelerationY,motionUserAccelerationZ,motionAttitudeReferenceFrame,motionQuaternionX,motionQuaternionY,motionQuaternionZ,motionQuaternionW,motionGravityX,motionGravityY,motionGravityZ,motionMagneticFieldX,motionMagneticFieldY,motionMagneticFieldZ,motionMagneticFieldCalibrationAccuracy,activityTimestamp_sinceReboot,activity,activityActivityConfidence,activityActivityStartDate,pedometerStartDate,pedometerNumberofSteps,pedometerAverageActivePace,pedometerCurrentPace,pedometerCurrentCadence,pedometerDistance,pedometerFloorAscended,pedometerFloorDescended,pedometerEndDate,altimeterTimestamp_sinceReboot,altimeterReset,altimeterRelativeAltitude,altimeterPressure,IP_en0,IP_pdp_ip0,deviceOrientation,batteryState,batteryLevel,avAudioRecorderPeakPower,avAudioRecorderAveragePower,label
1561243497.978408,1,0,0,1561243496.988847,4.602246712897534,-74.06496732502623,2653.753,0,56.6015625,4,10,-9999,1561243497.95753,-10.23745727539062,-24.54854393005371,23.50048828125,125.3734130859375,132.9170989990234,20,65597.86298062501,-0.95758056640625,-0.246368408203125,0.072509765625,65597.857914625,0.03197897205356248,-0.05026370346582852,0.009439840799894867,65597.84647062501,27.40129089355469,-22.72486877441406,-513.9534301757812,65597.857914625,-1.398543583586203,-1.647822729283499,0.2420469897036759,0.03078929893672466,-0.05575951188802719,0.006841194350272417,0.01638686656951904,-0.001947760581970215,-0.002014279365539551,1,-0.4061000049114227,-0.6102756261825562,-0.5018764138221741,0.4590931236743927,-0.9679707288742065,-0.2396904528141022,0.07470710575580597,0,0,0,-1,65597.407780625,2,0,1561243497.529183,1561243107.271691,28,1.054203,0,0,24.53997,0,0,1561243350.380748,65595.17805,0,-3.995361,74.58526,2650634390,177292352,1,1,0.14,-26.10776,-35.21674,4
1561243497.99495,2,0,0,1561243496.988847,4.602246712897534,-74.06496732502623,2653.753,0,56.6015625,4,10,-9999,1561243497.95753,-10.23745727539062,-24.54854393005371,23.50048828125,125.3734130859375,132.9170989990234,20,65597.883244625,-0.9657745361328125,-0.2489166259765625,0.073699951171875,65597.878178625,-0.006192648482761252,-0.008562861852931775,0.0079117189664074,65597.866551625,27.63081359863281,-22.68537902832031,-513.7313842773438,65597.878178625,-1.398316741830497,-1.648615490637968,0.2419790945560834,-0.00738232210278511,-0.0140586718916893,0.005313071887940168,0.004701137542724609,-0.007705211639404297,-0.002660751342773438,1,-0.4062491059303284,-0.6104912161827087,-0.5016462206840515,0.4589261710643768,-0.9679274559020996,-0.2396245300769806,0.07547572255134583,0,0,0,-1,65597.407780625,2,0,1561243497.529183,1561243107.271691,28,1.054203,0,0,24.53997,0,0,1561243350.380748,65595.17805,0,-3.995361,74.58526,2650634390,177292352,1,1,0.14,-26.10776,-32.93061,4
1561243498.020279,3,0,0,1561243496.988847,4.602246712897534,-74.06496732502623,2653.753,0,56.6015625,4,10,-9999,1561243498.003174,-10.10234069824219,-24.63737106323242,23.41802978515625,125.3389434814453,132.8826293945312,20,65597.903507625,-0.965118408203125,-0.245452880859375,0.0716705322265625,65597.898441625,-0.01817474285924576,0.01892122691279497,-0.01704582887316117,65597.88663162501,27.46568298339844,-22.46783447265625,-513.7708740234375,65597.898441625,-1.398689704453508,-1.648545545217183,0.2421969753520638,-0.01936441659927368,0.01342541631311178,-0.01964447647333145,0.002930164337158203,-0.007737785577774048,-0.006235837936401367,1,-0.4062829613685608,-0.6104393005371094,-0.5018010139465332,0.4587960839271545,-0.9678807258605957,-0.2398360520601273,0.07540396600961685,0,0,0,-1,65597.407780625,2,0,1561243497.529183,1561243107.271691,28,1.054203,0,0,24.53997,0,0,1561243350.380748,65595.17805,0,-3.995361,74.58526,2650634390,177292352,1,1,0.14,-26.10776,-33.69009,4
1561243498.035285,4,0,0,1561243497.988832,4.602246712897534,-74.06496732502623,2654.724,0,56.6015625,4,10,-9999,1561243498.029182,-10.23868560791016,-24.44180870056152,23.56195068359375,125.3649291992188,132.9086151123047,20,65597.92377162501,-0.9603118896484375,-0.2362823486328125,0.0637969970703125,65597.91870562501,-0.01049019153382212,0.04166994894425182,-0.01344922982100916,65597.906712625,27.44264221191406,-22.59156799316406,-513.724365234375,65597.91870562501,-1.399021061500295,-1.647894638853529,0.2426098545130688,-0.01167986448854208,0.03617414087057114,-0.0160478763282299,0.002651333808898926,-0.001172423362731934,-0.007444500923156738,1,-0.4061024188995361,-0.6102982759475708,-0.502113401889801,0.4588017761707306,-0.9678307771682739,-0.2402368634939194,0.07476632297039032,0,0,0,-1,65597.407780625,2,0,1561243497.529183,1561243107.271691,28,1.054203,0,0,24.53997,0,0,1561243350.380748,65595.17805,0,-3.995361,74.58526,2650634390,177292352,1,1,0.14,-26.10776,-33.69009,4
1561243498.055977,5,0,0,1561243497.988832,4.602246712897534,-74.06496732502623,2654.724,0,56.6015625,4,10,-9999,1561243498.053809,-10.288330078125,-24.36649513244629,23.264892578125,125.3640899658203,132.9077758789062,20,65597.944035625,-0.949554443359375,-0.2330780029296875,0.0616302490234375,65597.938938625,0.0188112383597747,-0.002740392761691536,0.009816944410250088,65597.926792625,27.56022644042969,-22.78921508789062,-513.996337890625,65597.938938625,-1.399055635032084,-1.647424143913158,0.2427191546454485,0.01762156561017036,-0.008236202411353588,0.00721829803660512,0.01271581649780273,0.007463306188583374,-0.01266336441040039,1,-0.4059635102748871,-0.6102033257484436,-0.5022444128990173,0.4589075744152069,-0.9678396582603455,-0.2403429597616196,0.07430893927812576,0,0,0,-1,65597.407780625,2,0,1561243497.529183,1561243107.271691,28,1.054203,0,0,24.53997,0,0,1561243350.380748,65595.17805,0,-3.995361,74.58526,2650634390,177292352,1,1,0.14,-26.10776,-34.26334,4
1561243498.075812,6,0,0,1561243497.988832,4.602246712897534,-74.06496732502623,2654.724,0,56.6015625,4,10,-9999,1561243498.053809,-10.288330078125,-24.36649513244629,23.264892578125,125.3640899658203,132.9077758789062,20,65597.964268625,-0.9542999267578125,-0.240692138671875,0.0701446533203125,65597.959202625,0.07364758941726927,-0.06020288697011324,0.02423130381030397,65597.946873625,27.45069885253906,-22.71316528320312,-513.6691284179688,65597.959202625,-1.398117002493619,-1.648562069754038,0.2423081719052847,0.07245791703462601,-0.06569869816303253,0.02163265645503998,0.01906126737594604,0.005202800035476685,-0.01023232936859131,1,-0.4060804545879364,-0.6105797290802002,-0.5016943216323853,0.4589050710201263,-0.967852771282196,-0.2399440109729767,0.07541788369417191,0,0,0,-1,65597.407780625,2,0,1561243497.529183,1561243107.271691,28,1.054203,0,0,24.53997,0,0,1561243350.380748,65595.17805,0,-3.995361,74.58526,2650634390,177292352,1,1,0.14,-26.10776,-34.28632,4
1561243498.099357,7,0,0,1561243497.988832,4.602246712897534,-74.06496732502623,2654.724,0,56.6015625,4,10,-9999,1561243498.078034,-10.08757019042969,-24.41683197021484,23.36041259765625,125.2801513671875,132.8238372802734,20,65597.98452775,-0.9702606201171875,-0.2514801025390625,0.07513427734375,65597.97946662501,0.03802701088913243,0.01964853620649561,0.019896742820091,65597.966953625,27.82518005371094,-22.52359008789062,-513.8650512695312,65597.97946662501,-1.396826578526437,-1.649551758564394,0.2417622418300427,0.03683733567595482,0.01415272522717714,0.01729809492826462,0.004483461380004883,-0.007473230361938477,-0.001190662384033203,1,-0.4060908854007721,-0.610969066619873,-0.5010592937469482,0.4590714573860168,-0.9679081439971924,-0.2394139915704727,0.07638601213693619,0,0,0,-1,65597.407780625,2,0,1561243497.529183,1561243107.271691,28,1.054203,0,0,24.53997,0,0,1561243350.380748,65595.17805,0,-3.995361,74.58526,2650634390,177292352,1,1,0.14,-26.10776,-34.9424,4
1561243498.116326,8,0,0,1561243497.988832,4.602246712897534,-74.06496732502623,2654.724,0,56.6015625,4,10,-9999,1561243498.104473,-10.17467308044434,-24.30007934570312,23.515625,125.2320251464844,132.7757110595703,20,65598.00479075,-0.9695892333984375,-0.249908447265625,0.0808868408203125,65597.99972475,-0.02962154185662434,0.04377198199265137,0.008549013415263363,65597.98702975,27.28846740722656,-22.59428405761719,-513.7023315429688,65597.99972475,-1.39685211244839,-1.648702951029824,0.2415673440265998,-0.03081121481955051,0.03827617317438126,0.005950366612523794,-0.002439737319946289,-0.01320138573646545,0.003487706184387207,1,-0.4059418141841888,-0.6107333898544312,-0.5011882185935974,0.459376186132431,-0.9680192470550537,-0.239224761724472,0.0755680575966835,0,0,0,-1,65597.407780625,2,0,1561243497.529183,1561243107.271691,28,1.054203,0,0,24.53997,0,0,1561243350.380748,65595.17805,0,-3.995361,74.58526,2650634390,177292352,1,1,0.14,-26.10776,-32.36815,4
1561243498.136586,9,0,0,1561243497.988832,4.602246712897534,-74.06496732502623,2654.724,0,56.6015625,4,10,-9999,1561243498.128635,-10.1425895690918,-24.34638214111328,23.6524658203125,125.2828521728516,132.8265380859375,20,65598.02505475,-0.9654693603515625,-0.2459564208984375,0.0739593505859375,65598.01998875001,-0.03832342071845826,-0.03337926215472615,-0.003262372335347067,65598.00711075,27.36152648925781,-22.50657653808594,-513.867431640625,65598.01998875001,-1.397667599859392,-1.648489818343061,0.2416025489366969,-0.03951309621334076,-0.03887506946921349,-0.005861018784344196,0.001199483871459961,-0.00625494122505188,0.006471753120422363,1,-0.4061273038387299,-0.6105253100395203,-0.5014276504516602,0.459227442741394,-0.968026876449585,-0.2392589300870895,0.07536108046770096,0,0,0,-1,65597.407780625,2,0,1561243497.529183,1561243107.271691,28,1.054203,0,0,24.53997,0,0,1561243350.380748,65595.17805,0,-3.995361,74.58526,2650634390,177292352,1,1,0.14,-26.10776,-33.07913,4
1561243498.15686,10,0,0,1561243497.988832,4.602246712897534,-74.06496732502623,2654.724,0,56.6015625,4,10,-9999,1561243498.155682,-10.35387802124023,-24.60578918457031,23.484375,125.3328247070312,132.8765106201172,20,65598.04531875001,-0.9744873046875,-0.2457427978515625,0.0624237060546875,65598.04025275,-0.02717569471149557,-0.00427916723953932,-0.001329183700058548,65598.02722175,27.37330627441406,-22.71195983886719,-513.877197265625,65598.04025275,-1.398383562262556,-1.648879273626845,0.2418344802198325,-0.02836536802351475,-0.009774977341294289,-0.003927830141037703,-0.0004113912582397461,-0.008379638195037842,-0.008213520050048828,1,-0.4063771367073059,-0.6105116605758667,-0.5015714168548584,0.4588671922683716,-0.9679418802261353,-0.2394841313362122,0.0757337287068367,0,0,0,-1,65597.407780625,2,0,1561243497.529183,1561243107.271691,28,1.054203,0,0,24.53997,0,0,1561243350.380748,65595.17805,0,-3.995361,74.58526,2650634390,177292352,1,1,0.14,-26.66504,-32.59391,4
1561243498.179629,11,0,0,1561243497.988832,4.602246712897534,-74.06496732502623,2654.724,0,56.6015625,4,10,-9999,1561243498.155682,-10.35387802124023,-24.60578918457031,23.484375,125.3328247070312,132.8765106201172,20,65598.06558175001,-0.973602294921875,-0.2440185546875,0.060150146484375,65598.06048575,0.01850444220219757,0.02148957946806739,-0.0002154497321874104,65598.04730175,27.30632019042969,-22.6260986328125,-514.03662109375,65598.06048575,-1.398609784912887,-1.648574604074371,0.2418822853043517,0.01731476932764053,0.01599377021193504,-0.0028140963986516,-0.00738823413848877,-0.004838943481445312,-0.01574563980102539,1,-0.4063560664653778,-0.6104045510292053,-0.501697301864624,0.4588907659053802,-0.9679535031318665,-0.2395305335521698,0.07543794065713882,0,0,0,-1,65597.407780625,2,0,1561243497.529183,1561243107.271691,28,1.054203,0,0,24.53997,0,0,1561243350.380748,65595.17805,0,-3.995361,74.58526,2650634390,177292352,1,1,0.14,-27.22232,-32.90253,4
1561243498.19735,12,0,0,1561243497.988832,4.602246712897534,-74.06496732502623,2654.724,0,56.6015625,4,10,-9999,1561243498.18183,-10.23951530456543,-24.39180946350098,23.41400146484375,125.3251800537109,132.8688659667969,20,65598.08581475001,-0.9695281982421875,-0.2411651611328125,0.0768890380859375,65598.08074975001,0.07543270629594938,-0.001395762727310529,-0.003846936194619459,65598.06738275,27.32635498046875,-22.74908447265625,-514.1035766601562,65598.08074975001,-1.397494471392498,-1.648715684578487,0.2419676809361647,0.07424303144216537,-0.006891572847962379,-0.006445582956075668,-0.005801796913146973,-0.002696096897125244,-0.006465911865234375,1,-0.4060264825820923,-0.6106790900230408,-0.5014342665672302,0.4591047763824463,-0.967922568321228,-0.2396134436130524,0.0755729079246521,0,0,0,-1,65597.407780625,2,0,1561243497.529183,1561243107.271691,28,1.054203,0,0,24.53997,0,0,1561243350.380748,65595.17805,0,-3.995361,74.58526,2650634390,177292352,1,1,0.14,-27.22232,-32.90253,4
1561243498.217561,13,0,0,1561243497.988832,4.602246712897534,-74.06496732502623,2654.724,0,56.6015625,4,10,-9999,1561243498.20569,-10.31266975402832,-24.52016067504883,23.3165283203125,125.2293701171875,132.7730560302734,20,65598.10607875,-0.964324951171875,-0.246856689453125,0.0799102783203125,65598.10101275,0.01888261107698882,-0.002182726829428944,0.002943591952864582,65598.08746275,27.63265991210938,-22.7337646484375,-513.9793701171875,65598.10101275,-1.396425582758535,-1.649248862391901,0.241998382643226,0.0176929384469986,-0.00767853669822216,0.0003449453506618738,0.00441974401473999,-0.004298985004425049,0.001151561737060547,1,-0.4058248102664948,-0.6110240817070007,-0.5010884404182434,0.4592017829418182,-0.9678749442100525,-0.2396432608366013,0.07608841359615326,0,0,0,-1,65597.407780625,2,0,1561243497.529183,1561243107.271691,28,1.054203,0,0,24.53997,0,0,1561243350.380748,65595.17805,0,-3.995361,74.58526,2650634390,177292352,1,1,0.14,-27.7796,-33.26896,4
1561243498.23782,14,0,0,1561243497.988832,4.602246712897534,-74.06496732502623,2654.724,0,56.6015625,4,10,-9999,1561243498.229954,-10.00562477111816,-24.48102378845215,23.48468017578125,125.2232513427734,132.7669372558594,20,65598.12634275001,-0.9707183837890625,-0.2468109130859375,0.08343505859375,65598.12127675001,-0.02553199168669866,-0.01315734736553648,0.01283031118367475,65598.10754375001,27.64830017089844,-22.38165283203125,-513.8096313476562,65598.12127675001,-1.396610940882824,-1.649278198299579,0.2419011465580367,-0.02672166563570499,-0.01865315809845924,0.01023166440427303,0.001693844795227051,-0.007292568683624268,0.007591128349304199,1,-0.4059167206287384,-0.6109753847122192,-0.5011004209518433,0.4591720104217529,-0.9678956866264343,-0.239548847079277,0.07611861079931259,0,0,0,-1,65597.407780625,2,0,1561243497.529183,1561243107.271691,28,1.054203,0,0,24.53997,0,0,1561243350.380748,65595.17805,0,-3.995361,74.58526,2650634390,177292352,1,1,0.14,-28.33688,-33.80322,4
1561243498.258299,15,0,0,1561243497.988832,4.602246712897534,-74.06496732502623,2654.724,0,56.6015625,4,10,-9999,1561243498.256785,-10.02682304382324,-24.48356246948242,23.4708251953125,125.2557525634766,132.7994384765625,20,65598.14660575001,-0.9720916748046875,-0.2492828369140625,0.07373046875,65598.14154075,-0.01003319309076452,-0.04189312184360047,-0.02132659400935454,65598.12765475,27.64671325683594,-22.71017456054688,-513.8705444335938,65598.14154075,-1.397090541988845,-1.649875698440757,0.2420919521689345,-0.01122286636382341,-0.04738892987370491,-0.02392524108290672,-0.002990126609802246,-0.008968919515609741,0.001050233840942383,1,-0.4061582684516907,-0.611050009727478,-0.5011374354362488,0.458818644285202,-0.967804491519928,-0.239734098315239,0.07669330388307571,0,0,0,-1,65597.407780625,2,0,1561243497.529183,1561243107.271691,28,1.054203,0,0,24.53997,0,0,1561243350.380748,65595.17805,0,-3.995361,74.58526,2650634390,177292352,1,1,0.14,-28.89416,-30.64933,4
1561243498.278516,16,0,0,1561243497.988832,4.602246712897534,-74.06496732502623,2654.724,0,56.6015625,4,10,-9999,1561243498.256785,-10.02682304382324,-24.48356246948242,23.4708251953125,125.2557525634766,132.7994384765625,20,65598.16686975,-0.9733734130859375,-0.2472076416015625,0.0640869140625,65598.16180375,0.006614493199429804,0.01675048430827138,-0.0309576497755171,65598.14773575,27.56242370605469,-22.77638244628906,-513.67919921875,65598.16180375,-1.397044972963173,-1.650331950815696,0.242731196443611,0.005424819886684418,0.01125467475503683,-0.03355629742145538,-0.007526874542236328,-0.008302569389343262,-0.006688117980957031,1,-0.4060755372047424,-0.611280620098114,-0.5011959671974182,0.4585207402706146,-0.9676164984703064,-0.2403546571731567,0.07712267339229584,0,0,0,-1,65597.407780625,2,0,1561243497.529183,1561243107.271691,28,1.054203,0,0,24.53997,0,0,1561243350.380748,65595.17805,0,-3.995361,74.58526,2650634390,177292352,1,1,0.14,-29.45144,-31.37477,4
1561243498.29866,17,0,0,1561243497.988832,4.602246712897534,-74.06496732502623,2654.724,0,56.6015625,4,10,-9999,1561243498.280587,-10.05652046203613,-24.47624588012695,23.45135498046875,125.2485046386719,132.7921905517578,20,65598.18713375001,-0.9705810546875,-0.240020751953125,0.0612335205078125,65598.18203675,0.01718564483039033,0.05782148832336439,-0.01532356259620693,65598.16781575,27.75027465820312,-22.53271484375,-513.6878662109375,65598.18203675,-1.396876556880455,-1.649518635731261,0.2432889415195678,0.01599597185850143,0.05232567712664604,-0.01792220957577229,-0.002959728240966797,-0.006143748760223389,-0.0172431468963623,1,-0.4056603908538818,-0.6112300753593445,-0.5014633536338806,0.4586631655693054,-0.9675450921058655,-0.240896001458168,0.07632511854171753,0,0,0,-1,65597.407780625,2,0,1561243497.529183,1561243107.271691,28,1.054203,0,0,24.53997,0,0,1561243350.380748,65595.17805,0,-3.995361,74.58526,2650634390,177292352,1,1,0.14,-29.42215,-31.79919,4
1561243498.318835,18,0,0,1561243497.988832,4.602246712897534,-74.06496732502623,2654.724,0,56.6015625,4,10,-9999,1561243498.306973,-10.02079963684082,-24.36533546447754,23.49676513671875,125.2146301269531,132.7583160400391,20,65598.20736675001,-0.9516448974609375,-0.2400360107421875,0.0770721435546875,65598.20230075001,0.06325353799879901,-0.01727992073297914,-0.009570069377199742,65598.18789675001,27.61050415039062,-22.40803527832031,-513.7296752929688,65598.20230075001,-1.396000976078186,-1.649356830307535,0.2434312765394187,0.06206386163830757,-0.02277573198080063,-0.01216871663928032,0.00361025333404541,0.006338715553283691,-0.00516664981842041,1,-0.4053114056587219,-0.6113964319229126,-0.5013312697410583,0.4588942527770996,-0.9675231575965881,-0.2410341501235962,0.07616586238145828,0,0,0,-1,65597.407780625,2,0,1561243497.529183,1561243107.271691,28,1.054203,0,0,24.53997,0,0,1561243350.380748,65595.17805,0,-3.995361,74.58526,2650634390,177292352,1,1,0.14,-29.42215,-32.23878,4
1561243498.339247,19,0,0,1561243497.988832,4.602246712897534,-74.06496732502623,2654.724,0,56.6015625,4,10,-9999,1561243498.331374,-9.87946891784668,-24.40071105957031,23.51959228515625,125.1332092285156,132.6768951416016,20,65598.22763075,-0.95263671875,-0.2504730224609375,0.0795745849609375,65598.22256475,0.01878247622000184,-0.0401769808371534,-0.01859925073700439,65598.20797675001,27.53646850585938,-22.56292724609375,-513.9494018554688,65598.22256475,-1.394966705075348,-1.650440658822612,0.24378595501171,0.01759280264377594,-0.04567278921604156,-0.02119789831340313,0.01886856555938721,-0.004761159420013428,0.004350662231445312,1,-0.4051649272441864,-0.6119192838668823,-0.5009641051292419,0.4587278068065643,-0.967354953289032,-0.2413783520460129,0.07720765471458435,0,0,0,-1,65597.407780625,2,0,1561243497.529183,1561243107.271691,28,1.054203,0,0,24.53997,0,0,1561243350.380748,65595.17805,0,-3.995361,74.58526,2650634390,177292352,1,1,0.14,-29.42215,-32.23878,4
1561243498.35935,20,0,0,1561243497.988832,4.602246712897534,-74.06496732502623,2654.724,0,56.6015625,4,10,-9999,1561243498.357649,-10.12219619750977,-24.4480037689209,23.50042724609375,125.1721954345703,132.7158813476562,20,65598.24789375,-0.956298828125,-0.251312255859375,0.0740814208984375,65598.24282775,-0.05433567677255968,0.0009443569225420979,-0.007817975696036612,65598.22805775001,27.59475708007812,-22.65016174316406,-513.9671630859375,65598.24282775,-1.395507785044656,-1.650865512530992,0.2441596487891482,-0.05552535131573677,-0.004551453050225973,-0.01041662134230137,0.0139087438583374,-0.009281367063522339,0.0001931190490722656,1,-0.4053297638893127,-0.6119750738143921,-0.5010966062545776,0.4583629369735718,-0.9672321081161499,-0.2417409867048264,0.07761141657829285,0,0,0,-1,65597.407780625,2,0,1561243497.529183,1561243107.271691,28,1.054203,0,0,24.53997,0,0,1561243350.380748,65595.17805,0,-3.995361,74.58526,2650634390,177292352,1,1,0.14,-29.42215,-32.29391,4
1561243498.379671,21,0,0,1561243497.988832,4.602246712897534,-74.06496732502623,2654.724,0,56.6015625,4,10,-9999,1561243498.357649,-10.12219619750977,-24.4480037689209,23.50042724609375,125.1721954345703,132.7158813476562,20,65598.26815775,-0.9610137939453125,-0.2391815185546875,0.072235107421875,65598.26309175001,-0.01853267170975241,0.01733318395478072,0.0195169760486457,65598.24816875001,27.52584838867188,-22.68437194824219,-513.9130859375,65598.26309175001,-1.396378353601517,-1.650307571058253,0.2441635677535392,-0.01972234435379505,0.01183737348765135,0.01691832952201366,0.008076250553131104,-0.003036707639694214,-0.0001521110534667969,1,-0.4054551422595978,-0.6116714477539062,-0.501410186290741,0.4583143293857574,-0.9672742486000061,-0.2417447865009308,0.0770716667175293,0,0,0,-1,65597.407780625,2,0,1561243497.529183,1561243107.271691,28,1.054203,0,0,24.53997,0,0,1561243350.380748,65595.17805,0,-3.995361,74.58526,2650634390,177292352,1,1,0.14,-29.42215,-33.18784,4
1561243498.399891,22,0,0,1561243497.988832,4.602246712897534,-74.06496732502623,2654.724,0,56.6015625,4,10,-9999,1561243498.381768,-10.23078346252441,-24.58213043212891,23.68310546875,125.2177276611328,132.7614135742188,20,65598.28842175001,-0.957916259765625,-0.2468719482421875,0.06817626953125,65598.28335575,0.009367669134353721,0.01409797586255246,-0.0115112474957585,65598.26824975001,27.47097778320312,-22.58944702148438,-513.9955444335938,65598.28335575,-1.39641829006761,-1.650147977879008,0.2440918292478381,0.008177995681762695,0.00860216561704874,-0.01410989463329315,0.009112834930419922,-0.001092135906219482,-0.008086204528808594,1,-0.40544793009758,-0.6116136908531189,-0.5014335513114929,0.4583721458911896,-0.9673037528991699,-0.2416751682758331,0.07691866159439087,0,0,0,-1,65597.407780625,2,0,1561243497.529183,1561243107.271691,28,1.054203,0,0,24.53997,0,0,1561243350.380748,65595.17805,0,-3.995361,74.58526,2650634390,177292352,1,1,0.14,-29.42215,-33.73988,4
1561243498.420209,23,0,0,1561243497.988832,4.602246712897534,-74.06496732502623,2654.724,0,56.6015625,4,10,-9999,1561243498.408474,-10.20791625976562,-24.63799476623535,23.525390625,125.2112274169922,132.7549133300781,20,65598.30868475001,-0.9579315185546875,-0.240325927734375,0.0691986083984375,65598.30358875,-0.001190166691156411,0.04615071747831014,-0.01814145334561977,65598.28832975001,27.62684631347656,-22.75962829589844,-513.9129028320312,65598.30358875,-1.396360974761601,-1.649686305210192,0.2445583723451895,-0.002379840239882469,0.04065490886569023,-0.02074010111391544,0.006594419479370117,-0.003996402025222778,-0.01188802719116211,1,-0.4051808416843414,-0.6116045117378235,-0.5016318559646606,0.4584036469459534,-0.9672266840934753,-0.2421278655529022,0.07646318525075912,0,0,0,-1,65597.407780625,2,0,1561243497.529183,1561243107.271691,28,1.054203,0,0,24.53997,0,0,1561243350.380748,65595.17805,0,-3.995361,74.58526,2650634390,177292352,1,1,0.14,-29.42215,-33.88365,4
1561243498.440441,24,0,0,1561243497.988832,4.602246712897534,-74.06496732502623,2654.724,0,56.6015625,4,10,-9999,1561243498.432513,-10.10883140563965,-24.48114776611328,23.48046875,125.2104797363281,132.7541656494141,20,65598.32891775,-0.9454345703125,-0.23455810546875,0.0706329345703125,65598.32385275001,0.01864931816549788,-0.009645969468267001,0.009906160306767742,65598.30841075,27.41680908203125,-22.48318481445312,-513.9112548828125,65598.32385275001,-1.396296340799142,-1.649291593448436,0.2446329240035171,0.01746122166514397,-0.01513939816504717,0.007307210937142372,0.0132594108581543,0.007947266101837158,-0.005401253700256348,1,-0.4050406515598297,-0.6115407347679138,-0.5017158389091492,0.4585208296775818,-0.9672389626502991,-0.2422001957893372,0.07608000189065933,0,0,0,-1,65597.407780625,2,0,1561243497.529183,1561243107.271691,28,1.054203,0,0,24.53997,0,0,1561243350.380748,65595.17805,0,-3.995361,74.58526,2650634390,177292352,1,1,0.14,-29.42215,-34.11047,4
1561243498.460741,25,0,0,1561243497.988832,4.602246712897534,-74.06496732502623,2654.724,0,56.6015625,4,10,-9999,1561243498.459255,-10.3040657043457,-24.4832706451416,23.5390625,125.1573486328125,132.7010345458984,20,65598.34918175,-0.950653076171875,-0.2423095703125,0.07757568359375,65598.34411575001,0.04522260583841753,-0.03841370187941194,0.01833133673134242,65598.32849075001,27.59042358398438,-22.70553588867188,-513.7791137695312,65598.34411575001,-1.395518217207706,-1.650020593558759,0.2443843499863898,0.04403451085090637,-0.04390713199973106,0.01573238521814346,0.02077090740203857,0.00215187668800354,0.00157928466796875,1,-0.4050568044185638,-0.6118201613426208,-0.5013269782066345,0.4585590064525604,-0.9672430753707886,-0.2419590204954147,0.07678984850645065,0,0,0,-1,65597.407780625,2,0,1561243497.529183,1561243107.271691,28,1.054203,0,0,24.53997,0,0,1561243350.380748,65595.17805,0,-3.995361,74.58526,2650634390,177292352,1,1,0.14,-28.61509,-34.58969,4
1561243498.481427,26,0,0,1561243497.988832,4.602246712897534,-74.06496732502623,2654.724,0,56.6015625,4,10,-9999,1561243498.459255,-10.3040657043457,-24.4832706451416,23.5390625,125.1573486328125,132.7010345458984,20,65598.36944575001,-0.9567413330078125,-0.2492218017578125,0.0784759521484375,65598.36437975,0.002083923552987004,-0.06802272687891291,0.01929806420704118,65598.34857175,27.4404296875,-22.78872680664062,-513.8723754882812,65598.36437975,-1.395074518067999,-1.651415309368617,0.2440107177481308,0.0008958277758210897,-0.07351616024971008,0.01669911295175552,0.01422208547592163,-0.002528905868530273,-0.003194808959960938,1,-0.4053776264190674,-0.6121617555618286,-0.5008481740951538,0.4583426713943481,-0.9672250151634216,-0.2415964603424072,0.0781460702419281,0,0,0,-1,65597.407780625,2,0,1561243497.529183,1561243107.271691,28,1.054203,0,0,24.53997,0,0,1561243350.380748,65595.17805,0,-3.995361,74.58526,2650634390,177292352,1,1,0.14,-28.61509,-34.92992,4
1561243498.501297,27,0,0,1561243497.988832,4.602246712897534,-74.06496732502623,2654.724,0,56.6015625,4,10,-9999,1561243498.483228,-10.20815086364746,-24.50705146789551,23.39678955078125,125.1418609619141,132.685546875,20,65598.38970875001,-0.9659423828125,-0.250244140625,0.0746917724609375,65598.38464375,-0.01938488325857777,-0.0267935310950692,0.001761681061087416,65598.36865175,27.5404052734375,-22.74317932128906,-513.7896728515625,65598.38464375,-1.39534004772528,-1.652495281865388,0.2438871966874672,-0.02057297900319099,-0.03228695690631866,-0.0008372686570510268,0.005606770515441895,-0.01056808233261108,-0.0013885498046875,1,-0.4057646691799164,-0.6123328804969788,-0.5006587505340576,0.4579785466194153,-0.9671698808670044,-0.2414765954017639,0.07919304817914963,0,0,0,-1,65598.38043175,1,2,1561243498.501834,1561243107.271691,28,1.054203,0,0,24.53997,0,0,1561243350.380748,65595.17805,0,-3.995361,74.58526,2650634390,177292352,1,1,0.14,-28.61509,-34.92992,4
1561243498.521443,28,0,0,1561243497.988832,4.602246712897534,-74.06496732502623,2654.724,0,56.6015625,4,10,-9999,1561243498.509599,-10.1873836517334,-24.37460708618164,23.461181640625,125.1715698242188,132.7152557373047,20,65598.40997275,-0.96002197265625,-0.2452850341796875,0.068084716796875,65598.40487675001,-0.01763465379017769,0.05473515093607156,0.005655222574783262,65598.38876275001,27.55718994140625,-22.51557922363281,-513.8563232421875,65598.40487675001,-1.395806039639693,-1.652080900504842,0.2440153284292071,-0.01882275007665157,0.04924172163009644,0.003056272864341736,0.002373933792114258,-0.006232351064682007,-0.007622718811035156,1,-0.4057668447494507,-0.6121667623519897,-0.5008819699287415,0.4579546749591827,-0.967171847820282,-0.2416009455919266,0.07878975570201874,0,0,0,-1,65598.38043175,1,2,1561243498.501834,1561243107.271691,28,1.054203,0,0,24.53997,0,0,1561243350.380748,65595.17805,0,-3.995361,74.58526,2650634390,177292352,1,1,0.14,-28.61509,-32.36402,4
1561243498.54174,29,0,0,1561243497.988832,4.602246712897534,-74.06496732502623,2654.724,0,56.6015625,4,10,-9999,1561243498.533854,-9.883464813232422,-24.47602272033691,23.62451171875,125.1836395263672,132.7273254394531,20,65598.43020575,-0.953125,-0.23736572265625,0.073211669921875,65598.42513975,0.03389431750954747,0.003322027143764842,0.04073944045937814,65598.40884375,27.94915771484375,-22.62736511230469,-513.988525390625,65598.42513975,-1.395815818425825,-1.65143400277817,0.2436207457486873,0.03270622342824936,-0.002171401400119066,0.03814049065113068,0.01240718364715576,0.002204358577728271,-0.01144504547119141,1,-0.4057208895683289,-0.6119447946548462,-0.5009155869483948,0.4582551121711731,-0.967317521572113,-0.2412180304527283,0.0781717449426651,0,0,0,-1,65598.38043175,1,2,1561243498.501834,1561243107.271691,28,1.054203,0,0,24.53997,0,0,1561243350.380748,65595.17805,0,-3.995361,74.58526,2650634390,177292352,1,1,0.14,-28.61509,-32.66215,4
1561243498.561984,30,0,0,1561243497.988832,4.602246712897534,-74.06496732502623,2654.724,0,56.6015625,4,10,-9999,1561243498.560694,-10.20553779602051,-24.60366630554199,23.47271728515625,125.1136627197266,132.6573486328125,20,65598.45046975001,-0.9691619873046875,-0.2452545166015625,0.0846405029296875,65598.44540375001,0.05532690533028717,-0.07279804102953399,0.0393937451605611,65598.42892475,27.42404174804688,-22.89158630371094,-513.8025512695312,65598.44540375001,-1.394808235910905,-1.652597695375285,0.2426968365567846,0.05413880944252014,-0.07829147577285767,0.03679479658603668,0.008417427539825439,0.00107872486114502,0.002532601356506348,1,-0.4059684276580811,-0.6122478246688843,-0.5002145767211914,0.4583968222141266,-0.9674475789070129,-0.2403212934732437,0.07931552827358246,0,0,0,-1,65598.38043175,1,2,1561243498.501834,1561243107.271691,28,1.054203,0,0,24.53997,0,0,1561243350.380748,65595.17805,0,-3.995361,74.58526,2650634390,177292352,1,1,0.14,-28.61509,-33.25327,4
1561243498.582328,31,0,0,1561243497.988832,4.602246712897534,-74.06496732502623,2654.724,0,56.6015625,4,10,-9999,1561243498.560694,-10.20553779602051,-24.60366630554199,23.47271728515625,125.1136627197266,132.6573486328125,20,65598.47073375,-0.9879150390625,-0.2580718994140625,0.0821685791015625,65598.46566775,-0.02680258584277547,0.01095571209236797,0.006150570537538,65598.44900475,27.73101806640625,-22.63812255859375,-513.5814819335938,65598.46566775,-1.394420398067271,-1.653537519176225,0.2422776970941202,-0.02799068205058575,0.0054622832685709,0.003551620990037918,-0.01616978645324707,-0.0130152702331543,0.006879329681396484,1,-0.4062046706676483,-0.6124657392501831,-0.499828577041626,0.4583173990249634,-0.9674727916717529,-0.2399144172668457,0.08023303002119064,0,0,0,-1,65598.38043175,1,2,1561243498.501834,1561243107.271691,28,1.054203,0,0,24.53997,0,0,1561243350.380748,65595.17805,0,-3.995361,74.58526,2650634390,177292352,1,1,0.14,-24.72257,-28.51529,4
1561243498.602498,32,0,0,1561243497.988832,4.602246712897534,-74.06496732502623,2654.724,0,56.6015625,4,10,-9999,1561243498.584481,-10.08256149291992,-24.4293212890625,23.66436767578125,125.1238555908203,132.6675415039062,20,65598.49099675,-0.9783172607421875,-0.251312255859375,0.074066162109375,65598.48593075,-0.06897906802636036,0.05022348973336832,-0.008585765038306456,65598.46908575001,27.57684326171875,-22.7493896484375,-513.9158935546875,65598.48593075,-1.395681989308047,-1.652534338436308,0.2425229718488361,-0.0701671689748764,0.0447300598025322,-0.01118471473455429,-0.01920008659362793,-0.01581364870071411,-0.003909707069396973,1,-0.4062697887420654,-0.6120242476463318,-0.5003836154937744,0.4582438766956329,-0.9674941897392273,-0.2401525229215622,0.07925764471292496,0,0,0,-1,65598.38043175,1,2,1561243498.501834,1561243107.271691,28,1.054203,0,0,24.53997,0,0,1561243350.380748,65595.17805,0,-3.995361,74.58526,2650634390,177292352,1,1,0.14,-19.33987,-28.42041,4
1561243498.62291,33,0,0,1561243497.988832,4.602246712897534,-74.06496732502623,2654.724,0,56.6015625,4,10,-9999,1561243498.610884,-10.20625686645508,-24.68057060241699,23.6541748046875,125.2149200439453,132.7586059570312,20,65598.51126075001,-0.9626007080078125,-0.24078369140625,0.0711669921875,65598.50619475001,0.004927114332755599,0.004154797616632619,-0.002988599375286921,65598.48916575,27.70512390136719,-22.605224609375,-513.8583374023438,65598.50619475001,-1.396471806247533,-1.651880805044097,0.242800489933208,0.003739018458873034,-0.00133863091468811,-0.005587548948824406,-0.003086507320404053,-0.004466354846954346,-0.007452964782714844,1,-0.4062684178352356,-0.6117646098136902,-0.5007675886154175,0.4581722915172577,-0.9674792885780334,-0.2404219061136246,0.07861992716789246,0,0,0,-1,65598.38043175,1,2,1561243498.501834,1561243107.271691,28,1.054203,0,0,24.53997,0,0,1561243350.380748,65595.17805,0,-3.995361,74.58526,2650634390,177292352,1,1,0.14,-19.33987,-25.58679,4
1561243498.643848,34,0,0,1561243497.988832,4.602246712897534,-74.06496732502623,2654.724,0,56.6015625,4,10,-9999,1561243498.635153,-9.895357131958008,-24.43151473999023,23.55023193359375,125.1874847412109,132.7311706542969,20,65598.53152475001,-0.967498779296875,-0.2381134033203125,0.071441650390625,65598.52642775001,0.04146595080475175,-0.01495817689464806,0.01158421810962667,65598.50924675001,27.63670349121094,-22.56163024902344,-513.6290283203125,65598.52642775001,-1.39583010521742,-1.652317120150439,0.2426613257749538,0.04027785360813141,-0.02045160531997681,0.008985267952084541,0.002481698989868164,0.002509117126464844,-0.007801532745361328,1,-0.4062212109565735,-0.611969530582428,-0.5004966855049133,0.4582363069057465,-0.9674780368804932,-0.2402868270874023,0.07904475927352905,0,0,0,-1,65598.38043175,1,2,1561243498.501834,1561243107.271691,28,1.054203,0,0,24.53997,0,0,1561243350.380748,65595.17805,0,-3.995361,74.58526,2650634390,177292352,1,1,0.14,-19.33987,-26.36179,4
1561243498.663277,35,0,0,1561243497.988832,4.602246712897534,-74.06496732502623,2654.724,0,56.6015625,4,10,-9999,1561243498.661563,-9.96400260925293,-24.55516624450684,23.6552734375,125.1424713134766,132.6861572265625,20,65598.55175775,-0.97344970703125,-0.241455078125,0.0779266357421875,65598.54669175,0.02128211921915022,0.006339388658824619,0.00921640158443722,65598.52935775,27.64450073242188,-22.83541870117188,-513.8880004882812,65598.54669175,-1.395187110257638,-1.652718384355885,0.2424617210612145,0.02009402401745319,0.0008459598757326603,0.006617452017962933,-0.00436854362487793,-0.0004006922245025635,-0.006942391395568848,1,-0.4061819016933441,-0.6121557950973511,-0.5002173185348511,0.4583276510238647,-0.9674943089485168,-0.2400930672883987,0.07943691313266754,0,0,0,-1,65598.38043175,1,2,1561243498.501834,1561243107.271691,28,1.054203,0,0,24.53997,0,0,1561243350.380748,65596.118414,0,-4.019043,74.58549,2650634390,177292352,1,1,0.14,-19.33987,-26.36179,4
1561243498.683553,36,0,0,1561243497.988832,4.602246712897534,-74.06496732502623,2654.724,0,56.6015625,4,10,-9999,1561243498.661563,-9.96400260925293,-24.55516624450684,23.6552734375,125.1424713134766,132.6861572265625,20,65598.57202075,-0.9666595458984375,-0.24688720703125,0.081878662109375,65598.56695575001,-0.001397626940073584,0.01558668291190676,0.001969940258331612,65598.54943775,27.48823547363281,-22.6036376953125,-513.9280395507812,65598.56695575001,-1.394982447909383,-1.652577579166942,0.2423833213153956,-0.002585722599178553,0.0100932540372014,-0.0006290094461292028,-0.003850460052490234,-0.003284424543380737,0.002683281898498535,1,-0.4061065316200256,-0.6121507883071899,-0.50017911195755,0.4584426581859589,-0.9675240516662598,-0.2400169670581818,0.07930220663547516,0,0,0,-1,65598.38043175,1,2,1561243498.501834,1561243107.271691,28,1.054203,0,0,24.53997,0,0,1561243350.380748,65596.118414,0,-4.019043,74.58549,2650634390,177292352,1,1,0.14,-19.33987,-26.82994,4
1561243498.70388,37,0,0,1561243497.988832,4.602246712897534,-74.06496732502623,2654.724,0,56.6015625,4,10,-9999,1561243498.685787,-10.07573890686035,-24.32620811462402,23.56036376953125,125.1383209228516,132.6820068359375,20,65598.59228475,-0.962066650390625,-0.2477874755859375,0.07781982421875,65598.58721875001,-0.01194347854067836,-0.01841735683455198,-0.01069365704110417,65598.56951875001,27.35536193847656,-22.74908447265625,-513.771728515625,65598.58721875001,-1.395236069178934,-1.652610230967981,0.2425397035398696,-0.01313157379627228,-0.02391078509390354,-0.01329260692000389,0.002380967140197754,-0.007115155458450317,-0.0008852481842041016,1,-0.4061475396156311,-0.6121352314949036,-0.5002702474594116,0.4583276808261871,-0.9674841165542603,-0.2401687651872635,0.07933072745800018,0,0,0,-1,65598.38043175,1,2,1561243498.501834,1561243107.271691,28,1.054203,0,0,24.53997,0,0,1561243350.380748,65596.118414,0,-4.019043,74.58549,2650634390,177292352,1,1,0.14,-19.33987,-27.0903,4
1561243498.745198,38,0,0,1561243497.988832,4.602246712897534,-74.06496732502623,2654.724,0,56.6015625,4,10,-9999,1561243498.736514,-10.10265922546387,-24.29126930236816,23.41119384765625,125.1277923583984,132.6714782714844,20,65598.61254875001,-0.9600067138671875,-0.24444580078125,0.0779876708984375,65598.60748275,0.01134266939875648,-0.03258004751159337,-0.0255801949024291,65598.58959975,27.68238830566406,-22.63072204589844,-513.9522094726562,65598.60748275,-1.39525247061333,-1.65328478036351,0.2429836058972353,0.01015457324683666,-0.03807347640395164,-0.02817914262413979,0.006371259689331055,-0.007218331098556519,-0.001910567283630371,1,-0.4061942100524902,-0.6123671531677246,-0.5002495050430298,0.4579989910125732,-0.9673239588737488,-0.2405996471643448,0.07997453212738037,0,0,0,-1,65598.38043175,1,2,1561243498.501834,1561243107.271691,28,1.054203,0,0,24.53997,0,0,1561243350.380748,65596.118414,0,-4.019043,74.58549,2650634390,177292352,1,1,0.14,-19.33987,-28.80236,4
1561243498.747104,39,0,0,1561243497.988832,4.602246712897534,-74.06496732502623,2654.724,0,56.6015625,4,10,-9999,1561243498.736514,-10.10265922546387,-24.29126930236816,23.41119384765625,125.1277923583984,132.6714782714844,20,65598.63281175001,-0.9576873779296875,-0.242340087890625,0.080078125,65598.62774675,0.0195507981944897,0.02190929365586388,-0.008909339110751084,65598.60967975001,27.64195251464844,-22.52052307128906,-513.906982421875,65598.62774675,-1.394854784162505,-1.653678597197688,0.2434013286096253,0.01836270280182362,0.01641586422920227,-0.01150828879326582,0.008268773555755615,-0.002326816320419312,-0.002115249633789062,1,-0.4060513377189636,-0.6126139760017395,-0.5001843571662903,0.4578666985034943,-0.9671921133995056,-0.241005077958107,0.08034714311361313,0,0,0,-1,65598.38043175,1,2,1561243498.501834,1561243107.271691,28,1.054203,0,0,24.53997,0,0,1561243350.380748,65596.118414,0,-4.019043,74.58549,2650634390,177292352,1,1,0.14,-19.33987,-28.80236,4
1561243498.764702,40,0,0,1561243497.988832,4.602246712897534,-74.06496732502623,2654.724,0,56.6015625,4,10,-9999,1561243498.76288,-9.813543319702148,-24.31721687316895,23.491943359375,125.1287689208984,132.6724548339844,20,65598.65307575,-0.955169677734375,-0.2412109375,0.082183837890625,65598.64797975001,-0.01549480385429902,0.04685965096048923,0.03222424918995878,65598.62976075,27.62947082519531,-22.35501098632812,-513.9091796875,65598.64797975001,-1.394841681691372,-1.65289078367148,0.2432098340694879,-0.01668290048837662,0.04136622324585915,0.0296253003180027,0.01249790191650391,-0.0009562969207763672,0.002060770988464355,1,-0.4059050381183624,-0.6124014854431152,-0.5002927780151367,0.458162397146225,-0.9673013687133789,-0.2408192306756973,0.07958895713090897,0,0,0,-1,65598.38043175,1,2,1561243498.501834,1561243107.271691,28,1.054203,0,0,24.53997,0,0,1561243350.380748,65596.118414,0,-4.019043,74.58549,2650634390,177292352,1,1,0.14,-19.33987,-29.43979,4
1561243498.784923,41,0,0,1561243497.988832,4.602246712897534,-74.06496732502623,2654.724,0,56.6015625,4,10,-9999,1561243498.76288,-9.813543319702148,-24.31721687316895,23.491943359375,125.1287689208984,132.6724548339844,20,65598.67330875,-0.96856689453125,-0.2453155517578125,0.0805511474609375,65598.66824275001,-0.01947596336785848,-0.03123648274164839,0.03157363893565242,65598.64984075,27.36843872070312,-22.49922180175781,-513.8429565429688,65598.66824275001,-1.395369961861629,-1.652717060207956,0.2425444783722601,-0.02066405862569809,-0.03672990947961807,0.02897468954324722,0.007223606109619141,-0.0003508925437927246,0.001452803611755371,1,-0.4062138795852661,-0.6121333837509155,-0.5002804398536682,0.4582602083683014,-0.9674744606018066,-0.2401733994483948,0.07943399250507355,0,0,0,-1,65598.38043175,1,2,1561243498.501834,1561243107.271691,28,1.054203,0,0,24.53997,0,0,1561243350.380748,65596.118414,0,-4.019043,74.58549,2650634390,177292352,1,1,0.14,-19.33987,-29.57592,4
1561243498.830111,42,0,0,1561243497.988832,4.602246712897534,-74.06496732502623,2654.724,0,56.6015625,4,10,-9999,1561243498.813542,-10.07737159729004,-24.29252243041992,23.5107421875,125.2163543701172,132.7600402832031,20,65598.69357275001,-0.9796295166015625,-0.2529144287109375,0.0642852783203125,65598.68850675,-0.03471643533805494,-0.04165956261600052,-0.02860075221079697,65598.66995175001,27.86395263671875,-22.27853393554688,-513.77685546875,65598.68850675,-1.395964713807067,-1.653679188230855,0.2426627947271988,-0.03590453043580055,-0.04715299233794212,-0.03119970113039017,-0.008460879325866699,-0.01132917404174805,-0.009241223335266113,1,-0.4066027402877808,-0.6122543811798096,-0.5002511143684387,0.457785427570343,-0.9673691987991333,-0.240288257598877,0.08036243170499802,0,0,0,-1,65598.38043175,1,2,1561243498.501834,1561243107.271691,28,1.054203,0,0,24.53997,0,0,1561243350.380748,65596.118414,0,-4.019043,74.58549,2650634390,177292352,1,1,0.14,-19.33987,-30.48611,4
1561243498.833571,43,0,0,1561243497.988832,4.602246712897534,-74.06496732502623,2654.724,0,56.6015625,4,10,-9999,1561243498.813542,-10.07737159729004,-24.29252243041992,23.5107421875,125.2163543701172,132.7600402832031,20,65598.71383675,-0.9774627685546875,-0.244659423828125,0.058502197265625,65598.70877075,-0.02152499951056544,0.07420126060789674,-0.02141314674478212,65598.69003275,27.37818908691406,-22.5672607421875,-513.825927734375,65598.70877075,-1.396643491590839,-1.653460332222615,0.2433717366133809,-0.02271309494972229,0.06870783865451813,-0.02401209622621536,-0.01294660568237305,-0.00845906138420105,-0.02103936672210693,1,-0.4065528512001038,-0.6121953129768372,-0.5006305575370789,0.4574940204620361,-0.967216968536377,-0.2409763634204865,0.08013664186000824,0,0,0,-1,65598.70434575,2,0,1561243498.825748,1561243107.271691,28,1.054203,0,0,24.53997,0,0,1561243350.380748,65596.118414,0,-4.019043,74.58549,2650634390,177292352,1,1,0.14,-19.33987,-30.48611,4
1561243498.845773,44,0,0,1561243497.988832,4.602246712897534,-74.06496732502623,2654.724,0,56.6015625,4,10,-9999,1561243498.837764,-10.09535980224609,-24.32158851623535,23.560302734375,125.2204284667969,132.7641143798828,20,65598.73409975,-0.956268310546875,-0.233154296875,0.0696563720703125,65598.72903375,0.04303748216400751,0.08309861549374246,0.02570669505420786,65598.71011375,27.72315979003906,-22.69798278808594,-513.9249877929688,65598.72903375,-1.396420939690216,-1.651638877311769,0.2433829651615417,0.04184938594698906,0.07760518789291382,0.02310774475336075,0.0005159974098205566,0.002416104078292847,-0.01462328433990479,1,-0.4060254395008087,-0.6118256449699402,-0.5009524822235107,0.4581041634082794,-0.9673586487770081,-0.2409872561693192,0.07837455719709396,0,0,0,-1,65598.70434575,2,0,1561243498.825748,1561243107.271691,28,1.054203,0,0,24.53997,0,0,1561243350.380748,65596.118414,0,-4.019043,74.58549,2650634390,177292352,1,1,0.14,-19.33987,-30.48611,4
1561243498.865948,45,0,0,1561243497.988832,4.602246712897534,-74.06496732502623,2654.724,0,56.6015625,4,10,-9999,1561243498.864172,-9.962203979492188,-24.33376502990723,23.67547607421875,125.1540679931641,132.69775390625,20,65598.75436375001,-0.9486083984375,-0.2432098388671875,0.078399658203125,65598.74929775001,0.03649729115899092,-0.06474810400255147,0.02045094664293649,65598.73019375,27.69371032714844,-22.47654724121094,-513.7853393554688,65598.74929775001,-1.395451121868462,-1.651820700229072,0.2427974911516346,0.03530919551849365,-0.0702415257692337,0.01785199716687202,0.02072274684906006,0.008363336324691772,-0.001092910766601562,1,-0.4059419631958008,-0.6119575500488281,-0.5005451440811157,0.4584470093250275,-0.9674847722053528,-0.2404190003871918,0.07856184244155884,0,0,0,-1,65598.70434575,2,0,1561243498.825748,1561243107.271691,28,1.054203,0,0,24.53997,0,0,1561243350.380748,65596.118414,0,-4.019043,74.58549,2650634390,177292352,1,1,0.14,-19.33987,-31.35324,4
1561243498.909608,46,0,0,1561243497.988832,4.602246712897534,-74.06496732502623,2654.724,0,56.6015625,4,10,-9999,1561243498.895732,-10.00865936279297,-24.34823608398438,23.77838134765625,125.1709594726562,132.7146453857422,20,65598.77462775,-0.972900390625,-0.2479248046875,0.0776824951171875,65598.76953075001,-0.02524170712788003,-0.04469689783923589,-0.01296426818650573,65598.75027475001,27.83987426757812,-22.68716430664062,-513.6231079101562,65598.76953075001,-1.395353484890903,-1.65342536198779,0.2428387449741362,-0.02642980217933655,-0.05019032582640648,-0.01556321792304516,0.006226897239685059,-0.009312063455581665,-0.0003709793090820312,1,-0.4063017666339874,-0.6123524904251099,-0.5002073645591736,0.4579692184925079,-0.9673474431037903,-0.2404590398073196,0.08011339604854584,0,0,0,-1,65598.70434575,2,0,1561243498.825748,1561243107.271691,28,1.054203,0,0,24.53997,0,0,1561243350.380748,65596.118414,0,-4.019043,74.58549,2650634390,177292352,1,1,0.14,-19.33987,-32.19526,4
1561243498.912786,47,0,0,1561243497.988832,4.602246712897534,-74.06496732502623,2654.724,0,56.6015625,4,10,-9999,1561243498.895732,-10.00865936279297,-24.34823608398438,23.77838134765625,125.1709594726562,132.7146453857422,20,65598.79486075,-0.9638824462890625,-0.2446746826171875,0.064422607421875,65598.78979475,-0.05586459755437417,0.04633181243243553,-0.01514539711928063,65598.77035475,27.37333679199219,-22.55714416503906,-513.5945434570312,65598.78979475,-1.396327792779097,-1.653041718910685,0.2432596592847331,-0.05705269426107407,0.04083838313817978,-0.01774434745311737,-0.006492972373962402,-0.005622893571853638,-0.005835652351379395,1,-0.4063835442066193,-0.6121432781219482,-0.5006150007247925,0.4577309191226959,-0.9672772288322449,-0.2408675849437714,0.0797339528799057,0,0,0,-1,65598.70434575,2,0,1561243498.825748,1561243107.271691,28,1.054203,0,0,24.53997,0,0,1561243350.380748,65596.118414,0,-4.019043,74.58549,2650634390,177292352,1,1,0.14,-19.33987,-32.19526,4
1561243498.926735,48,0,0,1561243497.988832,4.602246712897534,-74.06496732502623,2654.724,0,56.6015625,4,10,-9999,1561243498.895732,-10.00865936279297,-24.34823608398438,23.77838134765625,125.1709594726562,132.7146453857422,20,65598.81512475001,-0.9495849609375,-0.23486328125,0.059722900390625,65598.81005875001,0.000751810375729369,0.04339301416953309,0.01243802755510607,65598.79046575,27.67103576660156,-22.71839904785156,-513.7760620117188,65598.81005875001,-1.39703135187301,-1.651877035035028,0.2434584072402454,-0.0004362852778285742,0.03789958357810974,0.009839077480137348,0.01239633560180664,0.002092599868774414,-0.01694273948669434,1,-0.4062502086162567,-0.61176997423172,-0.5010629892349243,0.4578583538532257,-0.9673218727111816,-0.2410604804754257,0.07860346883535385,0,0,0,-1,65598.70434575,2,0,1561243498.825748,1561243107.271691,28,1.054203,0,0,24.53997,0,0,1561243350.380748,65596.118414,0,-4.019043,74.58549,2650634390,177292352,1,1,0.14,-19.33987,-30.78249,4
1561243498.946958,49,0,0,1561243497.988832,4.602246712897534,-74.06496732502623,2654.724,0,56.6015625,4,10,-9999,1561243498.939088,-10.1454906463623,-24.49821853637695,23.54583740234375,125.2087249755859,132.7524108886719,20,65598.83538775,-0.9524078369140625,-0.235382080078125,0.0679779052734375,65598.83032175001,0.07986607056260429,0.01969807100277109,0.03311747341957136,65598.81054675,27.42353820800781,-22.47750854492188,-513.6304931640625,65598.83032175001,-1.39618760334818,-1.651616379727086,0.2429101013257689,0.07867796719074249,0.01420464180409908,0.03051852434873581,0.01839232444763184,0.005817592144012451,-0.01744890213012695,1,-0.406083881855011,-0.6117817163467407,-0.5007839202880859,0.4582951962947845,-0.9674738049507141,-0.2405283004045486,0.07836197316646576,0,0,0,-1,65598.70434575,2,0,1561243498.825748,1561243107.271691,28,1.054203,0,0,24.53997,0,0,1561243350.380748,65596.118414,0,-4.019043,74.58549,2650634390,177292352,1,1,0.14,-19.33987,-30.8943,4
1561243498.98638,50,0,0,1561243497.988832,4.602246712897534,-74.06496732502623,2654.724,0,56.6015625,4,10,-9999,1561243498.965501,-10.03974151611328,-24.33587265014648,23.52679443359375,125.0962677001953,132.6399536132812,20,65598.85565175001,-0.95947265625,-0.2515716552734375,0.0780181884765625,65598.85058575,0.06482506935805477,0.015057246487199,0.02630803682834775,65598.83062675,27.77830505371094,-22.55586242675781,-514.0716552734375,65598.85058575,-1.394554702832419,-1.651778880263756,0.2421670182440679,0.06363697350025177,0.009563817642629147,0.02370908856391907,0.01063829660415649,-0.002655178308486938,-0.004498004913330078,1,-0.4058377742767334,-0.6120151281356812,-0.5001883506774902,0.45885169506073,-0.9676390290260315,-0.2398069798946381,0.07853363454341888,0,0,0,-1,65598.70434575,2,0,1561243498.825748,1561243107.271691,28,1.054203,0,0,24.53997,0,0,1561243350.380748,65596.118414,0,-4.019043,74.58549,2650634390,177292352,1,1,0.14,-19.33987,-31.63736,4
1561243498.98999,51,0,0,1561243497.988832,4.602246712897534,-74.06496732502623,2654.724,0,56.6015625,4,10,-9999,1561243498.965501,-10.03974151611328,-24.33587265014648,23.52679443359375,125.0962677001953,132.6399536132812,20,65598.87591575,-0.9601593017578125,-0.2544097900390625,0.072174072265625,65598.87081875,-0.02061100262445025,0.05351196104739817,0.001907089656605742,65598.85070775001,27.75016784667969,-22.51287841796875,-513.736328125,65598.87081875,-1.394155442570194,-1.65144839828485,0.2419057726691563,-0.02179909870028496,0.04801853373646736,-0.0006918600993230939,0.009063482284545898,-0.01708421111106873,-0.002489566802978516,1,-0.4057077765464783,-0.6119727492332458,-0.5000975728034973,0.4591221213340759,-0.9677274227142334,-0.2395533472299576,0.07821889221668243,0,0,0,-1,65598.70434575,2,0,1561243498.825748,1561243107.271691,28,1.054203,0,0,24.53997,0,0,1561243350.380748,65596.118414,0,-4.019043,74.58549,2650634390,177292352,1,1,0.14,-19.33987,-31.63736,4
1561243499.007697,52,0,0,1561243497.988832,4.602246712897534,-74.06496732502623,2654.724,0,56.6015625,4,10,-9999,1561243498.991597,-9.845024108886719,-24.48889923095703,23.5999755859375,125.0977020263672,132.6413879394531,20,65598.89614875001,-0.9447784423828125,-0.2428131103515625,0.0612640380859375,65598.89108275001,-0.04312004015779997,0.2032127732946053,0.01399890627000152,65598.87078875001,27.725830078125,-22.50308227539062,-513.7960815429688,65598.89108275001,-1.395011028926727,-1.64873173214044,0.2419609222702334,-0.0443081371486187,0.1977193355560303,0.01139995642006397,0.01176142692565918,-0.009340256452560425,-0.007046103477478027,1,-0.405273824930191,-0.6111852526664734,-0.5008588433265686,0.4597239792346954,-0.9679229855537415,-0.2396068871021271,0.07558856904506683,0,0,0,-1,65598.70434575,2,0,1561243498.825748,1561243107.271691,28,1.054203,0,0,24.53997,0,0,1561243350.380748,65596.118414,0,-4.019043,74.58549,2650634390,177292352,1,1,0.14,-19.33987,-32.11671,4
1561243499.027846,53,0,0,1561243497.988832,4.602246712897534,-74.06496732502623,2654.724,0,56.6015625,4,10,-9999,1561243499.016173,-10.08611106872559,-24.23953819274902,23.57489013671875,125.1577911376953,132.7014770507812,20,65598.91641175,-0.910308837890625,-0.233612060546875,0.056976318359375,65598.91134575001,0.01010616370463269,0.2068221555199897,0.06618674362341229,65598.89086875001,27.60627746582031,-22.35401916503906,-513.8860473632812,65598.91134575001,-1.395526283535701,-1.644094533028037,0.2412354241958069,0.008918068371713161,0.2013287246227264,0.06358779221773148,0.04193794727325439,0.001994490623474121,-0.01331174373626709,1,-0.4044770002365112,-0.6098806262016296,-0.5017329454421997,0.4612029194831848,-0.9684363007545471,-0.2389024645090103,0.07111204415559769,0,0,0,-1,65598.70434575,2,0,1561243498.825748,1561243107.271691,28,1.054203,0,0,24.53997,0,0,1561243350.380748,65596.118414,0,-4.019043,74.58549,2650634390,177292352,1,1,0.14,-19.33987,-32.24984,4
1561243499.062561,54,0,0,1561243498.988819,4.602246712897534,-74.06496732502623,2655.879,0,56.6015625,4,10,-9999,1561243499.041219,-10.31040573120117,-24.47297668457031,23.44842529296875,125.1170196533203,132.6607055664062,20,65598.93667575001,-0.910614013671875,-0.2351531982421875,0.0637969970703125,65598.93160975,0.09208172416668875,0.03806882251824668,0.09820140203558184,65598.91094975,27.39814758300781,-22.71490478515625,-513.9657592773438,65598.93160975,-1.394590670757772,-1.642097189692672,0.2395354330726045,0.09089362621307373,0.03257539495825768,0.09560245275497437,0.06684970855712891,0.008003324270248413,-0.01102471351623535,1,-0.4041793942451477,-0.6092965006828308,-0.5014916658401489,0.4624962210655212,-0.9689798355102539,-0.2372513562440872,0.06920641660690308,0,0,0,-1,65598.70434575,2,0,1561243498.825748,1561243107.271691,28,1.054203,0,0,24.53997,0,0,1561243350.380748,65596.118414,0,-4.019043,74.58549,2650634390,177292352,1,1,0.14,-19.33987,-30.36706,4
1561243499.06851,55,0,0,1561243498.988819,4.602246712897534,-74.06496732502623,2655.879,0,56.6015625,4,10,-9999,1561243499.066742,-10.29441261291504,-24.66290855407715,23.42620849609375,124.9978637695312,132.5415496826172,20,65598.95693975,-0.95404052734375,-0.2532196044921875,0.0581512451171875,65598.95187375,0.06820435446525631,0.1404961285715662,0.1088476548092826,65598.93102975001,27.42251586914062,-22.7789306640625,-513.6578979492188,65598.95187375,-1.39285534851635,-1.641158240985863,0.2372840716834282,0.06701625883579254,0.1350027024745941,0.1062487065792084,0.03738498687744141,-0.01157936453819275,-2.026557922363281e-05,1,-0.4040626585483551,-0.6090158820152283,-0.5007109642028809,0.4638119637966156,-0.9695749282836914,-0.2350636720657349,0.0683339536190033,0,0,0,-1,65598.70434575,2,0,1561243498.825748,1561243107.271691,28,1.054203,0,0,24.53997,0,0,1561243350.380748,65596.118414,0,-4.019043,74.58549,2650634390,177292352,1,1,0.14,-19.33987,-30.36706,4
1561243499.08931,56,0,0,1561243498.988819,4.602246712897534,-74.06496732502623,2655.879,0,56.6015625,4,10,-9999,1561243499.066742,-10.29441261291504,-24.66290855407715,23.42620849609375,124.9978637695312,132.5415496826172,20,65598.97720275,-1.016220092773438,-0.2617950439453125,0.048858642578125,65598.97213675,0.06018823958411781,0.3473121588210487,0.05201846030808173,65598.95111075,27.16433715820312,-22.56376647949219,-513.7006225585938,65598.97213675,-1.391774415456096,-1.636417228414244,0.2356269987315223,0.05900014191865921,0.3418187201023102,0.04941951110959053,-0.007416307926177979,-0.02240666747093201,-0.01662755012512207,1,-0.4030233025550842,-0.6078265905380249,-0.50099778175354,0.4659616947174072,-0.9702754020690918,-0.233452707529068,0.06376188993453979,0,0,0,-1,65598.70434575,2,0,1561243498.825748,1561243107.271691,28,1.054203,0,0,24.53997,0,0,1561243350.380748,65596.118414,0,-4.019043,74.58549,2650634390,177292352,1,1,0.14,-19.33987,-30.90722,4
1561243499.109352,57,0,0,1561243498.988819,4.602246712897534,-74.06496732502623,2655.879,0,56.6015625,4,10,-9999,1561243499.090954,-10.4427490234375,-24.33781051635742,23.52587890625,124.9188232421875,132.4625091552734,20,65598.9974815,-1.076629638671875,-0.27642822265625,0.0447845458984375,65598.99238550001,-0.004204066096799085,0.5494918919288123,-0.1321391290708976,65598.97122175001,26.9913330078125,-22.47184753417969,-513.8104248046875,65598.99238550001,-1.390939532059706,-1.628091386704787,0.2363741767450147,-0.005392161663621664,0.5439984798431396,-0.1347380876541138,-0.07333195209503174,-0.02814990282058716,-0.009086370468139648,1,-0.4004652202129364,-0.6061875224113464,-0.5026633143424988,0.4685017168521881,-0.9705981612205505,-0.2341791689395905,0.05567140877246857,0,0,0,-1,65598.70434575,2,0,1561243498.825748,1561243107.271691,28,1.054203,0,0,24.53997,0,0,1561243350.380748,65596.118414,0,-4.019043,74.58549,2650634390,177292352,1,1,0.14,-19.33987,-31.07994,4
1561243499.143864,58,0,0,1561243498.988819,4.602246712897534,-74.06496732502623,2655.879,0,56.6015625,4,10,-9999,1561243499.141666,-11.18054962158203,-24.36333656311035,23.11700439453125,125.3451690673828,132.8888549804688,20,65599.01771450001,-1.202621459960938,-0.283966064453125,0.0377960205078125,65599.01264850001,-0.2074304215129638,1.099157421960698,-0.3126540467108666,65598.9913165,26.95210266113281,-22.69451904296875,-514.1634521484375,65599.01264850001,-1.392613621294752,-1.611831005446029,0.2409862437624413,-0.2086185216903687,1.093664050102234,-0.3152529895305634,-0.1609553098678589,-0.04266580939292908,0.00395500659942627,1,-0.3955259323120117,-0.6028914451599121,-0.5074440240859985,0.4717855453491211,-0.9702854752540588,-0.2386604845523834,0.03983771428465843,0,0,0,-1,65598.70434575,2,0,1561243498.825748,1561243107.271691,28,1.054203,0,0,24.53997,0,0,1561243350.380748,65596.118414,0,-4.019043,74.58549,2650634390,177292352,1,1,0.14,-19.33987,-31.76554,4
1561243499.149587,59,0,0,1561243498.988819,4.602246712897534,-74.06496732502623,2655.879,0,56.6015625,4,10,-9999,1561243499.141666,-11.18054962158203,-24.36333656311035,23.11700439453125,125.3451690673828,132.8888549804688,20,65599.0379785,-1.333572387695312,-0.33203125,0.0276947021484375,65599.0329125,-0.5448324252856096,1.847169064711178,-0.6602112163522026,65599.0113975,26.48371887207031,-22.57977294921875,-514.1867065429688,65599.0329125,-1.399851767288776,-1.580312743548079,0.2508162908970253,-0.5460205078125,1.841675639152527,-0.6628101468086243,-0.2975842356681824,-0.06377112865447998,0.02659392356872559,1,-0.3867308497428894,-0.5958594679832458,-0.5177296996116638,0.4768089950084686,-0.9686663746833801,-0.2481947839260101,0.009218511171638966,0,0,0,-1,65598.70434575,2,0,1561243498.825748,1561243107.271691,28,1.054203,0,0,24.53997,0,0,1561243350.380748,65596.118414,0,-4.019043,74.58549,2650634390,177292352,1,1,0.14,-19.33987,-31.76554,4
1561243499.169773,60,0,0,1561243498.988819,4.602246712897534,-74.06496732502623,2655.879,0,56.6015625,4,10,-9999,1561243499.141666,-11.18054962158203,-24.36333656311035,23.11700439453125,125.3451690673828,132.8888549804688,20,65599.0582425,-1.451080322265625,-0.3670196533203125,0.01641845703125,65599.05317650001,-0.9782507074194273,2.205335735503172,-1.123079000136225,65599.03147850001,26.22596740722656,-22.86946105957031,-514.9253540039062,65599.05317650001,-1.415990394508892,-1.534068661288207,0.2679868156208677,-0.9794387817382812,2.199842214584351,-1.125677943229675,-0.4495829343795776,-0.09466063976287842,0.06821513175964355,1,-0.374206006526947,-0.5850346088409424,-0.5344412922859192,0.4817435443401337,-0.9636555910110474,-0.2647906541824341,-0.03540874272584915,0,0,0,-1,65598.70434575,2,0,1561243498.825748,1561243107.271691,28,1.054203,0,0,24.53997,0,0,1561243350.380748,65596.118414,0,-4.019043,74.58549,2650634390,177292352,1,1,0.14,-19.33987,-31.80151,4
1561243499.190124,61,0,0,1561243498.988819,4.602246712897534,-74.06496732502623,2655.879,0,56.6015625,4,10,-9999,1561243499.168616,-11.6899585723877,-24.94028472900391,22.19903564453125,126.5230865478516,134.0667724609375,20,65599.0785055,-1.454757690429688,-0.337799072265625,-0.048248291015625,65599.0734395,-1.281207918285206,1.73454850958558,-1.828985533420335,65599.05155850001,25.74053955078125,-23.53691101074219,-515.8798828125,65599.0734395,-1.442250284606935,-1.48495807866564,0.2958406856876271,-1.282395958900452,1.729055047035217,-1.831584572792053,-0.5144938230514526,-0.05917912721633911,0.07195287942886353,1,-0.3599598705768585,-0.5739552974700928,-0.5559831261634827,0.4815464615821838,-0.9530355334281921,-0.291544109582901,-0.08200841397047043,0,0,0,-1,65598.70434575,2,0,1561243498.825748,1561243107.271691,28,1.054203,0,0,24.53997,0,0,1561243350.380748,65596.118414,0,-4.019043,74.58549,2650634390,177292352,1,1,0.14,-19.33987,-31.58547,4
1561243499.235562,62,0,0,1561243498.988819,4.602246712897534,-74.06496732502623,2655.879,0,56.6015625,4,10,-9999,1561243499.218653,-10.58463668823242,-27.4077033996582,19.423828125,130.7265014648438,138.2701873779297,20,65599.09876950001,-1.417999267578125,-0.319000244140625,-0.124542236328125,65599.09370350001,-1.141043353269355,0.5121288070994366,-2.727692146452948,65599.07163950001,25.39364624023438,-24.47151184082031,-516.9532470703125,65599.09370350001,-1.473982242731397,-1.451671743225797,0.3389155525445864,-1.142231345176697,0.5066354274749756,-2.730291128158569,-0.4970549345016479,0.005636543035507202,0.03124165534973145,1,-0.3462939858436584,-0.5692443251609802,-0.5783582925796509,0.4706836342811584,-0.9364319443702698,-0.3324645161628723,-0.1120827496051788,0,0,0,-1,65598.70434575,2,0,1561243498.825748,1561243107.271691,28,1.054203,0,0,24.53997,0,0,1561243350.380748,65596.118414,0,-4.019043,74.58549,2650634390,177292352,1,1,0.14,-19.33987,-32.67286,4
1561243499.237971,63,0,0,1561243498.988819,4.602246712897534,-74.06496732502623,2655.879,0,56.6015625,4,10,-9999,1561243499.218653,-10.58463668823242,-27.4077033996582,19.423828125,130.7265014648438,138.2701873779297,20,65599.1190335,-1.472671508789062,-0.2996673583984375,-0.1897125244140625,65599.1139365,-0.5161357992755699,-0.79163901509594,-3.664873714070046,65599.09171950001,26.39413452148438,-25.22335815429688,-517.7747802734375,65599.1139365,-1.500861368214292,-1.445621839794084,0.4010507676492696,-0.517323911190033,-0.7971324324607849,-3.66747260093689,-0.5093119144439697,0.0869191586971283,-0.05340886116027832,1,-0.332815557718277,-0.5759888291358948,-0.5975509881973267,0.4476645290851593,-0.9134480953216553,-0.3903859555721283,-0.114941343665123,0,0,0,-1,65598.70434575,2,0,1561243498.825748,1561243107.271691,28,1.054203,0,0,24.53997,0,0,1561243350.380748,65596.118414,0,-4.019043,74.58549,2650634390,177292352,1,1,0.14,-19.33987,-32.67286,4
1561243499.250823,64,0,0,1561243498.988819,4.602246712897534,-74.06496732502623,2655.879,0,56.6015625,4,10,-9999,1561243499.242932,-8.416790008544922,-28.37469100952148,19.2486572265625,132.1191711425781,139.6628570556641,20,65599.1392665,-1.609085083007812,-0.3583526611328125,-0.20166015625,65599.1342005,-0.1532742417978754,-1.281381290072171,-4.799671421950947,65599.1118005,28.33251953125,-26.13014221191406,-517.9607543945312,65599.1342005,-1.518478261498364,-1.461289860395921,0.4851712432269036,-0.1544623374938965,-1.286874651908875,-4.80226993560791,-0.6687536239624023,0.1512048244476318,-0.1087384819984436,1,-0.3161678910255432,-0.5930431485176086,-0.6139285564422607,0.4140401482582092,-0.8792963624000549,-0.4663598537445068,-0.09667538106441498,0,0,0,-1,65598.70434575,2,0,1561243498.825748,1561243107.271691,28,1.054203,0,0,24.53997,0,0,1561243350.380748,65596.118414,0,-4.019043,74.58549,2650634390,177292352,1,1,0.14,-19.33987,-33.52705,4
1561243499.271106,65,0,0,1561243498.988819,4.602246712897534,-74.06496732502623,2655.879,0,56.6015625,4,10,-9999,1561243499.269283,-5.097152709960938,-29.2164363861084,19.18609619140625,133.4522705078125,140.9959564208984,20,65599.1595295,-1.691513061523438,-0.339111328125,-0.0916900634765625,65599.1544635,-0.3510216759034201,-0.2304718249482203,-5.699945571601181,65599.1318805,31.61042785644531,-27.12089538574219,-518.25634765625,65599.1544635,-1.536535884161053,-1.46972371375599,0.5913945799293514,-0.3522097766399384,-0.2359652519226074,-5.702544212341309,-0.8503729104995728,0.193719208240509,-0.07030391693115234,1,-0.2902186810970306,-0.6114663481712341,-0.6336836814880371,0.374602347612381,-0.8259271383285522,-0.5575193166732788,-0.08376404643058777,0,0,0,-1,65598.70434575,2,0,1561243498.825748,1561243107.271691,28,1.054203,0,0,24.53997,0,0,1561243350.380748,65596.118414,0,-4.019043,74.58549,2650634390,177292352,1,1,0.14,-19.33987,-27.20351,4
1561243499.315243,66,0,0,1561243498.988819,4.602246712897534,-74.06496732502623,2655.879,0,56.6015625,4,10,-9999,1561243499.293784,1.541332244873047,-30.0137825012207,18.546630859375,136.427734375,143.9714202880859,20,65599.17979350001,-1.588485717773438,-0.284912109375,-0.0287628173828125,65599.17472750001,-0.978307166434537,1.582082537178543,-6.11413476540019,65599.1519615,34.95619201660156,-27.80433654785156,-518.2949829101562,65599.17472750001,-1.569872570856885,-1.435784453402617,0.7093916283950648,-0.9794952869415283,1.576589107513428,-6.116733551025391,-0.9158862829208374,0.3374074697494507,0.05914640426635742,1,-0.2509225606918335,-0.6212669610977173,-0.6608232855796814,0.3381980955600739,-0.7518535256385803,-0.6513723134994507,-0.1021304652094841,0,0,0,-1,65598.70434575,2,0,1561243498.825748,1561243107.271691,28,1.054203,0,0,24.53997,0,0,1561243350.380748,65596.118414,0,-4.019043,74.58549,2650634390,177292352,1,1,0.14,-19.33987,-27.78316,4
1561243499.31793,67,0,0,1561243498.988819,4.602246712897534,-74.06496732502623,2655.879,0,56.6015625,4,10,-9999,1561243499.293784,1.541332244873047,-30.0137825012207,18.546630859375,136.427734375,143.9714202880859,20,65599.2000575,-1.360031127929688,-0.2061614990234375,-0.0396575927734375,65599.1949915,-1.436440382432617,2.562497861931987,-6.116813372824592,65599.17204250001,38.2412109375,-28.09938049316406,-518.691650390625,65599.1949915,-1.635957423420072,-1.345030904531981,0.8275520115386429,-1.437628388404846,2.557004451751709,-6.119411945343018,-0.8059003353118896,0.4890694618225098,0.1160455346107483,1,-0.2012086659669876,-0.6194972395896912,-0.693935215473175,0.3069073259830475,-0.6595080494880676,-0.7362770438194275,-0.1514764875173569,0,0,0,-1,65598.70434575,2,0,1561243498.825748,1561243107.271691,28,1.054203,0,0,24.53997,0,0,1561243350.380748,65596.118414,0,-4.019043,74.58549,2650634390,177292352,1,1,0.14,-19.33987,-27.9924,4
1561243499.331813,68,0,0,1561243498.988819,4.602246712897534,-74.06496732502623,2655.879,0,56.6015625,4,10,-9999,1561243499.320064,4.369319915771484,-30.44374656677246,17.8712158203125,142.3482055664062,149.8918914794922,20,65599.2203205,-1.13421630859375,-0.2340850830078125,-0.098663330078125,65599.2152545,-1.087559355413403,2.250327711591188,-6.049865764077745,65599.1921225,41.21342468261719,-28.41888427734375,-519.1260986328125,65599.2152545,-1.731067347252295,-1.221245533045871,0.9380344587662823,-1.088747382164001,2.244834184646606,-6.052464485168457,-0.6953341960906982,0.5939797163009644,0.1436935067176819,1,-0.1493881642818451,-0.6135287284851074,-0.7244795560836792,0.2763965725898743,-0.555611789226532,-0.8063972592353821,-0.2025313526391983,0,0,0,-1,65598.70434575,2,0,1561243498.825748,1561243107.271691,28,1.054203,0,0,24.53997,0,0,1561243350.380748,65596.118414,0,-4.019043,74.58549,2650634390,177292352,1,1,0.14,-19.33987,-27.9924,4
1561243499.352133,69,0,0,1561243498.988819,4.602246712897534,-74.06496732502623,2655.879,0,56.6015625,4,10,-9999,1561243499.344213,7.316272735595703,-30.21003913879395,17.34307861328125,150.4229583740234,157.9666442871094,20,65599.2405845,-1.065216064453125,-0.2853240966796875,-0.0673065185546875,65599.23548850001,-0.4107044475126408,1.962205373261586,-6.356411584512405,65599.21220350001,43.96449279785156,-28.56915283203125,-519.865966796875,65599.23548850001,-1.849113594018992,-1.081412011016473,1.046092172641244,-0.4118925333023071,1.956712007522583,-6.359010219573975,-0.6663645505905151,0.6165708303451538,0.127397894859314,1,-0.09810836613178253,-0.6104335784912109,-0.7477905750274658,0.2419812381267548,-0.4421559572219849,-0.8654721975326538,-0.2354911863803864,0,0,0,-1,65598.70434575,2,0,1561243498.825748,1561243107.271691,28,1.054203,0,0,24.53997,0,0,1561243350.380748,65596.118414,0,-4.019043,74.58549,2650634390,177292352,1,1,0.14,-19.33987,-28.91994,4
1561243499.393155,70,0,0,1561243498.988819,4.602246712897534,-74.06496732502623,2655.879,0,56.6015625,4,10,-9999,1561243499.381371,10.3690185546875,-29.37008094787598,17.05023193359375,213.997314453125,221.5410003662109,20,65599.26081750001,-0.855316162109375,-0.3947906494140625,-0.1107330322265625,65599.25575150001,-0.1244503166877298,1.975114514013528,-6.532489675776302,65599.23228350001,47.22828674316406,-28.01075744628906,-520.249267578125,65599.25575150001,-2.019026961859943,-0.8896979509129264,1.153360931385171,-0.125638410449028,1.969621062278748,-6.535088539123535,-0.6373550891876221,0.5689626336097717,0.1520897150039673,1,-0.04341001808643341,-0.6086713075637817,-0.7654826641082764,0.2041347622871399,-0.314961165189743,-0.9141317009925842,-0.2552696168422699,0,0,0,-1,65598.70434575,2,0,1561243498.825748,1561243107.271691,28,1.054203,0,0,24.53997,0,0,1561243350.380748,65596.118414,0,-4.019043,74.58549,2650634390,177292352,1,1,0.14,-19.33987,-30.59446,4
1561243499.395797,71,0,0,1561243498.988819,4.602246712897534,-74.06496732502623,2655.879,0,56.6015625,4,10,-9999,1561243499.381371,10.3690185546875,-29.37008094787598,17.05023193359375,213.997314453125,221.5410003662109,20,65599.2810815,-0.590789794921875,-0.4811248779296875,-0.062774658203125,65599.2760155,0.08518333799505649,1.855572403214814,-6.401860559043479,65599.2523945,50.11605834960938,-26.66212463378906,-520.010009765625,65599.2760155,-2.284373999178175,-0.6032538480798039,1.243018984124883,0.08399523794651031,1.850078940391541,-6.404459476470947,-0.5407445430755615,0.507139265537262,0.1784908175468445,1,0.01139276940375566,-0.6060633063316345,-0.777966320514679,0.1653049290180206,-0.1826441287994385,-0.9467602372169495,-0.2651149332523346,0,0,0,-1,65598.70434575,2,0,1561243498.825748,1561243107.271691,28,1.054203,0,0,24.53997,0,0,1561243350.380748,65596.118414,0,-4.019043,74.58549,2650634390,177292352,1,1,0.14,-19.33987,-30.59446,4
1561243499.412979,72,0,0,1561243498.988819,4.602246712897534,-74.06496732502623,2655.879,0,56.6015625,4,10,-9999,1561243499.381371,10.3690185546875,-29.37008094787598,17.05023193359375,213.997314453125,221.5410003662109,20,65599.3013455,-0.3326873779296875,-0.5049285888671875,-0.0362701416015625,65599.29627950001,-0.1338257089892448,1.734616153877268,-6.571721767058695,65599.27247550001,53.16500854492188,-24.78067016601562,-519.5966796875,65599.29627950001,-2.69299545539684,-0.176226681244451,1.293837134171801,-0.1350138038396835,1.729122757911682,-6.574320316314697,-0.4435027837753296,0.4510881304740906,0.2388477325439453,1,0.06508114188909531,-0.6009706258773804,-0.786736011505127,0.125081330537796,-0.0479370541870594,-0.9618913531303406,-0.2691974937915802,0,0,0,-1,65598.70434575,2,0,1561243498.825748,1561243107.271691,28,1.054203,0,0,24.53997,0,0,1561243350.380748,65596.118414,0,-4.019043,74.58549,2650634390,177292352,1,1,0.14,-19.33987,-31.2473,4
1561243499.43376,73,0,0,1561243498.988819,4.602246712897534,-74.06496732502623,2655.879,0,56.6015625,4,10,-9999,1561243499.421187,19.03367233276367,-23.88716506958008,18.5755615234375,208.6333160400391,216.177001953125,15,65599.3216085,-0.1494293212890625,-0.45379638671875,0.0333251953125,65599.3165425,-0.1215754342909893,1.539164098315262,-6.681537214608113,65599.29255550001,55.89666748046875,-22.77713012695312,-518.8422241210938,65599.3165425,3.107496658514271,0.3217073508123897,1.280201922211025,-0.122763529419899,1.533670663833618,-6.684135913848877,-0.3096037805080414,0.4622699022293091,0.2602102756500244,1,0.1183856427669525,-0.5916702747344971,-0.7931975722312927,0.08215051889419556,0.09059436619281769,-0.9580737352371216,-0.2718222439289093,0,0,0,-1,65598.70434575,2,0,1561243498.825748,1561243107.271691,28,1.054203,0,0,24.53997,0,0,1561243350.380748,65596.118414,0,-4.019043,74.58549,2650634390,177292352,1,1,0.14,-19.33987,-31.84695,4
1561243499.46178,74,0,0,1561243498.988819,4.602246712897534,-74.06496732502623,2655.879,0,56.6015625,4,10,-9999,1561243499.445578,21.42086029052734,-21.30749130249023,18.8594970703125,206.5920867919922,214.1357727050781,15,65599.34187250001,0.10406494140625,-0.40997314453125,-0.008148193359375,65599.33677550001,0.06952554868204462,0.8960812688300135,-6.715654438700899,65599.3327175,60.92469787597656,-17.51731872558594,-518.0752563476562,65599.33677550001,2.735684276409988,0.699705294760204,1.212012153839601,0.06834296882152557,0.8905961513519287,-6.718254566192627,-0.2610256671905518,0.5191949605941772,0.2999565601348877,1,0.168087974190712,-0.5808883905410767,-0.7956433892250061,0.03558975830674171,0.2261288166046143,-0.936324417591095,-0.2686302065849304,0,0,0,-1,65598.70434575,2,0,1561243498.825748,1561243107.271691,28,1.054203,0,0,24.53997,0,0,1561243350.380748,65596.118414,0,-4.019043,74.58549,2650634390,177292352,1,1,0.14,-19.33987,-32.39526,4
1561243499.474411,75,0,0,1561243498.988819,4.602246712897534,-74.06496732502623,2655.879,0,56.6015625,4,10,-9999,1561243499.471852,23.69594573974609,-18.21064376831055,19.11639404296875,205.7669372558594,213.3106231689453,15,65599.36210550001,0.2707366943359375,-0.36566162109375,-0.0328826904296875,65599.3570395,0.2925133583349243,0.4698306184540351,-6.711041843692882,65599.3527975,62.83767700195312,-14.50169372558594,-518.12890625,65599.3570395,2.493485432463228,0.9354248483714164,1.114723836509654,0.2913307845592499,0.4643455147743225,-6.713642120361328,-0.156280517578125,0.4936906695365906,0.2304372787475586,1,0.2123623937368393,-0.5693954229354858,-0.7940163016319275,-0.01513757463544607,0.3544769287109375,-0.8977891802787781,-0.261382132768631,0,0,0,-1,65599.35267550001,1,2,1561243499.474078,1561243107.271691,28,1.054203,0,0,24.53997,0,0,1561243350.380748,65596.118414,0,-4.019043,74.58549,2650634390,177292352,1,1,0.14,-19.33987,-32.39526,4
1561243499.494161,76,0,0,1561243498.988819,4.602246712897534,-74.06496732502623,2655.879,0,56.6015625,4,10,-9999,1561243499.471852,23.69594573974609,-18.21064376831055,19.11639404296875,205.7669372558594,213.3106231689453,15,65599.3823695,0.3586883544921875,-0.2776336669921875,0.022247314453125,65599.3773035,0.03579714610840909,0.5326292885386485,-7.023099874951789,65599.37290850001,64.42892456054688,-11.06837463378906,-517.71630859375,65599.3773035,2.335839220919184,1.082881087829243,0.9998783664119156,0.03461456298828125,0.527144193649292,-7.025700092315674,-0.1743218302726746,0.5192312002182007,0.2400282621383667,1,0.2550201117992401,-0.5552456974983215,-0.78873211145401,-0.06759263575077057,0.4773461520671844,-0.8414052724838257,-0.2533339262008667,0,0,0,-1,65599.35267550001,1,2,1561243499.474078,1561243107.271691,28,1.054203,0,0,24.53997,0,0,1561243350.380748,65596.118414,0,-4.019043,74.58549,2650634390,177292352,1,1,0.14,-19.33987,-32.43908,4
1561243499.514176,77,0,0,1561243498.988819,4.602246712897534,-74.06496732502623,2655.879,0,56.6015625,4,10,-9999,1561243499.49619,27.24393081665039,-11.5181713104248,19.65240478515625,205.1895751953125,212.7332611083984,15,65599.4026325,0.4523773193359375,-0.1620635986328125,0.00506591796875,65599.3975665,-0.5438430609406452,0.2397936877118247,-7.376152477502504,65599.3929895,65.66238403320312,-7.346847534179688,-517.754150390625,65599.3975665,2.238509365937592,1.169744228006737,0.8647022033948768,-0.5450255870819092,0.2343086004257202,-7.378752708435059,-0.1698589324951172,0.5457836389541626,0.2702312469482422,1,0.2986046671867371,-0.5330859422683716,-0.7821264266967773,-0.1222002655267715,0.5973796844482422,-0.7609020471572876,-0.2533092498779297,0,0,0,-1,65599.35267550001,1,2,1561243499.474078,1561243107.271691,28,1.054203,0,0,24.53997,0,0,1561243350.380748,65596.118414,0,-4.019043,74.58549,2650634390,177292352,1,1,0.14,-19.33987,-31.87605,4
1561243499.547812,78,0,0,1561243498.988819,4.602246712897534,-74.06496732502623,2655.879,0,56.6015625,4,10,-9999,1561243499.524341,28.45675277709961,-8.026803970336914,19.6009521484375,204.4475402832031,211.9912261962891,15,65599.42289650001,0.55059814453125,-0.10528564453125,-0.134796142578125,65599.41783050001,-0.6555722560493935,-0.1997631807346257,-7.028127390457641,65599.41306950001,66.84524536132812,-3.503387451171875,-517.695556640625,65599.41783050001,2.178317725011584,1.212738681196534,0.7233389685276407,-0.6567547917366028,-0.2052482664585114,-7.030727386474609,-0.1953153014183044,0.5376694202423096,0.1928620934486389,1,0.337695837020874,-0.5045896768569946,-0.7745386362075806,-0.1773151159286499,0.7020596861839294,-0.6618912220001221,-0.2627015709877014,0,0,0,-1,65599.35267550001,1,2,1561243499.474078,1561243107.271691,28,1.054203,0,0,24.53997,0,0,1561243350.380748,65596.118414,0,-4.019043,74.58549,2650634390,177292352,1,1,0.14,-19.89715,-32.53063,4
1561243499.554702,79,0,0,1561243498.988819,4.602246712897534,-74.06496732502623,2655.879,0,56.6015625,4,10,-9999,1561243499.546876,29.28975296020508,-4.353543281555176,19.4744873046875,203.9833221435547,211.5270080566406,15,65599.4431605,0.6858673095703125,-0.0309295654296875,-0.2238922119140625,65599.4380945,-0.3999010682346255,-0.1338850974815536,-6.485771971301914,65599.4331505,67.38594055175781,-0.2711334228515625,-517.8810424804688,65599.4380945,2.132727544148798,1.236216690587761,0.5909518037260095,-0.4010836482048035,-0.1393701881170273,-6.488372325897217,-0.1705631017684937,0.4856947064399719,0.09536135196685791,1,0.3706346750259399,-0.4756974577903748,-0.7641074657440186,-0.2290885150432587,0.7843630909919739,-0.5571516752243042,-0.2726837396621704,0,0,0,-1,65599.35267550001,1,2,1561243499.474078,1561243107.271691,28,1.054203,0,0,24.53997,0,0,1561243350.380748,65596.118414,0,-4.019043,74.58549,2650634390,177292352,1,1,0.14,-20.45443,-32.86943,4
1561243499.574911,80,0,0,1561243498.988819,4.602246712897534,-74.06496732502623,2655.879,0,56.6015625,4,10,-9999,1561243499.546876,29.28975296020508,-4.353543281555176,19.4744873046875,203.9833221435547,211.5270080566406,15,65599.4634235,0.809967041015625,0.0480499267578125,-0.2250823974609375,65599.4583275,-0.2449671444454126,0.2653448541583719,-6.092263288631806,65599.45326150001,67.59707641601562,3.325546264648438,-518.1416015625,65599.4583275,2.092376078389391,1.25777148756419,0.4687544011876758,-0.2461497336626053,0.2598597705364227,-6.094863414764404,-0.09906971454620361,0.4539726376533508,0.03984260559082031,1,0.4011495411396027,-0.4491308033466339,-0.749220609664917,-0.275733470916748,0.8487797975540161,-0.4517754018306732,-0.2747211456298828,0,0,0,-1,65599.35267550001,1,2,1561243499.474078,1561243107.271691,28,1.054203,0,0,24.53997,0,0,1561243350.380748,65596.118414,0,-4.019043,74.58549,2650634390,177292352,1,1,0.14,-21.01171,-31.83797,4
1561243499.595218,81,0,0,1561243498.988819,4.602246712897534,-74.06496732502623,2655.879,0,56.6015625,4,10,-9999,1561243499.574047,29.75159072875977,-0.9864602088928223,19.2857666015625,285.5978393554688,293.1415405273438,15,65599.48365750001,0.956207275390625,0.27349853515625,-0.17022705078125,65599.47859150001,-0.5655720585907107,0.3899658794719758,-6.120417162411687,65599.4733425,66.619384765625,6.5003662109375,-518.0899047851562,65599.47859150001,2.060177691744465,1.277871528137654,0.3491853699807803,-0.5667546391487122,0.3844807744026184,-6.123017311096191,-0.03178215026855469,0.4820555448532104,0.07226169109344482,1,0.4317218661308289,-0.4218439161777496,-0.7310758829116821,-0.3181068599224091,0.8996257781982422,-0.3421324491500854,-0.2713278830051422,0,0,0,-1,65599.35267550001,1,2,1561243499.474078,1561243107.271691,28,1.054203,0,0,24.53997,0,0,1561243350.380748,65597.058919,0,-4.019043,74.58549,2650634390,177292352,1,1,0.14,-21.56899,-27.02144,4
1561243499.634652,82,0,0,1561243498.988819,4.602246712897534,-74.06496732502623,2655.879,0,56.6015625,4,10,-9999,1561243499.623967,27.73237991333008,8.280767440795898,19.627685546875,288.9058837890625,296.4495849609375,15,65599.50392050001,1.146041870117188,0.5662689208984375,-0.1565399169921875,65599.49885450001,-0.9709688260508237,0.186028992676978,-6.235579704797766,65599.4934225,65.801513671875,9.4139404296875,-517.9280395507812,65599.49885450001,2.039467773655547,1.290109526111786,0.2240098287007912,-0.9721513986587524,0.1805438995361328,-6.238179683685303,0.1281293630599976,0.6442906856536865,0.09921109676361084,1,0.4622665047645569,-0.3889248371124268,-0.7117003798484802,-0.3585105836391449,0.9368578195571899,-0.2221410423517227,-0.2700943052768707,0,0,0,-1,65599.35267550001,1,2,1561243499.474078,1561243107.271691,28,1.054203,0,0,24.53997,0,0,1561243350.380748,65597.058919,0,-4.019043,74.58549,2650634390,177292352,1,1,0.14,-22.12627,-27.26444,4
1561243499.637228,83,0,0,1561243498.988819,4.602246712897534,-74.06496732502623,2655.879,0,56.6015625,4,10,-9999,1561243499.623967,27.73237991333008,8.280767440795898,19.627685546875,288.9058837890625,296.4495849609375,15,65599.5241845,1.263931274414062,0.742828369140625,-0.1811065673828125,65599.5191185,-0.8044014156718177,-0.3025446872129258,-5.712155099934758,65599.5135035,64.38313293457031,11.80671691894531,-517.5079956054688,65599.5191185,2.023544768026537,1.291761650485318,0.1009250418621225,-0.8055839538574219,-0.3080297708511353,-5.714755058288574,0.2596802711486816,0.77203369140625,0.122796356678009,1,0.4882636368274689,-0.3529667258262634,-0.6922463178634644,-0.3972505927085876,0.9564298987388611,-0.1007537916302681,-0.2740262150764465,0,0,0,-1,65599.35267550001,1,2,1561243499.474078,1561243107.271691,28,1.054203,0,0,24.53997,0,0,1561243350.380748,65597.058919,0,-4.019043,74.58549,2650634390,177292352,1,1,0.14,-22.12627,-27.26444,4
1561243499.655982,84,0,0,1561243498.988819,4.602246712897534,-74.06496732502623,2655.879,0,56.6015625,4,10,-9999,1561243499.648066,26.67856979370117,10.85589122772217,19.6864013671875,290.1058654785156,297.6495666503906,15,65599.5444485,1.410110473632812,0.8607940673828125,-0.2971038818359375,65599.53938250001,-0.3510259369611642,-0.7572927591494061,-4.328076725590843,65599.5335835,63.5223388671875,14.25616455078125,-517.8223266601562,65599.53938250001,2.006355656821078,1.28146337973021,-0.001296493790281706,-0.3522085249423981,-0.7627778649330139,-4.330677032470703,0.3681350350379944,0.7937321662902832,0.0474281907081604,1,0.5043194890022278,-0.3209446966648102,-0.6757369637489319,-0.4313187301158905,0.9584335684776306,0.001296493457630277,-0.2853127121925354,0,0,0,-1,65599.35267550001,1,2,1561243499.474078,1561243107.271691,28,1.054203,0,0,24.53997,0,0,1561243350.380748,65597.058919,0,-4.019043,74.58549,2650634390,177292352,1,1,0.14,-22.68355,-27.87336,4
1561243499.676324,85,0,0,1561243498.988819,4.602246712897534,-74.06496732502623,2655.879,0,56.6015625,4,10,-9999,1561243499.674705,25.76524353027344,12.99375915527344,19.48712158203125,291.3597412109375,298.9034423828125,15,65599.5647115,1.565704345703125,0.9392547607421875,-0.411041259765625,65599.5596455,0.05506884502065849,-0.9251928153378877,-2.403922597984309,65599.55366450001,62.84689331054688,15.79893493652344,-518.2091064453125,65599.5596455,1.988542895113476,1.262686245564123,-0.06763706571431682,0.05388626083731651,-0.9306779503822327,-2.406522512435913,0.5339048504829407,0.8326983451843262,-0.04010176658630371,1,0.5094215869903564,-0.2986757755279541,-0.6654898524284363,-0.4565147161483765,0.9507295489311218,0.06758550554513931,-0.3025648593902588,0,0,0,-1,65599.35267550001,1,2,1561243499.474078,1561243107.271691,28,1.054203,0,0,24.53997,0,0,1561243350.380748,65597.058919,0,-4.019043,74.58549,2650634390,177292352,1,1,0.14,-23.24082,-28.00303,4
1561243499.71321,86,0,0,1561243498.988819,4.602246712897534,-74.06496732502623,2655.879,0,56.6015625,4,10,-9999,1561243499.698808,24.97181701660156,14.94825267791748,18.8172607421875,291.8472595214844,299.3909606933594,15,65599.58497550001,1.558486938476562,0.9810028076171875,-0.4452972412109375,65599.57987850001,0.1276205436493602,-0.4042460155530897,-0.2240610635721816,65599.5737755,62.47891235351562,16.60740661621094,-518.4559936523438,65599.57987850001,1.978025478164516,1.247805139072282,-0.09239526671775536,0.1264379620552063,-0.4097310900688171,-0.2266610711812973,0.6414174437522888,0.8778594732284546,-0.1312607526779175,1,0.508171021938324,-0.2893732786178589,-0.6625336408615112,-0.4680539667606354,0.9442453980445862,0.09226386249065399,-0.31605064868927,0,0,0,-1,65599.35267550001,1,2,1561243499.474078,1561243107.271691,28,1.054203,0,0,24.53997,0,0,1561243350.380748,65597.058919,0,-4.019043,74.58549,2650634390,177292352,1,1,0.14,-24.35538,-29.23295,4
1561243499.716786,87,0,0,1561243498.988819,4.602246712897534,-74.06496732502623,2655.879,0,56.6015625,4,10,-9999,1561243499.698808,24.97181701660156,14.94825267791748,18.8172607421875,291.8472595214844,299.3909606933594,15,65599.6052085,1.433258056640625,0.98394775390625,-0.3748016357421875,65599.6001425,-0.01708897208282046,-0.02171142078687099,1.58971249370162,65599.59385650001,62.94172668457031,16.31694030761719,-518.9014892578125,65599.6001425,1.981538670125095,1.243762392266593,-0.0779085329660973,-0.018271554261446,-0.02719651162624359,1.587112545967102,0.5664476156234741,0.9056144952774048,-0.1013544797897339,1,0.5042632818222046,-0.2925541996955872,-0.6669017672538757,-0.4640825390815735,0.9441267251968384,0.07782974094152451,-0.3202611804008484,0,0,0,-1,65599.35267550001,1,2,1561243499.474078,1561243107.271691,28,1.054203,0,0,24.53997,0,0,1561243350.380748,65597.058919,0,-4.019043,74.58549,2650634390,177292352,1,1,0.14,-24.35538,-29.23295,4
1561243499.737029,88,0,0,1561243498.988819,4.602246712897534,-74.06496732502623,2655.879,0,56.6015625,4,10,-9999,1561243499.725341,25.40473556518555,14.40197086334229,18.716796875,291.05615234375,298.599853515625,15,65599.6254725,1.312911987304688,0.9788055419921875,-0.33465576171875,65599.62040650001,-0.2963768061283023,0.3917619153111253,2.723465976119102,65599.6139365,63.58827209472656,15.32374572753906,-518.6422729492188,65599.62040650001,1.998966359843253,1.248611279910789,-0.03678682133493125,-0.297559380531311,0.3862768113613129,2.720865964889526,0.4125696420669556,0.9596203565597534,-0.03243601322174072,1,0.4996913969516754,-0.3034726679325104,-0.6765880584716797,-0.4477068185806274,0.9479040503501892,0.036778524518013,-0.3164256811141968,0,0,0,-1,65599.35267550001,1,2,1561243499.474078,1561243107.271691,28,1.054203,0,0,24.53997,0,0,1561243350.380748,65597.058919,0,-4.019043,74.58549,2650634390,177292352,1,1,0.14,-24.91266,-30.14793,4
1561243499.757302,89,0,0,1561243498.988819,4.602246712897534,-74.06496732502623,2655.879,0,56.6015625,4,10,-9999,1561243499.749365,26.12359619140625,13.32614612579346,18.86187744140625,289.3486938476562,296.8923950195312,15,65599.6457355,1.29278564453125,0.8483428955078125,-0.3325347900390625,65599.6406705,-0.06783976771202446,0.1488496659628178,3.495201057860007,65599.63401750001,64.31910705566406,13.93731689453125,-518.27001953125,65599.6406705,2.023572320868991,1.255754050916651,0.02166592767338417,-0.06902234256267548,0.1433645784854889,3.492601156234741,0.3510146141052246,0.9510618448257446,-0.0252227783203125,1,0.4933314025402069,-0.3189547955989838,-0.6894233226776123,-0.4237775206565857,0.9505600929260254,-0.02166423201560974,-0.309783935546875,0,0,0,-1,65599.35267550001,1,2,1561243499.474078,1561243107.271691,28,1.054203,0,0,24.53997,0,0,1561243350.380748,65597.058919,0,-4.019043,74.58549,2650634390,177292352,1,1,0.14,-24.91266,-30.14793,4
1561243499.788348,90,0,0,1561243498.988819,4.602246712897534,-74.06496732502623,2655.879,0,56.6015625,4,10,-9999,1561243499.776521,27.63946914672852,10.08598327636719,18.84918212890625,288.1463317871094,295.6900329589844,15,65599.66599950001,1.179672241210938,0.630706787109375,-0.2773590087890625,65599.66093350001,0.8313097290098693,-0.7754139724707413,4.138817584827708,65599.65409750001,64.91590881347656,12.41426086425781,-518.345947265625,65599.66093350001,2.040645477739903,1.248222225474132,0.09760214639476142,0.8301271796226501,-0.7808991074562073,4.136217594146729,0.3092499971389771,0.84477698802948,0.01264369487762451,1,0.4767505824565887,-0.3390557467937469,-0.7056963443756104,-0.399678111076355,0.9439086318016052,-0.09744726121425629,-0.3155001699924469,0,0,0,-1,65599.35267550001,1,2,1561243499.474078,1561243107.271691,28,1.054203,0,0,24.53997,0,0,1561243350.380748,65597.058919,0,-4.019043,74.58549,2650634390,177292352,1,1,0.14,-26.02722,-31.1364,4
1561243499.7978,91,0,0,1561243498.988819,4.602246712897534,-74.06496732502623,2655.879,0,56.6015625,4,10,-9999,1561243499.776521,27.63946914672852,10.08598327636719,18.84918212890625,288.1463317871094,295.6900329589844,15,65599.6862635,1.048690795898438,0.4396209716796875,-0.312469482421875,65599.6811975,1.21631094357772,-0.749759475373899,4.84174617138089,65599.6741785,66.23411560058594,10.50540161132812,-518.8626708984375,65599.6811975,2.049459260529787,1.229051948418926,0.1902409615776744,1.215128421783447,-0.7552446126937866,4.839146137237549,0.1952337026596069,0.7165307998657227,0.03912210464477539,1,0.4501949846744537,-0.3643926978111267,-0.7235094904899597,-0.3756012916564941,0.9251734018325806,-0.1890955120325089,-0.3290848731994629,0,0,0,-1,65599.35267550001,1,2,1561243499.474078,1561243107.271691,28,1.054203,0,0,24.53997,0,0,1561243350.380748,65597.058919,0,-4.019043,74.58549,2650634390,177292352,1,1,0.14,-26.02722,-31.1364,4
1561243499.818083,92,0,0,1561243498.988819,4.602246712897534,-74.06496732502623,2655.879,0,56.6015625,4,10,-9999,1561243499.80006,29.05302047729492,8.043192863464355,18.33953857421875,287.4574279785156,295.0011291503906,15,65599.7065265,0.991485595703125,0.2964630126953125,-0.3720550537109375,65599.7014305,1.135336465369424,-0.3726843608423426,5.85625768125451,65599.69428950001,67.17793273925781,8.351104736328125,-519.2908935546875,65599.7014305,2.064384240115309,1.215699514564516,0.2995221145630786,1.134153842926025,-0.378169447183609,5.853657245635986,0.1259673237800598,0.6624647378921509,-0.01463073492050171,1,0.4219395816326141,-0.3947989642620087,-0.7404823899269104,-0.3432004749774933,0.8958680629730225,-0.2950636446475983,-0.3322015404701233,0,0,0,-1,65599.35267550001,1,2,1561243499.474078,1561243107.271691,28,1.054203,0,0,24.53997,0,0,1561243350.380748,65597.058919,0,-4.019043,74.58549,2650634390,177292352,1,1,0.14,-26.5845,-31.85172,4
1561243499.838462,93,0,0,1561243498.988819,4.602246712897534,-74.06496732502623,2655.879,0,56.6015625,4,10,-9999,1561243499.826395,29.83193588256836,5.632200241088867,17.9124755859375,285.979248046875,293.52294921875,15,65599.72676050001,0.862457275390625,0.094390869140625,-0.3227386474609375,65599.72169450001,1.265122957933346,-0.8468721771558564,7.013514625556376,65599.7143695,68.45869445800781,5.396072387695312,-519.597412109375,65599.72169450001,2.090024481398201,1.194011750355864,0.4299968099589904,1.263940334320068,-0.8523572683334351,7.010914325714111,0.07248890399932861,0.6133553385734558,-0.006885349750518799,1,0.3864876627922058,-0.4282616376876831,-0.7590432167053223,-0.3017823100090027,0.8452052474021912,-0.4168679118156433,-0.3344385027885437,0,0,0,-1,65599.35267550001,1,2,1561243499.474078,1561243107.271691,28,1.054203,0,0,24.53997,0,0,1561243350.380748,65597.058919,0,-4.019043,74.58549,2650634390,177292352,1,1,0.14,-27.14178,-32.53695,4
1561243499.871257,94,0,0,1561243498.988819,4.602246712897534,-74.06496732502623,2655.879,0,56.6015625,4,10,-9999,1561243499.854552,30.86919784545898,2.462909698486328,17.46539306640625,283.3666687011719,290.9103698730469,15,65599.74702350001,0.7591552734375,-0.0323333740234375,-0.3924407958984375,65599.74195750001,1.407390621262033,-0.6635729245962095,8.434183235381326,65599.73445050001,68.92645263671875,1.7230224609375,-519.9841918945312,65599.74195750001,2.130361091864673,1.157213748225178,0.5839066286210558,1.406208038330078,-0.6690580248832703,8.431583404541016,0.05055773258209229,0.5689572095870972,-0.01946181058883667,1,0.3414731919765472,-0.4644820094108582,-0.7777085900306702,-0.2506431043148041,0.7639716863632202,-0.5512874722480774,-0.3353050351142883,0,0,0,-1,65599.35267550001,1,2,1561243499.474078,1561243107.271691,28,1.054203,0,0,24.53997,0,0,1561243350.380748,65597.058919,0,-4.019043,74.58549,2650634390,177292352,1,1,0.14,-27.69906,-32.34056,4
1561243499.878854,95,0,0,1561243498.988819,4.602246712897534,-74.06496732502623,2655.879,0,56.6015625,4,10,-9999,1561243499.877169,30.49731826782227,-6.275694847106934,17.1488037109375,278.582763671875,286.12646484375,15,65599.7672875,0.6306304931640625,-0.10833740234375,-0.3762664794921875,65599.7622215,1.832061484479376,0.09066066140902247,10.29992784869581,65599.7545315,68.64649963378906,-2.711471557617188,-520.08251953125,65599.7622215,2.195809937747249,1.110536626460061,0.7692504830642812,1.830878973007202,0.08517557382583618,10.29732799530029,0.05017763376235962,0.6202032566070557,-0.07926273345947266,1,0.2898088991641998,-0.5064128041267395,-0.7913223505020142,-0.1826627552509308,0.6436700224876404,-0.6955969333648682,-0.3191137611865997,0,0,0,-1,65599.35267550001,1,2,1561243499.474078,1561243107.271691,28,1.054203,0,0,24.53997,0,0,1561243350.380748,65597.058919,0,-4.019043,74.58549,2650634390,177292352,1,1,0.14,-28.25633,-32.7426,4
1561243499.899152,96,0,0,1561243498.988819,4.602246712897534,-74.06496732502623,2655.879,0,56.6015625,4,10,-9999,1561243499.877169,30.49731826782227,-6.275694847106934,17.1488037109375,278.582763671875,286.12646484375,15,65599.78755150001,0.4616851806640625,-0.072540283203125,-0.2596435546875,65599.78248550001,2.413329681902796,-0.4528931802372401,11.99116616842175,65599.7746115,67.28704833984375,-8.470779418945312,-519.9551391601562,65599.78248550001,2.308660613337586,1.020602831873424,0.9889393794652362,2.412147045135498,-0.4583782553672791,11.98856639862061,0.09796518087387085,0.7305851578712463,-0.05477017164230347,1,0.2256681770086288,-0.5526303648948669,-0.7961949110031128,-0.09872772544622421,0.4684715867042542,-0.8354435563087463,-0.2873471081256866,0,0,0,-1,65599.35267550001,1,2,1561243499.474078,1561243107.271691,28,1.054203,0,0,24.53997,0,0,1561243350.380748,65597.058919,0,-4.019043,74.58549,2650634390,177292352,1,1,0.14,-28.81361,-33.06048,4
1561243499.91941,97,0,0,1561243498.988819,4.602246712897534,-74.06496732502623,2655.879,0,56.6015625,4,10,-9999,1561243499.901805,28.62953567504883,-11.88506984710693,17.36077880859375,210.8232879638672,218.3669738769531,15,65599.8078145,-0.0311431884765625,0.0138092041015625,-0.076171875,65599.80271850001,2.437980433584787,-0.94896552280848,12.93996311313323,65599.7946925,64.24046325683594,-13.96372985839844,-519.4315795898438,65599.80271850001,2.57251901526565,0.7673976590806696,1.220250151154688,2.436797857284546,-0.9544506072998047,12.93736362457275,0.02041685581207275,0.9230567812919617,0.1063820123672485,1,0.1453296691179276,-0.5960700511932373,-0.7896353602409363,-0.007468154653906822,0.2384179830551147,-0.9391852617263794,-0.24715955555439,0,0,0,-1,65599.35267550001,1,2,1561243499.474078,1561243107.271691,28,1.054203,0,0,24.53997,0,0,1561243350.380748,65597.058919,0,-4.019043,74.58549,2650634390,177292352,1,1,0.14,-28.81361,-33.06048,4
1561243499.944775,98,0,0,1561243498.988819,4.602246712897534,-74.06496732502623,2655.879,0,56.6015625,4,10,-9999,1561243499.927788,25.31502532958984,-17.4592456817627,17.88555908203125,212.7778167724609,220.3215026855469,15,65599.82804750001,-0.5724029541015625,-0.0672760009765625,-0.091156005859375,65599.8229825,1.252285722530837,0.9277992510967482,13.09791306685696,65599.8147725,59.65321350097656,-19.31190490722656,-518.9788208007812,65599.8229825,-2.8297912642022,-0.09102960896191677,1.356860867719833,1.251103162765503,0.9223141074180603,13.09531307220459,-0.3056668937206268,0.9928279519081116,0.1289845705032349,1,0.06234798207879066,-0.6248190402984619,-0.7727532386779785,0.09255378693342209,-0.01929952576756477,-0.9772029519081116,-0.2114277929067612,0,0,0,-1,65599.35267550001,1,2,1561243499.474078,1561243107.271691,28,1.054203,0,0,24.53997,0,0,1561243350.380748,65597.058919,0,-4.019043,74.58549,2650634390,177292352,1,1,0.14,-29.80523,-33.93729,4
1561243499.959958,99,0,0,1561243498.988819,4.602246712897534,-74.06496732502623,2655.879,0,56.6015625,4,10,-9999,1561243499.951965,20.10819625854492,-22.37964630126953,18.53466796875,209.5641632080078,217.1078491210938,15,65599.8483115,-0.560577392578125,-0.40948486328125,-0.0845184326171875,65599.8432455,-0.008024370680517753,5.252227712310292,10.73387077356437,65599.8348535,52.99603271484375,-23.36445617675781,-517.8516235351562,65599.8432455,-1.970095876684086,-0.8620196059746984,1.242482082745699,-0.009206951595842838,5.246742725372314,10.7312707901001,-0.4481127262115479,0.6837088465690613,0.1249372959136963,1,0.009245817549526691,-0.6284688115119934,-0.7500626444816589,0.2057848870754242,-0.2447888851165771,-0.9465872645378113,-0.2098829299211502,0,0,0,-1,65599.35267550001,1,2,1561243499.474078,1561243107.271691,28,1.054203,0,0,24.53997,0,0,1561243350.380748,65597.058919,0,-4.019043,74.58549,2650634390,177292352,1,1,0.14,-29.80523,-33.93729,4
1561243499.980124,100,0,0,1561243498.988819,4.602246712897534,-74.06496732502623,2655.879,0,56.6015625,4,10,-9999,1561243499.97883,5.460720062255859,-27.67889022827148,20.20452880859375,201.3101654052734,208.8538513183594,15,65599.8685755,-0.4986114501953125,-0.2290802001953125,-0.0682525634765625,65599.86350950001,-0.5253900177474862,6.158564281865982,8.558503856123968,65599.8549335,45.44436645507812,-25.68238830566406,-517.0669555664062,65599.86350950001,-1.697359078267477,-0.9890481844471096,1.084048424096477,-0.526572585105896,6.153079032897949,8.555904388427734,-0.07064640522003174,0.4904260635375977,0.1134539842605591,1,-0.004977856762707233,-0.6094778776168823,-0.7276650071144104,0.3146672546863556,-0.3908098936080933,-0.8838587403297424,-0.2570238709449768,0,0,0,-1,65599.35267550001,1,2,1561243499.474078,1561243107.271691,28,1.054203,0,0,24.53997,0,0,1561243350.380748,65597.058919,0,-4.019043,74.58549,2650634390,177292352,1,1,0.14,-29.80523,-34.35087,4
1561243500.000412,101,0,0,1561243498.988819,4.602246712897534,-74.06496732502623,2655.879,0,56.6015625,4,10,-9999,1561243499.97883,5.460720062255859,-27.67889022827148,20.20452880859375,201.3101654052734,208.8538513183594,15,65599.8888385,-0.6317596435546875,0.1848907470703125,0.0544891357421875,65599.8837735,-0.5172681753710715,2.141316805007083,8.893433647456694,65599.87501450001,38.08433532714844,-26.49700927734375,-517.2805786132812,65599.8837735,-1.536714484194447,-1.035893497483789,0.9301790529807659,-0.5184507369995117,2.135831832885742,8.890833854675293,-0.04373371601104736,0.7740322947502136,0.3734179735183716,1,-0.02732575312256813,-0.5889946818351746,-0.6993354558944702,0.4040649235248566,-0.5142039060592651,-0.8017269968986511,-0.3046771287918091,0,0,0,-1,65599.35267550001,1,2,1561243499.474078,1561243107.271691,28,1.054203,0,0,24.53997,0,0,1561243350.380748,65597.058919,0,-4.019043,74.58549,2650634390,177292352,1,1,0.14,-28.07869,-34.83176,4
1561243500.036783,102,0,0,1561243498.988819,4.602246712897534,-74.06496732502623,2655.879,0,56.6015625,4,10,-9999,1561243500.027903,-1.270885467529297,-28.12165451049805,20.184326171875,197.4813079833984,205.0249938964844,15,65599.90910250001,-0.7981414794921875,0.1959991455078125,-0.14263916015625,65599.90403650001,-0.8938727093380108,-1.505584300130453,7.734803044664565,65599.8950955,32.49082946777344,-26.09568786621094,-517.479248046875,65599.90403650001,-1.431036637510253,-1.113129822880438,0.7717183057370834,-0.8950552344322205,-1.511069297790527,7.732203006744385,-0.05492240190505981,0.992289662361145,0.2685426473617554,1,-0.07988717406988144,-0.5790302157402039,-0.6661059260368347,0.4632978737354279,-0.6429535746574402,-0.697367787361145,-0.3166840970516205,0,0,0,-1,65599.35267550001,1,2,1561243499.474078,1561243107.271691,28,1.054203,0,0,24.53997,0,0,1561243350.380748,65597.058919,0,-4.019043,74.58549,2650634390,177292352,1,1,0.14,-28.07869,-32.4779,4
1561243500.04208,103,0,0,1561243498.988819,4.602246712897534,-74.06496732502623,2655.879,0,56.6015625,4,10,-9999,1561243500.027903,-1.270885467529297,-28.12165451049805,20.184326171875,197.4813079833984,205.0249938964844,15,65599.9293665,-1.1611328125,-0.118408203125,-0.1217041015625,65599.9242695,-0.2132092147623267,-2.621351325177757,5.098163843249208,65599.91517550001,28.76106262207031,-25.20381164550781,-517.4218139648438,65599.9242695,-1.376647963096213,-1.195001051131531,0.6473065803717658,-0.2143917977809906,-2.62683629989624,5.095563411712646,-0.2468023300170898,0.6410343647003174,0.1237329840660095,1,-0.1357540637254715,-0.578952431678772,-0.6360968947410583,0.4916967451572418,-0.7420435547828674,-0.6030400395393372,-0.2927698194980621,0,0,0,-1,65599.35267550001,1,2,1561243499.474078,1561243107.271691,28,1.054203,0,0,24.53997,0,0,1561243350.380748,65597.058919,0,-4.019043,74.58549,2650634390,177292352,1,1,0.14,-28.07869,-32.87056,4
1561243500.061196,104,0,0,1561243499.988804,4.602246712897534,-74.06496732502623,2656.404,0,56.6015625,4,10,-9999,1561243500.055186,-9.182147979736328,-26.76734161376953,20.12237548828125,202.2587890625,209.8024749755859,15,65599.9495995,-1.34814453125,-0.1842193603515625,-0.0410308837890625,65599.94453350001,0.3711048399998166,-2.893242761927762,3.185885549891664,65599.9352565,27.23959350585938,-24.31114196777344,-516.8483276367188,65599.94453350001,-1.339426527493173,-1.270532578089617,0.5714043397952392,0.3699222505092621,-2.898727893829346,3.183285474777222,-0.4838757514953613,0.332210898399353,0.1986766457557678,1,-0.1755728721618652,-0.587180495262146,-0.6105182766914368,0.5016578435897827,-0.8035082817077637,-0.5408138036727905,-0.2487864643335342,0,0,0,-1,65599.35267550001,1,2,1561243499.474078,1561243107.271691,28,1.054203,0,0,24.53997,0,0,1561243350.380748,65597.058919,0,-4.019043,74.58549,2650634390,177292352,1,1,0.14,-28.07869,-33.43954,4
1561243500.081436,105,0,0,1561243499.988804,4.602246712897534,-74.06496732502623,2656.404,0,56.6015625,4,10,-9999,1561243500.079649,-10.45336532592773,-25.27341079711914,21.583984375,120.6360168457031,128.1797027587891,15,65599.96986350001,-1.3623046875,-0.22216796875,-0.0445709228515625,65599.9647975,-0.1001300632970172,-3.515473040077691,2.437020896644032,65599.9553365,27.30886840820312,-23.61854553222656,-515.9117431640625,65599.9647975,-1.317968105990732,-1.347729796202637,0.518402375699045,-0.1013126373291016,-3.520958185195923,2.434420824050903,-0.5063025951385498,0.3172856569290161,0.1687484383583069,1,-0.210979625582695,-0.5995080471038818,-0.5889387726783752,0.4992283284664154,-0.8470909595489502,-0.4954930543899536,-0.1921553909778595,0,0,0,-1,65599.35267550001,1,2,1561243499.474078,1561243107.271691,28,1.054203,0,0,24.53997,0,0,1561243350.380748,65597.058919,0,-4.019043,74.58549,2650634390,177292352,1,1,0.14,-28.07869,-33.43954,4
1561243500.107331,106,0,0,1561243499.988804,4.602246712897534,-74.06496732502623,2656.404,0,56.6015625,4,10,-9999,1561243500.104547,-10.27091789245605,-24.90579986572266,22.12200927734375,121.1432342529297,128.6869201660156,15,65599.99013954167,-1.475494384765625,-0.3384246826171875,-0.0582275390625,65599.98506050001,-0.8352602621708929,-2.238003134698519,1.844383664527064,65599.97544750001,27.39794921875,-23.01417541503906,-515.1831665039062,65599.98506050001,-1.319227174683453,-1.409423164144378,0.4740593141223343,-0.8364428281784058,-2.243488073348999,1.84178364276886,-0.5331072807312012,0.1749770641326904,0.08384239673614502,1,-0.2445297539234161,-0.6072295308113098,-0.5739935040473938,0.4919440448284149,-0.8781628608703613,-0.456501692533493,-0.1429549902677536,0,0,0,-1,65599.35267550001,1,2,1561243499.474078,1561243107.271691,28,1.054203,0,0,24.53997,0,0,1561243350.380748,65597.058919,0,-4.019043,74.58549,2650634390,177292352,1,1,0.14,-28.07869,-34.59739,4
1561243500.121842,107,0,0,1561243499.988804,4.602246712897534,-74.06496732502623,2656.404,0,56.6015625,4,10,-9999,1561243500.104547,-10.27091789245605,-24.90579986572266,22.12200927734375,121.1432342529297,128.6869201660156,15,65600.01040354167,-1.402313232421875,-0.4241790771484375,-0.1188201904296875,65600.00533754168,-1.641987949054895,0.001332379493366643,1.382998196205779,65599.99554154168,27.27001953125,-23.02801513671875,-515.1074829101562,65600.00533754168,-1.341023612502168,-1.421152003535054,0.4386040226541068,-1.643170475959778,-0.004152711946517229,1.380398273468018,-0.584997296333313,0.01822766661643982,0.07287144660949707,1,-0.2664062976837158,-0.6012822389602661,-0.57090163230896,0.4914861023426056,-0.895227313041687,-0.4246760308742523,-0.1349747031927109,0,0,0,-1,65599.35267550001,1,2,1561243499.474078,1561243107.271691,28,1.054203,0,0,24.53997,0,0,1561243350.380748,65597.058919,0,-4.019043,74.58549,2650634390,177292352,1,1,0.14,-28.07869,-34.59739,4
1561243500.142225,108,0,0,1561243499.988804,4.602246712897534,-74.06496732502623,2656.404,0,56.6015625,4,10,-9999,1561243500.132161,-10.77164840698242,-25.04612731933594,21.89971923828125,123.4189453125,130.9626312255859,15,65600.03066754167,-1.136795043945312,-0.2791595458984375,-0.2822265625,65600.02560154167,-2.165041309261945,0.332936148940692,1.241400317891247,65600.01562154166,26.42776489257812,-23.62760925292969,-515.884033203125,65600.02560154167,-1.380147723710339,-1.397798230822178,0.4062352250014121,-2.166223764419556,0.3274510502815247,1.238800406455994,-0.3466992378234863,0.02966001629829407,-0.06257599592208862,1,-0.2820530533790588,-0.584279477596283,-0.5774160027503967,0.4956352710723877,-0.9049029350280762,-0.3951537609100342,-0.1581271290779114,0,0,0,-1,65599.35267550001,1,2,1561243499.474078,1561243107.271691,28,1.054203,0,0,24.53997,0,0,1561243350.380748,65597.058919,0,-4.019043,74.58549,2650634390,177292352,1,1,0.14,-28.07869,-34.87065,4
1561243500.164607,109,0,0,1561243499.988804,4.602246712897534,-74.06496732502623,2656.404,0,56.6015625,4,10,-9999,1561243500.154611,-11.45271492004395,-25.74451065063477,20.90191650390625,126.0631561279297,133.6068420410156,15,65600.05093054166,-1.204330444335938,-0.1865081787109375,-0.260711669921875,65600.04583454167,-1.155845468924124,-0.8040261762742256,1.24291618918372,65600.03570254167,25.61996459960938,-24.28804016113281,-517.1580200195312,65600.04583454167,-1.413600137110731,-1.390331730830712,0.3751669394345378,-1.157027959823608,-0.8095113039016724,1.240316271781921,-0.2210770845413208,0.1638979911804199,-0.1225327849388123,1,-0.299750804901123,-0.571531355381012,-0.5807916522026062,0.4961678385734558,-0.9153364896774292,-0.36642786860466,-0.1670027226209641,0,0,0,-1,65599.35267550001,1,2,1561243499.474078,1561243107.271691,28,1.054203,0,0,24.53997,0,0,1561243350.380748,65597.058919,0,-4.019043,74.58549,2650634390,177292352,1,1,0.14,-28.07869,-35.69711,4
1561243500.191716,110,0,0,1561243499.988804,4.602246712897534,-74.06496732502623,2656.404,0,56.6015625,4,10,-9999,1561243500.181033,-12.43685150146484,-25.96196365356445,20.0006103515625,126.4381866455078,133.9818725585938,15,65600.07116354167,-1.267471313476562,-0.30291748046875,-0.294097900390625,65600.06609854168,0.1190957650000165,-0.7638169711878822,0.9246215672840656,65600.05578354167,25.45137023925781,-24.37564086914062,-517.4253540039062,65600.06609854168,-1.418983871513333,-1.406095405346569,0.3514114942567592,0.1179131865501404,-0.7693020701408386,0.9220215678215027,-0.3239551782608032,0.09365883469581604,-0.1012352705001831,1,-0.3135323524475098,-0.5698497295379639,-0.5750682353973389,0.4962511360645294,-0.9261821508407593,-0.3442233800888062,-0.153937503695488,0,0,0,-1,65599.35267550001,1,2,1561243499.474078,1561243107.271691,28,1.054203,0,0,24.53997,0,0,1561243350.380748,65597.058919,0,-4.019043,74.58549,2650634390,177292352,1,1,0.14,-28.07869,-36.04563,4
1561243500.202984,111,0,0,1561243499.988804,4.602246712897534,-74.06496732502623,2656.404,0,56.6015625,4,10,-9999,1561243500.181033,-12.43685150146484,-25.96196365356445,20.0006103515625,126.4381866455078,133.9818725585938,15,65600.09142754167,-1.294692993164062,-0.27825927734375,-0.274261474609375,65600.08636154167,0.3136290299859446,-0.2052386399358286,0.7355099656453209,65600.07586354167,25.255615234375,-23.85215759277344,-516.7957763671875,65600.08636154167,-1.410342850408935,-1.418596514443426,0.3365932817551284,0.3124464452266693,-0.2107237279415131,0.7329099178314209,-0.3524264097213745,0.02476197481155396,-0.1513589024543762,1,-0.3193957209587097,-0.5713438391685486,-0.5679665803909302,0.4989655911922455,-0.9329740405082703,-0.330273449420929,-0.1431051790714264,0,0,0,-1,65599.35267550001,1,2,1561243499.474078,1561243107.271691,28,1.054203,0,0,24.53997,0,0,1561243350.380748,65597.058919,0,-4.019043,74.58549,2650634390,177292352,1,1,0.14,-28.07869,-33.13603,4
1561243500.223437,112,0,0,1561243499.988804,4.602246712897534,-74.06496732502623,2656.404,0,56.6015625,4,10,-9999,1561243500.205265,-12.62874794006348,-25.51370620727539,20.3895263671875,125.8088226318359,133.3525085449219,15,65600.11169154166,-1.242401123046875,-0.2825164794921875,-0.2319793701171875,65600.10662554167,0.1389496309265572,-0.1445513239634299,0.7875217680506775,65600.09594454167,24.76089477539062,-23.72297668457031,-516.8571166992188,65600.10662554167,-1.403184400696692,-1.423655789193914,0.3215781813492097,0.1377670466899872,-0.150036409497261,0.7849217653274536,-0.3439998626708984,0.04900488257408142,-0.1163527965545654,1,-0.3235816657543182,-0.5707430243492126,-0.5622782111167908,0.5033791065216064,-0.9384860396385193,-0.3160642385482788,-0.1390946060419083,0,0,0,-1,65599.35267550001,1,2,1561243499.474078,1561243107.271691,28,1.054203,0,0,24.53997,0,0,1561243350.380748,65597.058919,0,-4.019043,74.58549,2650634390,177292352,1,1,0.14,-28.07869,-33.74197,4
1561243500.244394,113,0,0,1561243499.988804,4.602246712897534,-74.06496732502623,2656.404,0,56.6015625,4,10,-9999,1561243500.231575,-12.96478080749512,-25.23709869384766,20.4173583984375,125.4222259521484,132.9659118652344,15,65600.13195454168,-1.195388793945312,-0.3493499755859375,-0.1889190673828125,65600.12688954167,0.07060652576850779,-0.3309694044756685,0.4627058635897461,65600.11602454167,24.36135864257812,-23.60057067871094,-516.6048583984375,65600.12688954167,-1.399107626969151,-1.429811864473952,0.3090721277553407,0.06942394375801086,-0.3364544808864594,0.460105836391449,-0.257442831993103,-0.01351314783096313,-0.06723594665527344,1,-0.3281261622905731,-0.5704414248466492,-0.5576357841491699,0.505936861038208,-0.9431644678115845,-0.3041748702526093,-0.1338596045970917,0,0,0,-1,65599.35267550001,1,2,1561243499.474078,1561243107.271691,28,1.054203,0,0,24.53997,0,0,1561243350.380748,65597.058919,0,-4.019043,74.58549,2650634390,177292352,1,1,0.14,-28.07869,-33.74197,4
1561243500.270259,114,0,0,1561243499.988804,4.602246712897534,-74.06496732502623,2656.404,0,56.6015625,4,10,-9999,1561243500.257274,-13.0827693939209,-25.22595596313477,20.62725830078125,125.2742462158203,132.8179321289062,15,65600.15221854167,-1.197921752929688,-0.3497161865234375,-0.1586456298828125,65600.14715254167,-0.03135818920346502,-0.2418256796235551,0.1916637089113677,65600.13610554166,24.5843505859375,-23.28398132324219,-516.7235107421875,65600.14715254167,-1.3976505995593,-1.436864812600065,0.303097122375223,-0.03254077211022377,-0.2473107725381851,0.18906369805336,-0.2481461763381958,-0.05866965651512146,-0.04069197177886963,1,-0.3315683007240295,-0.5712618827819824,-0.554840624332428,0.505840003490448,-0.9458693265914917,-0.2984775900840759,-0.1274446398019791,0,0,0,-1,65599.35267550001,1,2,1561243499.474078,1561243107.271691,28,1.054203,0,0,24.53997,0,0,1561243350.380748,65597.058919,0,-4.019043,74.58549,2650634390,177292352,1,1,0.14,-28.07869,-32.12917,4
1561243500.284093,115,0,0,1561243499.988804,4.602246712897534,-74.06496732502623,2656.404,0,56.6015625,4,10,-9999,1561243500.28214,-13.25774955749512,-24.98976898193359,20.7039794921875,125.4259185791016,132.9696044921875,15,65600.17248254167,-1.179107666015625,-0.2940826416015625,-0.17108154296875,65600.16738554167,-0.213689116390759,0.1343780485993272,0.2365859101788242,65600.15618554167,24.21125793457031,-23.19599914550781,-516.5341796875,65600.16738554167,-1.399685536562103,-1.43734453676284,0.2988881338553218,-0.2148717045783997,0.1288929581642151,0.2339859008789062,-0.2481909990310669,-0.03623068332672119,-0.03426581621170044,1,-0.3336142897605896,-0.5701956152915955,-0.5543804168701172,0.5062024593353271,-0.9471672773361206,-0.2944578230381012,-0.1271569281816483,0,0,0,-1,65599.35267550001,1,2,1561243499.474078,1561243107.271691,28,1.054203,0,0,24.53997,0,0,1561243350.380748,65597.058919,0,-4.019043,74.58549,2650634390,177292352,1,1,0.14,-28.07869,-32.12917,4
1561243500.304221,116,0,0,1561243499.988804,4.602246712897534,-74.06496732502623,2656.404,0,56.6015625,4,10,-9999,1561243500.28214,-13.25774955749512,-24.98976898193359,20.7039794921875,125.4259185791016,132.9696044921875,15,65600.19271554168,-1.099365234375,-0.2804718017578125,-0.210357666015625,65600.18764954167,-0.198431600189586,0.06454490481137844,0.2430603211049159,65600.17626654168,24.17854309082031,-23.16134643554688,-516.634521484375,65600.18764954167,-1.403958829659017,-1.433470135094117,0.293046811509467,-0.1996141821146011,0.05905980989336967,0.2404603064060211,-0.1953369975090027,0.01656210422515869,-0.06635934114456177,1,-0.3356009423732758,-0.567311704158783,-0.5548689365386963,0.5075921416282654,-0.9483550190925598,-0.2888704836368561,-0.1310588717460632,0,0,0,-1,65599.35267550001,1,2,1561243499.474078,1561243107.271691,28,1.054203,0,0,24.53997,0,0,1561243350.380748,65597.058919,0,-4.019043,74.58549,2650634390,177292352,1,1,0.14,-28.07869,-32.29549,4
1561243500.325332,117,0,0,1561243499.988804,4.602246712897534,-74.06496732502623,2656.404,0,56.6015625,4,10,-9999,1561243500.306909,-13.54342269897461,-25.07317733764648,20.6888427734375,125.6903228759766,133.2340087890625,15,65600.21297954167,-1.0615234375,-0.2765655517578125,-0.201263427734375,65600.20791354167,0.1986023088154601,-0.3496826385073283,0.08612876018203462,65600.19634754167,23.90647888183594,-23.35127258300781,-516.7219848632812,65600.20791354167,-1.40403708658623,-1.436215585996648,0.2897911876426154,0.1974197179079056,-0.3551677167415619,0.08352874219417572,-0.1235885620117188,0.00703507661819458,-0.08165532350540161,1,-0.3374109268188477,-0.5673303604125977,-0.5537334084510803,0.5076116323471069,-0.9496383666992188,-0.2857521176338196,-0.1285802572965622,0,0,0,-1,65599.35267550001,1,2,1561243499.474078,1561243107.271691,28,1.054203,0,0,24.53997,0,0,1561243350.380748,65597.058919,0,-4.019043,74.58549,2650634390,177292352,1,1,0.14,-28.07869,-32.81717,4
1561243500.34847,118,0,0,1561243499.988804,4.602246712897534,-74.06496732502623,2656.404,0,56.6015625,4,10,-9999,1561243500.337119,-13.57161331176758,-25.06736373901367,20.66851806640625,125.3566436767578,132.9003295898438,15,65600.23324254167,-1.05084228515625,-0.277679443359375,-0.13134765625,65600.22817654167,0.5954492639119827,-0.5246912042774494,0.02884736092773831,65600.21645854168,24.15853881835938,-23.1700439453125,-516.3488159179688,65600.22817654167,-1.395037354891367,-1.448540655642878,0.2899496748767335,0.5942667126655579,-0.5301763415336609,0.02624734863638878,-0.1023914813995361,0.007431089878082275,-0.05248117446899414,1,-0.3381966948509216,-0.5720074772834778,-0.5494039058685303,0.5065429210662842,-0.9511058330535889,-0.2859039902687073,-0.1168608814477921,0,0,0,-1,65599.35267550001,1,2,1561243499.474078,1561243107.271691,28,1.054203,0,0,24.53997,0,0,1561243350.380748,65597.058919,0,-4.019043,74.58549,2650634390,177292352,1,1,0.14,-28.07869,-33.44461,4
1561243500.365055,119,0,0,1561243499.988804,4.602246712897534,-74.06496732502623,2656.404,0,56.6015625,4,10,-9999,1561243500.357729,-13.52102470397949,-24.86391830444336,20.96234130859375,124.4924774169922,132.0361633300781,15,65600.25350654167,-1.0426025390625,-0.30718994140625,-0.0992889404296875,65600.24844054168,0.4394998767991226,-0.2114901442786806,0.05445099164776011,65600.23653854168,24.43588256835938,-22.86190795898438,-516.068115234375,65600.24844054168,-1.383062689394154,-1.460395331017893,0.2905488065269749,0.4383172988891602,-0.2169752269983292,0.05185097828507423,-0.09149295091629028,-0.002004563808441162,-0.005265593528747559,1,-0.3378098607063293,-0.5771524906158447,-0.5444990992546082,0.5062610507011414,-0.9522539973258972,-0.2864780724048615,-0.1055589988827705,0,0,0,-1,65599.35267550001,1,2,1561243499.474078,1561243107.271691,28,1.054203,0,0,24.53997,0,0,1561243350.380748,65597.058919,0,-4.019043,74.58549,2650634390,177292352,1,1,0.14,-28.07869,-32.01242,4
1561243500.385349,120,0,0,1561243499.988804,4.602246712897534,-74.06496732502623,2656.404,0,56.6015625,4,10,-9999,1561243500.383521,-13.29484367370605,-24.59807586669922,21.31256103515625,124.2505798339844,131.7942657470703,15,65600.27377054167,-1.017684936523438,-0.3147735595703125,-0.1170501708984375,65600.26867354166,-0.1104032072019979,0.1910258818302937,0.01196478382939899,65600.25661954167,24.38406372070312,-22.76370239257812,-515.7461547851562,65600.26867354166,-1.379338223866434,-1.461333060860094,0.2900089017057862,-0.1115857884287834,0.1855407953262329,0.009364770725369453,-0.08564096689224243,-0.03020137548446655,0.002387940883636475,1,-0.3371593952178955,-0.5779118537902832,-0.5432783961296082,0.5071389079093933,-0.9525060057640076,-0.2859607636928558,-0.1046828627586365,0,0,0,-1,65599.35267550001,1,2,1561243499.474078,1561243107.271691,28,1.054203,0,0,24.53997,0,0,1561243350.380748,65597.058919,0,-4.019043,74.58549,2650634390,177292352,1,1,0.14,-28.07869,-32.10987,4
1561243500.426227,121,0,0,1561243499.988804,4.602246712897534,-74.06496732502623,2656.404,0,56.6015625,4,10,-9999,1561243500.40792,-13.33188629150391,-24.615478515625,21.16937255859375,124.7108001708984,132.2544860839844,15,65600.29400354167,-0.9935302734375,-0.294525146484375,-0.117034912109375,65600.28893754167,-0.3295773701738841,0.1729443496092007,-0.07676082473157189,65600.27669954168,24.19000244140625,-22.91217041015625,-515.9243774414062,65600.28893754167,-1.385291775605732,-1.45572673939521,0.2902928464743039,-0.3307599425315857,0.1674592643976212,-0.07936083525419235,-0.05337971448898315,-0.02190318703651428,-0.02327358722686768,1,-0.3372603058815002,-0.5755428075790405,-0.5457955598831177,0.5070632100105286,-0.9518235325813293,-0.2862328290939331,-0.1100119277834892,0,0,0,-1,65599.35267550001,1,2,1561243499.474078,1561243107.271691,28,1.054203,0,0,24.53997,0,0,1561243350.380748,65597.058919,0,-4.019043,74.58549,2650634390,177292352,1,1,0.14,-28.07869,-32.52514,4
