loggingTime,loggingSample,identifierForVendor,deviceID,locationTimestamp_since1970,locationLatitude,locationLongitude,locationAltitude,locationSpeed,locationCourse,locationVerticalAccuracy,locationHorizontalAccuracy,locationFloor,locationHeadingTimestamp_since1970,locationHeadingX,locationHeadingY,locationHeadingZ,locationTrueHeading,locationMagneticHeading,locationHeadingAccuracy,accelerometerTimestamp_sinceReboot,accelerometerAccelerationX,accelerometerAccelerationY,accelerometerAccelerationZ,gyroTimestamp_sinceReboot,gyroRotationX,gyroRotationY,gyroRotationZ,magnetometerTimestamp_sinceReboot,magnetometerX,magnetometerY,magnetometerZ,motionTimestamp_sinceReboot,motionYaw,motionRoll,motionPitch,motionRotationRateX,motionRotationRateY,motionRotationRateZ,motionUserAccelerationX,motionUserAccelerationY,motionUserAccelerationZ,motionAttitudeReferenceFrame,motionQuaternionX,motionQuaternionY,motionQuaternionZ,motionQuaternionW,motionGravityX,motionGravityY,motionGravityZ,motionMagneticFieldX,motionMagneticFieldY,motionMagneticFieldZ,motionMagneticFieldCalibrationAccuracy,activityTimestamp_sinceReboot,activity,activityActivityConfidence,activityActivityStartDate,pedometerStartDate,pedometerNumberofSteps,pedometerAverageActivePace,pedometerCurrentPace,pedometerCurrentCadence,pedometerDistance,pedometerFloorAscended,pedometerFloorDescended,pedometerEndDate,altimeterTimestamp_sinceReboot,altimeterReset,altimeterRelativeAltitude,altimeterPressure,IP_en0,IP_pdp_ip0,deviceOrientation,batteryState,batteryLevel,avAudioRecorderPeakPower,avAudioRecorderAveragePower,label
1561824338.66691,1,0,0,1561824337.996137,4.634856800553049,-74.15105458355895,2552.392,0.23,286.171875,3,10,-9999,1561824338.636258,-20.82975006103516,14.77060127258301,16.0570068359375,64.93457794189453,72.42777252197266,15,156081.369775125,-0.5869293212890625,0.6370697021484375,-0.4690704345703125,156081.367730125,-0.03610207805322316,0.02513837647758495,-0.08611864016989233,156081.367853125,-99.74931335449219,-12.77932739257812,-547.0239868164062,156081.362665125,0.7608334452422514,-0.8600182635349569,-0.685436518136188,-0.02574874833226204,0.03072406724095345,-0.08976104855537415,-0.001386165618896484,0.001434206962585449,0.03425908088684082,1,-0.1378298699855804,-0.477983683347702,0.4479531049728394,0.7428812384605408,-0.5866875648498535,0.6330109834671021,-0.5050690770149231,0,0,0,-1,156081.144311125,3,2,1561824338.449532,1561824121.559794,12,3.602502,0,0,10.50458,0,0,1561824170.876706,156078.82869,0,0.07910156,75.3762,0,182478453,5,1,0.32,-26.63058,-36.82892,1
1561824338.682269,2,0,0,1561824337.996137,4.634856800553049,-74.15105458355895,2552.392,0.23,286.171875,3,10,-9999,1561824338.669042,-20.78040313720703,14.91835498809814,16.10821533203125,65.06936645507812,72.56256103515625,15,156081.390039125,-0.596435546875,0.6395721435546875,-0.47479248046875,156081.387994125,-0.06652123665632624,-0.01553981127672136,-0.09869941315942665,156081.387933125,-99.93763732910156,-12.92318725585938,-546.9866333007812,156081.382928125,0.758281816223508,-0.8615352922684343,-0.6846972200649121,-0.06720351427793503,-0.01684611663222313,-0.09512411803007126,-0.002691805362701416,0.004615902900695801,0.03342902660369873,1,-0.1377873867750168,-0.4783022999763489,0.4470165371894836,0.7432481050491333,-0.5878080725669861,0.6324384808540344,-0.5044831037521362,0,0,0,-1,156081.144311125,3,2,1561824338.449532,1561824121.559794,12,3.602502,0,0,10.50458,0,0,1561824170.876706,156078.82869,0,0.07910156,75.3762,0,182478453,5,1,0.32,-26.63058,-37.19545,1
1561824338.711209,3,0,0,1561824337.996137,4.634856800553049,-74.15105458355895,2552.392,0.23,286.171875,3,10,-9999,1561824338.669042,-20.78040313720703,14.91835498809814,16.10821533203125,65.06936645507812,72.56256103515625,15,156081.410302125,-0.6014862060546875,0.6267547607421875,-0.478668212890625,156081.408258125,-0.05910672986543663,0.03573775761610032,-0.1499487525446935,156081.408044125,-99.98139953613281,-12.86767578125,-547.0498657226562,156081.403192125,0.7550443470162567,-0.8638568894577112,-0.6837865415613552,-0.05820895731449127,0.00637505017220974,-0.1402348726987839,-0.01457327604293823,0.003612637519836426,0.02473121881484985,1,-0.1376581639051437,-0.4788577556610107,0.4458575844764709,0.7436104416847229,-0.5894153714179993,0.6317328214645386,-0.5034909844398499,0,0,0,-1,156081.144311125,3,2,1561824338.449532,1561824121.559794,12,3.602502,0,0,10.50458,0,0,1561824170.876706,156078.82869,0,0.07910156,75.3762,0,182478453,5,1,0.32,-26.63058,-37.95037,1
1561824338.722882,4,0,0,1561824337.996137,4.634856800553049,-74.15105458355895,2552.392,0.23,286.171875,3,10,-9999,1561824338.713055,-20.97126007080078,14.85286140441895,16.0826416015625,65.55656433105469,73.04975891113281,15,156081.430536125,-0.6021881103515625,0.62115478515625,-0.480194091796875,156081.428521125,-0.1094814871487215,0.1277808659469829,-0.1766629214392783,156081.428125125,-100.0678863525391,-13.12123107910156,-547.0341796875,156081.423456125,0.7508441503165124,-0.8654469783059205,-0.6822370153167002,-0.09429798275232315,0.1000781059265137,-0.1762530654668808,-0.01107561588287354,-0.006415903568267822,0.02509880065917969,1,-0.1376537829637527,-0.479017585515976,0.444206565618515,0.7444959878921509,-0.590959906578064,0.6305308938026428,-0.5031871795654297,0,0,0,-1,156081.144311125,3,2,1561824338.449532,1561824121.559794,12,3.602502,0,0,10.50458,0,0,1561824170.876706,156078.82869,0,0.07910156,75.3762,0,182478453,5,1,0.32,-26.63058,-37.95037,1
1561824338.742995,5,0,0,1561824337.996137,4.634856800553049,-74.15105458355895,2552.392,0.23,286.171875,3,10,-9999,1561824338.738034,-21.04035186767578,14.62232398986816,16.17376708984375,65.96656799316406,73.45976257324219,15,156081.450799125,-0.60009765625,0.618743896484375,-0.4808502197265625,156081.448785125,-0.1792416603228021,0.2020316613511551,-0.1984036369981402,156081.448236125,-100.1813201904297,-13.15939331054688,-547.0680541992188,156081.443719125,0.7450679405966961,-0.8661528382212038,-0.6810598496255639,-0.1651788204908371,0.1835937649011612,-0.2004305720329285,-0.008141517639160156,-0.009209632873535156,0.02450573444366455,1,-0.1383815705776215,-0.4787749052047729,0.4419518113136292,0.7458576560020447,-0.5918799042701721,0.6296167969703674,-0.5032502412796021,0,0,0,-1,156081.144311125,3,2,1561824338.449532,1561824121.559794,12,3.602502,0,0,10.50458,0,0,1561824170.876706,156078.82869,0,0.07910156,75.3762,0,182478453,5,1,0.32,-26.63058,-38.82249,1
1561824338.763525,6,0,0,1561824337.996137,4.634856800553049,-74.15105458355895,2552.392,0.23,286.171875,3,10,-9999,1561824338.738034,-21.04035186767578,14.62232398986816,16.17376708984375,65.96656799316406,73.45976257324219,15,156081.471063125,-0.6107025146484375,0.6180877685546875,-0.480316162109375,156081.469049125,-0.2213030939472955,0.2572837318548111,-0.2478225857661956,156081.468316125,-100.2079620361328,-13.29273986816406,-546.81689453125,156081.463983125,0.7376492712156426,-0.8666047767036904,-0.6803124444077119,-0.2121090441942215,0.2352537661790848,-0.2361805737018585,-0.01379638910293579,-0.01331329345703125,0.02124691009521484,1,-0.1397402435541153,-0.4783607423305511,0.4391165971755981,0.7475429177284241,-0.592465877532959,0.6290359497070312,-0.5032873153686523,0,0,0,-1,156081.144311125,3,2,1561824338.449532,1561824121.559794,12,3.602502,0,0,10.50458,0,0,1561824170.876706,156078.82869,0,0.07910156,75.3762,0,182478453,5,1,0.32,-26.63058,-39.647,1
1561824338.797721,7,0,0,1561824337.996137,4.634856800553049,-74.15105458355895,2552.392,0.23,286.171875,3,10,-9999,1561824338.763769,-21.19211578369141,14.42235565185547,16.28656005859375,66.524658203125,74.01785278320312,15,156081.491327125,-0.6132965087890625,0.6161346435546875,-0.490692138671875,156081.489312125,-0.2832540798569368,0.3215655163504897,-0.3124638970090349,156081.488427125,-100.2644958496094,-13.58584594726562,-547.0908203125,156081.484216125,0.7283451728444901,-0.8670356946696982,-0.6793507374931849,-0.2708748877048492,0.2977768182754517,-0.3008301556110382,-0.01906955242156982,-0.01024603843688965,0.02034521102905273,1,-0.1414618045091629,-0.4777833819389343,0.4355387091636658,0.7496784329414368,-0.5931435823440552,0.6282880306243896,-0.5034232139587402,0,0,0,-1,156081.144311125,3,2,1561824338.449532,1561824121.559794,12,3.602502,0,0,10.50458,0,0,1561824170.876706,156078.82869,0,0.07910156,75.3762,0,182478453,5,1,0.32,-26.63058,-40.75789,1
1561824338.803867,8,0,0,1561824337.996137,4.634856800553049,-74.15105458355895,2552.392,0.23,286.171875,3,10,-9999,1561824338.792412,-21.31109619140625,14.16154098510742,16.1004638671875,67.26799774169922,74.76119232177734,15,156081.511590125,-0.5973358154296875,0.6195831298828125,-0.4969635009765625,156081.509546125,-0.3032719965066264,0.3770114649815034,-0.3556467877685607,156081.508508125,-100.7409973144531,-13.89144897460938,-547.0864868164062,156081.504480125,0.7169632516743398,-0.8674307665326144,-0.678067312182964,-0.3024160265922546,0.365479439496994,-0.3561831414699554,-0.01163399219512939,-0.009979486465454102,0.01082044839859009,1,-0.1435476392507553,-0.4770106375217438,0.4311237037181854,0.752321183681488,-0.5939568281173706,0.6272890567779541,-0.5037098526954651,0,0,0,-1,156081.144311125,3,2,1561824338.449532,1561824121.559794,12,3.602502,0,0,10.50458,0,0,1561824170.876706,156078.82869,0,0.07910156,75.3762,0,182478453,5,1,0.32,-26.63058,-40.75789,1
1561824338.824143,9,0,0,1561824337.996137,4.634856800553049,-74.15105458355895,2552.392,0.23,286.171875,3,10,-9999,1561824338.814328,-21.66393280029297,13.90966320037842,16.11431884765625,68.12376403808594,75.61695861816406,15,156081.531854125,-0.57965087890625,0.6251983642578125,-0.5004425048828125,156081.529809125,-0.287597961910965,0.3586689429735826,-0.3288071839866332,156081.528619125,-100.7812194824219,-14.3397216796875,-547.1803588867188,156081.524743125,0.7049903861877082,-0.8673840690488652,-0.6765244558051475,-0.2962169945240021,0.3727575838565826,-0.3430076837539673,0.00645977258682251,-0.004489481449127197,0.005705833435058594,1,-0.145753800868988,-0.475998193025589,0.4264021217823029,0.7552237510681152,-0.594670832157135,0.6260867714881897,-0.5043631196022034,0,0,0,-1,156081.144311125,3,2,1561824338.449532,1561824121.559794,12,3.602502,0,0,10.50458,0,0,1561824170.876706,156078.82869,0,0.07910156,75.3762,0,182478453,5,1,0.32,-26.63058,-38.93699,1
1561824338.844361,10,0,0,1561824337.996137,4.634856800553049,-74.15105458355895,2552.392,0.23,286.171875,3,10,-9999,1561824338.83889,-21.78041839599609,13.46269416809082,16.0211181640625,68.89122009277344,76.38441467285156,15,156081.552087125,-0.56671142578125,0.6205596923828125,-0.5040283203125,156081.550073125,-0.2178018360621684,0.2900422111594397,-0.2626484035546667,156081.548700125,-101.3435821533203,-14.34500122070312,-547.3031005859375,156081.545007125,0.6942570897689138,-0.8673067119607311,-0.675234704326981,-0.2409816980361938,0.3005747199058533,-0.282504141330719,0.02202004194259644,-0.002033650875091553,1.758337020874023e-05,1,-0.1477727890014648,-0.4750765562057495,0.4221629202365875,0.7577887773513794,-0.5952469706535339,0.6250805258750916,-0.5049309134483337,0,0,0,-1,156081.144311125,3,2,1561824338.449532,1561824121.559794,12,3.602502,0,0,10.50458,0,0,1561824170.876706,156078.82869,0,0.07910156,75.3762,0,182478453,5,1,0.32,-26.63058,-39.33208,1
1561824338.877116,11,0,0,1561824337.996137,4.634856800553049,-74.15105458355895,2552.392,0.23,286.171875,3,10,-9999,1561824338.865267,-22.48762512207031,13.18741035461426,15.81683349609375,69.43557739257812,76.92877197265625,15,156081.572351125,-0.5587310791015625,0.6176300048828125,-0.512969970703125,156081.570337125,-0.1435521059224322,0.1806214440835721,-0.1893824451216058,156081.568811125,-101.5548553466797,-14.54588317871094,-547.2979736328125,156081.565271125,0.6860454132768656,-0.8672697593254668,-0.6740538979647784,-0.1688957959413528,0.1984760463237762,-0.2102781385183334,0.03483188152313232,-0.004880428314208984,-0.0003529787063598633,1,-0.1492261439561844,-0.4743590652942657,0.4188844263553619,0.7597702145576477,-0.5957907438278198,0.6241583824157715,-0.5054300427436829,0,0,0,-1,156081.144311125,3,2,1561824338.449532,1561824121.559794,12,3.602502,0,0,10.50458,0,0,1561824170.876706,156078.82869,0,0.07910156,75.3762,0,182478453,5,1,0.32,-26.63058,-37.59555,1
1561824338.8849,12,0,0,1561824337.996137,4.634856800553049,-74.15105458355895,2552.392,0.23,286.171875,3,10,-9999,1561824338.865267,-22.48762512207031,13.18741035461426,15.81683349609375,69.43557739257812,76.92877197265625,15,156081.592614125,-0.5643157958984375,0.6165771484375,-0.51300048828125,156081.590600125,-0.05168556517182182,0.1113065514437527,-0.1226319102954237,156081.588891125,-101.4120330810547,-14.63516235351562,-547.2647705078125,156081.585534125,0.6806953020861486,-0.8674037555532755,-0.6729077795246514,-0.07415489852428436,0.1227898001670837,-0.1418098658323288,0.03457510471343994,-0.004564404487609863,-0.006287574768066406,1,-0.1499774158000946,-0.4739203155040741,0.4167036712169647,0.7610941529273987,-0.5964036583900452,0.6232625246047974,-0.5058126449584961,0,0,0,-1,156081.144311125,3,2,1561824338.449532,1561824121.559794,12,3.602502,0,0,10.50458,0,0,1561824170.876706,156078.82869,0,0.07910156,75.3762,0,182478453,5,1,0.32,-26.63058,-37.59555,1
1561824338.905271,13,0,0,1561824337.996137,4.634856800553049,-74.15105458355895,2552.392,0.23,286.171875,3,10,-9999,1561824338.890201,-22.43032836914062,13.09923839569092,15.89605712890625,69.72027587890625,77.21347045898438,15,156081.612878125,-0.5644989013671875,0.6239166259765625,-0.512359619140625,156081.610864125,0.02024401902623733,0.03863208108879844,-0.05642492664772684,156081.609002125,-101.5419921875,-14.87924194335938,-547.611572265625,156081.605768125,0.6781708326029198,-0.8672542563529387,-0.6716467887669852,0.002967850537970662,0.04892091080546379,-0.0787840336561203,0.03665471076965332,-0.002784371376037598,-0.007307827472686768,1,-0.1500681489706039,-0.4735764265060425,0.4155583083629608,0.7619161605834961,-0.5969269275665283,0.6222759485244751,-0.5064098238945007,0,0,0,-1,156081.144311125,3,2,1561824338.449532,1561824121.559794,12,3.602502,0,0,10.50458,0,0,1561824170.876706,156078.82869,0,0.07910156,75.3762,0,182478453,5,1,0.32,-26.63058,-37.84821,1
1561824338.925512,14,0,0,1561824337.996137,4.634856800553049,-74.15105458355895,2552.392,0.23,286.171875,3,10,-9999,1561824338.915802,-22.53084564208984,12.89522743225098,15.6163330078125,69.77185821533203,77.26505279541016,15,156081.6331639167,-0.5724029541015625,0.628662109375,-0.5128021240234375,156081.6311189167,0.0690576312785177,-0.01897848487623167,0.0006234460111875496,156081.6291049167,-101.3744506835938,-14.61685180664062,-547.626220703125,156081.6260529167,0.6780866432793304,-0.8668958417477663,-0.6705653507470425,0.05664918571710587,-0.01227772980928421,-0.01335842162370682,0.02682340145111084,0.004898488521575928,-0.004369914531707764,1,-0.1497006863355637,-0.4733500182628632,0.4153508841991425,0.7622420787811279,-0.5972579717636108,0.6214290261268616,-0.5070589184761047,0,0,0,-1,156081.144311125,3,2,1561824338.449532,1561824121.559794,12,3.602502,0,0,10.50458,0,0,1561824170.876706,156078.82869,0,0.07910156,75.3762,0,182478453,5,1,0.32,-26.63058,-38.48381,1
1561824338.973087,15,0,0,1561824337.996137,4.634856800553049,-74.15105458355895,2552.392,0.23,286.171875,3,10,-9999,1561824338.941002,-22.44351959228516,12.94995498657227,15.57916259765625,69.65350341796875,77.14669799804688,15,156081.6534279167,-0.5880126953125,0.630035400390625,-0.51385498046875,156081.6513829167,0.126205073529983,-0.01809910908428751,0.01524233618295951,156081.6492159167,-101.3921813964844,-14.53852844238281,-547.474853515625,156081.6463169167,0.6797996961745519,-0.8663483701793889,-0.6696219528302957,0.109242357313633,-0.02933181449770927,0.0144966458901763,0.01855415105819702,0.007560491561889648,-0.006822109222412109,1,-0.149006187915802,-0.4731960296630859,0.4158333241939545,0.7622108459472656,-0.5974268317222595,0.6206896305084229,-0.5077653527259827,0,0,0,-1,156081.144311125,3,2,1561824338.449532,1561824121.559794,12,3.602502,0,0,10.50458,0,0,1561824170.876706,156078.82869,0,0.07910156,75.3762,0,182478453,5,1,0.32,-26.63058,-38.75433,1
1561824338.976641,16,0,0,1561824337.996137,4.634856800553049,-74.15105458355895,2552.392,0.23,286.171875,3,10,-9999,1561824338.966644,-22.40737152099609,13.07891845703125,15.63104248046875,69.45671844482422,76.94991302490234,15,156081.6736909167,-0.5892333984375,0.627288818359375,-0.5068511962890625,156081.6716469167,0.1379370970801091,0.005493568696615453,0.00280271073119939,156081.6692969167,-101.408935546875,-14.61697387695312,-547.58935546875,156081.6665809167,0.6825529077703788,-0.8649021198681734,-0.6680564119673867,0.1412016153335571,-0.002980900928378105,0.002341445535421371,0.007220566272735596,0.008712410926818848,-0.002277135848999023,1,-0.1479873806238174,-0.4727266430854797,0.4165609180927277,0.7623031735420227,-0.5974305272102356,0.6194614171981812,-0.509258508682251,0,0,0,-1,156081.144311125,3,2,1561824338.449532,1561824121.559794,12,3.602502,0,0,10.50458,0,0,1561824170.876706,156078.82869,0,0.07910156,75.3762,0,182478453,5,1,0.32,-26.63058,-38.75433,1
1561824338.986187,17,0,0,1561824337.996137,4.634856800553049,-74.15105458355895,2552.392,0.23,286.171875,3,10,-9999,1561824338.966644,-22.40737152099609,13.07891845703125,15.63104248046875,69.45671844482422,76.94991302490234,15,156081.6939239167,-0.6016998291015625,0.626220703125,-0.4993438720703125,156081.6919099167,0.1300291065392278,0.002391252342782148,-0.006057892531603243,156081.6894079167,-101.6392974853516,-14.935546875,-547.739501953125,156081.6868439167,0.6852312525079784,-0.8631636352181348,-0.6662939669464707,0.1280738413333893,-0.0003726007416844368,-0.002885540714487433,0.002432823181152344,0.0110430121421814,0.007221102714538574,1,-0.1469642370939255,-0.4721216559410095,0.41721311211586,0.7625194191932678,-0.5973730683326721,0.6180768609046936,-0.5110052824020386,0,0,0,-1,156081.144311125,3,2,1561824338.449532,1561824121.559794,12,3.602502,0,0,10.50458,0,0,1561824170.876706,156078.82869,0,0.07910156,75.3762,0,182478453,5,1,0.32,-26.63058,-39.17445,1
1561824339.006359,18,0,0,1561824337.996137,4.634856800553049,-74.15105458355895,2552.392,0.23,286.171875,3,10,-9999,1561824338.990969,-22.58983612060547,12.86837577819824,15.48834228515625,69.28072357177734,76.77391815185547,15,156081.7141879167,-0.604736328125,0.6210784912109375,-0.4901275634765625,156081.7121739167,0.145564390442096,-0.01906477129555024,-0.05312633532155469,156081.7094879167,-101.6434783935547,-14.81962585449219,-547.7883911132812,156081.7071079167,0.6874334983837807,-0.8619079275689794,-0.6642599538316517,0.1369352340698242,-0.01469028741121292,-0.04644340649247169,-0.004260063171386719,0.007577359676361084,0.01795876026153564,1,-0.1458376944065094,-0.471640944480896,0.4176840782165527,0.7627753019332886,-0.5976839661598206,0.6164765954017639,-0.5125723481178284,0,0,0,-1,156081.144311125,3,2,1561824338.449532,1561824121.559794,12,3.602502,0,0,10.50458,0,0,1561824170.876706,156078.82869,0,0.07910156,75.3762,0,182478453,5,1,0.32,-27.18786,-40.00824,1
1561824339.042693,19,0,0,1561824337.996137,4.634856800553049,-74.15105458355895,2552.392,0.23,286.171875,3,10,-9999,1561824339.037057,-22.65024566650391,12.9486837387085,15.4317626953125,69.14778900146484,76.64098358154297,15,156081.7344519167,-0.601348876953125,0.620574951171875,-0.4812469482421875,156081.7324379167,0.1442104393438998,-0.02490455093387599,-0.08817513316365151,156081.7295689167,-101.3571472167969,-14.75508117675781,-547.5752563476562,156081.7273719167,0.6892277694690631,-0.8612782669723719,-0.6613161942909938,0.1509314775466919,-0.02858772687613964,-0.0842009037733078,-0.004520893096923828,0.008448243141174316,0.03027248382568359,1,-0.1442883312702179,-0.4712924063205719,0.4179225564002991,0.7631547451019287,-0.5987353920936584,0.6141561269760132,-0.5141286849975586,0,0,0,-1,156081.144311125,3,2,1561824338.449532,1561824121.559794,12,3.602502,0,0,10.50458,0,0,1561824170.876706,156078.82869,0,0.07910156,75.3762,0,182478453,5,1,0.32,-27.74513,-40.9535,1
1561824339.046965,20,0,0,1561824337.996137,4.634856800553049,-74.15105458355895,2552.392,0.23,286.171875,3,10,-9999,1561824339.037057,-22.65024566650391,12.9486837387085,15.4317626953125,69.14778900146484,76.64098358154297,15,156081.7547149167,-0.59051513671875,0.6208038330078125,-0.4874114990234375,156081.7527009167,0.1201823347247688,-0.06890769530914624,-0.1288485272279957,156081.7496799167,-101.3533935546875,-14.50408935546875,-547.3073120117188,156081.7476049167,0.6900944927505691,-0.8614649254190427,-0.6580508496572685,0.111836276948452,-0.05948199331760406,-0.1213131174445152,0.004326224327087402,0.007137537002563477,0.0337681770324707,1,-0.1426495015621185,-0.4711591601371765,0.4178223013877869,0.7635998129844666,-0.6003497838973999,0.6115759015083313,-0.515320360660553,0,0,0,-1,156081.144311125,3,2,1561824338.449532,1561824121.559794,12,3.602502,0,0,10.50458,0,0,1561824170.876706,156078.82869,0,0.07910156,75.3762,0,182478453,5,1,0.32,-27.74513,-40.9535,1
1561824339.067221,21,0,0,1561824338.996121,4.634856800553049,-74.15105458355895,2552.428,0,317.109375,3,10,-9999,1561824339.037057,-22.65024566650391,12.9486837387085,15.4317626953125,69.14778900146484,76.64098358154297,15,156081.7749789167,-0.591064453125,0.616455078125,-0.4988250732421875,156081.7729339167,0.2157698441504379,-0.2239846308488963,-0.1534713157185413,156081.7697609167,-101.3606872558594,-14.50576782226562,-547.6445922851562,156081.7678679167,0.690399153087416,-0.8633310738070827,-0.6541288284317124,0.1792994737625122,-0.1685008853673935,-0.1562090516090393,0.01203382015228271,0.01003158092498779,0.02402424812316895,1,-0.1405115723609924,-0.471571296453476,0.4175347685813904,0.763899028301239,-0.6031287908554077,0.6084681153297424,-0.5157540440559387,0,0,0,-1,156081.144311125,3,2,1561824338.449532,1561824121.559794,12,3.602502,0,0,10.50458,0,0,1561824170.876706,156078.82869,0,0.07910156,75.3762,0,182478453,5,1,0.32,-28.30241,-39.08204,1
1561824339.087402,22,0,0,1561824338.996121,4.634856800553049,-74.15105458355895,2552.428,0,317.109375,3,10,-9999,1561824339.068776,-22.39317321777344,13.21324253082275,15.56219482421875,69.04199981689453,76.53519439697266,15,156081.7952429167,-0.5881500244140625,0.6111907958984375,-0.494384765625,156081.7931979167,0.3882878216691169,-0.4814630397793922,-0.08439371073184801,156081.7898719167,-101.4805450439453,-14.46641540527344,-547.582275390625,156081.7881319167,0.6931023676194746,-0.867598252495475,-0.6485310911946305,0.351728230714798,-0.4202620089054108,-0.113191269338131,0.01610052585601807,0.005282342433929443,0.01587373018264771,1,-0.1365897655487061,-0.4729250967502594,0.4180920124053955,0.7634685039520264,-0.6079126596450806,0.6040163636207581,-0.5153701901435852,0,0,0,-1,156081.144311125,3,2,1561824338.449532,1561824121.559794,12,3.602502,0,0,10.50458,0,0,1561824170.876706,156078.82869,0,0.07910156,75.3762,0,182478453,5,1,0.32,-28.85969,-39.1562,1
1561824339.111096,23,0,0,1561824338.996121,4.634856800553049,-74.15105458355895,2552.428,0,317.109375,3,10,-9999,1561824339.091932,-22.50254821777344,13.26787662506104,15.59295654296875,68.70323181152344,76.19642639160156,15,156081.8154759167,-0.5815582275390625,0.615234375,-0.4859771728515625,156081.8134619167,0.3986230172274964,-0.5922454811206174,0.0372126162277862,156081.8099519167,-100.8614349365234,-14.44085693359375,-547.2489624023438,156081.8083959167,0.6999867869662021,-0.8741928024701306,-0.6424610750616307,0.4182878136634827,-0.5961611270904541,0.007019287906587124,0.03205251693725586,0.01686018705368042,0.02393174171447754,1,-0.1309837698936462,-0.4753911197185516,0.420314759016037,0.7616968154907227,-0.6140989661216736,0.5991676449775696,-0.51369309425354,0,0,0,-1,156081.144311125,3,2,1561824338.449532,1561824121.559794,12,3.602502,0,0,10.50458,0,0,1561824170.876706,156078.82869,0,0.07910156,75.3762,0,182478453,5,1,0.32,-29.41697,-39.67612,1
1561824339.12791,24,0,0,1561824338.996121,4.634856800553049,-74.15105458355895,2552.428,0,317.109375,3,10,-9999,1561824339.118132,-22.02223205566406,13.2618293762207,15.884765625,68.13199615478516,75.62519073486328,15,156081.8357399167,-0.589111328125,0.6159515380859375,-0.4889068603515625,156081.8337249167,0.2603154744397573,-0.4682606849914334,0.09966294484181731,156081.8300329167,-100.981201171875,-14.35809326171875,-547.3162841796875,156081.8286589167,0.707893760691671,-0.881052555760505,-0.638632988520381,0.2950969040393829,-0.5111356973648071,0.08661717921495438,0.03456473350524902,0.02229452133178711,0.02329909801483154,1,-0.1260201185941696,-0.4781807363033295,0.4232254326343536,0.7591720819473267,-0.619373083114624,0.5960984230041504,-0.510924220085144,0,0,0,-1,156081.144311125,3,2,1561824338.449532,1561824121.559794,12,3.602502,0,0,10.50458,0,0,1561824170.876706,156078.82869,0,0.07910156,75.3762,0,182478453,5,1,0.32,-29.97425,-39.11429,1
1561824339.148271,25,0,0,1561824338.996121,4.634856800553049,-74.15105458355895,2552.428,0,317.109375,3,10,-9999,1561824339.142766,-21.71499633789062,13.44709968566895,16.02740478515625,67.67566680908203,75.16886138916016,15,156081.8560029167,-0.605682373046875,0.609039306640625,-0.494537353515625,156081.8539889167,0.1979362522268313,-0.2531571637457333,0.1249118425046406,156081.8501439167,-100.5733337402344,-14.23550415039062,-547.1178588867188,156081.8489229167,0.7142046269534381,-0.8856795594876579,-0.6373036485177522,0.1988492012023926,-0.3034475147724152,0.1205450519919395,0.02439743280410767,0.01655697822570801,0.01564931869506836,1,-0.1229601427912712,-0.4802122712135315,0.4257181584835052,0.7569947838783264,-0.6223436594009399,0.5950305461883545,-0.5085539817810059,0,0,0,-1,156081.144311125,3,2,1561824338.449532,1561824121.559794,12,3.602502,0,0,10.50458,0,0,1561824170.876706,156078.82869,0,0.07910156,75.3762,0,182478453,5,1,0.32,-30.53153,-39.30303,1
1561824339.168688,26,0,0,1561824338.996121,4.634856800553049,-74.15105458355895,2552.428,0,317.109375,3,10,-9999,1561824339.142766,-21.71499633789062,13.44709968566895,16.02740478515625,67.67566680908203,75.16886138916016,15,156081.8762669167,-0.6163177490234375,0.60113525390625,-0.48150634765625,156081.8742529167,0.2216964428403002,-0.09905174937164413,0.1131175009850066,156081.8702239167,-100.5963287353516,-13.92985534667969,-547.135009765625,156081.8691559167,0.7201657613049752,-0.8865315228601278,-0.6366163517370111,0.2215507924556732,-0.1418493092060089,0.1164461821317673,0.01127701997756958,0.01321852207183838,0.01627755165100098,1,-0.1210537925362587,-0.4808378219604492,0.4279275238513947,0.7556580305099487,-0.6230934262275696,0.5944780111312866,-0.508281946182251,0,0,0,-1,156081.144311125,3,2,1561824338.449532,1561824121.559794,12,3.602502,0,0,10.50458,0,0,1561824170.876706,156078.82869,0,0.07910156,75.3762,0,182478453,5,1,0.32,-31.08881,-39.7504,1
1561824339.200223,27,0,0,1561824338.996121,4.634856800553049,-74.15105458355895,2552.428,0,317.109375,3,10,-9999,1561824339.193502,-21.66347503662109,13.90094757080078,16.103515625,66.9193115234375,74.41250610351562,15,156081.8965309167,-0.627288818359375,0.5968017578125,-0.4653472900390625,156081.8944859167,0.1340499471530295,-0.02213060234244946,0.08299688274010145,156081.8903349167,-100.6141510009766,-13.755859375,-547.0928955078125,156081.8894199167,0.7257671425433518,-0.8848228277993168,-0.6357075235249383,0.1610192656517029,-0.03895168378949165,0.08883905410766602,0.0001593828201293945,0.007327258586883545,0.03608548641204834,1,-0.1196877136826515,-0.4804486930370331,0.4298126697540283,0.7550528645515442,-0.6226417422294617,0.5937469601631165,-0.5096877813339233,0,0,0,-1,156081.144311125,3,2,1561824338.449532,1561824121.559794,12,3.602502,0,0,10.50458,0,0,1561824170.876706,156078.82869,0,0.07910156,75.3762,0,182478453,5,1,0.32,-31.64609,-40.55339,1
1561824339.20912,28,0,0,1561824338.996121,4.634856800553049,-74.15105458355895,2552.428,0,317.109375,3,10,-9999,1561824339.193502,-21.66347503662109,13.90094757080078,16.103515625,66.9193115234375,74.41250610351562,15,156081.9167939167,-0.634521484375,0.5944976806640625,-0.462493896484375,156081.9147499167,0.02617061771609967,-0.07409340258374854,0.06013311214955316,156081.9104159167,-100.7882690429688,-13.68910217285156,-547.1632080078125,156081.9096839167,0.7289372168358662,-0.8836436509435993,-0.6355795288992574,0.04577736556529999,-0.06115978583693504,0.05647418648004532,-0.005678057670593262,-0.0002906918525695801,0.05169916152954102,1,-0.1191257461905479,-0.4801813364028931,0.4309208691120148,0.7546800971031189,-0.6220990419387817,0.5936439633369446,-0.5104698538780212,0,0,0,-1,156081.144311125,3,2,1561824338.449532,1561824121.559794,12,3.602502,0,0,10.50458,0,0,1561824170.876706,156078.82869,0,0.07910156,75.3762,0,182478453,5,1,0.32,-31.64609,-40.55339,1
1561824339.229295,29,0,0,1561824338.996121,4.634856800553049,-74.15105458355895,2552.428,0,317.109375,3,10,-9999,1561824339.220156,-21.75381469726562,14.05193996429443,15.99853515625,66.8038330078125,74.29702758789062,15,156081.9370579167,-0.6378936767578125,0.6006927490234375,-0.4708251953125,156081.9350129167,0.03286979943819399,-0.1204707550708244,0.04640717989128477,156081.9305269167,-100.5346221923828,-13.60171508789062,-546.9160766601562,156081.9299469167,0.7302005609242415,-0.8847592530764319,-0.636190937865808,0.01896599121391773,-0.1156211644411087,0.04509396851062775,-0.0167270302772522,0.001735091209411621,0.04300814867019653,1,-0.1188415288925171,-0.480732649564743,0.4315489232540131,0.7540149092674255,-0.6223872900009155,0.5941358804702759,-0.509545624256134,0,0,0,-1,156081.144311125,3,2,1561824338.449532,1561824121.559794,12,3.602502,0,0,10.50458,0,0,1561824170.876706,156078.82869,0,0.07910156,75.3762,0,182478453,5,1,0.32,-32.20337,-41.30541,1
1561824339.25005,30,0,0,1561824338.996121,4.634856800553049,-74.15105458355895,2552.428,0,317.109375,3,10,-9999,1561824339.244157,-21.44542694091797,14.08978176116943,16.123046875,66.69963073730469,74.19282531738281,15,156081.9572909167,-0.633026123046875,0.603240966796875,-0.4874114990234375,156081.9552769167,0.07023421584811471,-0.1559331418302105,0.04742264321493199,156081.9506079167,-100.4055480957031,-13.61053466796875,-547.0656127929688,156081.9502109167,0.7316864085738244,-0.8867350528591843,-0.6363981648912876,0.05973571538925171,-0.1625755727291107,0.04423802345991135,-0.01082742214202881,0.007656693458557129,0.02868378162384033,1,-0.1181453689932823,-0.4815840125083923,0.432254821062088,0.7531760931015015,-0.6232973337173462,0.5943025350570679,-0.5082370042800903,0,0,0,-1,156081.144311125,3,2,1561824338.449532,1561824121.559794,12,3.602502,0,0,10.50458,0,0,1561824170.876706,156078.82869,0,0.07910156,75.3762,0,182478453,5,1,0.32,-32.76065,-38.78958,1
1561824339.283969,31,0,0,1561824338.996121,4.634856800553049,-74.15105458355895,2552.428,0,317.109375,3,10,-9999,1561824339.27022,-21.54661560058594,14.11791706085205,16.11083984375,66.54405212402344,74.03724670410156,15,156081.9775549167,-0.63531494140625,0.6028289794921875,-0.490142822265625,156081.9755409167,0.07118682857003605,-0.0841313893644752,0.05683771661668912,156081.9707189167,-100.5436553955078,-13.5479736328125,-547.0518798828125,156081.9704749167,0.7338170751046783,-0.8883984824960942,-0.6362398742848046,0.07498923689126968,-0.1061157584190369,0.05077528953552246,-0.00867384672164917,0.009920239448547363,0.01891660690307617,1,-0.1172048822045326,-0.48232102394104,0.4331324696540833,0.7523468732833862,-0.6242149472236633,0.5941752195358276,-0.5072588920593262,0,0,0,-1,156081.144311125,3,2,1561824338.449532,1561824121.559794,12,3.602502,0,0,10.50458,0,0,1561824170.876706,156078.82869,0,0.07910156,75.3762,0,182478453,5,1,0.32,-33.8752,-40.06571,1
1561824339.290153,32,0,0,1561824338.996121,4.634856800553049,-74.15105458355895,2552.428,0,317.109375,3,10,-9999,1561824339.27022,-21.54661560058594,14.11791706085205,16.11083984375,66.54405212402344,74.03724670410156,15,156081.9978179167,-0.634033203125,0.59466552734375,-0.488128662109375,156081.9958039167,0.0370914423981876,-0.0006854976645863959,0.04270245649887554,156081.9907989167,-100.5561218261719,-13.52371215820312,-546.85888671875,156081.9907379167,0.7357889488396927,-0.8886463833197196,-0.6363108906035546,0.04451574757695198,-0.02361289411783218,0.04579117894172668,-0.01117485761642456,0.005483806133270264,0.01623278856277466,1,-0.116705633699894,-0.4825360476970673,0.4338984191417694,0.7518450617790222,-0.6243079304695129,0.5942323803901672,-0.5070775151252747,0,0,0,-1,156081.144311125,3,2,1561824338.449532,1561824121.559794,12,3.602502,0,0,10.50458,0,0,1561824170.876706,156078.82869,0,0.07910156,75.3762,0,182478453,5,1,0.32,-33.8752,-40.06571,1
1561824339.310536,33,0,0,1561824338.996121,4.634856800553049,-74.15105458355895,2552.428,0,317.109375,3,10,-9999,1561824339.295147,-21.52266693115234,14.17648696899414,16.27630615234375,66.43202972412109,73.92522430419922,15,156082.0180819167,-0.6394195556640625,0.58929443359375,-0.4842987060546875,156082.0160679167,0.02047731193772827,0.02716823786044335,0.03332253682350746,156082.0109099167,-100.4248199462891,-13.51394653320312,-547.0890502929688,156082.0109709167,0.7369034759142321,-0.8878917904643137,-0.6365262988275899,0.02020455151796341,0.02604307606816292,0.03190652281045914,-0.0126640796661377,-0.004455029964447021,0.01985782384872437,1,-0.1166919618844986,-0.4823371767997742,0.4343034029006958,0.7517409324645996,-0.6238257884979248,0.5944055914878845,-0.5074676871299744,0,0,0,-1,156081.144311125,3,2,1561824338.449532,1561824121.559794,12,3.602502,0,0,10.50458,0,0,1561824170.876706,156078.82869,0,0.07910156,75.3762,0,182478453,5,1,0.32,-34.43248,-40.34532,1
1561824339.330584,34,0,0,1561824338.996121,4.634856800553049,-74.15105458355895,2552.428,0,317.109375,3,10,-9999,1561824339.320869,-21.4749755859375,14.1638355255127,16.18878173828125,66.36676025390625,73.85995483398438,15,156082.0383459167,-0.64434814453125,0.5888214111328125,-0.47821044921875,156082.0363009167,0.06371879224123585,-0.004661330855965691,0.02459988530517093,156082.0309909167,-100.2408294677734,-13.42121887207031,-547.1239624023438,156082.0312349167,0.737848116761277,-0.8871267279454735,-0.6366177794794187,0.05096858739852905,-0.003912957385182381,0.02326403558254242,-0.01738250255584717,-0.004315018653869629,0.02539694309234619,1,-0.1166691780090332,-0.4821131825447083,0.4346266090869904,0.7517012357711792,-0.6233950853347778,0.5944791436195374,-0.5079103708267212,0,0,0,-1,156081.144311125,3,2,1561824338.449532,1561824121.559794,12,3.602502,0,0,10.50458,0,0,1561824170.876706,156078.82869,0,0.07910156,75.3762,0,182478453,5,1,0.32,-34.98976,-40.65347,1
1561824339.364505,35,0,0,1561824338.996121,4.634856800553049,-74.15105458355895,2552.428,0,317.109375,3,10,-9999,1561824339.346052,-21.24383544921875,14.24998188018799,16.10382080078125,66.25227355957031,73.74546813964844,15,156082.0586089167,-0.64013671875,0.594482421875,-0.4731597900390625,156082.0565649167,0.06606770032268575,-0.01999314925155186,0.02412930474055393,156082.0510719167,-100.2295837402344,-13.51651000976562,-547.0987548828125,156082.0514989167,0.7394740138661879,-0.8864553847891515,-0.6360662423379829,0.07410933077335358,-0.02382807433605194,0.01803145557641983,-0.02065861225128174,-0.003245830535888672,0.03311800956726074,1,-0.1161893382668495,-0.4819045662879944,0.4351218640804291,0.7516229748725891,-0.6233080625534058,0.5940355658531189,-0.5085360407829285,0,0,0,-1,156081.144311125,3,2,1561824338.449532,1561824121.559794,12,3.602502,0,0,10.50458,0,0,1561824170.876706,156078.82869,0,0.07910156,75.3762,0,182478453,5,1,0.32,-35.54704,-41.11991,1
1561824339.371262,36,0,0,1561824338.996121,4.634856800553049,-74.15105458355895,2552.428,0,317.109375,3,10,-9999,1561824339.346052,-21.24383544921875,14.24998188018799,16.10382080078125,66.25227355957031,73.74546813964844,15,156082.0788429167,-0.6350555419921875,0.5963134765625,-0.466278076171875,156082.0768279167,0.002598446275590313,0.001252750976773274,0.02408642784700366,156082.0711829167,-100.4168853759766,-13.45907592773438,-546.9613647460938,156082.0717619167,0.7407558543732469,-0.8861549578698078,-0.6357544139709987,0.01951798982918262,-0.009949810802936554,0.02247360907495022,-0.01575464010238647,0.001659035682678223,0.03949528932571411,1,-0.1158135905861855,-0.481837123632431,0.4355428516864777,0.7514803409576416,-0.623298704624176,0.5937846899032593,-0.5088403820991516,0,0,0,-1,156081.144311125,3,2,1561824338.449532,1561824121.559794,12,3.602502,0,0,10.50458,0,0,1561824170.876706,156078.82869,0,0.07910156,75.3762,0,182478453,5,1,0.32,-35.54704,-41.11991,1
1561824339.391348,37,0,0,1561824338.996121,4.634856800553049,-74.15105458355895,2552.428,0,317.109375,3,10,-9999,1561824339.37153,-21.38105010986328,14.2341365814209,16.176513671875,66.17845153808594,73.67164611816406,15,156082.0991059167,-0.62939453125,0.5977935791015625,-0.4680633544921875,156082.0970919167,-0.06368763325648193,0.01914892718599675,0.02468776962114354,156082.0912629167,-100.140380859375,-13.42637634277344,-547.2915649414062,156082.0920259167,0.7406685945328736,-0.8861371470399215,-0.636271234687797,-0.05379617214202881,0.01770259067416191,0.01631931029260159,-0.007838189601898193,0.002814888954162598,0.04240971803665161,1,-0.1160577163100243,-0.4818733930587769,0.4355807602405548,0.7513973116874695,-0.6230517029762268,0.5942004919052124,-0.5086572766304016,0,0,0,-1,156081.144311125,3,2,1561824338.449532,1561824121.559794,12,3.602502,0,0,10.50458,0,0,1561824170.876706,156078.82869,0,0.07910156,75.3762,0,182478453,5,1,0.32,-36.10432,-41.39471,1
1561824339.411684,38,0,0,1561824338.996121,4.634856800553049,-74.15105458355895,2552.428,0,317.109375,3,10,-9999,1561824339.395894,-21.22376251220703,14.32860660552979,15.94451904296875,66.22438049316406,73.71757507324219,15,156082.1193699167,-0.6289825439453125,0.5945892333984375,-0.4801788330078125,156082.1173559167,-0.05451970120388415,-0.00564403729820493,0.04094263965055119,156082.1113739167,-100.2074584960938,-13.52680969238281,-547.1357421875,156082.1122899167,0.7397178829951074,-0.88662373833977,-0.6375345136813247,-0.06480834633111954,-0.01028590183705091,0.03291346877813339,-0.007791459560394287,-0.0001385807991027832,0.03215599060058594,1,-0.1167167946696281,-0.4821178019046783,0.4354271292686462,0.7512274980545044,-0.6227169632911682,0.5952160954475403,-0.5078792572021484,0,0,0,-1,156081.144311125,3,2,1561824338.449532,1561824121.559794,12,3.602502,0,0,10.50458,0,0,1561824170.876706,156078.82869,0,0.07910156,75.3762,0,182478453,5,1,0.32,-34.04451,-34.04451,1
1561824339.453915,39,0,0,1561824338.996121,4.634856800553049,-74.15105458355895,2552.428,0,317.109375,3,10,-9999,1561824339.424537,-21.21331024169922,14.23075675964355,16.08734130859375,66.25995635986328,73.75315093994141,15,156082.1396339167,-0.6287841796875,0.59356689453125,-0.491424560546875,156082.1376189167,-0.007990015902455731,-0.0219638884582105,0.0525753272920173,156082.1314549167,-100.2255249023438,-13.45297241210938,-547.12255859375,156082.1325229167,0.7394705837958864,-0.8871211495565888,-0.6387158430458404,-0.02052956074476242,-0.02232099324464798,0.04544523358345032,-0.005978703498840332,-0.003406763076782227,0.02236843109130859,1,-0.1171692237257957,-0.4823991060256958,0.4355272054672241,0.750918447971344,-0.6224240064620972,0.5961649417877197,-0.5071249604225159,0,0,0,-1,156081.144311125,3,2,1561824338.449532,1561824121.559794,12,3.602502,0,0,10.50458,0,0,1561824170.876706,156078.82869,0,0.07910156,75.3762,0,182478453,5,1,0.32,-32.31189,-35.12523,1
1561824339.457503,40,0,0,1561824338.996121,4.634856800553049,-74.15105458355895,2552.428,0,317.109375,3,10,-9999,1561824339.424537,-21.21331024169922,14.23075675964355,16.08734130859375,66.25995635986328,73.75315093994141,15,156082.1598969167,-0.628662109375,0.5909881591796875,-0.4909820556640625,156082.1578529167,0.01566418089962806,-0.001717206270883093,0.03939667463776018,156082.1515659167,-100.1035766601562,-13.3475341796875,-546.8950805664062,156082.1527869167,0.7401689167999349,-0.8871747200510064,-0.6394644611906344,0.01523029897361994,-0.01033730059862137,0.04173944890499115,-0.008418738842010498,-0.004144966602325439,0.014576256275177,1,-0.1173065826296806,-0.4825291633605957,0.4358963072299957,0.7505991458892822,-0.6221049427986145,0.5967658162117004,-0.5068095326423645,0,0,0,-1,156081.144311125,3,2,1561824338.449532,1561824121.559794,12,3.602502,0,0,10.50458,0,0,1561824170.876706,156078.82869,0,0.07910156,75.3762,0,182478453,5,1,0.32,-32.31189,-35.12523,1
1561824339.473398,41,0,0,1561824338.996121,4.634856800553049,-74.15105458355895,2552.428,0,317.109375,3,10,-9999,1561824339.461218,-21.12807464599609,14.32619571685791,16.27838134765625,66.21179962158203,73.70499420166016,15,156082.1801609167,-0.628021240234375,0.59027099609375,-0.496612548828125,156082.1781159167,-0.00209084777182121,-0.004701011956207871,0.02919170765668555,156082.1716469167,-100.2936706542969,-13.49884033203125,-547.0960693359375,156082.1730499167,0.7408592181598673,-0.8869819462445826,-0.6398755957326228,0.0008510937914252281,-0.01148405857384205,0.02737888507544994,-0.00632631778717041,-0.007175624370574951,0.0117487907409668,1,-0.1173564195632935,-0.4825352430343628,0.4362009763717651,0.7504104375839233,-0.6218169927597046,0.5970956683158875,-0.5067744255065918,0,0,0,-1,156081.144311125,3,2,1561824338.449532,1561824121.559794,12,3.602502,0,0,10.50458,0,0,1561824170.876706,156079.77085,0,-0.0847168,75.37773,0,182478453,5,1,0.32,-32.31189,-35.73854,1
1561824339.492735,42,0,0,1561824338.996121,4.634856800553049,-74.15105458355895,2552.428,0,317.109375,3,10,-9999,1561824339.461218,-21.12807464599609,14.32619571685791,16.27838134765625,66.21179962158203,73.70499420166016,15,156082.2004249167,-0.62591552734375,0.5988311767578125,-0.4961090087890625,156082.1983799167,-0.003599794845460106,-0.02045707191344367,0.02010606728177123,156082.1917579167,-100.1679992675781,-13.29164123535156,-547.0866088867188,156082.1933139167,0.7411123250414088,-0.8871135780976663,-0.6402654398957587,-0.004531687125563622,-0.01950789615511894,0.01662743836641312,-0.003510355949401855,-0.00318533182144165,0.0110774040222168,1,-0.1174319609999657,-0.4826354384422302,0.4363575875759125,0.7502431869506836,-0.6217032670974731,0.5974083542823792,-0.5065455436706543,0,0,0,-1,156081.144311125,3,2,1561824338.449532,1561824121.559794,12,3.602502,0,0,10.50458,0,0,1561824170.876706,156079.77085,0,-0.0847168,75.37773,0,182478453,5,1,0.32,-31.35316,-36.04015,1
1561824339.528592,43,0,0,1561824338.996121,4.634856800553049,-74.15105458355895,2552.428,0,317.109375,3,10,-9999,1561824339.524374,-21.0361328125,14.21416759490967,16.1148681640625,66.14638519287109,73.63957977294922,15,156082.2206579167,-0.6207733154296875,0.601654052734375,-0.49114990234375,156082.2186439167,-0.008174040333780205,-0.01334749706736813,0.02145655627055041,156082.2118379167,-99.96705627441406,-13.47520446777344,-547.1090087890625,156082.2135779167,0.7412602361406874,-0.8875557699336563,-0.6405979477306432,-0.006815081462264061,-0.0208117812871933,0.01655872724950314,-0.004523873329162598,0.002148032188415527,0.01192820072174072,1,-0.11744075268507,-0.4828406572341919,0.4364850521087646,0.7500355839729309,-0.6217730641365051,0.5976749658584595,-0.5061451196670532,0,0,0,-1,156081.144311125,3,2,1561824338.449532,1561824121.559794,12,3.602502,0,0,10.50458,0,0,1561824170.876706,156079.77085,0,-0.0847168,75.37773,0,182478453,5,1,0.32,-31.21173,-36.11446,1
1561824339.533183,44,0,0,1561824338.996121,4.634856800553049,-74.15105458355895,2552.428,0,317.109375,3,10,-9999,1561824339.524374,-21.0361328125,14.21416759490967,16.1148681640625,66.14638519287109,73.63957977294922,15,156082.2409209167,-0.618560791015625,0.597381591796875,-0.4916229248046875,156082.2389069167,-0.002378469169549768,0.005963083996796422,0.03050145028078652,156082.2319489167,-100.1683197021484,-13.36395263671875,-547.0965576171875,156082.2338409167,0.741380357039764,-0.8878506558135719,-0.6410662794475049,-0.01006440445780754,-0.0100387604907155,0.02690936997532845,0.002167701721191406,0.003374814987182617,0.01292610168457031,1,-0.1175459176301956,-0.4830015003681183,0.4366122782230377,0.7498413920402527,-0.6217050552368164,0.5980503559112549,-0.5057849884033203,0,0,0,-1,156081.144311125,3,2,1561824338.449532,1561824121.559794,12,3.602502,0,0,10.50458,0,0,1561824170.876706,156079.77085,0,-0.0847168,75.37773,0,182478453,5,1,0.32,-31.21173,-36.11446,1
1561824339.553489,45,0,0,1561824338.996121,4.634856800553049,-74.15105458355895,2552.428,0,317.109375,3,10,-9999,1561824339.548005,-21.18608093261719,14.39294528961182,16.06390380859375,66.12112426757812,73.61431884765625,15,156082.2611849167,-0.61456298828125,0.5951385498046875,-0.4911346435546875,156082.2591709167,0.00194330864743082,0.03054459349044581,0.0309411381767586,156082.2520299167,-100.1376342773438,-13.33407592773438,-547.0467529296875,156082.2541049167,0.7417280274172309,-0.8874834521144902,-0.6415069089552247,-0.001044278033077717,0.02391201630234718,0.02648379653692245,0.005821168422698975,-0.002608776092529297,0.01588720083236694,1,-0.1177289634943008,-0.4829248785972595,0.4367819428443909,0.7497633099555969,-0.6213149428367615,0.5984034538269043,-0.5058469176292419,0,0,0,-1,156081.144311125,3,2,1561824338.449532,1561824121.559794,12,3.602502,0,0,10.50458,0,0,1561824170.876706,156079.77085,0,-0.0847168,75.37773,0,182478453,5,1,0.32,-31.21173,-36.8801,1
1561824339.577148,46,0,0,1561824338.996121,4.634856800553049,-74.15105458355895,2552.428,0,317.109375,3,10,-9999,1561824339.574536,-21.01410675048828,14.47052574157715,16.11932373046875,66.08251953125,73.57571411132812,15,156082.2814489167,-0.6150360107421875,0.594970703125,-0.4889678955078125,156082.2794349167,0.001361940581466522,0.02899436741991068,0.03793779499261478,156082.2721409167,-99.95123291015625,-13.18362426757812,-547.10009765625,156082.2743379167,0.7422244644259984,-0.886662728328502,-0.641948439076051,0.002873764606192708,0.02715015411376953,0.03199760615825653,0.004789054393768311,-0.003176093101501465,0.01679450273513794,1,-0.1179755926132202,-0.4826872050762177,0.436980664730072,0.7497618198394775,-0.6206947565078735,0.5987571477890015,-0.5061896443367004,0,0,0,-1,156081.144311125,3,2,1561824338.449532,1561824121.559794,12,3.602502,0,0,10.50458,0,0,1561824170.876706,156079.77085,0,-0.0847168,75.37773,0,182478453,5,1,0.32,-31.21173,-37.31429,1
1561824339.610643,47,0,0,1561824338.996121,4.634856800553049,-74.15105458355895,2552.428,0,317.109375,3,10,-9999,1561824339.598748,-21.06961822509766,14.27010059356689,16.07049560546875,66.05085754394531,73.54405212402344,15,156082.3017119167,-0.61529541015625,0.598724365234375,-0.489227294921875,156082.2996679167,-0.003357713502371904,0.02201262430615895,0.03628583616843863,156082.2922209167,-100.0444488525391,-13.51983642578125,-547.1188354492188,156082.2946019167,0.7427305599391537,-0.8859009153593366,-0.6425068933420353,-0.004124223720282316,0.02237696945667267,0.03197736293077469,0.005151271820068359,-0.0004189014434814453,0.01847469806671143,1,-0.1182567402720451,-0.4824831187725067,0.4372023642063141,0.7497196793556213,-0.6200499534606934,0.5992043018341064,-0.5064507722854614,0,0,0,-1,156081.144311125,3,2,1561824338.449532,1561824121.559794,12,3.602502,0,0,10.50458,0,0,1561824170.876706,156079.77085,0,-0.0847168,75.37773,0,182478453,5,1,0.32,-31.21173,-38.12041,1
1561824339.614979,48,0,0,1561824338.996121,4.634856800553049,-74.15105458355895,2552.428,0,317.109375,3,10,-9999,1561824339.598748,-21.06961822509766,14.27010059356689,16.07049560546875,66.05085754394531,73.54405212402344,15,156082.3219759167,-0.61846923828125,0.598419189453125,-0.4906158447265625,156082.3199309167,-0.001960619194516335,-0.005844040696069881,0.03085778123463912,156082.3123019167,-99.93849182128906,-13.44721984863281,-546.894287109375,156082.3148659167,0.7430883818468538,-0.885485224595255,-0.6430859787522896,-0.006054483354091644,-0.006144686602056026,0.0274989940226078,0.003390073776245117,-0.001828491687774658,0.01701724529266357,1,-0.1185068115592003,-0.4824020862579346,0.437391608953476,0.7496218681335449,-0.6195705533027649,0.5996678471565247,-0.5064887404441833,0,0,0,-1,156081.144311125,3,2,1561824338.449532,1561824121.559794,12,3.602502,0,0,10.50458,0,0,1561824170.876706,156079.77085,0,-0.0847168,75.37773,0,182478453,5,1,0.32,-31.21173,-38.12041,1
1561824339.634399,49,0,0,1561824338.996121,4.634856800553049,-74.15105458355895,2552.428,0,317.109375,3,10,-9999,1561824339.62543,-21.22292327880859,14.36737632751465,16.26666259765625,66.02407073974609,73.51726531982422,15,156082.3422089167,-0.62701416015625,0.599029541015625,-0.490814208984375,156082.3401949167,0.01421994864047809,-0.01474858611685882,0.02726757376910331,156082.3324129167,-100.2188568115234,-13.34182739257812,-546.8800048828125,156082.3351289167,0.7434979784158057,-0.8855945666550069,-0.6435332832005013,0.008868006989359856,-0.02540094032883644,0.02589044533669949,-0.004620492458343506,-0.001255631446838379,0.01552855968475342,1,-0.1185737326741219,-0.4825087189674377,0.4376130700111389,0.7494134306907654,-0.619418203830719,0.6000257134437561,-0.5062512159347534,0,0,0,-1,156081.144311125,3,2,1561824338.449532,1561824121.559794,12,3.602502,0,0,10.50458,0,0,1561824170.876706,156079.77085,0,-0.0847168,75.37773,0,182478453,5,1,0.32,-31.21173,-38.82195,1
1561824339.656741,50,0,0,1561824338.996121,4.634856800553049,-74.15105458355895,2552.428,0,317.109375,3,10,-9999,1561824339.649224,-21.10803985595703,14.33653736114502,16.02740478515625,65.98951721191406,73.48271179199219,15,156082.3624729167,-0.625640869140625,0.6002349853515625,-0.4892730712890625,156082.3604589167,-0.005629123596100486,9.960222476896351e-05,0.006650179558036866,156082.3524939167,-100.0819396972656,-13.36244201660156,-547.2109375,156082.3553929167,0.7439862640865106,-0.8856975403548715,-0.6437249293720769,0.003115846076980233,-0.01250511407852173,0.009765802882611752,-0.007876992225646973,-0.0002492070198059082,0.015880286693573,1,-0.1185146272182465,-0.4825939834117889,0.4378284513950348,0.7492420673370361,-0.6193812489509583,0.6001790165901184,-0.506114661693573,0,0,0,-1,156081.144311125,3,2,1561824338.449532,1561824121.559794,12,3.602502,0,0,10.50458,0,0,1561824170.876706,156079.77085,0,-0.0847168,75.37773,0,182478453,5,1,0.32,-31.21173,-39.44041,1
1561824339.679464,51,0,0,1561824338.996121,4.634856800553049,-74.15105458355895,2552.428,0,317.109375,3,10,-9999,1561824339.675584,-21.30640411376953,14.21597576141357,16.16729736328125,66.03276824951172,73.52596282958984,15,156082.3827369167,-0.6229705810546875,0.6013641357421875,-0.4898223876953125,156082.3807219167,-0.04446467019218098,0.01696034140216963,-0.002605104178315511,156082.3726049167,-100.3460388183594,-13.57855224609375,-547.0345458984375,156082.3756569167,0.7435861736443933,-0.8859396141669302,-0.6439893781934329,-0.03960525244474411,0.01202845852822065,-0.005884795449674129,-0.004306972026824951,-0.0007659196853637695,0.01697266101837158,1,-0.1186702698469162,-0.4826854467391968,0.4377292990684509,0.7492163777351379,-0.6193807721138,0.6003905534744263,-0.5058642625808716,0,0,0,-1,156081.144311125,3,2,1561824338.449532,1561824121.559794,12,3.602502,0,0,10.50458,0,0,1561824170.876706,156079.77085,0,-0.0847168,75.37773,0,182478453,5,1,0.32,-31.21173,-40.01102,1
1561824339.695171,52,0,0,1561824338.996121,4.634856800553049,-74.15105458355895,2552.428,0,317.109375,3,10,-9999,1561824339.675584,-21.30640411376953,14.21597576141357,16.16729736328125,66.03276824951172,73.52596282958984,15,156082.4029999167,-0.6165618896484375,0.602691650390625,-0.4891815185546875,156082.4009859167,-0.02251063543000377,0.02012577467383781,-0.007142331727483509,156082.3926849167,-100.16064453125,-13.31144714355469,-547.0205688476562,156082.3958899167,0.7426441013456753,-0.8863676591102377,-0.644441371801746,-0.03170764818787575,0.00912002008408308,-0.007803336717188358,-0.003690481185913086,0.002122819423675537,0.01282799243927002,1,-0.1189955994486809,-0.4828315675258636,0.4374639987945557,0.7492255568504333,-0.6193869113922119,0.6007519364356995,-0.5054274201393127,0,0,0,-1,156081.144311125,3,2,1561824338.449532,1561824121.559794,12,3.602502,0,0,10.50458,0,0,1561824170.876706,156079.77085,0,-0.0847168,75.37773,0,182478453,5,1,0.32,-31.21173,-40.01102,1
1561824339.716057,53,0,0,1561824338.996121,4.634856800553049,-74.15105458355895,2552.428,0,317.109375,3,10,-9999,1561824339.699801,-21.17173767089844,14.38991260528564,16.134765625,66.08920288085938,73.5823974609375,15,156082.4232639167,-0.6168365478515625,0.6057891845703125,-0.4915771484375,156082.4212189167,0.0004191815555784721,0.01990340072281619,0.006214486403699902,156082.4127659167,-99.96316528320312,-13.518798828125,-547.065185546875,156082.4161529167,0.7421343863006464,-0.8864117416793555,-0.6445790388566212,-0.007391655817627907,0.01163377705961466,0.001078038942068815,0.003729343414306641,0.002043306827545166,0.01439642906188965,1,-0.1191673949360847,-0.4828303754329681,0.4372945725917816,0.7492980360984802,-0.6193451881408691,0.6008619666099548,-0.5053479075431824,0,0,0,-1,156081.144311125,3,2,1561824338.449532,1561824121.559794,12,3.602502,0,0,10.50458,0,0,1561824170.876706,156079.77085,0,-0.0847168,75.37773,0,182478453,5,1,0.32,-31.21173,-40.35937,1
1561824339.735886,54,0,0,1561824338.996121,4.634856800553049,-74.15105458355895,2552.428,0,317.109375,3,10,-9999,1561824339.726112,-21.14164733886719,14.39827060699463,16.25921630859375,66.08995056152344,73.58314514160156,15,156082.4435279167,-0.6158905029296875,0.599853515625,-0.487518310546875,156082.4414829167,0.0162199826191276,0.001471662818377787,0.01584500953764444,156082.4328769167,-100.1166687011719,-13.31231689453125,-546.855224609375,156082.4364169167,0.7422864829433078,-0.8860874255508174,-0.6446493906021104,0.01144514791667461,0.003958014771342278,0.01205106172710657,0.004539668560028076,0.003070414066314697,0.01670664548873901,1,-0.1192313879728317,-0.4827244579792023,0.4373419582843781,0.7493283152580261,-0.6191484332084656,0.6009182333946228,-0.5055219531059265,0,0,0,-1,156081.144311125,3,2,1561824338.449532,1561824121.559794,12,3.602502,0,0,10.50458,0,0,1561824170.876706,156079.77085,0,-0.0847168,75.37773,0,182478453,5,1,0.32,-31.21173,-38.32098,1
1561824339.762198,55,0,0,1561824338.996121,4.634856800553049,-74.15105458355895,2552.428,0,317.109375,3,10,-9999,1561824339.751633,-21.28902435302734,14.32189559936523,16.19903564453125,66.06013488769531,73.55332946777344,15,156082.4637909167,-0.61968994140625,0.5982513427734375,-0.4784698486328125,156082.4617469167,0.01651825666121648,-0.01290674390696002,0.001785383194789121,156082.4529579167,-100.2697906494141,-13.43304443359375,-546.9523315429688,156082.4566809167,0.7427433792199624,-0.8860186981431633,-0.6445996420075814,0.01918829046189785,-0.01593393459916115,0.001908146310597658,-0.0001410841941833496,-0.002581357955932617,0.02230703830718994,1,-0.1191150471568108,-0.482721358537674,0.4375022053718567,0.7492552399635315,-0.6191368103027344,0.6008784770965576,-0.5055834054946899,0,0,0,-1,156081.144311125,3,2,1561824338.449532,1561824121.559794,12,3.602502,0,0,10.50458,0,0,1561824170.876706,156079.77085,0,-0.0847168,75.37773,0,182478453,5,1,0.32,-31.21173,-39.00886,1
1561824339.776619,56,0,0,1561824338.996121,4.634856800553049,-74.15105458355895,2552.428,0,317.109375,3,10,-9999,1561824339.751633,-21.28902435302734,14.32189559936523,16.19903564453125,66.06013488769531,73.55332946777344,15,156082.4840239167,-0.6217041015625,0.600372314453125,-0.481903076171875,156082.4820099167,-0.01719949326805875,-0.02135615509745442,-0.00278353597135082,156082.4730689167,-100.1911010742188,-13.26702880859375,-546.9342651367188,156082.4769439167,0.7428083210202657,-0.886430295294257,-0.6444853017224308,-0.01145564019680023,-0.02706514671444893,-0.004386767745018005,-0.001344680786132812,-0.002947688102722168,0.02443015575408936,1,-0.1189608722925186,-0.4828688502311707,0.437535285949707,0.749165415763855,-0.6193981170654297,0.6007870435714722,-0.5053719878196716,0,0,0,-1,156081.144311125,3,2,1561824338.449532,1561824121.559794,12,3.602502,0,0,10.50458,0,0,1561824170.876706,156079.77085,0,-0.0847168,75.37773,0,182478453,5,1,0.32,-31.21173,-39.71479,1
1561824339.796498,57,0,0,1561824338.996121,4.634856800553049,-74.15105458355895,2552.428,0,317.109375,3,10,-9999,1561824339.776817,-21.22806549072266,14.39118480682373,16.2509765625,66.06638336181641,73.55957794189453,15,156082.5042879167,-0.6177825927734375,0.606903076171875,-0.4855499267578125,156082.5022739167,-0.02144403941342703,-0.02308827507044196,-0.006097307315736416,156082.4931489167,-100.2082977294922,-13.60194396972656,-546.864990234375,156082.4972079167,0.7422491156799272,-0.8873606421548442,-0.6446846358936151,-0.02810066193342209,-0.028946403414011,-0.007217707578092813,-2.157688140869141e-05,0.003576278686523438,0.02133667469024658,1,-0.1189769208431244,-0.4832023978233337,0.4374086260795593,0.7490217685699463,-0.6197751760482788,0.6009464263916016,-0.5047198534011841,0,0,0,-1,156081.144311125,3,2,1561824338.449532,1561824121.559794,12,3.602502,0,0,10.50458,0,0,1561824170.876706,156079.77085,0,-0.0847168,75.37773,0,182478453,5,1,0.32,-31.21173,-40.05172,1
1561824339.846493,58,0,0,1561824338.996121,4.634856800553049,-74.15105458355895,2552.428,0,317.109375,3,10,-9999,1561824339.827517,-21.21600341796875,14.12667465209961,16.13885498046875,66.12812805175781,73.62132263183594,15,156082.5245519167,-0.6149444580078125,0.611480712890625,-0.4856109619140625,156082.5225379167,-0.004774781518403066,-0.001268463627204741,-0.001783785298135074,156082.5132599167,-100.2044067382812,-13.21974182128906,-547.0755615234375,156082.5174719167,0.7417539415568494,-0.8880706657581446,-0.6447633717241222,-0.005502409301698208,-0.01006459258496761,-0.01149341277778149,0.004099369049072266,0.007968902587890625,0.01912713050842285,1,-0.1189747005701065,-0.4834460616111755,0.4372762739658356,0.7489421963691711,-0.6200966835021973,0.6010093092918396,-0.5042498707771301,0,0,0,-1,156081.144311125,3,2,1561824338.449532,1561824121.559794,12,3.602502,0,0,10.50458,0,0,1561824170.876706,156079.77085,0,-0.0847168,75.37773,0,182478453,5,1,0.32,-31.21173,-41.65239,1
1561824339.875794,59,0,0,1561824338.996121,4.634856800553049,-74.15105458355895,2552.428,0,317.109375,3,10,-9999,1561824339.851828,-21.23551940917969,14.14640045166016,16.08599853515625,66.13358306884766,73.62677764892578,15,156082.5448149167,-0.6135406494140625,0.60980224609375,-0.485809326171875,156082.5428009167,-0.01152163382400981,0.001883121206795029,0.01107848381862062,156082.5333409167,-100.1964721679688,-13.64613342285156,-547.026123046875,156082.5377049167,0.7415882206010739,-0.8882613582245094,-0.6448327631667201,-0.01084231398999691,-0.0002258107997477055,0.005740168504416943,0.005627989768981934,0.008523821830749512,0.0166938304901123,1,-0.1190024763345718,-0.4835139811038971,0.4372351467609406,0.7489179372787476,-0.6201604604721069,0.6010648012161255,-0.504105269908905,0,0,0,-1,156081.144311125,3,2,1561824338.449532,1561824121.559794,12,3.602502,0,0,10.50458,0,0,1561824170.876706,156079.77085,0,-0.0847168,75.37773,0,182478453,5,1,0.32,-31.21173,-42.50922,1
1561824339.879946,60,0,0,1561824338.996121,4.634856800553049,-74.15105458355895,2552.428,0,317.109375,3,10,-9999,1561824339.877882,-21.29665374755859,14.28746223449707,16.13134765625,66.12127685546875,73.61447143554688,15,156082.5650789167,-0.616058349609375,0.60614013671875,-0.4806060791015625,156082.5630339167,-0.005770004817765678,-0.0145294079591453,0.02170689341301785,156082.5534519167,-100.2249145507812,-13.55744934082031,-547.106201171875,156082.5579689167,0.7415155065015955,-0.8885020537179302,-0.6451888701149011,-0.008218567818403244,-0.01469476521015167,0.01805249415338039,0.003462135791778564,0.007384777069091797,0.01854568719863892,1,-0.119118332862854,-0.4836324453353882,0.4372714459896088,0.7488017678260803,-0.6201155781745911,0.6013493537902832,-0.5038209557533264,0,0,0,-1,156081.144311125,3,2,1561824338.449532,1561824121.559794,12,3.602502,0,0,10.50458,0,0,1561824170.876706,156079.77085,0,-0.0847168,75.37773,0,182478453,5,1,0.32,-31.21173,-42.50922,1
1561824339.881836,61,0,0,1561824338.996121,4.634856800553049,-74.15105458355895,2552.428,0,317.109375,3,10,-9999,1561824339.877882,-21.29665374755859,14.28746223449707,16.13134765625,66.12127685546875,73.61447143554688,15,156082.5853429167,-0.6150970458984375,0.60260009765625,-0.4810791015625,156082.5832979167,-0.007814513586619509,-0.04677709296669678,0.02180303352836972,156082.5735319167,-100.2618103027344,-13.38133239746094,-547.0562133789062,156082.5782319167,0.7416812515727567,-0.8890071766482903,-0.6455333518610754,-0.00563396979123354,-0.04480712488293648,0.01794303953647614,0.006164908409118652,0.004027307033538818,0.02226746082305908,1,-0.1191137582063675,-0.483862966299057,0.4374111592769623,0.7485719323158264,-0.6202090978622437,0.6016245484352112,-0.5033770799636841,0,0,0,-1,156081.144311125,3,2,1561824338.449532,1561824121.559794,12,3.602502,0,0,10.50458,0,0,1561824170.876706,156079.77085,0,-0.0847168,75.37773,0,182478453,5,1,0.32,-31.21173,-42.50922,1
1561824339.916225,62,0,0,1561824338.996121,4.634856800553049,-74.15105458355895,2552.428,0,317.109375,3,10,-9999,1561824339.902396,-21.23487854003906,14.42662143707275,16.45257568359375,66.12203216552734,73.61522674560547,15,156082.6056059167,-0.615936279296875,0.6069488525390625,-0.4805908203125,156082.6035619167,-0.02046319718395085,-0.05615381684875677,0.02576342038542655,156082.5936129167,-100.1932525634766,-13.29855346679688,-546.6150512695312,156082.5984959167,0.7417217122053479,-0.8901476528487168,-0.6459923164495905,-0.01841394603252411,-0.06182951852679253,0.01852067932486534,0.006615519523620605,0.002165377140045166,0.02475821971893311,1,-0.1190489530563354,-0.4843341112136841,0.4375576376914978,0.7481918931007385,-0.6205681562423706,0.6019911170005798,-0.5024956464767456,0,0,0,-1,156081.144311125,3,2,1561824338.449532,1561824121.559794,12,3.602502,0,0,10.50458,0,0,1561824170.876706,156079.77085,0,-0.0847168,75.37773,0,182478453,5,1,0.32,-31.21173,-35.31976,1
1561824339.918691,63,0,0,1561824338.996121,4.634856800553049,-74.15105458355895,2552.428,0,317.109375,3,10,-9999,1561824339.902396,-21.23487854003906,14.42662143707275,16.45257568359375,66.12203216552734,73.61522674560547,15,156082.625853375,-0.6179656982421875,0.608245849609375,-0.48089599609375,156082.623838375,-0.02561934337045326,-0.04830042111022211,0.03687066634382003,156082.6137239167,-100.2998504638672,-13.40237426757812,-546.8225708007812,156082.6187599167,0.7416980376454563,-0.8913247244415766,-0.6466921942685485,-0.02314425259828568,-0.05408371612429619,0.03131317347288132,0.003186047077178955,0.00398707389831543,0.01985627412796021,1,-0.1190935745835304,-0.4848368167877197,0.4377157390117645,0.7477666139602661,-0.620831310749054,0.6025497913360596,-0.5014999508857727,0,0,0,-1,156081.144311125,3,2,1561824338.449532,1561824121.559794,12,3.602502,0,0,10.50458,0,0,1561824170.876706,156079.77085,0,-0.0847168,75.37773,0,182478453,5,1,0.32,-31.21173,-35.31976,1
1561824339.938272,64,0,0,1561824338.996121,4.634856800553049,-74.15105458355895,2552.428,0,317.109375,3,10,-9999,1561824339.928582,-20.88774108886719,14.46781158447266,16.3118896484375,66.11904144287109,73.61223602294922,15,156082.646116375,-0.6174774169921875,0.6103668212890625,-0.48394775390625,156082.644102375,-0.03792128339385629,-0.03953888743997042,0.05348692733315142,156082.633818375,-99.74432373046875,-13.29397583007812,-546.9146728515625,156082.639036375,0.7417420102471652,-0.8923353145248684,-0.6476917334709481,-0.03575192764401436,-0.0454430878162384,0.04693154990673065,0.002613067626953125,0.006393969058990479,0.01857578754425049,1,-0.1192849650979042,-0.4853082001209259,0.4379308819770813,0.7473042607307434,-0.6208686232566833,0.6033472418785095,-0.500494122505188,0,0,0,-1,156081.144311125,3,2,1561824338.449532,1561824121.559794,12,3.602502,0,0,10.50458,0,0,1561824170.876706,156079.77085,0,-0.0847168,75.37773,0,182478453,5,1,0.32,-31.21173,-35.86844,1
1561824339.95865,65,0,0,1561824338.996121,4.634856800553049,-74.15105458355895,2552.428,0,317.109375,3,10,-9999,1561824339.953035,-20.88595581054688,14.43410968780518,16.39874267578125,66.11103057861328,73.60422515869141,15,156082.666380375,-0.622039794921875,0.6072540283203125,-0.484375,156082.664366375,-0.02262408609244114,-0.03515638955013602,0.05756689012315281,156082.653898375,-99.82429504394531,-13.29638671875,-546.7354736328125,156082.659300375,0.7418301822383975,-0.8931547948889701,-0.6489688769524332,-0.02625269442796707,-0.03867147117853165,0.05295188724994659,0.001201391220092773,0.003392338752746582,0.01376855373382568,1,-0.1196247562766075,-0.4857356548309326,0.438189834356308,0.7468202114105225,-0.6206777095794678,0.6043652296066284,-0.4995015859603882,0,0,0,-1,156081.144311125,3,2,1561824338.449532,1561824121.559794,12,3.602502,0,0,10.50458,0,0,1561824170.876706,156079.77085,0,-0.0847168,75.37773,0,182478453,5,1,0.32,-31.21173,-36.17226,1
1561824339.994623,66,0,0,1561824338.996121,4.634856800553049,-74.15105458355895,2552.428,0,317.109375,3,10,-9999,1561824339.979243,-20.85594940185547,14.42495536804199,16.47454833984375,66.0693359375,73.56253051757812,15,156082.686644375,-0.6234893798828125,0.6040496826171875,-0.4847564697265625,156082.684629375,-0.0086544745944305,-0.05312127531548354,0.06001140568773655,156082.674009375,-99.82328796386719,-13.33746337890625,-546.7093505859375,156082.679533375,0.7423155619632847,-0.8937890368202568,-0.6501058507089021,-0.01324049104005098,-0.05745634064078331,0.05813653022050858,-0.002023935317993164,-0.000686943531036377,0.01303553581237793,1,-0.1198490560054779,-0.4861046075820923,0.4385665953159332,0.7463228702545166,-0.6204583644866943,0.6052706837654114,-0.4986770153045654,0,0,0,-1,156081.144311125,3,2,1561824338.449532,1561824121.559794,12,3.602502,0,0,10.50458,0,0,1561824170.876706,156079.77085,0,-0.0847168,75.37773,0,182478453,5,1,0.32,-31.21173,-36.92462,1
1561824340.002456,67,0,0,1561824338.996121,4.634856800553049,-74.15105458355895,2552.428,0,317.109375,3,10,-9999,1561824339.979243,-20.85594940185547,14.42495536804199,16.47454833984375,66.0693359375,73.56253051757812,15,156082.706907375,-0.6270751953125,0.5995025634765625,-0.482421875,156082.704863375,0.01715821427116252,-0.03466477001290739,0.04096767336479793,156082.694090375,-99.76914978027344,-13.07359313964844,-546.9157104492188,156082.699797375,0.7431083515158581,-0.8944275127456146,-0.6509734272582894,0.01241400651633739,-0.04229523241519928,0.04504283517599106,-0.006662487983703613,-0.001941859722137451,0.0137600302696228,1,-0.1198833510279655,-0.4864689409732819,0.4390208125114441,0.7458127737045288,-0.6203669309616089,0.6059610247612,-0.4979518949985504,0,0,0,-1,156081.144311125,3,2,1561824338.449532,1561824121.559794,12,3.602502,0,0,10.50458,0,0,1561824170.876706,156079.77085,0,-0.0847168,75.37773,0,182478453,5,1,0.32,-31.21173,-37.414,1
1561824340.019348,68,0,0,1561824338.996121,4.634856800553049,-74.15105458355895,2552.428,0,317.109375,3,10,-9999,1561824340.003796,-20.80236053466797,14.59028053283691,16.30975341796875,66.0067138671875,73.49990844726562,15,156082.727171375,-0.6246795654296875,0.6012420654296875,-0.476806640625,156082.725126375,0.006126069455509271,-0.01911403977571671,0.0258086941239579,156082.714201375,-99.77276611328125,-13.32571411132812,-546.9560546875,156082.720060375,0.7439129357661951,-0.894665849486075,-0.6513029294796763,0.01318658888339996,-0.02831310406327248,0.02185096219182014,-0.002976417541503906,-0.006094932556152344,0.01640158891677856,1,-0.1197746843099594,-0.4866358935832977,0.4393807053565979,0.7455093264579773,-0.6203297972679138,0.6062231063842773,-0.4976790547370911,0,0,0,-1,156081.144311125,3,2,1561824338.449532,1561824121.559794,12,3.602502,0,0,10.50458,0,0,1561824170.876706,156079.77085,0,-0.0847168,75.37773,0,182478453,5,1,0.32,-31.21173,-37.414,1
1561824340.039715,69,0,0,1561824338.996121,4.634856800553049,-74.15105458355895,2552.428,0,317.109375,3,10,-9999,1561824340.030305,-20.59869384765625,14.42764759063721,16.44781494140625,65.97309112548828,73.46628570556641,15,156082.747404375,-0.6193084716796875,0.605377197265625,-0.470306396484375,156082.745390375,-0.03571618601127068,-0.02319080677241001,0.03164181585955846,156082.734282375,-99.49472045898438,-13.27438354492188,-546.6412353515625,156082.740324375,0.744198567019828,-0.8949933918918914,-0.6517592931050719,-0.02363746985793114,-0.02269543334841728,0.02790938690304756,-0.004204332828521729,-0.004016399383544922,0.02359360456466675,1,-0.1198262497782707,-0.4868164956569672,0.4395699799060822,0.7452715039253235,-0.6202768683433533,0.6065860390663147,-0.4973027408123016,0,0,0,-1,156081.144311125,3,2,1561824338.449532,1561824121.559794,12,3.602502,0,0,10.50458,0,0,1561824170.876706,156079.77085,0,-0.0847168,75.37773,0,182478453,5,1,0.32,-31.21173,-38.2583,1
1561824340.071603,70,0,0,1561824339.996104,4.634856800553049,-74.15105458355895,2552.417,0,306.5625,3,10,-9999,1561824340.030305,-20.59869384765625,14.42764759063721,16.44781494140625,65.97309112548828,73.46628570556641,15,156082.767668375,-0.618255615234375,0.6064300537109375,-0.4725799560546875,156082.765654375,-0.06428790976618579,-0.04365773238188697,0.03951065793241558,156082.754393375,-99.7686767578125,-13.37533569335938,-546.788330078125,156082.760588375,0.7437453097877107,-0.8959315768092451,-0.6528394695844855,-0.06289166212081909,-0.04188989847898483,0.03456329554319382,0.003425240516662598,-0.001044869422912598,0.0254095196723938,1,-0.1201873123645782,-0.4872366189956665,0.4396070241928101,0.7449169754981995,-0.6202312707901001,0.6074444055557251,-0.4963109791278839,0,0,0,-1,156081.144311125,3,2,1561824338.449532,1561824121.559794,12,3.602502,0,0,10.50458,0,0,1561824170.876706,156079.77085,0,-0.0847168,75.37773,0,182478453,5,1,0.32,-31.21173,-39.47043,1
1561824340.080068,71,0,0,1561824339.996104,4.634856800553049,-74.15105458355895,2552.417,0,306.5625,3,10,-9999,1561824340.030305,-20.59869384765625,14.42764759063721,16.44781494140625,65.97309112548828,73.46628570556641,15,156082.787931375,-0.6168365478515625,0.6040496826171875,-0.4786529541015625,156082.785917375,-0.03613323703797709,-0.08050709343698637,0.05054759643803097,156082.774504375,-99.73011779785156,-13.32109069824219,-546.6669921875,156082.780851375,0.7431596551624233,-0.8975010620689005,-0.654255457885882,-0.05029677972197533,-0.07684655487537384,0.04697229713201523,0.001729786396026611,-0.00364917516708374,0.01843583583831787,1,-0.1205838173627853,-0.4879134595394135,0.4396799206733704,0.7443665266036987,-0.6203363537788391,0.6085686087608337,-0.4948000013828278,0,0,0,-1,156081.144311125,3,2,1561824338.449532,1561824121.559794,12,3.602502,0,0,10.50458,0,0,1561824170.876706,156079.77085,0,-0.0847168,75.37773,0,182478453,5,1,0.32,-31.21173,-39.47043,1
1561824340.10039,72,0,0,1561824339.996104,4.634856800553049,-74.15105458355895,2552.417,0,306.5625,3,10,-9999,1561824340.066427,-20.82139587402344,14.34665489196777,16.410400390625,66.00302886962891,73.49622344970703,15,156082.808195375,-0.6165618896484375,0.6013336181640625,-0.48284912109375,156082.806181375,0.01122602294301101,-0.08006953606988634,0.05641187715838545,156082.794584375,-99.58085632324219,-13.14326477050781,-546.2925415039062,156082.801085375,0.743458805395622,-0.8991591387682196,-0.6553382910214717,0.002505982061848044,-0.09099992364645004,0.05155905336141586,0.002933323383331299,-0.004599571228027344,0.01092320680618286,1,-0.1206038370728493,-0.488645613193512,0.4400416612625122,0.7436688542366028,-0.6206396222114563,0.6094275116920471,-0.4933603703975677,0,0,0,-1,156081.144311125,3,2,1561824338.449532,1561824121.559794,12,3.602502,0,0,10.50458,0,0,1561824170.876706,156079.77085,0,-0.0847168,75.37773,0,182478453,5,1,0.32,-31.21173,-40.46753,1
1561824340.121141,73,0,0,1561824339.996104,4.634856800553049,-74.15105458355895,2552.417,0,306.5625,3,10,-9999,1561824340.105351,-20.62886047363281,14.52161026000977,16.83380126953125,65.97716522216797,73.47035980224609,15,156082.828459375,-0.617401123046875,0.601470947265625,-0.483062744140625,156082.826414375,0.01601305500242844,-0.05637912027697747,0.06340533818093352,156082.814695375,-99.92997741699219,-13.48078918457031,-546.529541015625,156082.821348375,0.744570073897841,-0.9000927283213503,-0.6560329951441491,0.017941664904356,-0.06188624352216721,0.05727020651102066,0.003992676734924316,-0.008278310298919678,0.008890211582183838,1,-0.1204202324151993,-0.4891218841075897,0.4406075179576874,0.7430502772331238,-0.6207681894302368,0.6099781394004822,-0.492517501115799,0,0,0,-1,156081.144311125,3,2,1561824338.449532,1561824121.559794,12,3.602502,0,0,10.50458,0,0,1561824170.876706,156079.77085,0,-0.0847168,75.37773,0,182478453,5,1,0.32,-31.21173,-41.36187,1
1561824340.151293,74,0,0,1561824339.996104,4.634856800553049,-74.15105458355895,2552.417,0,306.5625,3,10,-9999,1561824340.131069,-20.68161010742188,14.29440307617188,16.53155517578125,65.88859558105469,73.38179016113281,15,156082.848722375,-0.617889404296875,0.5959014892578125,-0.4770355224609375,156082.846678375,0.001757686319452297,-0.0463677651071516,0.05939994390145435,156082.834776375,-99.59329223632812,-13.42710876464844,-546.6445922851562,156082.841612375,0.7457547072912942,-0.9004740882757327,-0.656848579209907,0.007478103041648865,-0.04491711407899857,0.05725289136171341,0.002676486968994141,-0.01292216777801514,0.01119756698608398,1,-0.1203909143805504,-0.4894080758094788,0.4411837756633759,0.7425245046615601,-0.6205659508705139,0.6106241941452026,-0.4919715225696564,0,0,0,-1,156081.144311125,3,2,1561824338.449532,1561824121.559794,12,3.602502,0,0,10.50458,0,0,1561824170.876706,156079.77085,0,-0.0847168,75.37773,0,182478453,5,1,0.32,-31.21173,-42.05759,1
1561824340.161159,75,0,0,1561824339.996104,4.634856800553049,-74.15105458355895,2552.417,0,306.5625,3,10,-9999,1561824340.155584,-20.75963592529297,14.46131896972656,16.74859619140625,65.82911682128906,73.32231140136719,15,156082.868986375,-0.6228485107421875,0.6008758544921875,-0.47662353515625,156082.866941375,-0.008033425428224023,-0.07168643759053492,0.05534900956733482,156082.854887375,-99.699951171875,-13.209716796875,-546.4046020507812,156082.861876375,0.7465791364201441,-0.9011367661688651,-0.6577504985941349,-0.008299527689814568,-0.06984590739011765,0.05307333171367645,0.0006020069122314453,-0.01523834466934204,0.01491504907608032,1,-0.1204237639904022,-0.4897846877574921,0.4416548907756805,0.7419906258583069,-0.6204597949981689,0.611338198184967,-0.4912181496620178,0,0,0,-1,156081.144311125,3,2,1561824338.449532,1561824121.559794,12,3.602502,0,0,10.50458,0,0,1561824170.876706,156079.77085,0,-0.0847168,75.37773,0,182478453,5,1,0.32,-31.21173,-42.05759,1
1561824340.181519,76,0,0,1561824339.996104,4.634856800553049,-74.15105458355895,2552.417,0,306.5625,3,10,-9999,1561824340.155584,-20.75963592529297,14.46131896972656,16.74859619140625,65.82911682128906,73.32231140136719,15,156082.889219375,-0.627044677734375,0.60345458984375,-0.479461669921875,156082.887205375,-0.004850415293361316,-0.08147435354490314,0.03514280742857662,156082.874968375,-99.77708435058594,-13.08702087402344,-546.40771484375,156082.882139375,0.7471573295764484,-0.9023878290916877,-0.6586252613679163,-0.007871291600167751,-0.08493936806917191,0.0389239564538002,-0.005795657634735107,-0.009308099746704102,0.01200622320175171,1,-0.1203750148415565,-0.4903620183467865,0.4420661628246307,0.7413719892501831,-0.6206538677215576,0.6120302677154541,-0.4901098906993866,0,0,0,-1,156081.144311125,3,2,1561824338.449532,1561824121.559794,12,3.602502,0,0,10.50458,0,0,1561824170.876706,156079.77085,0,-0.0847168,75.37773,0,182478453,5,1,0.32,-31.21173,-42.21197,1
1561824340.201623,77,0,0,1561824339.996104,4.634856800553049,-74.15105458355895,2552.417,0,306.5625,3,10,-9999,1561824340.181697,-20.74662017822266,14.62713623046875,16.71307373046875,65.79157257080078,73.28476715087891,15,156082.909483375,-0.6284027099609375,0.6042022705078125,-0.4850921630859375,156082.907469375,-0.01984214801774437,-0.06420375387573929,0.01781068873823193,156082.895079375,-99.535888671875,-13.12368774414062,-546.485595703125,156082.902403375,0.7474205323202106,-0.9039171683184917,-0.6591453497833173,-0.01247003860771656,-0.07569500803947449,0.01768391393125057,-0.007082343101501465,-0.008346021175384521,0.005015432834625244,1,-0.12019182741642,-0.4909911751747131,0.442328006029129,0.7408289313316345,-0.6211525201797485,0.6124414801597595,-0.4889631867408752,0,0,0,-1,156081.144311125,3,2,1561824338.449532,1561824121.559794,12,3.602502,0,0,10.50458,0,0,1561824170.876706,156079.77085,0,-0.0847168,75.37773,0,182478453,5,1,0.32,-31.21173,-42.95056,1
1561824340.230614,78,0,0,1561824339.996104,4.634856800553049,-74.15105458355895,2552.417,0,306.5625,3,10,-9999,1561824340.206597,-20.59769439697266,14.56041812896729,16.75164794921875,65.79018402099609,73.28337860107422,15,156082.929747375,-0.6273651123046875,0.5995025634765625,-0.48736572265625,156082.927733375,-0.0317779033912615,-0.02194444738225292,0.0008791094758351565,156082.915190375,-99.51997375488281,-13.081787109375,-546.3941650390625,156082.922667375,0.7470873539546742,-0.9053281552273531,-0.6596374609692799,-0.03419317677617073,-0.03802165761590004,0.005212063901126385,-0.007530450820922852,-0.008551836013793945,0.0008090734481811523,1,-0.1201692670583725,-0.4915376603603363,0.4423579573631287,0.7404522895812988,-0.6216046810150146,0.6128304004669189,-0.4879001379013062,0,0,0,-1,156081.144311125,3,2,1561824338.449532,1561824121.559794,12,3.602502,0,0,10.50458,0,0,1561824170.876706,156079.77085,0,-0.0847168,75.37773,0,182478453,5,1,0.32,-31.21173,-43.23775,1
1561824340.242289,79,0,0,1561824339.996104,4.634856800553049,-74.15105458355895,2552.417,0,306.5625,3,10,-9999,1561824340.232344,-20.47648620605469,14.40535163879395,16.857177734375,65.83528137207031,73.32847595214844,15,156082.950010375,-0.624420166015625,0.5954132080078125,-0.4875640869140625,156082.947996375,-0.01326866749910179,0.00123783727466883,-0.01938514957468677,156082.935270375,-99.43084716796875,-13.33963012695312,-546.3219604492188,156082.942900375,0.7463781641698871,-0.9061525691307304,-0.6598327426919079,-0.01953725703060627,-0.003814017632976174,-0.02027306519448757,-0.001927852630615234,-0.01674753427505493,0.0002835988998413086,1,-0.120243676006794,-0.4918176829814911,0.4421722590923309,0.7403650879859924,-0.62191241979599,0.6129847168922424,-0.4873136579990387,0,0,0,-1,156081.144311125,3,2,1561824338.449532,1561824121.559794,12,3.602502,0,0,10.50458,0,0,1561824170.876706,156079.77085,0,-0.0847168,75.37773,0,182478453,5,1,0.32,-31.21173,-44.1141,1
1561824340.262492,80,0,0,1561824339.996104,4.634856800553049,-74.15105458355895,2552.417,0,306.5625,3,10,-9999,1561824340.25706,-20.44400787353516,14.45449352264404,16.818115234375,65.87800598144531,73.37120056152344,15,156082.970274375,-0.6219482421875,0.6005706787109375,-0.4842071533203125,156082.968229375,0.0119919480725178,-0.01050031154596442,-0.02651310023228386,156082.955381375,-99.38858032226562,-13.29901123046875,-546.3482666015625,156082.963163375,0.7457876491760997,-0.9066178374541584,-0.6595704649643412,0.002120900899171829,-0.01113078650087118,-0.02646331675350666,-0.00287163257598877,-0.0154263973236084,-0.0001050233840942383,1,-0.1201754286885262,-0.4919310808181763,0.4419449269771576,0.7404366135597229,-0.6222656965255737,0.6127774715423584,-0.4871233701705933,0,0,0,-1,156081.144311125,3,2,1561824338.449532,1561824121.559794,12,3.602502,0,0,10.50458,0,0,1561824170.876706,156079.77085,0,-0.0847168,75.37773,0,182478453,5,1,0.32,-31.21173,-42.69175,1
1561824340.28293,81,0,0,1561824339.996104,4.634856800553049,-74.15105458355895,2552.417,0,306.5625,3,10,-9999,1561824340.25706,-20.44400787353516,14.45449352264404,16.818115234375,65.87800598144531,73.37120056152344,15,156082.990538375,-0.6151885986328125,0.6026611328125,-0.479278564453125,156082.988493375,0.01741334510359211,-0.009242234247010988,-0.02964417872589001,156082.975462375,-99.45449829101562,-13.32522583007812,-546.4019775390625,156082.983427375,0.7455865521161077,-0.9070104570989669,-0.6588720290411151,0.01891612634062767,-0.01012038253247738,-0.03484668210148811,0.005728483200073242,-0.01127320528030396,0.006750106811523438,1,-0.1198434978723526,-0.4920022785663605,0.4417962431907654,0.740531861782074,-0.6227939128875732,0.612225353717804,-0.4871425926685333,0,0,0,-1,156081.144311125,3,2,1561824338.449532,1561824121.559794,12,3.602502,0,0,10.50458,0,0,1561824170.876706,156079.77085,0,-0.0847168,75.37773,0,182478453,5,1,0.32,-31.21173,-42.83698,1
1561824340.317232,82,0,0,1561824339.996104,4.634856800553049,-74.15105458355895,2552.417,0,306.5625,3,10,-9999,1561824340.308245,-20.30216979980469,14.52607154846191,17.11053466796875,65.91631317138672,73.40950775146484,15,156083.010771375,-0.616241455078125,0.6063079833984375,-0.476409912109375,156083.008757375,-0.003842941452984341,-0.008115983422016479,-0.01357786050165999,156082.995573375,-99.26473999023438,-13.19949340820312,-546.11767578125,156083.003691375,0.7453236437238775,-0.9074640090202659,-0.6582607969947073,-0.0007925971294753253,-0.01182480622082949,-0.02220705337822437,0.007266402244567871,-0.005739152431488037,0.007796525955200195,1,-0.1195501238107681,-0.4921001791954041,0.4416403770446777,0.7406071424484253,-0.6233094930648804,0.6117419600486755,-0.4870903491973877,0,0,0,-1,156081.144311125,3,2,1561824338.449532,1561824121.559794,12,3.602502,0,0,10.50458,0,0,1561824170.876706,156079.77085,0,-0.0847168,75.37773,0,182478453,5,1,0.32,-31.21173,-43.36393,1
1561824340.323401,83,0,0,1561824339.996104,4.634856800553049,-74.15105458355895,2552.417,0,306.5625,3,10,-9999,1561824340.308245,-20.30216979980469,14.52607154846191,17.11053466796875,65.91631317138672,73.40950775146484,15,156083.031035375,-0.61566162109375,0.609130859375,-0.473297119140625,156083.029020375,-0.02099955782749281,0.01436775408097749,-0.01046728834844744,156083.015654375,-99.27536010742188,-13.18882751464844,-546.0426025390625,156083.023954375,0.7448657675253613,-0.9079504408546847,-0.6581334566182419,-0.01783336699008942,0.001279544085264206,-0.01152085326611996,0.005107998847961426,-0.002113640308380127,0.009509563446044922,1,-0.1195016726851463,-0.4922416508197784,0.4414820373058319,0.7406153082847595,-0.6236076951026917,0.6116412281990051,-0.4868350028991699,0,0,0,-1,156081.144311125,3,2,1561824338.449532,1561824121.559794,12,3.602502,0,0,10.50458,0,0,1561824170.876706,156079.77085,0,-0.0847168,75.37773,0,182478453,5,1,0.32,-31.21173,-43.36393,1
1561824340.343521,84,0,0,1561824339.996104,4.634856800553049,-74.15105458355895,2552.417,0,306.5625,3,10,-9999,1561824340.333824,-20.41874694824219,14.26981067657471,16.78009033203125,65.96530914306641,73.45850372314453,15,156083.051298375,-0.6184844970703125,0.6024932861328125,-0.4816131591796875,156083.049284375,-0.03652232487323766,-0.000891360016849521,-0.001893507535046338,156083.035765375,-99.37934875488281,-13.51335144042969,-546.473388671875,156083.044218375,0.7441133728078236,-0.908261182043734,-0.6582653580244787,-0.0388379842042923,0.001485406421124935,-0.006464309059083462,0.00865936279296875,-0.004781484603881836,0.009937584400177002,1,-0.1196739599108696,-0.4923233985900879,0.4412404894828796,0.7406771779060364,-0.623695433139801,0.6117455959320068,-0.486591637134552,0,0,0,-1,156081.144311125,3,2,1561824338.449532,1561824121.559794,12,3.602502,0,0,10.50458,0,0,1561824170.876706,156079.77085,0,-0.0847168,75.37773,0,182478453,5,1,0.32,-31.21173,-43.99887,1
1561824340.363783,85,0,0,1561824339.996104,4.634856800553049,-74.15105458355895,2552.417,0,306.5625,3,10,-9999,1561824340.358465,-20.38877868652344,14.27974987030029,16.95001220703125,66.01187133789062,73.50506591796875,15,156083.071562375,-0.6203765869140625,0.59954833984375,-0.484375,156083.069548375,0.01028006812381487,-0.02195536634272225,-0.005212871517721101,156083.055845375,-99.31129455566406,-13.40753173828125,-546.2160034179688,156083.064451375,0.7434400885075997,-0.9088630407836759,-0.6585170250114534,-0.01008702907711267,-0.01934530586004257,-0.006552459672093391,0.006694376468658447,-0.01035159826278687,0.002265274524688721,1,-0.1198131218552589,-0.4925282597541809,0.4410626292228699,0.7406243085861206,-0.6238666176795959,0.6119446158409119,-0.4861214458942413,0,0,0,-1,156081.144311125,3,2,1561824338.449532,1561824121.559794,12,3.602502,0,0,10.50458,0,0,1561824170.876706,156079.77085,0,-0.0847168,75.37773,0,182478453,5,1,0.32,-31.21173,-37.59571,1
1561824340.403347,86,0,0,1561824339.996104,4.634856800553049,-74.15105458355895,2552.417,0,306.5625,3,10,-9999,1561824340.384654,-20.41065979003906,14.25561046600342,16.82708740234375,65.98178863525391,73.47498321533203,15,156083.091826375,-0.629302978515625,0.5976409912109375,-0.4763946533203125,156083.089781375,0.05366296228120566,0.004677309822506166,-0.02581987940053623,156083.075956375,-99.45176696777344,-13.51484680175781,-546.3634033203125,156083.084715375,0.7437414176812879,-0.9091532177053672,-0.6580498075060307,0.0520024411380291,-0.01359634101390839,-0.01878302544355392,-0.0007820725440979004,-0.01294225454330444,0.00421297550201416,1,-0.1194778233766556,-0.4926124513149261,0.4411257803440094,0.7405849099159241,-0.6242331862449646,0.6115750670433044,-0.4861160516738892,0,0,0,-1,156081.144311125,3,2,1561824338.449532,1561824121.559794,12,3.602502,0,0,10.50458,0,0,1561824170.876706,156079.77085,0,-0.0847168,75.37773,0,182478453,5,1,0.32,-31.21173,-39.09304,1
1561824340.407453,87,0,0,1561824339.996104,4.634856800553049,-74.15105458355895,2552.417,0,306.5625,3,10,-9999,1561824340.384654,-20.41065979003906,14.25561046600342,16.82708740234375,65.98178863525391,73.47498321533203,15,156083.112089375,-0.6334228515625,0.59442138671875,-0.4745941162109375,156083.110045375,-0.01326706960244774,0.05928542797458095,-0.06834763253190258,156083.096037375,-99.32586669921875,-13.24078369140625,-546.3732299804688,156083.104979375,0.7438781381720484,-0.9087993961500017,-0.6569348918739225,0.008430728688836098,0.04130552709102631,-0.06212996691465378,-0.00652015209197998,-0.01285320520401001,0.01208531856536865,1,-0.1190518587827682,-0.4923908710479736,0.4409982562065125,0.7408768534660339,-0.6245986819267273,0.61069256067276,-0.486755758523941,0,0,0,-1,156081.144311125,3,2,1561824338.449532,1561824121.559794,12,3.602502,0,0,10.50458,0,0,1561824170.876706,156079.77085,0,-0.0847168,75.37773,0,182478453,5,1,0.32,-31.21173,-39.09304,1
1561824340.424842,88,0,0,1561824339.996104,4.634856800553049,-74.15105458355895,2552.417,0,306.5625,3,10,-9999,1561824340.409366,-20.47541809082031,14.21513938903809,16.926513671875,66.03864288330078,73.53183746337891,15,156083.132353375,-0.635467529296875,0.5970611572265625,-0.47369384765625,156083.130308375,-0.08693942641785475,0.09355951225557371,-0.1004733447615284,156083.116118375,-99.42501831054688,-13.56770324707031,-546.190185546875,156083.125242375,0.7418492363040394,-0.9086614690732553,-0.6561082195164261,-0.07660799473524094,0.08747062087059021,-0.09839183837175369,-0.009042680263519287,-0.01596730947494507,0.0150299072265625,1,-0.1192327886819839,-0.4921458065509796,0.440121591091156,0.7415315508842468,-0.6249294281005859,0.6100377440452576,-0.487152099609375,0,0,0,-1,156081.144311125,3,2,1561824338.449532,1561824121.559794,12,3.602502,0,0,10.50458,0,0,1561824170.876706,156080.713003,0,-0.1982422,75.37881,0,182478453,5,1,0.32,-31.21173,-39.65664,1
1561824340.444985,89,0,0,1561824339.996104,4.634856800553049,-74.15105458355895,2552.417,0,306.5625,3,10,-9999,1561824340.435884,-20.64817047119141,14.44901180267334,16.7835693359375,66.26973724365234,73.76293182373047,15,156083.152586375,-0.63287353515625,0.60284423828125,-0.475738525390625,156083.150572375,-0.0788178503575491,0.08481555544851656,-0.1160254065792641,156083.136229375,-99.62892150878906,-13.17315673828125,-546.3939819335938,156083.145506375,0.7383597244413549,-0.9089820182480062,-0.6554788582466274,-0.08876638859510422,0.08416590094566345,-0.1173783093690872,-0.01024711132049561,-0.01067721843719482,0.01352423429489136,1,-0.119755245745182,-0.4920009076595306,0.4387572705745697,0.7423515319824219,-0.6253882646560669,0.6095389127731323,-0.4871875643730164,0,0,0,-1,156081.144311125,3,2,1561824338.449532,1561824121.559794,12,3.602502,0,0,10.50458,0,0,1561824170.876706,156080.713003,0,-0.1982422,75.37881,0,182478453,5,1,0.32,-31.76901,-38.57469,1
1561824340.504529,90,0,0,1561824339.996104,4.634856800553049,-74.15105458355895,2552.417,0,306.5625,3,10,-9999,1561824340.459803,-20.73389434814453,14.14634037017822,16.761474609375,66.50665283203125,73.99984741210938,15,156083.172850375,-0.633514404296875,0.6057586669921875,-0.4820556640625,156083.170836375,-0.04681331195752186,0.06871781192342359,-0.1053591800973878,156083.156309375,-99.77786254882812,-13.60794067382812,-546.406005859375,156083.165770375,0.7350760077409781,-0.9095172428210617,-0.6545123747437991,-0.05420548841357231,0.06131358444690704,-0.1117699593305588,-0.006988823413848877,-0.004158198833465576,0.007920503616333008,1,-0.1200376525521278,-0.4919184744358063,0.4374327063560486,0.7431418299674988,-0.6261135935783386,0.6087724566459656,-0.4872143566608429,0,0,0,-1,156081.144311125,3,2,1561824338.449532,1561824121.559794,12,3.602502,0,0,10.50458,0,0,1561824170.876706,156080.713003,0,-0.1982422,75.37881,0,182478453,5,1,0.32,-32.88356,-40.11397,1
1561824340.508918,91,0,0,1561824339.996104,4.634856800553049,-74.15105458355895,2552.417,0,306.5625,3,10,-9999,1561824340.486349,-20.68118286132812,13.9689826965332,16.7203369140625,66.68817901611328,74.18137359619141,15,156083.193113375,-0.626129150390625,0.6071319580078125,-0.478179931640625,156083.191099375,-0.04112000617915046,0.09224950331536375,-0.1035405073889727,156083.176420375,-99.69088745117188,-13.84994506835938,-546.4644165039062,156083.186033375,0.7324888656424338,-0.9096086517214673,-0.6532868729142752,-0.03896208852529526,0.08876252174377441,-0.109110526740551,-0.003700852394104004,0.0001103878021240234,0.008443176746368408,1,-0.1201362609863281,-0.4916907846927643,0.4363018274307251,0.7439410090446472,-0.6267465353012085,0.607799768447876,-0.4876148998737335,0,0,0,-1,156081.144311125,3,2,1561824338.449532,1561824121.559794,12,3.602502,0,0,10.50458,0,0,1561824170.876706,156080.713003,0,-0.1982422,75.37881,0,182478453,5,1,0.32,-32.88356,-40.11397,1
1561824340.512069,92,0,0,1561824339.996104,4.634856800553049,-74.15105458355895,2552.417,0,306.5625,3,10,-9999,1561824340.510996,-20.57638549804688,14.10602378845215,16.77508544921875,66.85134887695312,74.34454345703125,15,156083.213377375,-0.620208740234375,0.6078033447265625,-0.474700927734375,156083.211363375,-0.04255758053557523,0.04127100741295795,-0.07543696735369351,156083.196501375,-99.59213256835938,-13.65310668945312,-546.4592895507812,156083.206266375,0.7299595474211183,-0.9096108658467756,-0.6522343655307358,-0.04696542024612427,0.05285938084125519,-0.08744064718484879,0.004266321659088135,0.0004734992980957031,0.01066535711288452,1,-0.1203127354383469,-0.491448700428009,0.4352103471755981,0.7447113394737244,-0.6272521615028381,0.6069636344909668,-0.488006055355072,0,0,0,-1,156081.144311125,3,2,1561824338.449532,1561824121.559794,12,3.602502,0,0,10.50458,0,0,1561824170.876706,156080.713003,0,-0.1982422,75.37881,0,182478453,5,1,0.32,-32.88356,-40.11397,1
1561824340.526527,93,0,0,1561824339.996104,4.634856800553049,-74.15105458355895,2552.417,0,306.5625,3,10,-9999,1561824340.510996,-20.57638549804688,14.10602378845215,16.77508544921875,66.85134887695312,74.34454345703125,15,156083.233641375,-0.6150665283203125,0.61102294921875,-0.4735260009765625,156083.231596375,0.0146841376184789,-0.0452620206225507,-0.02331863850473381,156083.216612375,-99.50521850585938,-13.55567932128906,-546.3759765625,156083.226530375,0.7282446151457704,-0.9103745695601062,-0.6515130007532445,-0.004427012987434864,-0.0299055390059948,-0.0435195304453373,0.01125580072402954,0.002511799335479736,0.01448297500610352,1,-0.1202632859349251,-0.4915679693222046,0.4345142543315887,0.7450470328330994,-0.627970278263092,0.6063901782035828,-0.487795352935791,0,0,0,-1,156081.144311125,3,2,1561824338.449532,1561824121.559794,12,3.602502,0,0,10.50458,0,0,1561824170.876706,156080.713003,0,-0.1982422,75.37881,0,182478453,5,1,0.32,-33.44084,-38.82352,1
1561824340.570148,94,0,0,1561824339.996104,4.634856800553049,-74.15105458355895,2552.417,0,306.5625,3,10,-9999,1561824340.536526,-20.71222686767578,13.99753379821777,16.92559814453125,66.86672210693359,74.35991668701172,15,156083.253904375,-0.6124420166015625,0.61297607421875,-0.473175048828125,156083.251860375,0.07236074997854298,-0.0830224490865662,0.03072835160566128,156083.236723375,-99.71694946289062,-13.73455810546875,-546.2484130859375,156083.246794375,0.7286655907714239,-0.9114513976374822,-0.6509320157882958,0.06283298879861832,-0.08785912394523621,0.01654753275215626,0.01418000459671021,0.005918800830841064,0.01249629259109497,1,-0.1196802631020546,-0.4919444620609283,0.4346522688865662,0.7448118329048157,-0.6287735104560852,0.6059281229972839,-0.4873345494270325,0,0,0,-1,156081.144311125,3,2,1561824338.449532,1561824121.559794,12,3.602502,0,0,10.50458,0,0,1561824170.876706,156080.713003,0,-0.1982422,75.37881,0,182478453,5,1,0.32,-34.5554,-39.96877,1
1561824340.576661,95,0,0,1561824339.996104,4.634856800553049,-74.15105458355895,2552.417,0,306.5625,3,10,-9999,1561824340.536526,-20.71222686767578,13.99753379821777,16.92559814453125,66.86672210693359,74.35991668701172,15,156083.274138375,-0.6146240234375,0.615325927734375,-0.4688262939453125,156083.272123375,0.06694494558575784,-0.06742910827193425,0.06086947619096007,156083.256804375,-99.667236328125,-13.99903869628906,-546.3265380859375,156083.267057375,0.7306574803135075,-0.9120053002793929,-0.6506234573642562,0.07006186991930008,-0.07877454906702042,0.05168101936578751,0.01801568269729614,0.008224248886108398,0.01586347818374634,1,-0.1189393326640129,-0.4922429323196411,0.4353825151920319,0.7443066835403442,-0.6291912198066711,0.6056826114654541,-0.4871006608009338,0,0,0,-1,156081.144311125,3,2,1561824338.449532,1561824121.559794,12,3.602502,0,0,10.50458,0,0,1561824170.876706,156080.713003,0,-0.1982422,75.37881,0,182478453,5,1,0.32,-34.5554,-39.96877,1
1561824340.587308,96,0,0,1561824339.996104,4.634856800553049,-74.15105458355895,2552.417,0,306.5625,3,10,-9999,1561824340.583002,-20.70596313476562,13.77250957489014,16.8258056640625,66.72787475585938,74.2210693359375,15,156083.294401375,-0.616485595703125,0.6110687255859375,-0.4644622802734375,156083.292387375,0.04292349886935212,-0.06280106692959454,0.06623041946528958,156083.276915375,-99.55343627929688,-13.79743957519531,-546.187744140625,156083.287321375,0.7327461859475812,-0.9120796143147268,-0.6508730740334042,0.04382067546248436,-0.06089461594820023,0.0629965215921402,0.01358354091644287,0.006927013397216797,0.02259063720703125,1,-0.1185144111514091,-0.4924161434173584,0.4361997842788696,0.7437812089920044,-0.6291078329086304,0.6058812141418457,-0.4869613647460938,0,0,0,-1,156081.144311125,3,2,1561824338.449532,1561824121.559794,12,3.602502,0,0,10.50458,0,0,1561824170.876706,156080.713003,0,-0.1982422,75.37881,0,182478453,5,1,0.32,-35.11268,-39.98869,1
1561824340.607411,97,0,0,1561824339.996104,4.634856800553049,-74.15105458355895,2552.417,0,306.5625,3,10,-9999,1561824340.583002,-20.70596313476562,13.77250957489014,16.8258056640625,66.72787475585938,74.2210693359375,15,156083.314665375,-0.622467041015625,0.6104736328125,-0.4616851806640625,156083.312651375,0.05754611746665019,-0.1075288574374754,0.0582318814473456,156083.296995375,-99.66366577148438,-13.45513916015625,-546.1616821289062,156083.307585375,0.7346163303816787,-0.9124649293672792,-0.6512963587310213,0.05358808487653732,-0.09457933902740479,0.05740148946642876,0.008944809436798096,0.005613744258880615,0.02423590421676636,1,-0.1181484535336494,-0.4927067756652832,0.4369784593582153,0.7431896328926086,-0.6290924549102783,0.6062179207801819,-0.4865619540214539,0,0,0,-1,156081.144311125,3,2,1561824338.449532,1561824121.559794,12,3.602502,0,0,10.50458,0,0,1561824170.876706,156080.713003,0,-0.1982422,75.37881,0,182478453,5,1,0.32,-35.66996,-40.25626,1
1561824340.638122,98,0,0,1561824339.996104,4.634856800553049,-74.15105458355895,2552.417,0,306.5625,3,10,-9999,1561824340.611499,-20.62562561035156,14.3361349105835,16.90167236328125,66.44402313232422,73.93721771240234,15,156083.334929375,-0.6283721923828125,0.610443115234375,-0.464080810546875,156083.332914375,0.08171670120410035,-0.1059208407712855,0.03480964597620771,156083.317106375,-99.57107543945312,-13.32255554199219,-546.223388671875,156083.327818375,0.7366968801393158,-0.9135875345851893,-0.6513375358355437,0.07863245904445648,-0.1164265871047974,0.03862087801098824,0.002406001091003418,0.004711270332336426,0.01922637224197388,1,-0.1174074858427048,-0.4932498335838318,0.4378232061862946,0.7424492835998535,-0.6296185255050659,0.6062506437301636,-0.4858401715755463,0,0,0,-1,156081.144311125,3,2,1561824338.449532,1561824121.559794,12,3.602502,0,0,10.50458,0,0,1561824170.876706,156080.713003,0,-0.1982422,75.37881,0,182478453,5,1,0.32,-36.22724,-40.53843,1
1561824340.647349,99,0,0,1561824339.996104,4.634856800553049,-74.15105458355895,2552.417,0,306.5625,3,10,-9999,1561824340.638247,-20.57306671142578,14.17038917541504,16.79351806640625,66.29642486572266,73.78961944580078,15,156083.355192375,-0.62921142578125,0.6114349365234375,-0.463470458984375,156083.353148375,0.05443767584230971,-0.0281916906673608,0.005165200934208683,156083.337187375,-99.52757263183594,-13.60115051269531,-546.4514770507812,156083.348082375,0.7386663158493941,-0.9142345098385682,-0.6507815532805584,0.06743998825550079,-0.05314455181360245,0.007658700458705425,0.0007287263870239258,0.006893038749694824,0.02129817008972168,1,-0.1165452599525452,-0.4935564994812012,0.4385122954845428,0.7419744729995728,-0.6301996111869812,0.6058083772659302,-0.4856383800506592,0,0,0,-1,156081.144311125,3,2,1561824338.449532,1561824121.559794,12,3.602502,0,0,10.50458,0,0,1561824170.876706,156080.713003,0,-0.1982422,75.37881,0,182478453,5,1,0.32,-36.22724,-40.53843,1
1561824340.667608,100,0,0,1561824339.996104,4.634856800553049,-74.15105458355895,2552.417,0,306.5625,3,10,-9999,1561824340.662057,-20.52251434326172,14.17807483673096,16.7799072265625,66.24421691894531,73.73741149902344,15,156083.375456375,-0.6261749267578125,0.6130218505859375,-0.4658966064453125,156083.373411375,-0.01679282856960364,0.0006000101935948524,0.002636263163069438,156083.357298375,-99.50788879394531,-13.48515319824219,-546.4945068359375,156083.368345375,0.7393441972237758,-0.9142951423978437,-0.6504279389821105,-0.002471986459568143,-0.004642527084797621,-0.001090316101908684,0.003094673156738281,0.005068659782409668,0.02132964134216309,1,-0.1162154972553253,-0.4935873746871948,0.4387166202068329,0.7418849468231201,-0.6303987503051758,0.6055270433425903,-0.485730916261673,0,0,0,-1,156081.144311125,3,2,1561824338.449532,1561824121.559794,12,3.602502,0,0,10.50458,0,0,1561824170.876706,156080.713003,0,-0.1982422,75.37881,0,182478453,5,1,0.32,-36.78452,-40.83323,1
1561824340.688156,101,0,0,1561824339.996104,4.634856800553049,-74.15105458355895,2552.417,0,306.5625,3,10,-9999,1561824340.662057,-20.52251434326172,14.17807483673096,16.7799072265625,66.24421691894531,73.73741149902344,15,156083.395720375,-0.624786376953125,0.61004638671875,-0.4677886962890625,156083.393675375,-0.01645700395614465,-0.007233944468982235,-0.004980377554557183,156083.377379375,-99.40220642089844,-13.48028564453125,-546.1376953125,156083.388609375,0.7388953153477599,-0.9146523711054382,-0.650679031024533,-0.02443507686257362,-0.00724044069647789,-0.004536978900432587,0.004444599151611328,0.005845427513122559,0.01791411638259888,1,-0.1163538545370102,-0.4937158524990082,0.4386068880558014,0.7418425679206848,-0.6304516792297363,0.6057268381118774,-0.4854128658771515,0,0,0,-1,156081.144311125,3,2,1561824338.449532,1561824121.559794,12,3.602502,0,0,10.50458,0,0,1561824170.876706,156080.713003,0,-0.1982422,75.37881,0,182478453,5,1,0.32,-37.3418,-40.92656,1
1561824340.71952,102,0,0,1561824339.996104,4.634856800553049,-74.15105458355895,2552.417,0,306.5625,3,10,-9999,1561824340.688608,-20.45059204101562,14.2742862701416,17.05078125,66.27883911132812,73.77203369140625,15,156083.415953375,-0.621337890625,0.611053466796875,-0.47125244140625,156083.413939375,0.02305525187292497,-0.02497166259334599,-0.0131951642530156,156083.397490375,-99.50679016113281,-13.33354187011719,-546.269287109375,156083.408873375,0.7385704010569624,-0.9152100294693287,-0.6506216884143839,0.01358501054346561,-0.02474140375852585,-0.01479680743068457,0.007443487644195557,0.004044771194458008,0.01502013206481934,1,-0.1162875965237617,-0.4938987791538239,0.4385105967521667,0.7417880892753601,-0.6307497620582581,0.6056811809539795,-0.4850823879241943,0,0,0,-1,156081.144311125,3,2,1561824338.449532,1561824121.559794,12,3.602502,0,0,10.50458,0,0,1561824170.876706,156080.713003,0,-0.1982422,75.37881,0,182478453,5,1,0.32,-37.89907,-41.4403,1
1561824340.728568,103,0,0,1561824339.996104,4.634856800553049,-74.15105458355895,2552.417,0,306.5625,3,10,-9999,1561824340.715428,-20.68612670898438,14.23056507110596,16.92010498046875,66.27769470214844,73.77088928222656,15,156083.436216375,-0.6207733154296875,0.6150970458984375,-0.4687652587890625,156083.434202375,0.06032193027083978,-0.02530881878735003,-0.004755606758554496,156083.417570375,-99.5888671875,-13.53411865234375,-546.301025390625,156083.429136375,0.7389698905118512,-0.915537460915953,-0.6499999928868956,0.05032278224825859,-0.02505059726536274,-0.01157864369452,0.009701251983642578,0.008384764194488525,0.01432573795318604,1,-0.1158548668026924,-0.4939889311790466,0.438588559627533,0.74174964427948,-0.6312069892883301,0.605186402797699,-0.4851051568984985,0,0,0,-1,156083.412626375,2,0,1561824340.717847,1561824121.559794,12,3.602502,0,0,10.50458,0,0,1561824170.876706,156080.713003,0,-0.1982422,75.37881,0,182478453,5,1,0.32,-38.45635,-42.09603,1
1561824340.748762,104,0,0,1561824339.996104,4.634856800553049,-74.15105458355895,2552.417,0,306.5625,3,10,-9999,1561824340.738904,-20.69091796875,14.46436786651611,16.74432373046875,66.20669555664062,73.69989013671875,15,156083.456480375,-0.615631103515625,0.615966796875,-0.4587554931640625,156083.454466375,0.04732703573179814,0.005008873378221031,0.008062453884105886,156083.437681375,-99.65788269042969,-13.15487670898438,-546.5147705078125,156083.449400375,0.7400933865800705,-0.9153138594215793,-0.6492418976793315,0.05597694218158722,-0.004056631587445736,0.001151533098891377,0.01134496927261353,0.01112467050552368,0.02007180452346802,1,-0.1153066903352737,-0.4939042627811432,0.4388834536075592,0.7417171597480774,-0.6314621567726135,0.6045827269554138,-0.485525906085968,0,0,0,-1,156083.412626375,2,0,1561824340.717847,1561824121.559794,12,3.602502,0,0,10.50458,0,0,1561824170.876706,156080.713003,0,-0.1982422,75.37881,0,182478453,5,1,0.32,-38.74762,-42.51873,1
1561824340.769127,105,0,0,1561824339.996104,4.634856800553049,-74.15105458355895,2552.417,0,306.5625,3,10,-9999,1561824340.763552,-20.51384735107422,14.42009162902832,16.7330322265625,66.14133453369141,73.63452911376953,15,156083.476744375,-0.614105224609375,0.613739013671875,-0.45355224609375,156083.474730375,0.01186944266237416,-0.005093561900885551,0.03475851328327818,156083.457762375,-99.53163146972656,-13.30563354492188,-546.4752197265625,156083.469633375,0.7409539756441244,-0.9148259513740464,-0.6490302933184581,0.01536187250167131,-0.004160761367529631,0.02565660886466503,0.01787734031677246,0.009858906269073486,0.02897220849990845,1,-0.1151120141148567,-0.4937542676925659,0.4391441941261292,0.741692841053009,-0.63132643699646,0.604414165019989,-0.4859119057655334,0,0,0,-1,156083.412626375,2,0,1561824340.717847,1561824121.559794,12,3.602502,0,0,10.50458,0,0,1561824170.876706,156080.713003,0,-0.1982422,75.37881,0,182478453,5,1,0.32,-38.74762,-43.22354,1
1561824340.80149,106,0,0,1561824339.996104,4.634856800553049,-74.15105458355895,2552.417,0,306.5625,3,10,-9999,1561824340.791273,-20.62784576416016,14.39037132263184,16.76422119140625,66.07746124267578,73.57065582275391,15,156083.497007375,-0.6210784912109375,0.61102294921875,-0.4537811279296875,156083.494963375,0.02451306625363435,-0.05096837589026348,0.04843784022247019,156083.477873375,-99.6185302734375,-13.34896850585938,-546.3946533203125,156083.489897375,0.7417249741172441,-0.9147768245732357,-0.6495222535018023,0.01562632247805595,-0.04056643694639206,0.04464627802371979,0.01322329044342041,0.009924829006195068,0.03303325176239014,1,-0.115139976143837,-0.4938238859176636,0.4394976794719696,0.741432785987854,-0.6310669183731079,0.6048060059547424,-0.4857615232467651,0,0,0,-1,156083.412626375,2,0,1561824340.717847,1561824121.559794,12,3.602502,0,0,10.50458,0,0,1561824170.876706,156080.713003,0,-0.1982422,75.37881,0,182478453,5,1,0.32,-37.6701,-43.05893,1
1561824340.809596,107,0,0,1561824339.996104,4.634856800553049,-74.15105458355895,2552.417,0,306.5625,3,10,-9999,1561824340.791273,-20.62784576416016,14.39037132263184,16.76422119140625,66.07746124267578,73.57065582275391,15,156083.517271375,-0.628753662109375,0.6127777099609375,-0.4555816650390625,156083.515226375,0.02531441142563919,-0.02764414474724051,0.03329830205758774,156083.518065375,-99.30706787109375,-13.5140380859375,-546.457763671875,156083.510160375,0.7429226645676907,-0.9151649102475256,-0.6498952917903854,0.03207187354564667,-0.0466456338763237,0.03642323613166809,0.005283117294311523,0.006072521209716797,0.02921748161315918,1,-0.1149161756038666,-0.4940696060657501,0.4400172531604767,0.7409955263137817,-0.6310765147209167,0.605103075504303,-0.4853789806365967,0,0,0,-1,156083.412626375,2,0,1561824340.717847,1561824121.559794,12,3.602502,0,0,10.50458,0,0,1561824170.876706,156080.713003,0,-0.1982422,75.37881,0,182478453,5,1,0.32,-37.6701,-43.05893,1
1561824340.829583,108,0,0,1561824339.996104,4.634856800553049,-74.15105458355895,2552.417,0,306.5625,3,10,-9999,1561824340.814078,-20.43491363525391,14.21110725402832,16.77667236328125,66.00117492675781,73.49436950683594,15,156083.537504375,-0.6327362060546875,0.6136322021484375,-0.45697021484375,156083.535490375,-0.03431829275508809,0.02821752332993457,0.008857673785603546,156083.538176375,-99.47315979003906,-13.31869506835938,-546.169189453125,156083.530424375,0.7435054712874227,-0.9151760526809859,-0.6501780245818616,-0.01595290750265121,0.00979100726544857,0.01459357142448425,-3.516674041748047e-05,0.01008933782577515,0.02898406982421875,1,-0.114888958632946,-0.4941322803497314,0.4402742385864258,0.7408052682876587,-0.6309462785720825,0.6053281426429749,-0.4852676391601562,0,0,0,-1,156083.412626375,2,0,1561824340.717847,1561824121.559794,12,3.602502,0,0,10.50458,0,0,1561824170.876706,156080.713003,0,-0.1982422,75.37881,0,182478453,5,1,0.32,-37.6701,-40.60918,1
1561824340.849986,109,0,0,1561824339.996104,4.634856800553049,-74.15105458355895,2552.417,0,306.5625,3,10,-9999,1561824340.840626,-20.45542144775391,14.35069274902344,16.95172119140625,66.03897857666016,73.53217315673828,15,156083.557768375,-0.6336822509765625,0.6124420166015625,-0.4593963623046875,156083.555754375,-0.07648279071376762,0.04235304976385715,-0.007934355835673075,156083.558256375,-99.49806213378906,-13.50392150878906,-546.4329833984375,156083.550688375,0.7425044502867009,-0.9152128523488681,-0.6508189227022483,-0.07258449494838715,0.03905355185270309,-0.01096771378070116,-0.001621901988983154,0.007672011852264404,0.02770191431045532,1,-0.1153984367847443,-0.494145005941391,0.4399971961975098,0.7408822178840637,-0.6306565403938293,0.6058381199836731,-0.4850078225135803,0,0,0,-1,156083.412626375,2,0,1561824340.717847,1561824121.559794,12,3.602502,0,0,10.50458,0,0,1561824170.876706,156080.713003,0,-0.1982422,75.37881,0,182478453,5,1,0.32,-37.6701,-41.10231,1
1561824340.885406,110,0,0,1561824339.996104,4.634856800553049,-74.15105458355895,2552.417,0,306.5625,3,10,-9999,1561824340.864802,-20.55257415771484,14.23876953125,16.773681640625,66.16020202636719,73.65339660644531,15,156083.578032375,-0.632293701171875,0.60931396484375,-0.4672088623046875,156083.576017375,-0.05580787222315547,-0.00123650569412379,-0.004928445913300638,156083.578367375,-99.34757995605469,-13.54446411132812,-546.53759765625,156083.570952375,0.7407765603984841,-0.9157651645538328,-0.6516127364011655,-0.06747495383024216,0.002146136946976185,-0.009531470946967602,-0.00353628396987915,0.004309296607971191,0.02069747447967529,1,-0.1160387098789215,-0.4943196177482605,0.4395026862621307,0.7409591674804688,-0.6305426359176636,0.6064695119857788,-0.4843662679195404,0,0,0,-1,156083.412626375,2,0,1561824340.717847,1561824121.559794,12,3.602502,0,0,10.50458,0,0,1561824170.876706,156080.713003,0,-0.1982422,75.37881,0,182478453,5,1,0.32,-36.94406,-40.71246,1
1561824340.891242,111,0,0,1561824339.996104,4.634856800553049,-74.15105458355895,2552.417,0,306.5625,3,10,-9999,1561824340.864802,-20.55257415771484,14.23876953125,16.773681640625,66.16020202636719,73.65339660644531,15,156083.598295375,-0.627532958984375,0.6114654541015625,-0.4707489013671875,156083.596281375,-0.03018053936943197,-0.01916224299144714,0.01162895921594,156083.598448375,-99.37626647949219,-13.33047485351562,-546.428955078125,156083.591185375,0.7396832637502077,-0.9166875409537579,-0.6521337657517772,-0.03290153294801712,-0.02065078914165497,0.0001730876974761486,0.001984715461730957,0.002750694751739502,0.01569664478302002,1,-0.1163261160254478,-0.4946434497833252,0.4392259120941162,0.7408621907234192,-0.630738377571106,0.606883704662323,-0.4835921823978424,0,0,0,-1,156083.412626375,2,0,1561824340.717847,1561824121.559794,12,3.602502,0,0,10.50458,0,0,1561824170.876706,156080.713003,0,-0.1982422,75.37881,0,182478453,5,1,0.32,-36.94406,-40.71246,1
1561824340.910735,112,0,0,1561824339.996104,4.634856800553049,-74.15105458355895,2552.417,0,306.5625,3,10,-9999,1561824340.892144,-20.38790893554688,14.35483932495117,16.7427978515625,66.22443389892578,73.71762847900391,15,156083.618559375,-0.6194000244140625,0.61151123046875,-0.4677276611328125,156083.616514375,-0.02752536776262297,-0.001540372374501831,0.03029265845132431,156083.618559375,-99.29562377929688,-13.57525634765625,-546.359619140625,156083.611448375,0.7392430344998905,-0.9173868266248003,-0.6527449942575544,-0.02742926776409149,-0.01137100346386433,0.02184003405272961,0.006910860538482666,0.003699362277984619,0.01219171285629272,1,-0.1165391579270363,-0.494930237531662,0.4391913414001465,0.7406575679779053,-0.6307816505432129,0.6073693633079529,-0.4829253554344177,0,0,0,-1,156083.412626375,2,0,1561824340.717847,1561824121.559794,12,3.602502,0,0,10.50458,0,0,1561824170.876706,156080.713003,0,-0.1982422,75.37881,0,182478453,5,1,0.32,-36.94406,-39.07767,1
1561824340.931586,113,0,0,1561824339.996104,4.634856800553049,-74.15105458355895,2552.417,0,306.5625,3,10,-9999,1561824340.915519,-20.37535095214844,14.22229766845703,16.8187255859375,66.24375915527344,73.73695373535156,15,156083.63883675,-0.624664306640625,0.6089630126953125,-0.46844482421875,156083.63679175,-0.03008786136349722,0.01633636275876406,0.04081241107324631,156083.63865275,-99.41209411621094,-13.47904968261719,-546.2555541992188,156083.63172575,0.7390552480879176,-0.9175174501947277,-0.6536470520083183,-0.03425761312246323,0.009893005713820457,0.03700140863656998,0.009193599224090576,0.001823306083679199,0.01554501056671143,1,-0.1169372498989105,-0.4950462579727173,0.4392589628696442,0.7404771447181702,-0.6304094195365906,0.6080857515335083,-0.4825097620487213,0,0,0,-1,156083.412626375,2,0,1561824340.717847,1561824121.559794,12,3.602502,0,0,10.50458,0,0,1561824170.876706,156080.713003,0,-0.1982422,75.37881,0,182478453,5,1,0.32,-36.94406,-39.1741,1
1561824340.966346,114,0,0,1561824339.996104,4.634856800553049,-74.15105458355895,2552.417,0,306.5625,3,10,-9999,1561824340.941663,-20.43128967285156,14.27941417694092,16.9091796875,66.24965667724609,73.74285125732422,15,156083.65909975,-0.63262939453125,0.6066131591796875,-0.4643096923828125,156083.65705575,-0.01228462947631751,0.01510837918012853,0.01400955891436183,156083.65876475,-99.26785278320312,-13.43434143066406,-546.4512939453125,156083.65198975,0.7389603586497607,-0.9173121370385101,-0.654454392263759,-0.01530256401747465,0.01497192122042179,0.01675952039659023,0.0009073019027709961,-0.003059327602386475,0.01447558403015137,1,-0.1173461973667145,-0.49503493309021,0.4393276572227478,0.740379273891449,-0.6299203634262085,0.608726441860199,-0.4823405742645264,0,0,0,-1,156083.412626375,2,0,1561824340.717847,1561824121.559794,12,3.602502,0,0,10.50458,0,0,1561824170.876706,156080.713003,0,-0.1982422,75.37881,0,182478453,5,1,0.32,-36.73961,-39.86049,1
1561824340.97154,115,0,0,1561824339.996104,4.634856800553049,-74.15105458355895,2552.417,0,306.5625,3,10,-9999,1561824340.966378,-20.33300018310547,14.23424530029297,16.769775390625,66.25894165039062,73.75213623046875,15,156083.67933275,-0.634033203125,0.6070098876953125,-0.462738037109375,156083.67731875,-0.008102134984348067,9.560748313384465e-05,-0.0005659217316418381,156083.67884475,-99.52670288085938,-13.2919921875,-546.18310546875,156083.67225275,0.7388105099918516,-0.9173341462723841,-0.6547397573566809,-0.01124870032072067,-0.00582390557974577,-0.0003800508566200733,-0.004514873027801514,-0.003407776355743408,0.01846069097518921,1,-0.1174987480044365,-0.4950591027736664,0.4393144249916077,0.7403467297554016,-0.6297929883003235,0.6089528203010559,-0.4822210669517517,0,0,0,-1,156083.412626375,2,0,1561824340.717847,1561824121.559794,12,3.602502,0,0,10.50458,0,0,1561824170.876706,156080.713003,0,-0.1982422,75.37881,0,182478453,5,1,0.32,-36.73961,-39.86049,1
1561824340.991992,116,0,0,1561824339.996104,4.634856800553049,-74.15105458355895,2552.417,0,306.5625,3,10,-9999,1561824340.966378,-20.33300018310547,14.23424530029297,16.769775390625,66.25894165039062,73.75213623046875,15,156083.69959675,-0.635345458984375,0.60736083984375,-0.4624481201171875,156083.69758275,-0.03306207966889771,0.007676295526044396,-0.009019061347662349,156083.69895575,-99.41468811035156,-13.29763793945312,-546.1248168945312,156083.69251675,0.7384175731482047,-0.9175952458950191,-0.6548009537080701,-0.0243487898260355,0.003813541494309902,-0.01318186614662409,-0.004342198371887207,-0.001274347305297852,0.02245455980300903,1,-0.1175645068287849,-0.4951379299163818,0.4391930401325226,0.7403557300567627,-0.6298893690109253,0.6090013980865479,-0.4820340275764465,0,0,0,-1,156083.412626375,2,0,1561824340.717847,1561824121.559794,12,3.602502,0,0,10.50458,0,0,1561824170.876706,156080.713003,0,-0.1982422,75.37881,0,182478453,5,1,0.32,-36.73961,-40.55418,1
1561824341.012191,117,0,0,1561824339.996104,4.634856800553049,-74.15105458355895,2552.417,0,306.5625,3,10,-9999,1561824340.992315,-20.47017669677734,14.42501926422119,16.9847412109375,66.29634094238281,73.78953552246094,15,156083.71986075,-0.6314849853515625,0.6059722900390625,-0.4642486572265625,156083.71784675,-0.05413673863913075,0.008832107439138785,-0.01778751923674824,156083.71906675,-99.70558166503906,-13.56697082519531,-546.2418823242188,156083.71278075,0.7373150428722555,-0.9182363527505439,-0.6550839086874564,-0.05282250791788101,0.001865705940872431,-0.01841124892234802,-0.003880321979522705,-0.002017498016357422,0.01707839965820312,1,-0.1178160607814789,-0.4953348934650421,0.4388632774353027,0.7403795123100281,-0.6300613284111023,0.6092258095741272,-0.4815254509449005,0,0,0,-1,156083.412626375,2,0,1561824340.717847,1561824121.559794,12,3.602502,0,0,10.50458,0,0,1561824170.876706,156080.713003,0,-0.1982422,75.37881,0,182478453,5,1,0.32,-36.17615,-37.67555,1
1561824341.055002,118,0,0,1561824339.996104,4.634856800553049,-74.15105458355895,2552.417,0,306.5625,3,10,-9999,1561824341.016932,-20.64589691162109,14.17845344543457,16.9332275390625,66.39204406738281,73.88523864746094,15,156083.74012375,-0.629638671875,0.606353759765625,-0.4649505615234375,156083.73810975,-0.05659563527360092,0.03312066921287946,-0.01637338069791617,156083.73914775,-99.42803955078125,-13.32058715820312,-546.1561889648438,156083.73301375,0.7358649620219437,-0.9189007172431816,-0.6554576693330602,-0.05821168050169945,0.02187589928507805,-0.01918676123023033,0.0009275078773498535,-0.003565073013305664,0.01894766092300415,1,-0.1181871145963669,-0.4955275356769562,0.4384194314479828,0.740454375743866,-0.6302000284194946,0.6095221042633057,-0.4809685349464417,0,0,0,-1,156083.412626375,2,0,1561824340.717847,1561824121.559794,12,3.602502,0,0,10.50458,0,0,1561824170.876706,156080.713003,0,-0.1982422,75.37881,0,182478453,5,1,0.32,-36.17615,-36.74968,1
1561824341.059086,119,0,0,1561824339.996104,4.634856800553049,-74.15105458355895,2552.417,0,306.5625,3,10,-9999,1561824341.016932,-20.64589691162109,14.17845344543457,16.9332275390625,66.39204406738281,73.88523864746094,15,156083.76038775,-0.635528564453125,0.6006622314453125,-0.464935302734375,156083.75834275,-0.05317107642786802,0.04740533266784647,-0.03117656161712161,156083.75925875,-99.38546752929688,-13.50228881835938,-545.9651489257812,156083.75327775,0.7343837145440677,-0.9191607903866541,-0.6558240307893268,-0.05554292723536491,0.04284989088773727,-0.02655200101435184,-0.003244876861572266,-0.008646726608276367,0.01477253437042236,1,-0.1186515912413597,-0.4955675899982452,0.4379391670227051,0.7406374216079712,-0.6301474571228027,0.6098125576972961,-0.4806691408157349,0,0,0,-1,156083.412626375,2,0,1561824340.717847,1561824121.559794,12,3.602502,0,0,10.50458,0,0,1561824170.876706,156080.713003,0,-0.1982422,75.37881,0,182478453,5,1,0.32,-36.17615,-36.74968,1
1561824341.073222,120,0,0,1561824340.996087,4.634854495529677,-74.15105902596763,2552.698,0.32,157.5,3,10,-9999,1561824341.050451,-20.52906799316406,14.30429840087891,16.98431396484375,66.49786376953125,73.99105834960938,15,156083.78065175,-0.6392974853515625,0.59893798828125,-0.4572906494140625,156083.77860675,-0.04706285015166228,0.05141525432117878,-0.05683239029450896,156083.77933975,-99.40916442871094,-13.57589721679688,-546.162841796875,156083.77354075,0.7326822777375587,-0.9193230682242047,-0.655819744472857,-0.04691002517938614,0.04756208509206772,-0.05469894781708717,-0.008383274078369141,-0.009360551834106445,0.0173574686050415,1,-0.1190358698368073,-0.4955261945724487,0.4373179376125336,0.7409705519676208,-0.6302275657653809,0.6098091602325439,-0.4805684983730316,0,0,0,-1,156083.73682875,3,2,1561824341.04205,1561824121.559794,12,3.602502,0,0,10.50458,0,0,1561824170.876706,156080.713003,0,-0.1982422,75.37881,0,182478453,5,1,0.32,-33.74429,-37.07278,1
1561824341.093066,121,0,0,1561824340.996087,4.634854495529677,-74.15105902596763,2552.698,0.32,157.5,3,10,-9999,1561824341.050451,-20.52906799316406,14.30429840087891,16.98431396484375,66.49786376953125,73.99105834960938,15,156083.80091475,-0.644775390625,0.6026153564453125,-0.4527740478515625,156083.79887075,-0.0820378784315639,0.06634253854718192,-0.08316333030823139,156083.79945075,-99.54745483398438,-13.6474609375,-546.1262817382812,156083.79380475,0.7305121639321224,-0.9196490401174137,-0.6554512300350084,-0.07230859249830246,0.05957560241222382,-0.07716244459152222,-0.01134395599365234,-0.00873267650604248,0.02557361125946045,1,-0.1193468794226646,-0.4954863786697388,0.4364798963069916,0.741441011428833,-0.6305628418922424,0.6095170378684998,-0.4804991483688354,0,0,0,-1,156083.73682875,3,2,1561824341.04205,1561824121.559794,12,3.602502,0,0,10.50458,0,0,1561824170.876706,156080.713003,0,-0.1982422,75.37881,0,182478453,5,1,0.32,-33.74429,-37.07278,1
