loggingTime,loggingSample,identifierForVendor,deviceID,locationTimestamp_since1970,locationLatitude,locationLongitude,locationAltitude,locationSpeed,locationCourse,locationVerticalAccuracy,locationHorizontalAccuracy,locationFloor,locationHeadingTimestamp_since1970,locationHeadingX,locationHeadingY,locationHeadingZ,locationTrueHeading,locationMagneticHeading,locationHeadingAccuracy,accelerometerTimestamp_sinceReboot,accelerometerAccelerationX,accelerometerAccelerationY,accelerometerAccelerationZ,gyroTimestamp_sinceReboot,gyroRotationX,gyroRotationY,gyroRotationZ,magnetometerTimestamp_sinceReboot,magnetometerX,magnetometerY,magnetometerZ,motionTimestamp_sinceReboot,motionYaw,motionRoll,motionPitch,motionRotationRateX,motionRotationRateY,motionRotationRateZ,motionUserAccelerationX,motionUserAccelerationY,motionUserAccelerationZ,motionAttitudeReferenceFrame,motionQuaternionX,motionQuaternionY,motionQuaternionZ,motionQuaternionW,motionGravityX,motionGravityY,motionGravityZ,motionMagneticFieldX,motionMagneticFieldY,motionMagneticFieldZ,motionMagneticFieldCalibrationAccuracy,activityTimestamp_sinceReboot,activity,activityActivityConfidence,activityActivityStartDate,pedometerStartDate,pedometerNumberofSteps,pedometerAverageActivePace,pedometerCurrentPace,pedometerCurrentCadence,pedometerDistance,pedometerFloorAscended,pedometerFloorDescended,pedometerEndDate,altimeterTimestamp_sinceReboot,altimeterReset,altimeterRelativeAltitude,altimeterPressure,IP_en0,IP_pdp_ip0,deviceOrientation,batteryState,batteryLevel,avAudioRecorderPeakPower,avAudioRecorderAveragePower,label
1561824363.616011,1,0,0,1561824362.995723,4.634817698974754,-74.15106195963374,2553.384,0.42,290.7421875,3,10,-9999,1561824363.599049,-28.42256927490234,10.414306640625,6.64410400390625,63.96136474609375,71.45455932617188,15,156106.308786125,-0.612884521484375,0.1992950439453125,-0.8220672607421875,156106.306772125,0.2276219762657265,-0.3146143995892738,0.2257862593263349,156106.289927125,-107.2949066162109,-16.91722106933594,-556.2196044921875,156106.301706125,0.778944254568643,-0.6658072230154881,-0.1454320017430201,0.2061516940593719,-0.3629519045352936,0.1991442441940308,-0.005953073501586914,0.04653215408325195,-0.04251641035079956,1,0.06023282930254936,-0.3275877833366394,0.3798691034317017,0.8629934191703796,-0.6111733913421631,0.1449198871850967,-0.7781165242195129,0,0,0,-1,156102.5372476667,3,2,1561824359.842469,1561824121.559794,12,3.602502,0,0,10.50458,0,0,1561824170.876706,156103.328126,0,0.2509766,75.37456,0,182478453,5,1,0.32,-19.37172,-36.87586,3
1561824363.620942,2,0,0,1561824362.995723,4.634817698974754,-74.15106195963374,2553.384,0.42,290.7421875,3,10,-9999,1561824363.599049,-28.42256927490234,10.414306640625,6.64410400390625,63.96136474609375,71.45455932617188,15,156106.329050125,-0.5915679931640625,0.2063140869140625,-0.840545654296875,156106.327036125,0.2811619005045705,-0.2839963028527419,0.3316684842618143,156106.310007125,-107.0975036621094,-16.61891174316406,-556.1754150390625,156106.321970125,0.7860208314301376,-0.670922675353529,-0.1447388092568802,0.2646512091159821,-0.2825571894645691,0.306493878364563,0.01483577489852905,0.06784793734550476,-0.05552327632904053,1,0.06267546117305756,-0.3294580280780792,0.3826659321784973,0.8608692288398743,-0.6152080893516541,0.1442339718341827,-0.775058388710022,0,0,0,-1,156102.5372476667,3,2,1561824359.842469,1561824121.559794,12,3.602502,0,0,10.50458,0,0,1561824170.876706,156103.328126,0,0.2509766,75.37456,0,182478453,5,1,0.32,-19.37172,-37.53016,3
1561824363.643761,3,0,0,1561824362.995723,4.634817698974754,-74.15106195963374,2553.384,0.42,290.7421875,3,10,-9999,1561824363.631311,-28.02046966552734,10.93460083007812,7.1009521484375,62.91780853271484,70.41100311279297,15,156106.349314125,-0.5973358154296875,0.189727783203125,-0.8246002197265625,156106.347300125,0.3970450942816244,-0.2574187541220781,0.3778021575091479,156106.350199125,-106.9166717529297,-16.13685607910156,-556.0800170898438,156106.342234125,0.7954931781367544,-0.675338354637146,-0.1442178416338862,0.3657890260219574,-0.279917448759079,0.3739578723907471,0.03198623657226562,0.05081585049629211,-0.061454176902771,1,0.06531719118356705,-0.3309640884399414,0.386523574590683,0.8583682775497437,-0.6186714172363281,0.1437184363603592,-0.7723928689956665,0,0,0,-1,156102.5372476667,3,2,1561824359.842469,1561824121.559794,12,3.602502,0,0,10.50458,0,0,1561824170.876706,156103.328126,0,0.2509766,75.37456,0,182478453,5,1,0.32,-19.37172,-38.345,3
1561824363.671901,4,0,0,1561824362.995723,4.634817698974754,-74.15106195963374,2553.384,0.42,290.7421875,3,10,-9999,1561824363.655879,-27.92700958251953,11.48227882385254,7.1268310546875,62.12123107910156,69.61442565917969,15,156106.369577125,-0.6249237060546875,0.1665802001953125,-0.797637939453125,156106.367563125,0.4337085666926363,-0.1880005308319637,0.3524166396824036,156106.370310125,-106.7128295898438,-15.87973022460938,-555.77294921875,156106.362467125,0.806670949213408,-0.6785490184865984,-0.1424142341378275,0.437956690788269,-0.1996407508850098,0.3573035299777985,0.006182193756103516,0.03827297687530518,-0.03989803791046143,1,0.06858259439468384,-0.3316547870635986,0.3909550905227661,0.8558362126350403,-0.621309757232666,0.1419333219528198,-0.7706030607223511,0,0,0,-1,156102.5372476667,3,2,1561824359.842469,1561824121.559794,12,3.602502,0,0,10.50458,0,0,1561824170.876706,156103.328126,0,0.2509766,75.37456,0,182478453,5,1,0.32,-19.37172,-38.89652,3
1561824363.681589,5,0,0,1561824362.995723,4.634817698974754,-74.15106195963374,2553.384,0.42,290.7421875,3,10,-9999,1561824363.655879,-27.92700958251953,11.48227882385254,7.1268310546875,62.12123107910156,69.61442565917969,15,156106.389841125,-0.63165283203125,0.1462249755859375,-0.7679443359375,156106.387796125,0.3304807144156389,-0.1742482332789035,0.3841146482409628,156106.390421125,-106.4969635009766,-15.75851440429688,-555.907958984375,156106.382730125,0.8176368991252595,-0.6807674592160305,-0.1405056847609677,0.3643535673618317,-0.1786944568157196,0.3692829608917236,-0.00767219066619873,0.01399365067481995,-0.0173569917678833,1,0.07167109102010727,-0.3318844437599182,0.3952970504760742,0.8534964919090271,-0.6231871843338013,0.1400438398122787,-0.7694319486618042,0,0,0,-1,156102.5372476667,3,2,1561824359.842469,1561824121.559794,12,3.602502,0,0,10.50458,0,0,1561824170.876706,156103.328126,0,0.2509766,75.37456,0,182478453,5,1,0.32,-19.37172,-38.89652,3
1561824363.701934,6,0,0,1561824362.995723,4.634817698974754,-74.15106195963374,2553.384,0.42,290.7421875,3,10,-9999,1561824363.682964,-27.56166839599609,11.93344306945801,7.2962646484375,61.34923553466797,68.84243011474609,15,156106.410105125,-0.6418304443359375,0.1255645751953125,-0.74761962890625,156106.408060125,0.2021123551321845,-0.2850293430395836,0.3992073147706598,156106.410501125,-106.5934753417969,-15.37324523925781,-555.9727783203125,156106.402994125,0.8275684646427647,-0.6833834506366121,-0.1408806682289123,0.2268372625112534,-0.2525279223918915,0.3941217064857483,-0.007418990135192871,-0.003040239214897156,0.01153272390365601,1,0.07367765158414841,-0.3327047526836395,0.3994865715503693,0.8510521650314331,-0.6251646876335144,0.1404151171445847,-0.767758309841156,0,0,0,-1,156102.5372476667,3,2,1561824359.842469,1561824121.559794,12,3.602502,0,0,10.50458,0,0,1561824170.876706,156103.328126,0,0.2509766,75.37456,0,182478453,5,1,0.32,-19.37172,-36.98198,3
1561824363.72217,7,0,0,1561824362.995723,4.634817698974754,-74.15106195963374,2553.384,0.42,290.7421875,3,10,-9999,1561824363.70618,-27.59833526611328,12.28352165222168,7.279541015625,60.68473815917969,68.17793273925781,15,156106.430368125,-0.65435791015625,0.1195068359375,-0.7438507080078125,156106.428324125,0.1262801746727233,-0.4646592922493192,0.4544647115964959,156106.430613125,-106.1475830078125,-14.94984436035156,-555.7313842773438,156106.423258125,0.8363122736382739,-0.6887494291901921,-0.1432817724979351,0.1424020081758499,-0.4141884446144104,0.4279159009456635,-0.0203089714050293,-0.02354459464550018,0.0232243537902832,1,0.07517125457525253,-0.3350883722305298,0.4033373296260834,0.8481651544570923,-0.6290593147277832,0.1427920162677765,-0.7641301155090332,0,0,0,-1,156102.5372476667,3,2,1561824359.842469,1561824121.559794,12,3.602502,0,0,10.50458,0,0,1561824170.876706,156103.328126,0,0.2509766,75.37456,0,182478453,5,1,0.32,-19.37172,-37.6924,3
1561824363.752375,8,0,0,1561824362.995723,4.634817698974754,-74.15106195963374,2553.384,0.42,290.7421875,3,10,-9999,1561824363.73247,-27.20342254638672,12.65355205535889,7.43914794921875,60.05436706542969,67.54756164550781,15,156106.450602125,-0.6529388427734375,0.1305084228515625,-0.766448974609375,156106.448587125,0.1395898548526123,-0.6931489263981936,0.5193643494650729,156106.450693125,-105.9401245117188,-14.8695068359375,-555.2611083984375,156106.443522125,0.8452773109120115,-0.6983924630167545,-0.147537701130071,0.1166969165205956,-0.6649743318557739,0.4987663626670837,-0.01441919803619385,-0.02215562760829926,-0.001736223697662354,1,0.07679416984319687,-0.3395945727825165,0.4073634445667267,0.844294548034668,-0.6360019445419312,0.1470030248165131,-0.7575563788414001,0,0,0,-1,156102.5372476667,3,2,1561824359.842469,1561824121.559794,12,3.602502,0,0,10.50458,0,0,1561824170.876706,156103.328126,0,0.2509766,75.37456,0,182478453,5,1,0.32,-19.929,-38.45035,3
1561824363.762639,9,0,0,1561824362.995723,4.634817698974754,-74.15106195963374,2553.384,0.42,290.7421875,3,10,-9999,1561824363.759082,-27.01202392578125,12.83021259307861,7.78814697265625,59.29710388183594,66.79029846191406,15,156106.470865125,-0.6784210205078125,0.154876708984375,-0.7706756591796875,156106.468851125,0.2680607458380347,-0.8582390813205326,0.5930580115692005,156106.470804125,-105.5751953125,-14.61521911621094,-554.9822387695312,156106.463785125,0.8558758635598466,-0.7116199319241893,-0.1520107610733699,0.2302309274673462,-0.8111129403114319,0.5755335688591003,-0.02652746438980103,-0.009137794375419617,-0.01249051094055176,1,0.07938848435878754,-0.3455595374107361,0.4119448363780975,0.8393970727920532,-0.6455307006835938,0.1514260172843933,-0.7485721707344055,0,0,0,-1,156102.5372476667,3,2,1561824359.842469,1561824121.559794,12,3.602502,0,0,10.50458,0,0,1561824170.876706,156103.328126,0,0.2509766,75.37456,0,182478453,5,1,0.32,-20.48628,-37.01839,3
1561824363.782931,10,0,0,1561824362.995723,4.634817698974754,-74.15106195963374,2553.384,0.42,290.7421875,3,10,-9999,1561824363.759082,-27.01202392578125,12.83021259307861,7.78814697265625,59.29710388183594,66.79029846191406,15,156106.491129125,-0.6675262451171875,0.153289794921875,-0.7645721435546875,156106.489115125,0.3966738496256674,-1.001355227772519,0.5901453122849809,156106.490885125,-105.4007110595703,-14.05796813964844,-554.4346923828125,156106.484049125,0.869126901633164,-0.7278981678321321,-0.1552844849242924,0.3704559504985809,-0.9817402958869934,0.5913820862770081,-0.01582944393157959,-0.001050934195518494,-0.03273338079452515,1,0.08366931974887848,-0.3524255752563477,0.4172961115837097,0.8334624767303467,-0.6572967767715454,0.154661163687706,-0.7375913262367249,0,0,0,-1,156102.5372476667,3,2,1561824359.842469,1561824121.559794,12,3.602502,0,0,10.50458,0,0,1561824170.876706,156103.328126,0,0.2509766,75.37456,0,182478453,5,1,0.32,-21.04356,-37.83937,3
1561824363.803167,11,0,0,1561824362.995723,4.634817698974754,-74.15106195963374,2553.384,0.42,290.7421875,3,10,-9999,1561824363.783593,-26.47547912597656,13.55548286437988,8.65509033203125,58.31956481933594,65.81275939941406,15,156106.511393125,-0.6663055419921875,0.172515869140625,-0.7526092529296875,156106.509378125,0.4029551813727283,-1.045854519058871,0.6683122860721146,156106.510996125,-104.7735595703125,-13.87765502929688,-554.056640625,156106.504282125,0.8838057597180086,-0.7461971298129064,-0.1574000384078254,0.4133946299552917,-1.042025804519653,0.6388515830039978,0.0002629756927490234,0.005038022994995117,-0.03282737731933594,1,0.08922336995601654,-0.3597774505615234,0.4229096472263336,0.8268898129463196,-0.6704594492912292,0.1567509174346924,-0.7251987457275391,0,0,0,-1,156102.5372476667,3,2,1561824359.842469,1561824121.559794,12,3.602502,0,0,10.50458,0,0,1561824170.876706,156103.328126,0,0.2509766,75.37456,0,182478453,5,1,0.32,-21.60084,-38.57479,3
1561824363.833182,12,0,0,1561824362.995723,4.634817698974754,-74.15106195963374,2553.384,0.42,290.7421875,3,10,-9999,1561824363.808997,-25.91259002685547,13.84630584716797,9.05731201171875,57.22494506835938,64.7181396484375,15,156106.531656125,-0.657073974609375,0.179534912109375,-0.73968505859375,156106.529612125,0.4024891281819644,-1.100102844147676,0.7307666094277808,156106.531107125,-104.4273681640625,-13.25167846679688,-553.4907836914062,156106.524546125,0.8995868832228079,-0.7652794380149175,-0.1610809560657699,0.3860109448432922,-1.096865296363831,0.7195211052894592,0.02698671817779541,0.01716600358486176,-0.03685033321380615,1,0.09459587186574936,-0.367593914270401,0.4290809631347656,0.8196437954902649,-0.6837707161903381,0.1603852659463882,-0.7118526697158813,0,0,0,-1,156102.5372476667,3,2,1561824359.842469,1561824121.559794,12,3.602502,0,0,10.50458,0,0,1561824170.876706,156103.328126,0,0.2509766,75.37456,0,182478453,5,1,0.32,-22.15812,-39.25314,3
1561824363.843716,13,0,0,1561824362.995723,4.634817698974754,-74.15106195963374,2553.384,0.42,290.7421875,3,10,-9999,1561824363.837048,-25.54676055908203,14.37202739715576,9.55853271484375,56.03830337524414,63.53149795532227,15,156106.551920125,-0.6578826904296875,0.184539794921875,-0.7008514404296875,156106.549875125,0.527468082346075,-1.130113207523452,0.7768795100186119,156106.551188125,-103.9933013916016,-12.70094299316406,-553.075927734375,156106.544809125,0.9165601617250317,-0.7849863324998833,-0.1652460151766866,0.4937666952610016,-1.122024774551392,0.7545773983001709,0.03855681419372559,0.01621484756469727,-0.02101880311965942,1,0.1002549827098846,-0.3755903244018555,0.4356801211833954,0.8118273615837097,-0.6971871852874756,0.1644950062036514,-0.6977617144584656,0,0,0,-1,156102.5372476667,3,2,1561824359.842469,1561824121.559794,12,3.602502,0,0,10.50458,0,0,1561824170.876706,156103.328126,0,0.2509766,75.37456,0,182478453,5,1,0.32,-22.15812,-39.25314,3
1561824363.863923,14,0,0,1561824362.995723,4.634817698974754,-74.15106195963374,2553.384,0.42,290.7421875,3,10,-9999,1561824363.859101,-25.13506317138672,14.83453941345215,10.02313232421875,54.64137268066406,62.13456726074219,15,156106.572153125,-0.6487274169921875,0.1872406005859375,-0.67901611328125,156106.570139125,0.6178043707343258,-1.215682437560461,0.8515367038051301,156106.571299125,-103.511962890625,-12.47402954101562,-552.84423828125,156106.565073125,0.9361487699375125,-0.805229437688908,-0.168922741820352,0.6033275723457336,-1.202271938323975,0.8374341726303101,0.05690354108810425,0.02090534567832947,-0.009116947650909424,1,0.1068820804357529,-0.3834512233734131,0.4431126713752747,0.8032388091087341,-0.7107273936271667,0.1681205183267593,-0.6830827593803406,0,0,0,-1,156102.5372476667,3,2,1561824359.842469,1561824121.559794,12,3.602502,0,0,10.50458,0,0,1561824170.876706,156103.328126,0,0.2509766,75.37456,0,182478453,5,1,0.32,-22.7154,-40.06438,3
1561824363.88424,15,0,0,1561824362.995723,4.634817698974754,-74.15106195963374,2553.384,0.42,290.7421875,3,10,-9999,1561824363.859101,-25.13506317138672,14.83453941345215,10.02313232421875,54.64137268066406,62.13456726074219,15,156106.592417125,-0.6703643798828125,0.1732025146484375,-0.6551971435546875,156106.590403125,0.6335114285275042,-1.200420926617653,0.8034538629559675,156106.591379125,-102.8257598876953,-11.8883056640625,-552.609130859375,156106.585337125,0.9574008602182486,-0.8264764376176496,-0.1727006062723353,0.6354039907455444,-1.231410622596741,0.8260334730148315,0.06715154647827148,0.009324207901954651,0.002553105354309082,1,0.114182323217392,-0.3914913535118103,0.4510214626789093,0.7938995957374573,-0.724606990814209,0.171843409538269,-0.6673938632011414,0,0,0,-1,156102.5372476667,3,2,1561824359.842469,1561824121.559794,12,3.602502,0,0,10.50458,0,0,1561824170.876706,156103.328126,0,0.2509766,75.37456,0,182478453,5,1,0.32,-23.27268,-39.92473,3
1561824363.911964,16,0,0,1561824362.995723,4.634817698974754,-74.15106195963374,2553.384,0.42,290.7421875,3,10,-9999,1561824363.908979,-23.65799713134766,16.27753257751465,11.0772705078125,51.80474090576172,59.29793548583984,15,156106.612680125,-0.6964111328125,0.1555633544921875,-0.6245269775390625,156106.610666125,0.5809859023478713,-0.9518446662629646,0.6286631437630149,156106.611490125,-102.5542449951172,-11.33967590332031,-552.0274658203125,156106.605600125,0.9774008074400952,-0.8462907825824939,-0.1756344608768186,0.6027845740318298,-1.030968070030212,0.6737757325172424,0.05343878269195557,-0.01088400185108185,0.0142940878868103,1,0.1214312314987183,-0.3987102210521698,0.458220511674881,0.7850596904754639,-0.7373071908950806,0.1747328788042068,-0.6525692343711853,0,0,0,-1,156102.5372476667,3,2,1561824359.842469,1561824121.559794,12,3.602502,0,0,10.50458,0,0,1561824170.876706,156103.328126,0,0.2509766,75.37456,0,182478453,5,1,0.32,-23.82995,-40.68916,3
1561824363.926602,17,0,0,1561824362.995723,4.634817698974754,-74.15106195963374,2553.384,0.42,290.7421875,3,10,-9999,1561824363.908979,-23.65799713134766,16.27753257751465,11.0772705078125,51.80474090576172,59.29793548583984,15,156106.632944125,-0.7191925048828125,0.15582275390625,-0.6041717529296875,156106.630930125,0.499168799970675,-0.6545828917044291,0.419412451644982,156106.631601125,-102.1599273681641,-10.82154846191406,-552.08203125,156106.625834125,0.9938055816561957,-0.8612806024192475,-0.1770349092978225,0.5112285614013672,-0.7290925979614258,0.4739880561828613,0.03890323638916016,-0.02189101278781891,0.02492058277130127,1,0.1276070177555084,-0.4038246870040894,0.4639260172843933,0.7780839800834656,-0.7468194961547852,0.1761116087436676,-0.641284167766571,0,0,0,-1,156102.5372476667,3,2,1561824359.842469,1561824121.559794,12,3.602502,0,0,10.50458,0,0,1561824170.876706,156103.328126,0,0.2509766,75.37456,0,182478453,5,1,0.32,-24.38723,-41.36465,3
1561824363.945004,18,0,0,1561824362.995723,4.634817698974754,-74.15106195963374,2553.384,0.42,290.7421875,3,10,-9999,1561824363.935247,-23.24492645263672,16.79999542236328,11.12322998046875,50.83746719360352,58.33066177368164,15,156106.65321825,-0.7417449951171875,0.15045166015625,-0.5800018310546875,156106.65117325,0.4692710883090094,-0.4592863647500843,0.1999791630990311,156106.65169225,-102.1949768066406,-10.83366394042969,-551.7672729492188,156106.64610725,1.006261160757056,-0.8712571110356852,-0.1761317814538126,0.4730976521968842,-0.4941626489162445,0.2423609495162964,0.02144402265548706,-0.02245153486728668,0.0435718297958374,1,0.1328215152025223,-0.4067020118236542,0.4679589569568634,0.7732827663421631,-0.7533013224601746,0.1752225160598755,-0.6339038610458374,0,0,0,-1,156102.5372476667,3,2,1561824359.842469,1561824121.559794,12,3.602502,0,0,10.50458,0,0,1561824170.876706,156103.328126,0,0.2509766,75.37456,0,182478453,5,1,0.32,-24.94451,-41.77708,3
1561824363.965261,19,0,0,1561824362.995723,4.634817698974754,-74.15106195963374,2553.384,0.42,290.7421875,3,10,-9999,1561824363.959892,-23.22988891601562,16.8605899810791,11.33734130859375,50.15317153930664,57.64636611938477,15,156106.67348125,-0.743927001953125,0.16326904296875,-0.5568084716796875,156106.67143725,0.4175743378606093,-0.3833394020476407,0.1147295123928316,156106.67180325,-101.8968048095703,-10.48858642578125,-551.8923950195312,156106.66637125,1.015722443145298,-0.8786470203552188,-0.1727877793673811,0.4394299685955048,-0.4045153260231018,0.1168261989951134,0.01263886690139771,-0.01661007106304169,0.05868291854858398,1,0.1378329545259476,-0.4082364141941071,0.4705558121204376,0.7700145244598389,-0.7584121227264404,0.1719292849302292,-0.628690242767334,0,0,0,-1,156102.5372476667,3,2,1561824359.842469,1561824121.559794,12,3.602502,0,0,10.50458,0,0,1561824170.876706,156103.328126,0,0.2509766,75.37456,0,182478453,5,1,0.32,-25.50179,-41.99426,3
1561824363.99527,20,0,0,1561824362.995723,4.634817698974754,-74.15106195963374,2553.384,0.42,290.7421875,3,10,-9999,1561824363.986446,-22.82392120361328,17.11081123352051,11.5137939453125,49.63183975219727,57.12503433227539,15,156106.69374525,-0.7528533935546875,0.1736602783203125,-0.5528106689453125,156106.69170025,0.2833696610482462,-0.3394276040977601,0.1491713758224994,156106.69188425,-101.7444763183594,-10.62309265136719,-551.6427612304688,156106.68663525,1.023394995129315,-0.8850498330960247,-0.1697062536218322,0.3188199102878571,-0.3620344400405884,0.1360731273889542,0.01697880029678345,0.001700431108474731,0.07093131542205811,1,0.1421503871679306,-0.4095318019390106,0.4725427627563477,0.7673202753067017,-0.7628284096717834,0.1688928306102753,-0.6241539120674133,0,0,0,-1,156102.5372476667,3,2,1561824359.842469,1561824121.559794,12,3.602502,0,0,10.50458,0,0,1561824170.876706,156104.270672,0,0.2746582,75.37432,0,182478453,5,1,0.32,-26.05907,-42.57593,3
1561824364.005745,21,0,0,1561824362.995723,4.634817698974754,-74.15106195963374,2553.384,0.42,290.7421875,3,10,-9999,1561824363.986446,-22.82392120361328,17.11081123352051,11.5137939453125,49.63183975219727,57.12503433227539,15,156106.71397825,-0.7687530517578125,0.1771392822265625,-0.543853759765625,156106.71196425,0.1577187913411087,-0.2618001867474765,0.1448141779630207,156106.71199525,-101.6355133056641,-10.46080017089844,-551.4219970703125,156106.70689825,1.029309118015115,-0.8905342671082553,-0.1688372183335867,0.1865793168544769,-0.2755863666534424,0.149461641907692,0.008053064346313477,0.007394075393676758,0.07583296298980713,1,0.1450101882219315,-0.4110298752784729,0.4742687940597534,0.7649154663085938,-0.7663538455963135,0.1680362224578857,-0.6200529932975769,0,0,0,-1,156102.5372476667,3,2,1561824359.842469,1561824121.559794,12,3.602502,0,0,10.50458,0,0,1561824170.876706,156104.270672,0,0.2746582,75.37432,0,182478453,5,1,0.32,-26.05907,-42.57593,3
1561824364.027925,22,0,0,1561824362.995723,4.634817698974754,-74.15106195963374,2553.384,0.42,290.7421875,3,10,-9999,1561824364.01066,-22.72373199462891,17.27630233764648,11.73406982421875,49.27771759033203,56.77091217041016,15,156106.73424225,-0.7946014404296875,0.1792449951171875,-0.556060791015625,156106.73222825,0.06599765918601666,-0.1989101702374733,0.1125406602928955,156106.73210625,-101.5179901123047,-10.2525634765625,-551.6895141601562,156106.72716225,1.033164813120369,-0.895011076307678,-0.1692965809892922,0.08439677208662033,-0.2231378108263016,0.120761550962925,-0.01447713375091553,0.008955433964729309,0.06516075134277344,1,0.1466833353042603,-0.4125532805919647,0.4754924774169922,0.7630141973495483,-0.7690616846084595,0.1684890240430832,-0.6165675520896912,0,0,0,-1,156102.5372476667,3,2,1561824359.842469,1561824121.559794,12,3.602502,0,0,10.50458,0,0,1561824170.876706,156104.270672,0,0.2746582,75.37432,0,182478453,5,1,0.32,-26.61635,-42.16199,3
1561824364.046745,23,0,0,1561824363.995706,4.634828846905972,-74.15106967098465,2553.276,0.42,316.40625,3,10,-9999,1561824364.01066,-22.72373199462891,17.27630233764648,11.73406982421875,49.27771759033203,56.77091217041016,15,156106.75450625,-0.80072021484375,0.178863525390625,-0.5677642822265625,156106.75249125,0.005517270830317157,-0.1126631657030391,0.03013206983759253,156106.75218625,-101.5240478515625,-10.34445190429688,-551.3118896484375,156106.74742625,1.035069898424798,-0.8983575036218726,-0.1701355429030131,0.01509971916675568,-0.1390330642461777,0.050752904266119,-0.02938991785049438,0.01325546205043793,0.05208891630172729,1,0.1475379914045334,-0.4138615727424622,0.4761141836643219,0.7617522478103638,-0.7710098028182983,0.1693159341812134,-0.6139022707939148,0,0,0,-1,156102.5372476667,3,2,1561824359.842469,1561824121.559794,12,3.602502,0,0,10.50458,0,0,1561824170.876706,156104.270672,0,0.2746582,75.37432,0,182478453,5,1,0.32,-27.17363,-40.06977,3
1561824364.073247,24,0,0,1561824363.995706,4.634828846905972,-74.15106967098465,2553.276,0.42,316.40625,3,10,-9999,1561824364.046406,-22.55763244628906,17.47249603271484,11.5081787109375,49.10206604003906,56.59526062011719,15,156106.77476925,-0.7858734130859375,0.1807098388671875,-0.5684661865234375,156106.77275525,-0.02356338300891209,0.00616468529131542,-0.04606230053011951,156106.77229725,-101.5811614990234,-10.44679260253906,-551.4163208007812,156106.76765925,1.035112330168181,-0.9000464086840015,-0.1702080361793202,-0.01588589325547218,-0.01990746147930622,-0.0381213091313839,-0.02140581607818604,0.006424397230148315,0.04613959789276123,1,0.1479198783636093,-0.4145164787769318,0.4760178625583649,0.7613821625709534,-0.7720358967781067,0.1693873852491379,-0.6125916242599487,0,0,0,-1,156102.5372476667,3,2,1561824359.842469,1561824121.559794,12,3.602502,0,0,10.50458,0,0,1561824170.876706,156104.270672,0,0.2746582,75.37432,0,182478453,5,1,0.32,-27.73091,-40.80344,3
1561824364.086886,25,0,0,1561824363.995706,4.634828846905972,-74.15106967098465,2553.276,0.42,316.40625,3,10,-9999,1561824364.046406,-22.55763244628906,17.47249603271484,11.5081787109375,49.10206604003906,56.59526062011719,15,156106.79503325,-0.7753753662109375,0.1877288818359375,-0.5794219970703125,156106.79298825,-0.0580742223108129,0.05961885574305886,-0.04027844727468542,156106.79237825,-101.3683013916016,-10.62387084960938,-551.4644775390625,156106.78792225,1.033934066821274,-0.8999019822773526,-0.1698524030624479,-0.04819643124938011,0.05038640648126602,-0.04829112067818642,-0.01101022958755493,0.01553343236446381,0.03504276275634766,1,0.1477832645177841,-0.4144754111766815,0.4755196273326874,0.7617422342300415,-0.7719945311546326,0.1690368801355362,-0.6127404570579529,0,0,0,-1,156102.5372476667,3,2,1561824359.842469,1561824121.559794,12,3.602502,0,0,10.50458,0,0,1561824170.876706,156104.270672,0,0.2746582,75.37432,0,182478453,3,1,0.32,-28.28819,-41.036,3
1561824364.109837,26,0,0,1561824363.995706,4.634828846905972,-74.15106967098465,2553.276,0.42,316.40625,3,10,-9999,1561824364.087557,-22.41147613525391,17.15209770202637,11.69866943359375,49.18813323974609,56.68132781982422,15,156106.81529725,-0.7670440673828125,0.18878173828125,-0.5864410400390625,156106.81325225,-0.06308735674677807,0.05779006302250145,-0.0101130879234669,156106.81248925,-101.2465209960938,-10.23800659179688,-551.6680297851562,156106.80818625,1.032473269111218,-0.8990871348209575,-0.1700444270186146,-0.06648062914609909,0.05276194587349892,-0.02313996106386185,0.002182483673095703,0.02086785435676575,0.03102797269821167,1,0.1472102552652359,-0.4143121540546417,0.4750556945800781,0.7622314095497131,-0.7714695930480957,0.1692261397838593,-0.6133491396903992,0,0,0,-1,156102.5372476667,3,2,1561824359.842469,1561824121.559794,12,3.602502,0,0,10.50458,0,0,1561824170.876706,156104.270672,0,0.2746582,75.37432,0,182478453,3,1,0.32,-28.84546,-41.7359,3
1561824364.127377,27,0,0,1561824363.995706,4.634828846905972,-74.15106967098465,2553.276,0.42,316.40625,3,10,-9999,1561824364.111572,-22.31584167480469,17.45519256591797,11.5147705078125,49.28408050537109,56.77727508544922,15,156106.83553025,-0.77203369140625,0.185211181640625,-0.60137939453125,156106.83351625,-0.07760398153269099,0.0222863972662191,0.01585619481422278,156106.83257025,-101.4215087890625,-10.69776916503906,-551.5900268554688,156106.82845025,1.031285610275306,-0.8983784339816607,-0.1708362497381304,-0.07588185369968414,0.03481650352478027,0.00951571948826313,0.002649664878845215,0.01805807650089264,0.02314436435699463,1,0.1464796811342239,-0.4142917692661285,0.4747890830039978,0.7625492215156555,-0.7709296345710754,0.1700064837932587,-0.6138120889663696,0,0,0,-1,156102.5372476667,3,2,1561824359.842469,1561824121.559794,12,3.602502,0,0,10.50458,0,0,1561824170.876706,156104.270672,0,0.2746582,75.37432,0,182478453,3,1,0.32,-28.84546,-41.7359,3
1561824364.152631,28,0,0,1561824363.995706,4.634828846905972,-74.15106967098465,2553.276,0.42,316.40625,3,10,-9999,1561824364.138254,-22.41568756103516,17.11683464050293,11.614501953125,49.35958480834961,56.85277938842773,15,156106.85579325,-0.77618408203125,0.1793365478515625,-0.607269287109375,156106.85377925,-0.04582394761255742,0.03039385857274732,0.004297543051060866,156106.85268125,-101.3357696533203,-10.38587951660156,-551.3255615234375,156106.84871325,1.030257629708634,-0.8983509824180763,-0.1719327258692534,-0.05529002472758293,0.01222703978419304,0.004447458311915398,-0.002793073654174805,0.009516119956970215,0.005135178565979004,1,0.1458219885826111,-0.4145812094211578,0.4745846688747406,0.7626451849937439,-0.7707664966583252,0.1710868924856186,-0.613716721534729,0,0,0,-1,156102.5372476667,3,2,1561824359.842469,1561824121.559794,12,3.602502,0,0,10.50458,0,0,1561824170.876706,156104.270672,0,0.2746582,75.37432,0,182478453,3,1,0.32,-29.96002,-42.71841,3
1561824364.168313,29,0,0,1561824363.995706,4.634828846905972,-74.15106967098465,2553.276,0.42,316.40625,3,10,-9999,1561824364.162287,-22.40194702148438,17.28805923461914,11.7686767578125,49.40235137939453,56.89554595947266,15,156106.87605725,-0.7692108154296875,0.1778564453125,-0.6097412109375,156106.87404325,-0.005631786757190565,0.1228449631826301,0.01481702935687386,156106.87276125,-101.4407196044922,-10.40837097167969,-551.3453369140625,156106.86897725,1.029677748707382,-0.8975416736001495,-0.1724564507671383,-0.01863401010632515,0.09614963829517365,0.003152629127725959,-0.006747603416442871,0.004529312252998352,0.003322482109069824,1,0.1453003883361816,-0.4144220054149628,0.4745109677314758,0.7628771662712097,-0.7701994180679321,0.171602874994278,-0.6142843961715698,0,0,0,-1,156102.5372476667,3,2,1561824359.842469,1561824121.559794,12,3.602502,0,0,10.50458,0,0,1561824170.876706,156104.270672,0,0.2746582,75.37432,0,182478453,3,1,0.32,-29.96002,-42.71841,3
1561824364.188129,30,0,0,1561824363.995706,4.634828846905972,-74.15106967098465,2553.276,0.42,316.40625,3,10,-9999,1561824364.162287,-22.40194702148438,17.28805923461914,11.7686767578125,49.40235137939453,56.89554595947266,15,156106.89632125,-0.757080078125,0.1699676513671875,-0.6015625,156106.89430725,0.03203063737871002,0.1656100039671225,0.05323632387457496,156106.89287225,-101.4472808837891,-10.254150390625,-551.913330078125,156106.88921025,1.029966697258403,-0.8948670970658591,-0.1727893496087492,0.02310624718666077,0.1568020582199097,0.04014100506901741,0.004944026470184326,0.005132153630256653,0.0087319016456604,1,0.1445922702550888,-0.4134487807750702,0.4748712182044983,0.7633154392242432,-0.7685090899467468,0.1719308346509933,-0.6163063645362854,0,0,0,-1,156102.5372476667,3,2,1561824359.842469,1561824121.559794,12,3.602502,0,0,10.50458,0,0,1561824170.876706,156104.270672,0,0.2746582,75.37432,0,182478453,3,1,0.32,-30.5173,-42.90825,3
1561824364.210842,31,0,0,1561824363.995706,4.634828846905972,-74.15106967098465,2553.276,0.42,316.40625,3,10,-9999,1561824364.189851,-22.53872680664062,17.42109489440918,11.4014892578125,49.36190795898438,56.8551025390625,15,156106.91658425,-0.7568359375,0.168365478515625,-0.5866546630859375,156106.91454025,0.03919400807880516,0.1461122026783253,0.07364971994614133,156106.91295325,-101.5398101806641,-10.40740966796875,-551.8049926757812,156106.90947425,1.031277563398016,-0.8914645766959194,-0.1732404169374947,0.04350179806351662,0.1522147655487061,0.06811778247356415,0.008778929710388184,-0.003124669194221497,0.02827745676040649,1,0.1438737511634827,-0.4121479094028473,0.4756927788257599,0.7636431455612183,-0.7663472890853882,0.1723751574754715,-0.618868887424469,0,0,0,-1,156102.5372476667,3,2,1561824359.842469,1561824121.559794,12,3.602502,0,0,10.50458,0,0,1561824170.876706,156104.270672,0,0.2746582,75.37432,0,182478453,3,1,0.32,-31.07458,-43.592,3
1561824364.232266,32,0,0,1561824363.995706,4.634828846905972,-74.15106967098465,2553.276,0.42,316.40625,3,10,-9999,1561824364.213389,-22.50020599365234,17.3431510925293,11.4532470703125,49.25690460205078,56.75009918212891,15,156106.93684825,-0.7583465576171875,0.15936279296875,-0.5900115966796875,156106.93480325,-0.02746731085085925,0.09582879182043023,0.06161942235392639,156106.93306425,-101.5856628417969,-10.28315734863281,-551.7423706054688,156106.92973825,1.032548498509804,-0.8886300136888667,-0.1740397588656786,-0.007898807525634766,0.1027489528059959,0.0647270455956459,0.009432137012481689,-0.008626952767372131,0.03603643178939819,1,0.143140584230423,-0.4111386239528656,0.476515144109726,0.7638123035430908,-0.7644827961921692,0.1731624752283096,-0.6209515929222107,0,0,0,-1,156102.5372476667,3,2,1561824359.842469,1561824121.559794,12,3.602502,0,0,10.50458,0,0,1561824170.876706,156104.270672,0,0.2746582,75.37432,0,182478453,3,1,0.32,-31.63186,-44.26767,3
1561824364.248852,33,0,0,1561824363.995706,4.634828846905972,-74.15106967098465,2553.276,0.42,316.40625,3,10,-9999,1561824364.239088,-22.58159637451172,17.41123962402344,11.41741943359375,49.23153305053711,56.72472763061523,15,156106.95711225,-0.7715606689453125,0.1602783203125,-0.5898895263671875,156106.95506725,-0.08086022859753086,0.06555317760008243,0.01408252952823,156106.95314525,-101.5309295654297,-10.38478088378906,-551.6371459960938,156106.95000125,1.032467906523127,-0.8870259244305839,-0.1753528103984854,-0.07216780632734299,0.06492993235588074,0.02537484467029572,-0.004452407360076904,-0.01802244782447815,0.03017503023147583,1,0.1422159224748611,-0.4108018577098846,0.4768175482749939,0.7639774680137634,-0.7633088231086731,0.1744555532932281,-0.6220329403877258,0,0,0,-1,156102.5372476667,3,2,1561824359.842469,1561824121.559794,12,3.602502,0,0,10.50458,0,0,1561824170.876706,156104.270672,0,0.2746582,75.37432,0,182478453,3,1,0.32,-32.18914,-38.8859,3
1561824364.26908,34,0,0,1561824363.995706,4.634828846905972,-74.15106967098465,2553.276,0.42,316.40625,3,10,-9999,1561824364.239088,-22.58159637451172,17.41123962402344,11.41741943359375,49.23153305053711,56.72472763061523,15,156106.97734525,-0.778228759765625,0.1655120849609375,-0.6051025390625,156106.97533125,-0.1263432915905582,0.01540106058392824,-0.0323693914693681,156106.97325625,-101.6183166503906,-10.14779663085938,-551.580322265625,156106.97026525,1.030931429354943,-0.8862987828910738,-0.176549256085316,-0.1183483526110649,0.02475055493414402,-0.02587982080876827,-0.01503115892410278,-0.01140317320823669,0.02847647666931152,1,0.1412476301193237,-0.4108788371086121,0.4764809608459473,0.7643256187438965,-0.7626940608024597,0.1756335198879242,-0.622455358505249,0,0,0,-1,156102.5372476667,3,2,1561824359.842469,1561824121.559794,12,3.602502,0,0,10.50458,0,0,1561824170.876706,156104.270672,0,0.2746582,75.37432,0,182478453,3,1,0.32,-32.74642,-39.18954,3
1561824364.289371,35,0,0,1561824363.995706,4.634828846905972,-74.15106967098465,2553.276,0.42,316.40625,3,10,-9999,1561824364.239088,-22.58159637451172,17.41123962402344,11.41741943359375,49.23153305053711,56.72472763061523,15,156106.99760925,-0.7628021240234375,0.175079345703125,-0.614105224609375,156106.99559425,-0.1136386816103351,0.007889881045468752,-0.05245149030132861,156106.99333625,-101.6941986083984,-10.48123168945312,-551.661376953125,156106.99052925,1.028322024480709,-0.8866609000903402,-0.1774782768328055,-0.1220450848340988,-0.0008038075175136328,-0.05733202025294304,-0.004617691040039062,-0.006382018327713013,0.01088494062423706,1,0.1404249668121338,-0.4113914966583252,0.4756124317646027,0.7647421956062317,-0.7627925872802734,0.1765480190515518,-0.6220757365226746,0,0,0,-1,156102.5372476667,3,2,1561824359.842469,1561824121.559794,12,3.602502,0,0,10.50458,0,0,1561824170.876706,156104.270672,0,0.2746582,75.37432,0,182478453,3,1,0.32,-32.74642,-39.18954,3
1561824364.314046,36,0,0,1561824363.995706,4.634828846905972,-74.15106967098465,2553.276,0.42,316.40625,3,10,-9999,1561824364.29439,-22.55624389648438,17.32884788513184,11.5269775390625,49.33839416503906,56.83158874511719,15,156107.01787225,-0.7574310302734375,0.1852874755859375,-0.617767333984375,156107.01585825,-0.04905516096315056,0.01677711591917218,-0.02288001587319776,156107.01344725,-101.6086273193359,-10.42582702636719,-551.3969116210938,156107.01079225,1.026084337509305,-0.8869782651012401,-0.1779793358892444,-0.06983906030654907,0.01075848564505577,-0.03301532566547394,0.002575874328613281,0.003088817000389099,0.003842473030090332,1,0.1398388594388962,-0.4117721021175385,0.4748177230358124,0.7651385068893433,-0.7629213333129883,0.1770411878824234,-0.6217776536941528,0,0,0,-1,156102.5372476667,3,2,1561824359.842469,1561824121.559794,12,3.602502,0,0,10.50458,0,0,1561824170.876706,156104.270672,0,0.2746582,75.37432,0,182478453,3,1,0.32,-31.16485,-32.4175,3
1561824364.329906,37,0,0,1561824363.995706,4.634828846905972,-74.15106967098465,2553.276,0.42,316.40625,3,10,-9999,1561824364.314564,-22.65059661865234,17.30556488037109,11.77874755859375,49.63862228393555,57.13181686401367,15,156107.03813625,-0.756317138671875,0.1887054443359375,-0.6123809814453125,156107.03612225,-0.0173627450428806,-0.001976598161056811,0.01545805223125593,156107.03352825,-101.5906372070312,-10.47647094726562,-551.4956665039062,156107.03102525,1.025263873708089,-0.8869965023317044,-0.1781867543051776,-0.01938254944980145,-0.0002651363611221313,0.002761314157396555,0.009303092956542969,0.01068189740180969,0.007177531719207764,1,0.1395910233259201,-0.4118787348270416,0.4745370745658875,0.7653003931045532,-0.762904167175293,0.1772453337907791,-0.6217405200004578,0,0,0,-1,156102.5372476667,3,2,1561824359.842469,1561824121.559794,12,3.602502,0,0,10.50458,0,0,1561824170.876706,156104.270672,0,0.2746582,75.37432,0,182478453,3,1,0.32,-31.16485,-32.4175,3
1561824364.350214,38,0,0,1561824363.995706,4.634828846905972,-74.15106967098465,2553.276,0.42,316.40625,3,10,-9999,1561824364.343541,-22.60904693603516,17.3259391784668,11.653564453125,49.6578483581543,57.15104293823242,15,156107.05840025,-0.7635650634765625,0.187164306640625,-0.6022796630859375,156107.05635525,-0.05139741114187525,-0.01026515442171042,0.03004578341827397,156107.05363925,-101.5549926757812,-10.396728515625,-551.3362426757812,156107.05128925,1.025066381114287,-0.8872402420934095,-0.1787270802904027,-0.0388830155134201,-0.01163949724286795,0.02260346151888371,0.002971529960632324,0.01025697588920593,0.01382791996002197,1,0.1393912881612778,-0.4120959639549255,0.4745344817638397,0.7652214765548706,-0.7629812955856323,0.1777770817279816,-0.6214939951896667,0,0,0,-1,156102.5372476667,3,2,1561824359.842469,1561824121.559794,12,3.602502,0,0,10.50458,0,0,1561824170.876706,156104.270672,0,0.2746582,75.37432,0,182478453,3,1,0.32,-19.87974,-20.15119,3
1561824364.370446,39,0,0,1561824363.995706,4.634828846905972,-74.15106967098465,2553.276,0.42,316.40625,3,10,-9999,1561824364.365265,-22.58845520019531,17.29189491271973,11.8017578125,49.70074462890625,57.19393920898438,15,156107.07866325,-0.7730255126953125,0.1852569580078125,-0.6080169677734375,156107.07661925,-0.08374336679365066,-0.05265788528580975,0.03561099114821255,156107.07371925,-101.2911529541016,-10.47117614746094,-551.53515625,156107.07155325,1.024443985000919,-0.8878556777870339,-0.1800009287091212,-0.08322304487228394,-0.04522595182061195,0.03508197143673897,-0.008052825927734375,0.005906045436859131,0.01532065868377686,1,0.138897567987442,-0.4126342236995697,0.4744656682014465,0.765064001083374,-0.7631874084472656,0.1790304929018021,-0.6208809018135071,0,0,0,-1,156102.5372476667,3,2,1561824359.842469,1561824121.559794,12,3.602502,0,0,10.50458,0,0,1561824170.876706,156104.270672,0,0.2746582,75.37432,0,182478453,3,1,0.32,-17.11774,-17.17157,3
1561824364.395335,40,0,0,1561824363.995706,4.634828846905972,-74.15106967098465,2553.276,0.42,316.40625,3,10,-9999,1561824364.392504,-22.771484375,17.3570384979248,11.689697265625,49.75143814086914,57.24463272094727,15,156107.09889625,-0.7805938720703125,0.1926422119140625,-0.602020263671875,156107.09688225,-0.07119614963385133,-0.03384105428774589,0.0545247612099553,156107.09383125,-101.8087005615234,-10.3895263671875,-551.4434204101562,156107.09181625,1.023640208616307,-0.8891417484321851,-0.1815862379508171,-0.07617338746786118,-0.04720041900873184,0.04578015580773354,-0.01383930444717407,0.005948737263679504,0.01341128349304199,1,0.138400211930275,-0.4135042428970337,0.4743332266807556,0.7647663354873657,-0.7637639045715332,0.180589959025383,-0.6197192668914795,0,0,0,-1,156102.5372476667,3,2,1561824359.842469,1561824121.559794,12,3.602502,0,0,10.50458,0,0,1561824170.876706,156104.270672,0,0.2746582,75.37432,0,182478453,3,1,0.32,-14.59706,-15.85236,3
1561824364.410941,41,0,0,1561824363.995706,4.634828846905972,-74.15106967098465,2553.276,0.42,316.40625,3,10,-9999,1561824364.392504,-22.771484375,17.3570384979248,11.689697265625,49.75143814086914,57.24463272094727,15,156107.11916025,-0.7805023193359375,0.190277099609375,-0.59906005859375,156107.11714625,-0.0604803883556995,-0.04322843081416619,0.06584506005555511,156107.11391125,-101.3353729248047,-10.48052978515625,-551.3837890625,156107.11208025,1.023180157104709,-0.8900615446535853,-0.1833837699974396,-0.06822811812162399,-0.04853546246886253,0.06219587847590446,-0.01324844360351562,0.01255811750888824,0.01457834243774414,1,0.1378014832735062,-0.4142525494098663,0.4743934273719788,0.7644320130348206,-0.7640800476074219,0.1823576390743256,-0.6188111305236816,0,0,0,-1,156102.5372476667,3,2,1561824359.842469,1561824121.559794,12,3.602502,0,0,10.50458,0,0,1561824170.876706,156104.270672,0,0.2746582,75.37432,0,182478453,3,1,0.32,-13.61697,-16.52896,3
1561824364.431284,42,0,0,1561824363.995706,4.634828846905972,-74.15106967098465,2553.276,0.42,316.40625,3,10,-9999,1561824364.415429,-22.37891387939453,17.29690361022949,11.7706298828125,49.77375411987305,57.26694869995117,15,156107.13942425,-0.7723541259765625,0.1933441162109375,-0.5878753662109375,156107.13741025,-0.06093658785043007,-0.0505420037997418,0.02818982645459774,156107.13402225,-101.1820220947266,-10.21881103515625,-551.4526977539062,156107.13234425,1.022898877992514,-0.8910396877694472,-0.1849980100772689,-0.05819279700517654,-0.04643183201551437,0.03402895480394363,-0.01272082328796387,0.009246945381164551,0.02637070417404175,1,0.1373270601034164,-0.4149728417396545,0.4744877219200134,0.7640681266784668,-0.7644550800323486,0.1839445829391479,-0.6178776621818542,0,0,0,-1,156102.5372476667,3,2,1561824359.842469,1561824121.559794,12,3.602502,0,0,10.50458,0,0,1561824170.876706,156104.270672,0,0.2746582,75.37432,0,182478453,3,1,0.32,-13.61697,-17.28587,3
1561824364.451502,43,0,0,1561824363.995706,4.634828846905972,-74.15106967098465,2553.276,0.42,316.40625,3,10,-9999,1561824364.443005,-22.21890258789062,17.46067047119141,11.76708984375,49.82181167602539,57.31500625610352,15,156107.15968825,-0.774444580078125,0.1858673095703125,-0.584747314453125,156107.15767325,-0.1020595235067796,-0.07264304505409137,-0.02306190977565017,156107.15410325,-101.2741394042969,-10.48716735839844,-551.3087158203125,156107.15257725,1.021962662316219,-0.8925341442974242,-0.1861554414132706,-0.09181892871856689,-0.08198264241218567,-0.008967246860265732,-0.008943319320678711,0.001639664173126221,0.02994585037231445,1,0.1370222717523575,-0.4158420562744141,0.4742206633090973,0.7638161778450012,-0.7652113437652588,0.1850821375846863,-0.6166005730628967,0,0,0,-1,156102.5372476667,3,2,1561824359.842469,1561824121.559794,12,3.602502,0,0,10.50458,0,0,1561824170.876706,156104.270672,0,0.2746582,75.37432,0,182478453,3,1,0.32,-13.61697,-17.28587,3
1561824364.472753,44,0,0,1561824363.995706,4.634828846905972,-74.15106967098465,2553.276,0.42,316.40625,3,10,-9999,1561824364.466094,-22.59535980224609,17.33451461791992,11.82330322265625,49.99385833740234,57.48705291748047,15,156107.17995125,-0.77392578125,0.187774658203125,-0.571044921875,156107.17790725,-0.1705064919473422,0.005793174319249367,-0.07598025221606967,156107.17421425,-101.6195526123047,-10.39039611816406,-551.3484497070312,156107.17284125,1.019510076917099,-0.894269058236302,-0.1870159781838334,-0.1529222279787064,-0.02604426816105843,-0.0713571235537529,-0.008868932723999023,-0.0009606927633285522,0.03799319267272949,1,0.1365771144628525,-0.4168460667133331,0.4733090996742249,0.7639139890670776,-0.766155481338501,0.1859277337789536,-0.6151720881462097,0,0,0,-1,156102.5372476667,3,2,1561824359.842469,1561824121.559794,12,3.602502,0,0,10.50458,0,0,1561824170.876706,156104.270672,0,0.2746582,75.37432,0,182478453,3,1,0.32,-13.61697,-18.18588,3
1561824364.493353,45,0,0,1561824363.995706,4.634828846905972,-74.15106967098465,2553.276,0.42,316.40625,3,10,-9999,1561824364.466094,-22.59535980224609,17.33451461791992,11.82330322265625,49.99385833740234,57.48705291748047,15,156107.20021525,-0.765716552734375,0.201324462890625,-0.568267822265625,156107.19817025,-0.2595849693527486,0.0993026191463296,-0.05874107784776875,156107.19429425,-101.6505584716797,-10.64500427246094,-551.4727172851562,156107.19310425,1.015317848171782,-0.894450947887207,-0.188302038926632,-0.2440353631973267,0.08451738953590393,-0.0705038458108902,-0.004900574684143066,0.007724568247795105,0.04832375049591064,1,0.1352288275957108,-0.4174588322639465,0.4719099998474121,0.7646844983100891,-0.7660802602767944,0.1871912181377411,-0.6148825883865356,0,0,0,-1,156102.5372476667,3,2,1561824359.842469,1561824121.559794,12,3.602502,0,0,10.50458,0,0,1561824170.876706,156104.270672,0,0.2746582,75.37432,0,182478453,3,1,0.32,-13.61697,-19.19611,3
1561824364.512239,46,0,0,1561824363.995706,4.634828846905972,-74.15106967098465,2553.276,0.42,316.40625,3,10,-9999,1561824364.492756,-22.63081359863281,17.12129783630371,11.7547607421875,50.31314086914062,57.80633544921875,15,156107.22047925,-0.7596435546875,0.19940185546875,-0.5744476318359375,156107.21843425,-0.3279003776354611,0.09109848509223149,-0.03913541853482341,156107.21440625,-101.6156616210938,-10.84747314453125,-551.3349609375,156107.21336825,1.010124218766111,-0.8936165294366423,-0.190960723813801,-0.3104495406150818,0.08851160109043121,-0.04410712420940399,0.004525601863861084,0.01194947957992554,0.0439336895942688,1,0.1328775435686111,-0.4180189073085785,0.4704241156578064,0.765705406665802,-0.7651762962341309,0.1898022443056107,-0.6152074933052063,0,0,0,-1,156102.5372476667,3,2,1561824359.842469,1561824121.559794,12,3.602502,0,0,10.50458,0,0,1561824170.876706,156104.270672,0,0.2746582,75.37432,0,182478453,3,1,0.32,-13.61697,-20.1379,3
1561824364.532497,47,0,0,1561824363.995706,4.634828846905972,-74.15106967098465,2553.276,0.42,316.40625,3,10,-9999,1561824364.516718,-22.60581207275391,16.88802719116211,11.8670654296875,50.71340560913086,58.20660018920898,15,156107.24071225,-0.7681427001953125,0.1993408203125,-0.5867767333984375,156107.23869825,-0.3806027377114752,0.1051807483043525,-0.05420598082747281,156107.23448625,-101.7097778320312,-10.60157775878906,-551.1119384765625,156107.23363225,1.003987866462401,-0.8930085859373357,-0.1946641123896735,-0.3735494017601013,0.09609495103359222,-0.04969443753361702,-0.00180286169052124,0.004179581999778748,0.03351676464080811,1,0.1299577355384827,-0.4189238548278809,0.4687328934669495,0.7667484283447266,-0.764249324798584,0.1934369951486588,-0.6152275800704956,0,0,0,-1,156102.5372476667,3,2,1561824359.842469,1561824121.559794,12,3.602502,0,0,10.50458,0,0,1561824170.876706,156104.270672,0,0.2746582,75.37432,0,182478453,3,1,0.32,-13.61697,-21.16952,3
1561824364.552954,48,0,0,1561824363.995706,4.634828846905972,-74.15106967098465,2553.276,0.42,316.40625,3,10,-9999,1561824364.543067,-22.69953155517578,17.05344772338867,12.0400390625,51.20363998413086,58.69683456420898,15,156107.26097525,-0.7645721435546875,0.2126617431640625,-0.5977630615234375,156107.25896125,-0.4143468529355422,0.1067932923443955,-0.08255080325751317,156107.25459725,-101.7666931152344,-11.03890991210938,-550.93310546875,156107.25389525,0.9968738554893719,-0.892379716396117,-0.1986157345001458,-0.4054096043109894,0.1062775477766991,-0.07674150168895721,-0.006163239479064941,0.009581461548805237,0.02414381504058838,1,0.1267223060131073,-0.4199162721633911,0.4667046070098877,0.7679833769798279,-0.7632611989974976,0.1973124742507935,-0.6152235865592957,0,0,0,-1,156102.5372476667,3,2,1561824359.842469,1561824121.559794,12,3.602502,0,0,10.50458,0,0,1561824170.876706,156104.270672,0,0.2746582,75.37432,0,182478453,3,1,0.32,-13.61697,-22.20832,3
1561824364.57299,49,0,0,1561824363.995706,4.634828846905972,-74.15106967098465,2553.276,0.42,316.40625,3,10,-9999,1561824364.567374,-22.78485107421875,16.56761932373047,12.20306396484375,51.76468658447266,59.25788116455078,15,156107.28123925,-0.767059326171875,0.213531494140625,-0.601226806640625,156107.27922525,-0.415952206440642,0.1132112442553774,-0.1043636904819162,156107.27470825,-101.7802886962891,-11.28302001953125,-551.0035400390625,156107.27415925,0.9889767183546332,-0.8920439190647428,-0.2023786244362872,-0.4143008291721344,0.1011560261249542,-0.1075217872858047,-0.001887202262878418,0.01094460487365723,0.0120430588722229,1,0.1234602555632591,-0.4210141003131866,0.4643197059631348,0.7693581581115723,-0.7624713182449341,0.2009999752044678,-0.6150093674659729,0,0,0,-1,156102.5372476667,3,2,1561824359.842469,1561824121.559794,12,3.602502,0,0,10.50458,0,0,1561824170.876706,156104.270672,0,0.2746582,75.37432,0,182478453,3,1,0.32,-13.61697,-23.11421,3
1561824364.593812,50,0,0,1561824363.995706,4.634828846905972,-74.15106967098465,2553.276,0.42,316.40625,3,10,-9999,1561824364.567374,-22.78485107421875,16.56761932373047,12.20306396484375,51.76468658447266,59.25788116455078,15,156107.30150325,-0.763275146484375,0.219268798828125,-0.6026763916015625,156107.29948925,-0.4886069694035297,0.1181471470197303,-0.07489368249131735,156107.29478925,-101.7633209228516,-11.28846740722656,-550.8905029296875,156107.29439225,0.9806782042930775,-0.8915369685381161,-0.2062529274575811,-0.4645128846168518,0.1174319311976433,-0.09169755131006241,-0.00407719612121582,0.01243044435977936,0.01071494817733765,1,0.1200214698910713,-0.4220709204673767,0.4618033170700073,0.7708362936973572,-0.7615478038787842,0.2047936916351318,-0.6149019598960876,0,0,0,-1,156102.5372476667,3,2,1561824359.842469,1561824121.559794,12,3.602502,0,0,10.50458,0,0,1561824170.876706,156104.270672,0,0.2746582,75.37432,0,182478453,3,1,0.32,-13.61697,-23.98642,3
1561824364.613524,51,0,0,1561824363.995706,4.634828846905972,-74.15106967098465,2553.276,0.42,316.40625,3,10,-9999,1561824364.593585,-22.78645324707031,16.4104118347168,12.27734375,52.3718147277832,59.86500930786133,15,156107.32176625,-0.7581329345703125,0.22344970703125,-0.587738037109375,156107.31972225,-0.6655876059608545,0.1040736722392065,-0.02251755964883798,156107.31490025,-101.9533538818359,-11.29010009765625,-550.7239379882812,156107.31465625,0.9713200493856191,-0.8913005725006459,-0.2120129875350669,-0.6132645606994629,0.1019981130957603,-0.03492614254355431,-0.00127708911895752,0.01042747497558594,0.01740670204162598,1,0.1156449019908905,-0.4236283600330353,0.4591706693172455,0.7722225189208984,-0.7604722380638123,0.2104282379150391,-0.614330530166626,0,0,0,-1,156102.5372476667,3,2,1561824359.842469,1561824121.559794,12,3.602502,0,0,10.50458,0,0,1561824170.876706,156104.270672,0,0.2746582,75.37432,0,182478453,3,1,0.32,-13.61697,-23.98642,3
1561824364.633797,52,0,0,1561824363.995706,4.634828846905972,-74.15106967098465,2553.276,0.42,316.40625,3,10,-9999,1561824364.618083,-22.90772247314453,16.42998123168945,12.37841796875,53.11558151245117,60.6087760925293,15,156107.34203025,-0.76434326171875,0.233306884765625,-0.56549072265625,156107.33998525,-0.9491538082975486,0.1448927412151781,0.02124696549276117,156107.33501125,-102.0187683105469,-11.54670715332031,-550.6019897460938,156107.33491925,0.9593740652933795,-0.8917526170722189,-0.2210721584551958,-0.8621758222579956,0.1232602670788765,0.01042855530977249,-0.002834558486938477,0.008659988641738892,0.04001033306121826,1,0.1095135882496834,-0.4261744320392609,0.4560434222221375,0.7735673785209656,-0.7592352032661438,0.2192758172750473,-0.6127642393112183,0,0,0,-1,156102.5372476667,3,2,1561824359.842469,1561824121.559794,12,3.602502,0,0,10.50458,0,0,1561824170.876706,156104.270672,0,0.2746582,75.37432,0,182478453,3,1,0.32,-13.61697,-24.97283,3
1561824364.654119,53,0,0,1561824363.995706,4.634828846905972,-74.15106967098465,2553.276,0.42,316.40625,3,10,-9999,1561824364.644332,-22.96746826171875,16.19818305969238,12.52996826171875,54.19800186157227,61.69119644165039,15,156107.36229425,-0.770416259765625,0.245147705078125,-0.5774078369140625,156107.36024925,-1.327751452024303,0.1141659875061708,0.06585704428046048,156107.35509225,-101.9012145996094,-11.9896240234375,-550.1564331054688,156107.35518325,0.9427628215721986,-0.8927329516483082,-0.2348335906741116,-1.241064548492432,0.1274294406175613,0.05133204534649849,-0.004106700420379639,0.008117809891700745,0.0438152551651001,1,0.1005433425307274,-0.4299494922161102,0.4518594741821289,0.7751500606536865,-0.7574136853218079,0.2326811403036118,-0.6100689172744751,0,0,0,-1,156102.5372476667,3,2,1561824359.842469,1561824121.559794,12,3.602502,0,0,10.50458,0,0,1561824170.876706,156104.270672,0,0.2746582,75.37432,0,182478453,3,1,0.32,-13.61697,-25.856,3
1561824364.67654,54,0,0,1561824363.995706,4.634828846905972,-74.15106967098465,2553.276,0.42,316.40625,3,10,-9999,1561824364.668735,-22.98640441894531,15.61428737640381,13.16802978515625,55.73608779907227,63.22928237915039,15,156107.38252725,-0.7818145751953125,0.2640838623046875,-0.6015167236328125,156107.38051325,-1.512068298436469,0.08659667758556155,0.08920817335049325,156107.37520325,-101.8663482666016,-12.15290832519531,-549.8699340820312,156107.37544725,0.9210367939311689,-0.895928752031195,-0.2536253734170572,-1.500480175018311,0.08385639637708664,0.08595073968172073,-0.01844990253448486,0.002945482730865479,0.01522183418273926,1,0.08882506191730499,-0.4355536699295044,0.4464188516139984,0.7766036987304688,-0.7558115720748901,0.250914990901947,-0.6048062443733215,0,0,0,-1,156102.5372476667,3,2,1561824359.842469,1561824121.559794,12,3.602502,0,0,10.50458,0,0,1561824170.876706,156104.270672,0,0.2746582,75.37432,0,182478453,3,1,0.32,-13.61697,-26.84106,3
1561824364.695189,55,0,0,1561824363.995706,4.634828846905972,-74.15106967098465,2553.276,0.42,316.40625,3,10,-9999,1561824364.668735,-22.98640441894531,15.61428737640381,13.16802978515625,55.73608779907227,63.22928237915039,15,156107.40279125,-0.783660888671875,0.2784271240234375,-0.6217193603515625,156107.40077625,-1.362440989435348,0.2758757920568722,0.1311913100389384,156107.39528325,-102.0333404541016,-12.72898864746094,-549.6676025390625,156107.39571025,0.8978745658156075,-0.89945078077574,-0.2739424271863343,-1.425684809684753,0.2148125618696213,0.1202272176742554,-0.03405255079269409,0.001703113317489624,-0.01822012662887573,1,0.07612284272909164,-0.4413418769836426,0.4406687617301941,0.7779675722122192,-0.7537892460823059,0.2705289423465729,-0.5988453030586243,0,0,0,-1,156102.5372476667,3,2,1561824359.842469,1561824121.559794,12,3.602502,0,0,10.50458,0,0,1561824170.876706,156104.270672,0,0.2746582,75.37432,0,182478453,3,1,0.32,-13.61697,-27.7922,3
1561824364.714816,56,0,0,1561824363.995706,4.634828846905972,-74.15106967098465,2553.276,0.42,316.40625,3,10,-9999,1561824364.694904,-23.03932952880859,15.12999534606934,13.460205078125,57.34957122802734,64.84276580810547,15,156107.42305425,-0.7775726318359375,0.2830047607421875,-0.626556396484375,156107.42104025,-1.046045467709029,0.4815088461501416,0.1976076181483155,156107.41539425,-102.1213989257812,-13.12425231933594,-549.3719482421875,156107.41597425,0.878463743977325,-0.8982377704968028,-0.2922334345502141,-1.120837211608887,0.4341579675674438,0.1571940332651138,-0.02473777532577515,-0.01080897450447083,-0.02709603309631348,1,0.06395305693149567,-0.4445467293262482,0.436204731464386,0.7797523140907288,-0.7490659356117249,0.2880916893482208,-0.596576452255249,0,0,0,-1,156102.5372476667,3,2,1561824359.842469,1561824121.559794,12,3.602502,0,0,10.50458,0,0,1561824170.876706,156104.270672,0,0.2746582,75.37432,0,182478453,3,1,0.32,-13.61697,-28.8179,3
1561824364.735103,57,0,0,1561824363.995706,4.634828846905972,-74.15106967098465,2553.276,0.42,316.40625,3,10,-9999,1561824364.719367,-23.10159301757812,14.67052936553955,13.74163818359375,58.52968597412109,66.02288055419922,15,156107.44331825,-0.7887420654296875,0.3460235595703125,-0.6744537353515625,156107.44130425,-0.8364360477921629,0.4799727348333838,0.4807663568382274,156107.43550525,-102.0501708984375,-13.26219177246094,-548.997314453125,156107.43620725,0.8655996843409394,-0.892209595474675,-0.3090375649508769,-0.8846933841705322,0.4968112111091614,0.4140705466270447,-0.03766876459121704,0.01438528299331665,-0.05138015747070312,1,0.05276156216859818,-0.4452386200428009,0.4341402053833008,0.7813456654548645,-0.7415823340415955,0.3041419386863708,-0.5979575514793396,0,0,0,-1,156102.5372476667,3,2,1561824359.842469,1561824121.559794,12,3.602502,0,0,10.50458,0,0,1561824170.876706,156104.270672,0,0.2746582,75.37432,0,182478453,3,1,0.32,-13.61697,-29.30073,3
1561824364.755326,58,0,0,1561824363.995706,4.634828846905972,-74.15106967098465,2553.276,0.42,316.40625,3,10,-9999,1561824364.745523,-23.11166381835938,14.54661655426025,14.07537841796875,59.09431457519531,66.58750915527344,15,156107.46358225,-0.8543548583984375,0.37701416015625,-0.7581329345703125,156107.46153725,-0.7534815093133936,0.3860992358852898,0.687953631743667,156107.45558625,-102.0530853271484,-13.04058837890625,-549.2567749023438,156107.45647125,0.8592894280203902,-0.8850932474597344,-0.3277513202483731,-0.7698671817779541,0.399740606546402,0.6333163380622864,-0.08534097671508789,0.02964764833450317,-0.1074904203414917,1,0.04196589067578316,-0.4455151259899139,0.4348912239074707,0.7814247608184814,-0.7327743172645569,0.3219148516654968,-0.5995102524757385,0,0,0,-1,156102.5372476667,3,2,1561824359.842469,1561824121.559794,12,3.602502,0,0,10.50458,0,0,1561824170.876706,156104.270672,0,0.2746582,75.37432,0,182478453,3,1,0.32,-13.61697,-29.97597,3
1561824364.777749,59,0,0,1561824363.995706,4.634828846905972,-74.15106967098465,2553.276,0.42,316.40625,3,10,-9999,1561824364.770281,-22.91472625732422,14.69325637817383,13.986328125,59.25166320800781,66.74485778808594,15,156107.48384525,-0.8748779296875,0.4342803955078125,-0.82427978515625,156107.48180125,-0.5230171412162256,0.2031187637081255,0.754232787056905,156107.47569725,-101.8412628173828,-13.05815124511719,-549.1669311523438,156107.47673525,0.8571241105304658,-0.878937201611819,-0.3480016310901206,-0.6148877143859863,0.2512752115726471,0.7469838261604309,-0.1538152694702148,0.0638262927532196,-0.1982308626174927,1,0.03163063526153564,-0.4462462961673737,0.4373928010463715,0.7800969481468201,-0.7239007949829102,0.3410198986530304,-0.5997275114059448,0,0,0,-1,156102.5372476667,3,2,1561824359.842469,1561824121.559794,12,3.602502,0,0,10.50458,0,0,1561824170.876706,156104.270672,0,0.2746582,75.37432,0,182478453,3,1,0.32,-13.61697,-29.97597,3
1561824364.799084,60,0,0,1561824363.995706,4.634828846905972,-74.15106967098465,2553.276,0.42,316.40625,3,10,-9999,1561824364.796232,-22.68292999267578,14.89743423461914,14.007568359375,58.80902099609375,66.30221557617188,15,156107.50407825,-0.869171142578125,0.4813385009765625,-0.8355712890625,156107.50206425,-0.06398164624082667,-0.1315630873271134,0.8949811169837018,156107.49577825,-101.6436614990234,-12.78181457519531,-549.203369140625,156107.49699825,0.8611494844974794,-0.8749942437561613,-0.3652962275596059,-0.1662268489599228,-0.03882025182247162,0.8492763638496399,-0.1364976167678833,0.1067174673080444,-0.2335381507873535,1,0.02438699826598167,-0.4472716450691223,0.4417217969894409,0.7773256301879883,-0.7168959379196167,0.3572259843349457,-0.5987067222595215,0,0,0,-1,156102.5372476667,3,2,1561824359.842469,1561824121.559794,12,3.602502,0,0,10.50458,0,0,1561824170.876706,156104.270672,0,0.2746582,75.37432,0,182478453,3,1,0.32,-13.61697,-30.75338,3
1561824364.816099,61,0,0,1561824363.995706,4.634828846905972,-74.15106967098465,2553.276,0.42,316.40625,3,10,-9999,1561824364.796232,-22.68292999267578,14.89743423461914,14.007568359375,58.80902099609375,66.30221557617188,15,156107.52434225,-0.9757080078125,0.5334625244140625,-0.8831329345703125,156107.52232825,0.2563324507134347,-0.5959962771998849,1.03899874346468,156107.51588925,-101.3401184082031,-12.41862487792969,-549.0242919921875,156107.51726225,0.8743977611224089,-0.8752784303600901,-0.3795217217114275,0.1729599982500076,-0.4753871858119965,1.008798956871033,-0.2033199667930603,0.147742748260498,-0.2604351043701172,1,0.02144088037312031,-0.4493853151798248,0.4490359425544739,0.7719843983650208,-0.7130923271179199,0.3704762756824493,-0.5951862335205078,0,0,0,-1,156102.5372476667,3,2,1561824359.842469,1561824121.559794,12,3.602502,0,0,10.50458,0,0,1561824170.876706,156104.270672,0,0.2746582,75.37432,0,182478453,3,1,0.32,-13.61697,-31.3072,3
1561824364.836225,62,0,0,1561824363.995706,4.634828846905972,-74.15106967098465,2553.276,0.42,316.40625,3,10,-9999,1561824364.820599,-22.42209625244141,15.31188297271729,14.169921875,57.60693359375,65.10012817382812,15,156107.54460625,-1.136062622070312,0.4946441650390625,-0.9293060302734375,156107.54259225,0.6776946025924637,-0.8252502385816121,0.9901502438021194,156107.53600025,-100.9634552001953,-11.91020202636719,-548.65966796875,156107.53752625,0.8948133513451539,-0.8818824370030054,-0.3907635170713419,0.5849366188049316,-0.8762890696525574,1.005318760871887,-0.3321970701217651,0.1335250735282898,-0.322468638420105,1,0.02283863909542561,-0.453419029712677,0.4585062265396118,0.7639774084091187,-0.7137470841407776,0.3808944821357727,-0.58777916431427,0,0,0,-1,156102.5372476667,3,2,1561824359.842469,1561824121.559794,12,3.602502,0,0,10.50458,0,0,1561824170.876706,156104.270672,0,0.2746582,75.37432,0,182478453,3,1,0.32,-13.61697,-31.94905,3
1561824364.871733,63,0,0,1561824363.995706,4.634828846905972,-74.15106967098465,2553.276,0.42,316.40625,3,10,-9999,1561824364.847451,-22.067626953125,15.78079605102539,14.41644287109375,55.84785079956055,63.34104537963867,15,156107.56486925,-1.221115112304688,0.4493865966796875,-0.9278564453125,156107.56285525,1.141071849093019,-0.3326530549168166,0.5452654552788565,156107.55608025,-100.3838653564453,-11.09197998046875,-548.8347778320312,156107.55775925,0.9204940106668529,-0.8864302565417147,-0.3943802351668622,1.024241805076599,-0.4765443205833435,0.6929189562797546,-0.4619510173797607,0.09340980648994446,-0.3626366257667542,1,0.02822063863277435,-0.4553870558738708,0.4687514305114746,0.7563718557357788,-0.7153408527374268,0.384236067533493,-0.5836524367332458,0,0,0,-1,156102.5372476667,3,2,1561824359.842469,1561824121.559794,12,3.602502,0,0,10.50458,0,0,1561824170.876706,156104.270672,0,0.2746582,75.37432,0,182478453,3,1,0.32,-13.61697,-32.68786,3
1561824364.876985,64,0,0,1561824363.995706,4.634828846905972,-74.15106967098465,2553.276,0.42,316.40625,3,10,-9999,1561824364.871672,-21.30083465576172,17.03572463989258,14.1019287109375,54.1063232421875,61.59951782226562,15,156107.58513325,-1.374847412109375,0.362823486328125,-0.84808349609375,156107.58308825,1.038682359927178,0.7588874600101455,-0.4245827125852618,156107.57619125,-100.2734985351562,-10.64039611816406,-549.142333984375,156107.57802225,0.9452081459246127,-0.8800384836712745,-0.3837747413720146,1.21757960319519,0.3254597187042236,-0.1405689567327499,-0.5655465126037598,0.06495353579521179,-0.3030839562416077,1,0.03670753166079521,-0.4508487582206726,0.4766166508197784,0.7538066506385803,-0.7146964073181152,0.3744232952594757,-0.5907759070396423,0,0,0,-1,156102.5372476667,3,2,1561824359.842469,1561824121.559794,12,3.602502,0,0,10.50458,0,0,1561824170.876706,156104.270672,0,0.2746582,75.37432,0,182478453,3,1,0.32,-13.61697,-32.68786,3
1561824364.897302,65,0,0,1561824363.995706,4.634828846905972,-74.15106967098465,2553.276,0.42,316.40625,3,10,-9999,1561824364.871672,-21.30083465576172,17.03572463989258,14.1019287109375,54.1063232421875,61.59951782226562,15,156107.60539725,-1.24725341796875,0.283905029296875,-0.81512451171875,156107.60335225,0.5541937028333471,1.83045240254875,-1.35643556117722,156107.59627225,-100.8902587890625,-10.66883850097656,-549.9359130859375,156107.59828625,0.9492645712980721,-0.8539845720000865,-0.3626631269043415,0.5238000750541687,1.871024966239929,-1.204485774040222,-0.6660744547843933,-0.038206547498703,-0.2240363359451294,1,0.04015833139419556,-0.4373348653316498,0.4755879342556,0.7621952295303345,-0.7048667073249817,0.354765385389328,-0.6142510771751404,0,0,0,-1,156102.5372476667,3,2,1561824359.842469,1561824121.559794,12,3.602502,0,0,10.50458,0,0,1561824170.876706,156104.270672,0,0.2746582,75.37432,0,182478453,3,1,0.32,-13.61697,-33.04947,3
1561824364.917411,66,0,0,1561824363.995706,4.634828846905972,-74.15106967098465,2553.276,0.42,316.40625,3,10,-9999,1561824364.897488,-21.79399108886719,17.08650970458984,13.41790771484375,54.17338943481445,61.66658401489258,15,156107.62566025,-1.108367919921875,0.3878326416015625,-0.9569244384765625,156107.62361625,0.2654942574955254,2.51161097877108,-1.113103331325007,156107.61638325,-101.6985626220703,-11.09512329101562,-550.7650756835938,156107.61855025,0.9378996892338682,-0.8180500018793472,-0.3368723217731817,0.2262679636478424,2.405518770217896,-1.180853366851807,-0.5277897715568542,-0.06448459625244141,-0.1927468776702881,1,0.039996437728405,-0.4192734956741333,0.4682750999927521,0.7767422199249268,-0.6887935400009155,0.3305368423461914,-0.6452200412750244,0,0,0,-1,156102.5372476667,3,2,1561824359.842469,1561824121.559794,12,3.602502,0,0,10.50458,0,0,1561824170.876706,156105.213268,0,0.2746582,75.37432,0,182478453,3,1,0.32,-13.61697,-23.25312,3
1561824364.953183,67,0,0,1561824363.995706,4.634828846905972,-74.15106967098465,2553.276,0.42,316.40625,3,10,-9999,1561824364.948073,-24.09056091308594,16.33657646179199,9.97686767578125,55.09059906005859,62.58379364013672,15,156107.6459047917,-1.00286865234375,0.3270263671875,-1.052947998046875,156107.64387925,0.6349055933581607,2.280490940413535,-0.6264159684352061,156107.63646425,-102.6513671875,-11.53886413574219,-552.09130859375,156107.63881325,0.9285976580406466,-0.7705429557503656,-0.3178727647958797,0.5111385583877563,2.440205097198486,-0.7309342622756958,-0.3512018918991089,0.01547160744667053,-0.293053925037384,1,0.03502573445439339,-0.3974672555923462,0.4629228711128235,0.7915146350860596,-0.6616307497024536,0.3125466108322144,-0.681585967540741,0,0,0,-1,156102.5372476667,3,2,1561824359.842469,1561824121.559794,12,3.602502,0,0,10.50458,0,0,1561824170.876706,156105.213268,0,0.2746582,75.37432,0,182478453,3,1,0.32,-13.61697,-23.66183,3
1561824364.960027,68,0,0,1561824363.995706,4.634828846905972,-74.15106967098465,2553.276,0.42,316.40625,3,10,-9999,1561824364.948073,-24.09056091308594,16.33657646179199,9.97686767578125,55.09059906005859,62.58379364013672,15,156107.6661677917,-1.023971557617188,0.2796478271484375,-1.198333740234375,156107.6641537917,1.422061176758952,1.260399575423981,-0.6630962187610854,156107.6565857917,-103.1594848632812,-11.31747436523438,-553.4728393554688,156107.6590877917,0.9309218163447833,-0.7288716073082873,-0.2976229866816602,1.191982626914978,1.509405136108398,-0.5887523293495178,-0.3660451173782349,0.03747045993804932,-0.4207326769828796,1,0.03441802784800529,-0.3771592080593109,0.461945116519928,0.8019806146621704,-0.6367472410202026,0.2932485342025757,-0.7131326794624329,0,0,0,-1,156102.5372476667,3,2,1561824359.842469,1561824121.559794,12,3.602502,0,0,10.50458,0,0,1561824170.876706,156105.213268,0,0.2746582,75.37432,0,182478453,3,1,0.32,-13.61697,-23.66183,3
1561824364.978223,69,0,0,1561824363.995706,4.634828846905972,-74.15106967098465,2553.276,0.42,316.40625,3,10,-9999,1561824364.972584,-24.56612396240234,15.99270725250244,8.7943115234375,54.4110221862793,61.90421676635742,15,156107.6864317917,-1.109176635742188,0.2694549560546875,-1.298873901367188,156107.6844177917,2.080823367162043,0.6634701265781325,-1.186216956943715,156107.6766967917,-103.6249847412109,-11.77833557128906,-554.6323852539062,156107.6793517917,0.9408019364271493,-0.7043616819333162,-0.2626171247495948,1.960931420326233,0.7507425546646118,-1.013002634048462,-0.4279838800430298,0.002079397439956665,-0.5093868970870972,1,0.04545130953192711,-0.3605344891548157,0.4620213806629181,0.8090025782585144,-0.6253455877304077,0.2596088349819183,-0.7358981370925903,0,0,0,-1,156102.5372476667,3,2,1561824359.842469,1561824121.559794,12,3.602502,0,0,10.50458,0,0,1561824170.876706,156105.213268,0,0.2746582,75.37432,0,182478453,3,1,0.32,-13.61697,-24.71304,3
1561824364.998648,70,0,0,1561824363.995706,4.634828846905972,-74.15106967098465,2553.276,0.42,316.40625,3,10,-9999,1561824364.972584,-24.56612396240234,15.99270725250244,8.7943115234375,54.4110221862793,61.90421676635742,15,156107.7066957917,-1.087127685546875,0.22491455078125,-1.3231201171875,156107.7046807917,2.59847929878783,0.3760500638279848,-2.03433229769642,156107.6967767917,-104.3437652587891,-11.95449829101562,-555.3185424804688,156107.6995847917,0.9477126056648278,-0.6909041857586864,-0.2103220678639617,2.443568229675293,0.4325422048568726,-1.8342125415802,-0.5058820843696594,0.05331006646156311,-0.5712331533432007,1,0.06578318774700165,-0.3447155952453613,0.4586186110973358,0.8164023160934448,-0.6231920123100281,0.2087748795747757,-0.7536874413490295,0,0,0,-1,156102.5372476667,3,2,1561824359.842469,1561824121.559794,12,3.602502,0,0,10.50458,0,0,1561824170.876706,156105.213268,0,0.2746582,75.37432,0,182478453,3,1,0.32,-13.61697,-25.64823,3
1561824365.033182,71,0,0,1561824363.995706,4.634828846905972,-74.15106967098465,2553.276,0.42,316.40625,3,10,-9999,1561824365.027083,-25.79052734375,15.32591152191162,7.03704833984375,53.95488357543945,61.44807815551758,15,156107.7269587917,-0.9136505126953125,0.1997833251953125,-1.222198486328125,156107.7249147917,3.3701837541762,0.447882442646256,-2.618797353692371,156107.7168877917,-104.9178466796875,-12.42146301269531,-556.3516235351562,156107.7198487917,0.9487849065451188,-0.6834615889269039,-0.1384391114858097,3.152734994888306,0.3649144470691681,-2.533048868179321,-0.3905672430992126,0.0670807808637619,-0.5298786163330078,1,0.09474599361419678,-0.3271646499633789,0.4499722123146057,0.8255371451377869,-0.6254392862319946,0.1379973292350769,-0.767973005771637,0,0,0,-1,156102.5372476667,3,2,1561824359.842469,1561824121.559794,12,3.602502,0,0,10.50458,0,0,1561824170.876706,156105.213268,0,0.2746582,75.37432,0,182478453,3,1,0.32,-13.61697,-27.50086,3
1561824365.038967,72,0,0,1561824364.995689,4.634829056453551,-74.15106229490986,2553.268,0.73,103.7109375,3,10,-9999,1561824365.027083,-25.79052734375,15.32591152191162,7.03704833984375,53.95488357543945,61.44807815551758,15,156107.7472227917,-0.7155609130859375,0.18731689453125,-1.034744262695312,156107.7451777917,3.871483349335047,0.5492319674064206,-2.65500515924087,156107.7369687917,-105.6485748291016,-13.46307373046875,-557.42822265625,156107.7401117917,0.9519226801864714,-0.6733274578159345,-0.04947694301234722,3.777366876602173,0.5379530787467957,-2.666349172592163,-0.1855067610740662,0.09782107174396515,-0.3255441188812256,1,0.1305608600378036,-0.3042312860488892,0.4396018385887146,0.8349535465240479,-0.6228275895118713,0.04945676028728485,-0.7807943820953369,0,0,0,-1,156102.5372476667,3,2,1561824359.842469,1561824121.559794,12,3.602502,0,0,10.50458,0,0,1561824170.876706,156105.213268,0,0.2746582,75.37432,0,182478453,3,1,0.32,-13.61697,-27.50086,3
1561824365.061326,73,0,0,1561824364.995689,4.634829056453551,-74.15106229490986,2553.268,0.73,103.7109375,3,10,-9999,1561824365.049494,-27.43743133544922,13.235520362854,4.69769287109375,53.52240753173828,61.01560211181641,15,156107.7674557917,-0.545135498046875,0.1506195068359375,-0.8340301513671875,156107.7654417917,4.017784370134659,0.3199441838788494,-2.640867235961967,156107.7570797917,-106.5658416748047,-14.70098876953125,-558.784423828125,156107.7603757917,0.9589881078475319,-0.6631180731913259,0.04590408727513996,3.987206935882568,0.4099197387695312,-2.621003866195679,-0.01391655206680298,0.2585802376270294,-0.1294252872467041,1,0.1693844795227051,-0.2787214517593384,0.4294613897800446,0.8421319723129272,-0.614928662776947,-0.04588796570897102,-0.7872465252876282,0,0,0,-1,156102.5372476667,3,2,1561824359.842469,1561824121.559794,12,3.602502,0,0,10.50458,0,0,1561824170.876706,156105.213268,0,0.2746582,75.37432,0,182478453,3,1,0.32,-13.61697,-28.44536,3
1561824365.079505,74,0,0,1561824364.995689,4.634829056453551,-74.15106229490986,2553.268,0.73,103.7109375,3,10,-9999,1561824365.075596,-28.08209228515625,12.13599967956543,3.3377685546875,53.01728820800781,60.51048278808594,15,156107.7877197917,-0.3857879638671875,-0.0029296875,-0.673187255859375,156107.7857057917,4.291606598674971,-0.3527031958156961,-2.98518253960835,156107.7771607917,-107.1543426513672,-15.85780334472656,-560.0949096679688,156107.7806397917,0.9662312085011554,-0.6603500980191634,0.1449308272317959,4.20892333984375,-0.145939514040947,-2.881108283996582,0.1473219990730286,0.2067713886499405,0.02357810735702515,1,0.2108653336763382,-0.2545331120491028,0.4175083935260773,0.8464250564575195,-0.6069625020027161,-0.1444239765405655,-0.7814974188804626,0,0,0,-1,156102.5372476667,3,2,1561824359.842469,1561824121.559794,12,3.602502,0,0,10.50458,0,0,1561824170.876706,156105.213268,0,0.2746582,75.37432,0,182478453,3,1,0.32,-13.61697,-28.44536,3
1561824365.112329,75,0,0,1561824364.995689,4.634829056453551,-74.15106229490986,2553.268,0.73,103.7109375,3,10,-9999,1561824365.100125,-28.87270355224609,10.78361892700195,2.70599365234375,52.67355346679688,60.166748046875,15,156107.8079827917,-0.272918701171875,-0.063720703125,-0.490753173828125,156107.8059687917,4.470385401600318,-1.105303465124382,-3.345647518421082,156107.7972717917,-107.9769897460938,-17.2313232421875,-560.6502685546875,156107.8009027917,0.9715878614643133,-0.6726397900424543,0.2530108856911446,4.46700382232666,-0.9404496550559998,-3.279693603515625,0.2795321941375732,0.2136532664299011,0.1738271713256836,1,0.2581768333911896,-0.2338930815458298,0.4004098474979401,0.8475320935249329,-0.6032168865203857,-0.2503201067447662,-0.7572774887084961,0,0,0,-1,156102.5372476667,3,2,1561824359.842469,1561824121.559794,12,3.602502,0,0,10.50458,0,0,1561824170.876706,156105.213268,0,0.2746582,75.37432,0,182478453,3,1,0.32,-13.61697,-30.31093,3
1561824365.119986,76,0,0,1561824364.995689,4.634829056453551,-74.15106229490986,2553.268,0.73,103.7109375,3,10,-9999,1561824365.100125,-28.87270355224609,10.78361892700195,2.70599365234375,52.67355346679688,60.166748046875,15,156107.8282467917,-0.1788482666015625,-0.1154327392578125,-0.4058990478515625,156107.8262327917,4.207870422416264,-1.78832572147755,-3.377401453362532,156107.8173827917,-108.3315734863281,-18.68460083007812,-560.31640625,156107.8211367917,0.9753803025834555,-0.6994620097598478,0.3653737798515528,4.289815425872803,-1.607722282409668,-3.407801151275635,0.3753564953804016,0.2701097130775452,0.2816190719604492,1,0.3086642026901245,-0.2176855951547623,0.3779029846191406,0.8452980518341064,-0.6013086438179016,-0.3572984337806702,-0.7146787643432617,0,0,0,-1,156102.5372476667,3,2,1561824359.842469,1561824121.559794,12,3.602502,0,0,10.50458,0,0,1561824170.876706,156105.213268,0,0.2746582,75.37432,0,182478453,3,1,0.32,-13.61697,-30.31093,3
1561824365.140321,77,0,0,1561824364.995689,4.634829056453551,-74.15106229490986,2553.268,0.73,103.7109375,3,10,-9999,1561824365.126378,-29.30075073242188,9.32213020324707,2.793212890625,52.41546630859375,59.90866088867188,15,156107.8485107917,-0.1359100341796875,-0.234405517578125,-0.3829345703125,156107.8464657917,4.013568319812954,-2.507919038551903,-3.084011382396754,156107.8374627917,-109.0168762207031,-20.4080810546875,-559.8916625976562,156107.8413997917,0.9806096461268317,-0.7415600909969473,0.4727754679883034,4.03078556060791,-2.330242872238159,-3.173231840133667,0.4625090956687927,0.2865205705165863,0.2671380043029785,1,0.3584425747394562,-0.2079793661832809,0.3518289029598236,0.8393329977989197,-0.6013488173484802,-0.4553590714931488,-0.6565269827842712,0,0,0,-1,156102.5372476667,3,2,1561824359.842469,1561824121.559794,12,3.602502,0,0,10.50458,0,0,1561824170.876706,156105.213268,0,0.2746582,75.37432,0,182478453,3,1,0.32,-13.61697,-30.85939,3
1561824365.160492,78,0,0,1561824364.995689,4.634829056453551,-74.15106229490986,2553.268,0.73,103.7109375,3,10,-9999,1561824365.150741,-29.95570373535156,6.058122634887695,3.86944580078125,51.58266830444336,59.07586288452148,15,156107.8687737917,-0.141571044921875,-0.4148712158203125,-0.36798095703125,156107.8667297917,4.119089420104619,-3.009690812172022,-2.8231875105049,156107.8575737917,-108.9074554443359,-21.97532653808594,-559.1466674804688,156107.8616637917,0.9958055787146758,-0.8032164963607408,0.5739995783031306,4.084535121917725,-2.938655138015747,-2.883141279220581,0.4651845693588257,0.2305407524108887,0.2035772204399109,1,0.4079691171646118,-0.2049552649259567,0.324385017156601,0.8284497261047363,-0.6042684316635132,-0.5429949760437012,-0.5831090807914734,0,0,0,-1,156102.5372476667,3,2,1561824359.842469,1561824121.559794,12,3.602502,0,0,10.50458,0,0,1561824170.876706,156105.213268,0,0.2746582,75.37432,0,182478453,3,1,0.32,-13.61697,-31.83474,3
1561824365.192698,79,0,0,1561824364.995689,4.634829056453551,-74.15106229490986,2553.268,0.73,103.7109375,3,10,-9999,1561824365.175733,-29.86553192138672,4.745708465576172,5.39617919921875,49.4124641418457,56.90565872192383,15,156107.8890377917,-0.1390228271484375,-0.640045166015625,-0.2881317138671875,156107.8869927917,4.167668407864864,-2.650245557740681,-2.638429910932326,156107.8776547917,-108.8079681396484,-23.251220703125,-557.466552734375,156107.8819277917,1.026786451294977,-0.8816176827798602,0.6718656384002289,4.1747145652771,-2.832568407058716,-2.689941883087158,0.4536431431770325,0.09702610969543457,0.1504530906677246,1,0.4575428068637848,-0.2044649124145508,0.2968383431434631,0.8128564953804016,-0.6040337681770325,-0.6224472522735596,-0.4976973533630371,0,0,0,-1,156102.5372476667,3,2,1561824359.842469,1561824121.559794,12,3.602502,0,0,10.50458,0,0,1561824170.876706,156105.213268,0,0.2746582,75.37432,0,182478453,3,1,0.32,-13.61697,-32.04426,3
1561824365.201152,80,0,0,1561824364.995689,4.634829056453551,-74.15106229490986,2553.268,0.73,103.7109375,3,10,-9999,1561824365.175733,-29.86553192138672,4.745708465576172,5.39617919921875,49.4124641418457,56.90565872192383,15,156107.9092707917,-0.098388671875,-0.83453369140625,-0.1473236083984375,156107.9072567917,3.896123448372678,-1.858042751441971,-2.343158849288625,156107.8977657917,-108.5572814941406,-23.9630126953125,-556.4243774414062,156107.9021907917,1.073221362899872,-0.9619026744282491,0.7639399546411649,4.006800174713135,-2.053144454956055,-2.447059154510498,0.4697643518447876,-0.06243950128555298,0.1946531534194946,1,0.5034754276275635,-0.2000041455030441,0.2723618447780609,0.7951916456222534,-0.5923382639884949,-0.691771924495697,-0.4130216836929321,0,0,0,-1,156102.5372476667,3,2,1561824359.842469,1561824121.559794,12,3.602502,0,0,10.50458,0,0,1561824170.876706,156105.213268,0,0.2746582,75.37432,0,182478453,3,1,0.32,-13.61697,-26.11171,3
1561824365.221256,81,0,0,1561824364.995689,4.634829056453551,-74.15106229490986,2553.268,0.73,103.7109375,3,10,-9999,1561824365.201334,-29.61446380615234,3.86463737487793,6.58251953125,45.9008903503418,53.39408493041992,15,156107.9295347917,-0.0193023681640625,-0.946319580078125,0.0014190673828125,156107.9275207917,3.123635757307716,-1.227627780313902,-1.706840981604395,156107.9178467917,-108.4931335449219,-24.93013000488281,-555.2012329101562,156107.9224547917,1.129768075603577,-1.036737711777369,0.8421750746441267,3.343730688095093,-1.342159390449524,-1.890472650527954,0.5115528106689453,-0.1381689310073853,0.273107647895813,1,0.5419586300849915,-0.1918692886829376,0.2533122003078461,0.7780103087425232,-0.5731220245361328,-0.7460931539535522,-0.3389340341091156,0,0,0,-1,156102.5372476667,3,2,1561824359.842469,1561824121.559794,12,3.602502,0,0,10.50458,0,0,1561824170.876706,156105.213268,0,0.2746582,75.37432,0,182478453,3,1,0.32,-13.61697,-26.79163,3
1561824365.243533,82,0,0,1561824364.995689,4.634829056453551,-74.15106229490986,2553.268,0.73,103.7109375,3,10,-9999,1561824365.234768,-29.54352569580078,2.927274703979492,7.7423095703125,41.78432846069336,49.27752304077148,15,156107.9497987917,0.038055419921875,-1.116714477539062,0.0716552734375,156107.9477837917,2.415820270154238,-1.260829942256138,-1.028861420775293,156107.9379577917,-108.0254669189453,-25.21910095214844,-554.690673828125,156107.9427187917,1.18700430995323,-1.105072188265769,0.8978745288573957,2.53776216506958,-1.190378904342651,-1.193904519081116,0.5777362585067749,-0.2447294592857361,0.3214583396911621,1,0.5706936717033386,-0.185369998216629,0.2400410026311874,0.7631035447120667,-0.5568927526473999,-0.7820039391517639,-0.2798933982849121,0,0,0,-1,156102.5372476667,3,2,1561824359.842469,1561824121.559794,12,3.602502,0,0,10.50458,0,0,1561824170.876706,156105.213268,0,0.2746582,75.37432,0,182478453,3,1,0.32,-13.61697,-26.97283,3
1561824365.271494,83,0,0,1561824364.995689,4.634829056453551,-74.15106229490986,2553.268,0.73,103.7109375,3,10,-9999,1561824365.234768,-29.54352569580078,2.927274703979492,7.7423095703125,41.78432846069336,49.27752304077148,15,156107.9700617917,0.0538482666015625,-1.200424194335938,0.1193389892578125,156107.9680477917,2.051086510430218,-1.632927342394227,-0.4049805153817336,156107.9580687917,-107.8903961181641,-25.4576416015625,-554.1019287109375,156107.9629517917,1.24520510592043,-1.178961817143803,0.933579402180671,2.154720067977905,-1.56181263923645,-0.561618447303772,0.5986815094947815,-0.3779469728469849,0.3214598298072815,1,0.5933902859687805,-0.1851616352796555,0.2296371757984161,0.7489123940467834,-0.549868643283844,-0.8037546873092651,-0.2272062748670578,0,0,0,-1,156102.5372476667,3,2,1561824359.842469,1561824121.559794,12,3.602502,0,0,10.50458,0,0,1561824170.876706,156105.213268,0,0.2746582,75.37432,0,182478453,3,1,0.32,-13.61697,-27.74067,3
1561824365.282066,84,0,0,1561824364.995689,4.634829056453551,-74.15106229490986,2553.268,0.73,103.7109375,3,10,-9999,1561824365.277647,-28.79085540771484,2.39411735534668,9.74786376953125,33.45075607299805,40.94395065307617,15,156107.9903257917,0.053009033203125,-1.154693603515625,0.1519317626953125,156107.9882807917,1.49725553013734,-1.836369147542579,0.2568994377095126,156107.9781797917,-107.6911773681641,-25.31336975097656,-553.2841796875,156107.9832147917,1.304326756985457,-1.260729856602633,0.9515550975542689,1.648309350013733,-1.760400295257568,0.09760846197605133,0.6134997010231018,-0.3641629815101624,0.3149307370185852,1,0.6120715737342834,-0.1918836832046509,0.221243143081665,0.7345750331878662,-0.5527392029762268,-0.8143190741539001,-0.1770980805158615,0,0,0,-1,156102.5372476667,3,2,1561824359.842469,1561824121.559794,12,3.602502,0,0,10.50458,0,0,1561824170.876706,156105.213268,0,0.2746582,75.37432,0,182478453,3,1,0.32,-13.61697,-27.74067,3
1561824365.302448,85,0,0,1561824364.995689,4.634829056453551,-74.15106229490986,2553.268,0.73,103.7109375,3,10,-9999,1561824365.277647,-28.79085540771484,2.39411735534668,9.74786376953125,33.45075607299805,40.94395065307617,15,156108.0105897917,-0.041412353515625,-1.124130249023438,0.1717376708984375,156108.0085447917,0.776753009866833,-1.873278429722205,0.6286516921703276,156107.9982607917,-106.9608764648438,-24.94126892089844,-552.1176147460938,156108.0034787917,1.352228700606097,-1.337823500397394,0.9515561369678696,0.9667641520500183,-1.910634994506836,0.5796976089477539,0.5864799022674561,-0.3287467360496521,0.2854906320571899,1,0.6252352595329285,-0.2051345705986023,0.2148361504077911,0.7216966152191162,-0.5647361278533936,-0.8143196702003479,-0.1340013593435287,0,0,0,-1,156102.5372476667,3,2,1561824359.842469,1561824121.559794,12,3.602502,0,0,10.50458,0,0,1561824170.876706,156105.213268,0,0.2746582,75.37432,0,182478453,3,1,0.32,-13.61697,-28.45128,3
1561824365.322552,86,0,0,1561824364.995689,4.634829056453551,-74.15106229490986,2553.268,0.73,103.7109375,3,10,-9999,1561824365.303425,-28.15818023681641,2.687484741210938,10.84356689453125,30.35717391967773,37.85036849975586,15,156108.0308227917,-0.1009979248046875,-1.098785400390625,0.204864501953125,156108.0288087917,0.2491709442261027,-1.779980173569569,0.7135591266764518,156108.0183717917,-106.5785064697266,-24.15229797363281,-551.0568237304688,156108.0237427917,1.377936825854882,-1.396137278869027,0.9414651712249409,0.3511790633201599,-1.802223920822144,0.6776720285415649,0.4953136444091797,-0.2995040416717529,0.2883487939834595,1,0.6323704719543457,-0.2212826609611511,0.2090450674295425,0.7123494148254395,-0.579649031162262,-0.8084213733673096,-0.1022831425070763,0,0,0,-1,156102.5372476667,3,2,1561824359.842469,1561824121.559794,12,3.602502,0,0,10.50458,0,0,1561824170.876706,156105.213268,0,0.2746582,75.37432,0,182478453,3,1,0.32,-13.61697,-29.41524,3
1561824365.351802,87,0,0,1561824364.995689,4.634829056453551,-74.15106229490986,2553.268,0.73,103.7109375,3,10,-9999,1561824365.327008,-27.70851135253906,3.416843414306641,11.8653564453125,29.14673233032227,36.63992691040039,15,156108.0510857917,-0.0885772705078125,-0.9349212646484375,0.21014404296875,156108.0490717917,-0.270524169846358,-1.65564224227984,1.078083029306574,156108.0384827917,-106.1006774902344,-23.84600830078125,-550.2219848632812,156108.0440057917,1.386319131141968,-1.438480426220918,0.9262056908897216,-0.1235653311014175,-1.700952172279358,0.9483836889266968,0.4950180649757385,-0.2400218844413757,0.3003271818161011,1,0.6351420879364014,-0.2386587411165237,0.2036782056093216,0.7057987451553345,-0.595619261264801,-0.7993457913398743,-0.07927306741476059,0,0,0,-1,156102.5372476667,3,2,1561824359.842469,1561824121.559794,12,3.602502,0,0,10.50458,0,0,1561824170.876706,156105.213268,0,0.2746582,75.37432,0,182478453,3,1,0.32,-14.17425,-30.05175,3
1561824365.363088,88,0,0,1561824364.995689,4.634829056453551,-74.15106229490986,2553.268,0.73,103.7109375,3,10,-9999,1561824365.353281,-26.57274627685547,4.126585006713867,13.679443359375,29.42045211791992,36.91364669799805,15,156108.0713497917,-0.089111328125,-0.7094573974609375,0.1490631103515625,156108.0693357917,-0.7894237977012121,-1.309950084349887,1.773002691513561,156108.0585937917,-105.3754577636719,-23.51968383789062,-549.2767333984375,156108.0642697917,1.377661645961835,-1.463901710654813,0.9002915667015112,-0.6774151921272278,-1.430739879608154,1.579508900642395,0.542380154132843,-0.05552691221237183,0.244564414024353,1,0.6323503851890564,-0.258814662694931,0.2012465447187424,0.7018887400627136,-0.6178348660469055,-0.7835081219673157,-0.06629592180252075,0,0,0,-1,156102.5372476667,3,2,1561824359.842469,1561824121.559794,12,3.602502,0,0,10.50458,0,0,1561824170.876706,156105.213268,0,0.2746582,75.37432,0,182478453,3,1,0.32,-14.73153,-29.12141,3
1561824365.383364,89,0,0,1561824364.995689,4.634829056453551,-74.15106229490986,2553.268,0.73,103.7109375,3,10,-9999,1561824365.377817,-25.926025390625,5.041450500488281,14.49517822265625,30.89148712158203,38.38468170166016,15,156108.0916137917,-0.2618408203125,-0.468719482421875,0.089752197265625,156108.0895997917,-1.10792428195313,-0.7298334377818171,2.373861368231712,156108.0786737917,-104.8377380371094,-22.52264404296875,-548.5121459960938,156108.0845027917,1.356637635548963,-1.471903057975359,0.8588922258057099,-1.011584877967834,-0.9388723969459534,2.328313112258911,0.5295708179473877,0.192269504070282,0.1779942512512207,1,0.6232684850692749,-0.281578928232193,0.2052253782749176,0.70009446144104,-0.6500847339630127,-0.757119357585907,-0.06449940800666809,0,0,0,-1,156102.5372476667,3,2,1561824359.842469,1561824121.559794,12,3.602502,0,0,10.50458,0,0,1561824170.876706,156105.213268,0,0.2746582,75.37432,0,182478453,3,1,0.32,-15.28881,-30.09782,3
1561824365.403769,90,0,0,1561824364.995689,4.634829056453551,-74.15106229490986,2553.268,0.73,103.7109375,3,10,-9999,1561824365.377817,-25.926025390625,5.041450500488281,14.49517822265625,30.89148712158203,38.38468170166016,15,156108.1118767917,-0.5798187255859375,-0.2655029296875,0.0024261474609375,156108.1098327917,-2.05327642779459,0.2673763134378844,1.749207879805921,156108.0987847917,-104.2593688964844,-21.99647521972656,-547.9617919921875,156108.1047667917,1.324302775965811,-1.457389580043705,0.811120978854138,-1.765631794929504,0.05996373668313026,1.934809446334839,0.2296571731567383,0.3370133638381958,0.1436386704444885,1,0.6083301901817322,-0.3016076982021332,0.214273065328598,0.7021782398223877,-0.6842622756958008,-0.7250596284866333,-0.07793435454368591,0,0,0,-1,156102.5372476667,3,2,1561824359.842469,1561824121.559794,12,3.602502,0,0,10.50458,0,0,1561824170.876706,156105.213268,0,0.2746582,75.37432,0,182478453,3,1,0.32,-15.28881,-30.09782,3
1561824365.432746,91,0,0,1561824364.995689,4.634829056453551,-74.15106229490986,2553.268,0.73,103.7109375,3,10,-9999,1561824365.428399,-24.98558044433594,5.785190582275391,15.23272705078125,37.73622131347656,45.22941589355469,15,156108.1321407917,-0.604461669921875,-0.0652313232421875,-0.07025146484375,156108.1300957917,-2.330335994956002,0.03602564532993788,1.523491661616255,156108.1188967917,-103.8413238525391,-21.90937805175781,-547.9010009765625,156108.1250307917,1.267257131984746,-1.410660371164442,0.7720427510309138,-2.45000696182251,0.2866592109203339,1.489229321479797,0.07810866832733154,0.5640248656272888,0.05784916877746582,1,0.5866107940673828,-0.314268946647644,0.220927506685257,0.7129613161087036,-0.7073200941085815,-0.6976003050804138,-0.1142456084489822,0,0,0,-1,156102.5372476667,3,2,1561824359.842469,1561824121.559794,12,3.602502,0,0,10.50458,0,0,1561824170.876706,156105.213268,0,0.2746582,75.37432,0,182478453,1,1,0.32,-16.40337,-26.89224,3
1561824365.444228,92,0,0,1561824364.995689,4.634829056453551,-74.15106229490986,2553.268,0.73,103.7109375,3,10,-9999,1561824365.428399,-24.98558044433594,5.785190582275391,15.23272705078125,37.73622131347656,45.22941589355469,15,156108.1524047917,-0.5328216552734375,-0.008697509765625,-0.0495452880859375,156108.1503597917,-0.9089296895091008,-1.647055944609316,1.781273138278802,156108.1389767917,-103.7410430908203,-21.64718627929688,-547.5711669921875,156108.1452937917,1.220094475832113,-1.386233232369547,0.7332621944829697,-1.315668344497681,-1.230185985565186,1.714899659156799,0.1692496538162231,0.6267096996307373,0.05955475568771362,1,0.5677407383918762,-0.3308992683887482,0.2236959636211395,0.7198168039321899,-0.7303763031959534,-0.6692969799041748,-0.1363522559404373,0,0,0,-1,156102.5372476667,3,2,1561824359.842469,1561824121.559794,12,3.602502,0,0,10.50458,0,0,1561824170.876706,156105.213268,0,0.2746582,75.37432,0,182478453,1,1,0.32,-16.40337,-26.89224,3
1561824365.464376,93,0,0,1561824364.995689,4.634829056453551,-74.15106229490986,2553.268,0.73,103.7109375,3,10,-9999,1561824365.454605,-24.26503753662109,6.213226318359375,16.3848876953125,39.06057739257812,46.55377197265625,15,156108.1726377917,-0.6321563720703125,0.191650390625,0.038116455078125,156108.1706237917,-0.1228114073528951,-2.019887045627721,1.856261895621035,156108.1590877917,-103.0934448242188,-21.37944030761719,-546.5789794921875,156108.1655577917,1.211680040315938,-1.418473133566482,0.6948531685819198,-0.1567339301109314,-2.158459186553955,1.86473560333252,0.1982795596122742,0.7144913673400879,0.1124959588050842,1,0.5610918402671814,-0.356228232383728,0.2240408658981323,0.7127995491027832,-0.7592536211013794,-0.6402726769447327,-0.1165547892451286,0,0,0,-1,156102.5372476667,3,2,1561824359.842469,1561824121.559794,12,3.602502,0,0,10.50458,0,0,1561824170.876706,156105.213268,0,0.2746582,75.37432,0,182478453,1,1,0.32,-16.96065,-27.07215,3
1561824365.484659,94,0,0,1561824364.995689,4.634829056453551,-74.15106229490986,2553.268,0.73,103.7109375,3,10,-9999,1561824365.47909,-23.19913482666016,7.072961807250977,17.402587890625,39.11300277709961,46.60619735717773,15,156108.1929017917,-0.7130889892578125,0.439056396484375,0.111175537109375,156108.1908867917,-0.7845254455082293,-0.8594228564250728,1.833507847267398,156108.1791987917,-101.9987030029297,-20.50897216796875,-545.616943359375,156108.1858217917,1.211300422649488,-1.453402936352252,0.6574122530831513,-0.5597013235092163,-1.151853084564209,1.809995889663696,0.1092023253440857,0.9275225400924683,0.1704255342483521,1,0.5563461184501648,-0.3796350061893463,0.2263620942831039,0.7036451101303101,-0.7861279845237732,-0.6110705137252808,-0.09271251410245895,0,0,0,-1,156102.5372476667,3,2,1561824359.842469,1561824121.559794,12,3.602502,0,0,10.50458,0,0,1561824170.876706,156105.213268,0,0.2746582,75.37432,0,182478453,1,1,0.32,-17.51793,-27.84265,3
1561824365.513652,95,0,0,1561824364.995689,4.634829056453551,-74.15106229490986,2553.268,0.73,103.7109375,3,10,-9999,1561824365.505284,-22.52679443359375,7.573083877563477,17.8162841796875,40.61906814575195,48.11226272583008,15,156108.2131647917,-0.8183441162109375,0.63775634765625,0.0797271728515625,156108.2111507917,-1.253062033988595,-0.7595042481186078,2.102505759493032,156108.1993097917,-101.3711395263672,-20.09954833984375,-545.3106079101562,156108.2060847917,1.192607422475924,-1.457239182163197,0.6176773508691765,-1.2408607006073,-0.5913919806480408,1.968382596969604,0.0338979959487915,1.133800268173218,0.1965934038162231,1,0.5438756346702576,-0.3975064158439636,0.2317177802324295,0.7017797827720642,-0.809975266456604,-0.579143226146698,-0.09237588942050934,0,0,0,-1,156102.5372476667,3,2,1561824359.842469,1561824121.559794,12,3.602502,0,0,10.50458,0,0,1561824170.876706,156105.213268,0,0.2746582,75.37432,0,182478453,1,1,0.32,-18.0752,-28.65917,3
1561824365.526611,96,0,0,1561824364.995689,4.634829056453551,-74.15106229490986,2553.268,0.73,103.7109375,3,10,-9999,1561824365.505284,-22.52679443359375,7.573083877563477,17.8162841796875,40.61906814575195,48.11226272583008,15,156108.2334287917,-0.992919921875,0.7184600830078125,0.028717041015625,156108.2314147917,-0.727446446496779,-1.723151245384477,2.704569250288335,156108.2193907917,-100.8912353515625,-19.3477783203125,-544.4583740234375,156108.2263177917,1.170534868413142,-1.466126019940293,0.5695517232050559,-0.9266647100448608,-1.564318180084229,2.575679302215576,-0.04250156879425049,1.235009670257568,0.1337475776672363,1,0.5287933349609375,-0.4199813902378082,0.2372831255197525,0.6983480453491211,-0.8375338315963745,-0.5392546057701111,-0.08798648416996002,0,0,0,-1,156102.5372476667,3,2,1561824359.842469,1561824121.559794,12,3.602502,0,0,10.50458,0,0,1561824170.876706,156105.213268,0,0.2746582,75.37432,0,182478453,1,1,0.32,-18.63248,-29.45804,3
1561824365.545535,97,0,0,1561824364.995689,4.634829056453551,-74.15106229490986,2553.268,0.73,103.7109375,3,10,-9999,1561824365.529699,-22.02528381347656,8.23719596862793,18.539794921875,41.7326774597168,49.22587203979492,15,156108.2536927917,-1.194671630859375,0.53594970703125,0.0660247802734375,156108.2516477917,-0.3484437359682234,-1.449731154168767,2.759210125321818,156108.2395017917,-99.58819580078125,-18.64193725585938,-543.61328125,156108.2465817917,1.162849430502836,-1.496772430629198,0.5129360108532456,-0.3255232274532318,-1.628055572509766,2.807601451873779,-0.2434749603271484,1.143203377723694,0.1165322065353394,1,0.5168327689170837,-0.4479559659957886,0.2450488358736038,0.6871465444564819,-0.8689213395118713,-0.4907375276088715,-0.06443868577480316,0,0,0,-1,156102.5372476667,3,2,1561824359.842469,1561824121.559794,12,3.602502,0,0,10.50458,0,0,1561824170.876706,156105.213268,0,0.2746582,75.37432,0,182478453,1,1,0.32,-19.18976,-27.91511,3
1561824365.565754,98,0,0,1561824364.995689,4.634829056453551,-74.15106229490986,2553.268,0.73,103.7109375,3,10,-9999,1561824365.556436,-19.7445068359375,9.890493392944336,19.924072265625,42.16332626342773,49.65652084350586,15,156108.2739557917,-1.220230102539062,0.2392120361328125,0.0223388671875,156108.2719117917,-1.354987866808653,-0.6723610898773621,2.434308467073786,156108.2595827917,-98.55026245117188,-17.6766357421875,-543.0936279296875,156108.2668457917,1.154079274863204,-1.517699392304481,0.4580878924331429,-1.014291763305664,-0.8230371475219727,2.52193021774292,-0.3236331939697266,0.8266791105270386,0.111992359161377,1,0.5036542415618896,-0.4717332720756531,0.2545929253101349,0.6774824857711792,-0.8956356644630432,-0.4422339498996735,-0.04760025069117546,0,0,0,-1,156102.5372476667,3,2,1561824359.842469,1561824121.559794,12,3.602502,0,0,10.50458,0,0,1561824170.876706,156105.213268,0,0.2746582,75.37432,0,182478453,1,1,0.32,-19.18976,-27.91511,3
1561824365.594478,99,0,0,1561824364.995689,4.634829056453551,-74.15106229490986,2553.268,0.73,103.7109375,3,10,-9999,1561824365.580383,-18.88900756835938,10.15600395202637,20.427978515625,44.52703094482422,52.02022552490234,15,156108.2941887917,-1.2760009765625,-0.0073394775390625,-0.1628875732421875,156108.2921747917,-2.287924355648164,-0.2833928305497299,2.232358564768096,156108.2796937917,-97.75086975097656,-17.56190490722656,-542.6513061523438,156108.2871087917,1.119895482209998,-1.51551171238107,0.4086827954138462,-2.172950029373169,-0.3970988690853119,2.232872486114502,-0.3157973289489746,0.5102702379226685,-0.02032387256622314,1,0.4823436737060547,-0.4919264912605286,0.2596160471439362,0.6767218112945557,-0.9162430763244629,-0.3974009454250336,-0.05070581659674644,0,0,0,-1,156102.5372476667,3,2,1561824359.842469,1561824121.559794,12,3.602502,0,0,10.50458,0,0,1561824170.876706,156105.213268,0,0.2746582,75.37432,0,182478453,1,1,0.32,-20.30432,-23.68165,3
1561824365.606237,100,0,0,1561824364.995689,4.634829056453551,-74.15106229490986,2553.268,0.73,103.7109375,3,10,-9999,1561824365.580383,-18.88900756835938,10.15600395202637,20.427978515625,44.52703094482422,52.02022552490234,15,156108.3144527917,-1.542572021484375,-0.105560302734375,-0.5487518310546875,156108.3124387917,-3.001109840823677,0.4778999965569752,1.995706874510347,156108.2998047917,-96.89413452148438,-17.73782348632812,-541.9176025390625,156108.3073727917,1.069302392295271,-1.500131384549634,0.3607071568937731,-2.857465267181396,0.1196446418762207,2.153547286987305,-0.4761113524436951,0.2629701495170593,-0.2289204597473145,1,0.454638808965683,-0.5101689100265503,0.2615411877632141,0.6816359758377075,-0.9333125352859497,-0.3529359698295593,-0.06606247276067734,0,0,0,-1,156102.5372476667,3,2,1561824359.842469,1561824121.559794,12,3.602502,0,0,10.50458,0,0,1561824170.876706,156105.213268,0,0.2746582,75.37432,0,182478453,1,1,0.32,-20.30432,-23.68165,3
1561824365.626802,101,0,0,1561824364.995689,4.634829056453551,-74.15106229490986,2553.268,0.73,103.7109375,3,10,-9999,1561824365.606546,-18.08232116699219,10.03298950195312,21.1182861328125,48.36719512939453,55.86038970947266,15,156108.3347167917,-1.455230712890625,-0.38916015625,-0.725982666015625,156108.3327027917,-1.519785340327192,1.7608586769428,0.3235365218732573,156108.3199157917,-96.95297241210938,-18.19500732421875,-541.82373046875,156108.3276367917,1.012392944624686,-1.463025625002844,0.3230399813076316,-2.206827640533447,1.613521218299866,0.8110045194625854,-0.6033998131752014,0.07714006304740906,-0.5761477947235107,1,0.4243327081203461,-0.5185966491699219,0.2621606588363647,0.694457471370697,-0.9427733421325684,-0.3174507617950439,-0.1019985377788544,0,0,0,-1,156102.5372476667,3,2,1561824359.842469,1561824121.559794,12,3.602502,0,0,10.50458,0,0,1561824170.876706,156105.213268,0,0.2746582,75.37432,0,182478453,1,1,0.32,-20.8616,-24.31031,3
1561824365.647239,102,0,0,1561824364.995689,4.634829056453551,-74.15106229490986,2553.268,0.73,103.7109375,3,10,-9999,1561824365.631484,-18.07175445556641,9.637905120849609,21.348388671875,51.35488128662109,58.84807586669922,15,156108.3549797917,-1.251968383789062,-0.4307403564453125,-0.488616943359375,156108.3529657917,2.00492700452031,1.025690394865336,-0.844406356302552,156108.3399957917,-97.56402587890625,-18.79475402832031,-542.1650390625,156108.3478697917,0.9993817653354652,-1.425461809079581,0.3224348885915245,1.206700921058655,1.36452841758728,-0.6894004344940186,-0.4097074866294861,-0.1590752303600311,-0.5416864156723022,1,0.4158540368080139,-0.5083161592483521,0.2656866312026978,0.7057554721832275,-0.9384675621986389,-0.3168769180774689,-0.1373602002859116,0,0,0,-1,156102.5372476667,3,2,1561824359.842469,1561824121.559794,12,3.602502,0,0,10.50458,0,0,1561824170.876706,156105.213268,0,0.2746582,75.37432,0,182478453,1,1,0.32,-21.41888,-25.26293,3
1561824365.671944,103,0,0,1561824364.995689,4.634829056453551,-74.15106229490986,2553.268,0.73,103.7109375,3,10,-9999,1561824365.658881,-19.33303833007812,9.354398727416992,20.5321044921875,48.90414047241211,56.39733505249023,15,156108.3752437917,-1.0323486328125,-0.1593780517578125,-0.1201019287109375,156108.3731987917,3.017590014281306,-0.3396888602006969,-0.797251360777173,156108.3601067917,-98.47671508789062,-18.2261962890625,-542.7457275390625,156108.3681337917,1.048260799597526,-1.428699013113486,0.3469590629432518,3.097132682800293,-0.08783424645662308,-0.8719361424446106,-0.2171385288238525,0.08424133062362671,-0.1643199920654297,1,0.4358477890491486,-0.4934028685092926,0.2745305895805359,0.7008731365203857,-0.9309327602386475,-0.3400396406650543,-0.133180633187294,0,0,0,-1,156102.5372476667,3,2,1561824359.842469,1561824121.559794,12,3.602502,0,0,10.50458,0,0,1561824170.876706,156105.213268,0,0.2746582,75.37432,0,182478453,1,1,0.32,-21.97616,-26.03479,3
1561824365.687239,104,0,0,1561824364.995689,4.634829056453551,-74.15106229490986,2553.268,0.73,103.7109375,3,10,-9999,1561824365.681651,-19.38753509521484,10.24437522888184,20.05340576171875,44.96036529541016,52.45355987548828,15,156108.3955077917,-0.8599700927734375,-0.1770477294921875,0.206298828125,156108.3934627917,1.516543208016129,-0.504276210309229,-0.3781816579644842,156108.3802187917,-98.384521484375,-17.30683898925781,-543.2656860351562,156108.3883967917,1.10383757024281,-1.456856292272161,0.3682033435603795,1.976865530014038,-0.5508759617805481,-0.5171335935592651,0.007538199424743652,0.2041475474834442,0.1583194732666016,1,0.4594641923904419,-0.4856500327587128,0.2808782458305359,0.6885812282562256,-0.9269259572029114,-0.3599397838115692,-0.1060734018683434,0,0,0,-1,156102.5372476667,3,2,1561824359.842469,1561824121.559794,12,3.602502,0,0,10.50458,0,0,1561824170.876706,156105.213268,0,0.2746582,75.37432,0,182478453,1,1,0.32,-22.53344,-26.93979,3
1561824365.710585,105,0,0,1561824364.995689,4.634829056453551,-74.15106229490986,2553.268,0.73,103.7109375,3,10,-9999,1561824365.708951,-19.10429382324219,10.80306816101074,19.62249755859375,43.87691497802734,51.37010955810547,15,156108.4157717917,-0.852020263671875,-0.14990234375,0.324554443359375,156108.4137267917,-0.08868805798960078,-0.3302407636014228,0.2361214548847144,156108.4002987917,-98.00202941894531,-16.86448669433594,-543.60546875,156108.4086607917,1.126539588152558,-1.474214279093801,0.3748065095008594,0.2277833819389343,-0.3517606854438782,0.1089278906583786,0.07161200046539307,0.2201116681098938,0.3942571878433228,1,0.4692474901676178,-0.4847040772438049,0.2825448513031006,0.6819362640380859,-0.9262415170669556,-0.3660924732685089,-0.08973749727010727,0,0,0,-1,156102.5372476667,3,2,1561824359.842469,1561824121.559794,12,3.602502,0,0,10.50458,0,0,1561824170.876706,156105.213268,0,0.2746582,75.37432,0,182478453,1,1,0.32,-23.09072,-27.88552,3
1561824365.727774,106,0,0,1561824364.995689,4.634829056453551,-74.15106229490986,2553.268,0.73,103.7109375,3,10,-9999,1561824365.708951,-19.10429382324219,10.80306816101074,19.62249755859375,43.87691497802734,51.37010955810547,15,156108.4360047917,-0.916534423828125,-0.308502197265625,0.1921234130859375,156108.4339907917,-0.6567951796219579,-0.2030119709484133,0.3255884874931634,156108.4204097917,-97.82774353027344,-16.66343688964844,-543.244384765625,156108.4289247917,1.121197495230662,-1.478755380246804,0.3687505841313198,-0.5902312994003296,-0.2596757709980011,0.3394902646541595,0.06487751007080078,0.1254954636096954,0.3590023517608643,1,0.4669255912303925,-0.4889930188655853,0.2815772593021393,0.6808674931526184,-0.9288301467895508,-0.3604502975940704,-0.08573263883590698,0,0,0,-1,156102.5372476667,3,2,1561824359.842469,1561824121.559794,12,3.602502,0,0,10.50458,0,0,1561824170.876706,156105.213268,0,0.2746582,75.37432,0,182478453,1,1,0.32,-23.09072,-27.88552,3
1561824365.751434,107,0,0,1561824364.995689,4.634829056453551,-74.15106229490986,2553.268,0.73,103.7109375,3,10,-9999,1561824365.732229,-18.86928558349609,10.77750587463379,19.97607421875,44.66867828369141,52.16187286376953,15,156108.4562677917,-1.016616821289062,-0.3287200927734375,-0.0362548828125,156108.4542537917,-0.8112121838435864,-0.1223914268489896,0.2489600218677684,156108.4405207917,-97.8099365234375,-16.94184875488281,-543.1544189453125,156108.4491877917,1.106603854035959,-1.477037854739655,0.3615375153889428,-0.7912924885749817,-0.1219599917531013,0.2469355762004852,-0.04298204183578491,0.03382754325866699,0.1776568293571472,1,0.4611077606678009,-0.4935536086559296,0.279285192489624,0.6824838519096375,-0.9312458634376526,-0.3537127673625946,-0.08756893873214722,0,0,0,-1,156102.5372476667,3,2,1561824359.842469,1561824121.559794,12,3.602502,0,0,10.50458,0,0,1561824170.876706,156105.213268,0,0.2746582,75.37432,0,182478453,1,1,0.32,-23.64799,-28.92655,3
1561824365.768727,108,0,0,1561824364.995689,4.634829056453551,-74.15106229490986,2553.268,0.73,103.7109375,3,10,-9999,1561824365.759315,-18.74491119384766,10.62181282043457,20.29766845703125,45.8473014831543,53.34049606323242,15,156108.4765317917,-1.07904052734375,-0.3623504638671875,-0.233123779296875,156108.4745177917,-0.5905120295670848,-0.1756304138846546,0.1792816077391532,156108.4606317917,-97.711669921875,-17.13067626953125,-542.8186645507812,156108.4694517917,1.090122851907207,-1.474052672181726,0.3551305786682852,-0.7067936062812805,-0.1624565422534943,0.2162857800722122,-0.1218980550765991,-0.01105186343193054,-0.05977934598922729,1,0.4548191428184509,-0.4978521764278412,0.2763643264770508,0.6847666501998901,-0.9332166910171509,-0.3477127850055695,-0.0905655175447464,0,0,0,-1,156102.5372476667,3,2,1561824359.842469,1561824121.559794,12,3.602502,0,0,10.50458,0,0,1561824170.876706,156105.213268,0,0.2746582,75.37432,0,182478453,1,1,0.32,-24.20527,-29.76198,3
1561824365.788581,109,0,0,1561824364.995689,4.634829056453551,-74.15106229490986,2553.268,0.73,103.7109375,3,10,-9999,1561824365.783458,-18.67762756347656,10.58209991455078,20.45648193359375,46.448974609375,53.94216918945312,15,156108.4967957917,-1.073516845703125,-0.3812713623046875,-0.280059814453125,156108.4947817917,0.2487301910656946,-0.187741671574008,-0.05776849141767181,156108.4807127917,-97.63563537597656,-17.13276672363281,-542.6815185546875,156108.4896847917,1.081820543551211,-1.475054504668846,0.3520344650061026,0.008010008372366428,-0.2011394947767258,-0.003588001010939479,-0.1490150094032288,-0.02656015753746033,-0.1916237473487854,1,0.4520128667354584,-0.5008171796798706,0.2742748260498047,0.685302734375,-0.9343742728233337,-0.3448082208633423,-0.08973304182291031,0,0,0,-1,156102.5372476667,3,2,1561824359.842469,1561824121.559794,12,3.602502,0,0,10.50458,0,0,1561824170.876706,156105.213268,0,0.2746582,75.37432,0,182478453,1,1,0.32,-24.76255,-30.79983,3
1561824365.810146,110,0,0,1561824364.995689,4.634829056453551,-74.15106229490986,2553.268,0.73,103.7109375,3,10,-9999,1561824365.783458,-18.67762756347656,10.58209991455078,20.45648193359375,46.448974609375,53.94216918945312,15,156108.5170587917,-1.03411865234375,-0.3535308837890625,-0.1685791015625,156108.5150147917,0.7721691769985887,-0.02089249875167162,-0.1518824738122,156108.5008237917,-97.30648803710938,-17.12921142578125,-542.4506225585938,156108.5099487917,1.090812770124349,-1.481470978728148,0.3547160295172886,0.7316539883613586,-0.09315604716539383,-0.1486019194126129,-0.1219626665115356,-0.02558547258377075,-0.1518968343734741,1,0.455897718667984,-0.5003306269645691,0.2750427424907684,0.6827723383903503,-0.9340065121650696,-0.3473240733146667,-0.08365307003259659,0,0,0,-1,156102.5372476667,3,2,1561824359.842469,1561824121.559794,12,3.602502,0,0,10.50458,0,0,1561824170.876706,156105.213268,0,0.2746582,75.37432,0,182478453,1,1,0.32,-25.31983,-31.4936,3
1561824365.833754,111,0,0,1561824364.995689,4.634829056453551,-74.15106229490986,2553.268,0.73,103.7109375,3,10,-9999,1561824365.810146,-18.42913818359375,10.50421905517578,20.6619873046875,45.61905670166016,53.11225128173828,15,156108.5373227917,-0.972381591796875,-0.31292724609375,-0.040618896484375,156108.5352777917,0.4762903819941313,0.2902038650376076,-0.1557443237089239,156108.5209347917,-97.61061096191406,-17.10182189941406,-542.6412353515625,156108.5302117917,1.105999803471399,-1.485570104079294,0.3592245459555405,0.5922172665596008,0.2192311584949493,-0.1663897037506104,-0.07011210918426514,0.02253839373588562,-0.0140451192855835,1,0.4615055322647095,-0.4971597492694855,0.277845025062561,0.6801815629005432,-0.9327718019485474,-0.3515483736991882,-0.07968965172767639,0,0,0,-1,156102.5372476667,3,2,1561824359.842469,1561824121.559794,12,3.602502,0,0,10.50458,0,0,1561824170.876706,156105.213268,0,0.2746582,75.37432,0,182478453,1,1,0.32,-25.87711,-32.48803,3
1561824365.849408,112,0,0,1561824364.995689,4.634829056453551,-74.15106229490986,2553.268,0.73,103.7109375,3,10,-9999,1561824365.83356,-18.78932952880859,10.6439208984375,20.18115234375,44.74827575683594,52.24147033691406,15,156108.5575867917,-0.92620849609375,-0.3155364990234375,0.00860595703125,156108.5555417917,0.101131411866887,0.3739288560197367,-0.111921209023343,156108.5410157917,-97.79753112792969,-17.135498046875,-543.0247802734375,156108.5504757917,1.113595058137734,-1.481625379599181,0.3629360690673495,0.1643961519002914,0.390620231628418,-0.1346842348575592,-0.01738786697387695,0.04088789224624634,0.07156360149383545,1,0.4638610184192657,-0.4931602776050568,0.2801636159420013,0.6805397272109985,-0.9311442971229553,-0.3550205826759338,-0.08325178921222687,0,0,0,-1,156102.5372476667,3,2,1561824359.842469,1561824121.559794,12,3.602502,0,0,10.50458,0,0,1561824170.876706,156105.213268,0,0.2746582,75.37432,0,182478453,1,1,0.32,-26.43439,-33.49051,3
1561824365.869601,113,0,0,1561824364.995689,4.634829056453551,-74.15106229490986,2553.268,0.73,103.7109375,3,10,-9999,1561824365.859883,-18.71686553955078,10.67334175109863,19.87078857421875,44.56737899780273,52.06057357788086,15,156108.5778197917,-0.9144287109375,-0.2949981689453125,0.0087738037109375,156108.5758057917,-0.002146507838603866,0.06653242193290457,0.07109654740908236,156108.5611267917,-97.68673706054688,-17.0970458984375,-543.4000244140625,156108.5707397917,1.114894010315391,-1.475922768709823,0.364520871800051,0.00690506212413311,0.1589979082345963,0.01641899533569813,0.01529824733734131,0.05033409595489502,0.1042845249176025,1,0.4638175070285797,-0.4905301630496979,0.2814269065856934,0.6819475889205933,-0.9300931692123413,-0.3565016984939575,-0.08850695937871933,0,0,0,-1,156102.5372476667,3,2,1561824359.842469,1561824121.559794,12,3.602502,0,0,10.50458,0,0,1561824170.876706,156106.155661,0,0.2746582,75.37432,0,182478453,1,1,0.32,-26.99167,-34.38403,3
1561824365.889813,114,0,0,1561824364.995689,4.634829056453551,-74.15106229490986,2553.268,0.73,103.7109375,3,10,-9999,1561824365.884235,-18.92423248291016,10.83740043640137,19.78912353515625,44.56657791137695,52.05977249145508,15,156108.5980837917,-0.9260711669921875,-0.3180389404296875,-0.0352630615234375,156108.5960687917,-0.03750955868933004,-0.2226067113008893,0.1569190440657579,156108.5812377917,-97.9354248046875,-16.82911682128906,-543.4248046875,156108.5910027917,1.114906939440977,-1.476560670411079,0.362587722316344,-0.02343766391277313,-0.1947990357875824,0.1440757662057877,0.01039302349090576,0.0545392632484436,0.0801200270652771,1,0.463375985622406,-0.4912163913249969,0.2818946540355682,0.6815603971481323,-0.9308336973190308,-0.3546949028968811,-0.0879783034324646,0,0,0,-1,156102.5372476667,3,2,1561824359.842469,1561824121.559794,12,3.602502,0,0,10.50458,0,0,1561824170.876706,156106.155661,0,0.2746582,75.37432,0,182478453,1,1,0.32,-26.99167,-34.38403,3
1561824365.911632,115,0,0,1561824364.995689,4.634829056453551,-74.15106229490986,2553.268,0.73,103.7109375,3,10,-9999,1561824365.884235,-18.92423248291016,10.83740043640137,19.78912353515625,44.56657791137695,52.05977249145508,15,156108.6183467917,-0.9558868408203125,-0.3368682861328125,-0.088836669921875,156108.6163327917,-0.1154291248111954,-0.1507921756619216,0.1628693448893219,156108.6013177917,-97.71278381347656,-16.68292236328125,-543.019775390625,156108.6112667917,1.113836537198365,-1.480555135442779,0.3592290065673671,-0.1069940775632858,-0.192066103219986,0.1658937036991119,-0.004439175128936768,0.0183463990688324,0.0217595100402832,1,0.4627464413642883,-0.4936421513557434,0.2816678881645203,0.6803281307220459,-0.9323589205741882,-0.3515525460243225,-0.08436631411314011,0,0,0,-1,156102.5372476667,3,2,1561824359.842469,1561824121.559794,12,3.602502,0,0,10.50458,0,0,1561824170.876706,156106.155661,0,0.2746582,75.37432,0,182478453,1,1,0.32,-27.54895,-35.29626,3
1561824365.930342,116,0,0,1561824364.995689,4.634829056453551,-74.15106229490986,2553.268,0.73,103.7109375,3,10,-9999,1561824365.911469,-18.78518676757812,10.97992706298828,20.0933837890625,44.66910171508789,52.16229629516602,15,156108.6386107917,-0.9718780517578125,-0.3304290771484375,-0.101043701171875,156108.6365967917,-0.04486680751678294,0.03560832798712247,0.1015886766260536,156108.6214287917,-97.53419494628906,-16.84005737304688,-542.8067626953125,156108.6314997917,1.111908153389537,-1.481880164213715,0.3561027746811226,-0.07111064344644547,-0.0003083925694227219,0.1176425516605377,-0.0362122654914856,0.01584523916244507,-0.01593887805938721,1,0.461591362953186,-0.4952972829341888,0.2816956341266632,0.6798982620239258,-0.9335600733757019,-0.3486241698265076,-0.08322802931070328,0,0,0,-1,156102.5372476667,3,2,1561824359.842469,1561824121.559794,12,3.602502,0,0,10.50458,0,0,1561824170.876706,156106.155661,0,0.2746582,75.37432,0,182478453,1,1,0.32,-28.10622,-35.86728,3
1561824365.950671,117,0,0,1561824364.995689,4.634829056453551,-74.15106229490986,2553.268,0.73,103.7109375,3,10,-9999,1561824365.934846,-18.54097747802734,10.72957992553711,20.2998046875,44.76396942138672,52.25716400146484,15,156108.65887875,-0.980255126953125,-0.339691162109375,-0.0832672119140625,156108.65683375,0.05615035473933967,0.02707609248672661,-0.00761291229210051,156108.6415407917,-97.50308227539062,-17.07673645019531,-542.8475341796875,156108.65176775,1.11171592147377,-1.481205708403711,0.3545462774298966,0.03652101010084152,0.03849732875823975,0.01859293505549431,-0.03917777538299561,0.006848156452178955,-0.01257520914077759,1,0.4610174894332886,-0.4954894781112671,0.2822785079479218,0.6799058318138123,-0.9340430498123169,-0.3471648991107941,-0.08390610665082932,0,0,0,-1,156102.5372476667,3,2,1561824359.842469,1561824121.559794,12,3.602502,0,0,10.50458,0,0,1561824170.876706,156106.155661,0,0.2746582,75.37432,0,182478453,3,1,0.32,-28.6635,-36.71711,3
1561824365.970865,118,0,0,1561824364.995689,4.634829056453551,-74.15106229490986,2553.268,0.73,103.7109375,3,10,-9999,1561824365.961074,-18.64829254150391,11.04371070861816,20.1697998046875,44.68201065063477,52.17520523071289,15,156108.67914175,-0.9809417724609375,-0.3334808349609375,-0.0519561767578125,156108.67709775,0.1076297912427894,-0.1457761117487573,-0.1051932651614759,156108.66162475,-97.70562744140625,-16.60768127441406,-543.0618286132812,156108.67203175,1.113318018452516,-1.482101477899133,0.3553563129193763,0.1045940741896629,-0.08807313442230225,-0.08768370002508163,-0.05027830600738525,0.01499292254447937,0.01547849178314209,1,0.4617651104927063,-0.4952279925346375,0.2823599874973297,0.6795549988746643,-0.9338372945785522,-0.3479244410991669,-0.08304443955421448,0,0,0,-1,156102.5372476667,3,2,1561824359.842469,1561824121.559794,12,3.602502,0,0,10.50458,0,0,1561824170.876706,156106.155661,0,0.2746582,75.37432,0,182478453,3,1,0.32,-29.22078,-37.4867,3
1561824365.994992,119,0,0,1561824364.995689,4.634829056453551,-74.15106229490986,2553.268,0.73,103.7109375,3,10,-9999,1561824365.985649,-18.5823974609375,10.84145355224609,20.29351806640625,44.56158065795898,52.05477523803711,15,156108.69937475,-0.9553985595703125,-0.3596954345703125,-0.042633056640625,156108.69736075,0.03305915019169862,-0.2972162345038952,-0.1488440733245286,156108.68173575,-97.53477478027344,-16.91166687011719,-542.822998046875,156108.69229475,1.115064419780789,-1.486823711633599,0.3579772598251948,0.05498603731393814,-0.2858152389526367,-0.1517953127622604,-0.03522908687591553,0.006599932909011841,0.03429126739501953,1,0.4635865390300751,-0.4957913160324097,0.2810299694538116,0.6784546375274658,-0.9333072304725647,-0.3503804504871368,-0.07855698466300964,0,0,0,-1,156102.5372476667,3,2,1561824359.842469,1561824121.559794,12,3.602502,0,0,10.50458,0,0,1561824170.876706,156106.155661,0,0.2746582,75.37432,0,182478453,3,1,0.32,-29.77806,-37.92892,3
1561824366.012081,120,0,0,1561824364.995689,4.634829056453551,-74.15106229490986,2553.268,0.73,103.7109375,3,10,-9999,1561824365.985649,-18.5823974609375,10.84145355224609,20.29351806640625,44.56158065795898,52.05477523803711,15,156108.71963875,-0.9566497802734375,-0.3807220458984375,-0.0489959716796875,156108.71762475,0.01353072255036558,-0.1917926059081275,-0.1003753404334135,156108.70184675,-97.33189392089844,-16.85050964355469,-542.86474609375,156108.71255875,1.115258288672737,-1.492706405387469,0.360816721358217,0.01047423109412193,-0.2437593936920166,-0.1193492189049721,-0.01873475313186646,-0.02347216010093689,0.02559357881546021,1,0.4652384221553802,-0.4970508217811584,0.2788274586200714,0.677310049533844,-0.932757556438446,-0.353038489818573,-0.0729873850941658,0,0,0,-1,156102.5372476667,3,2,1561824359.842469,1561824121.559794,12,3.602502,0,0,10.50458,0,0,1561824170.876706,156106.155661,0,0.2746582,75.37432,0,182478453,3,1,0.32,-30.33534,-38.2668,3
1561824366.031702,121,0,0,1561824364.995689,4.634829056453551,-74.15106229490986,2553.268,0.73,103.7109375,3,10,-9999,1561824366.012145,-18.37007141113281,10.83028793334961,20.28302001953125,44.5562744140625,52.04946899414062,15,156108.73990275,-0.968109130859375,-0.365386962890625,-0.062896728515625,156108.73788875,-0.01183748472929321,0.05735357091983746,-0.06250838552579484,156108.72192775,-97.39344787597656,-16.59431457519531,-542.6776733398438,156108.73282275,1.115303876654566,-1.495340519216743,0.3626502696000853,0.0005217317957431078,-0.001383510651066899,-0.07124747335910797,-0.03158295154571533,-0.01888862252235413,0.01590049266815186,1,0.4661183655261993,-0.4974867403507233,0.277645617723465,0.6768703460693359,-0.9322994947433472,-0.3547533750534058,-0.07048122584819794,0,0,0,-1,156102.5372476667,3,2,1561824359.842469,1561824121.559794,12,3.602502,0,0,10.50458,0,0,1561824170.876706,156106.155661,0,0.2746582,75.37432,0,182478453,3,1,0.32,-30.89262,-39.12476,3
