loggingTime,loggingSample,identifierForVendor,deviceID,locationTimestamp_since1970,locationLatitude,locationLongitude,locationAltitude,locationSpeed,locationCourse,locationVerticalAccuracy,locationHorizontalAccuracy,locationFloor,locationHeadingTimestamp_since1970,locationHeadingX,locationHeadingY,locationHeadingZ,locationTrueHeading,locationMagneticHeading,locationHeadingAccuracy,accelerometerTimestamp_sinceReboot,accelerometerAccelerationX,accelerometerAccelerationY,accelerometerAccelerationZ,gyroTimestamp_sinceReboot,gyroRotationX,gyroRotationY,gyroRotationZ,magnetometerTimestamp_sinceReboot,magnetometerX,magnetometerY,magnetometerZ,motionTimestamp_sinceReboot,motionYaw,motionRoll,motionPitch,motionRotationRateX,motionRotationRateY,motionRotationRateZ,motionUserAccelerationX,motionUserAccelerationY,motionUserAccelerationZ,motionAttitudeReferenceFrame,motionQuaternionX,motionQuaternionY,motionQuaternionZ,motionQuaternionW,motionGravityX,motionGravityY,motionGravityZ,motionMagneticFieldX,motionMagneticFieldY,motionMagneticFieldZ,motionMagneticFieldCalibrationAccuracy,activityTimestamp_sinceReboot,activity,activityActivityConfidence,activityActivityStartDate,pedometerStartDate,pedometerNumberofSteps,pedometerAverageActivePace,pedometerCurrentPace,pedometerCurrentCadence,pedometerDistance,pedometerFloorAscended,pedometerFloorDescended,pedometerEndDate,altimeterTimestamp_sinceReboot,altimeterReset,altimeterRelativeAltitude,altimeterPressure,IP_en0,IP_pdp_ip0,deviceOrientation,batteryState,batteryLevel,avAudioRecorderPeakPower,avAudioRecorderAveragePower,label
1562003681.059749,1,0,0,1562003676.176806,4.63479235162881,-74.15098299934473,2563.781,-1,-1,10,65,-9999,1562003681.025978,-9.941810607910156,7.001222610473633,25.76580810546875,74.73665618896484,82.23062896728516,15,10170.136184625,-0.9107666015625,0.421875,0.049713134765625,10170.136184625,0.06844696844056253,-0.001568868198165679,0.01454778377066685,10170.133560625,-7.901626586914062,17.87098693847656,-513.0385131835938,10170.131118625,-2.423454334059733,-1.601294838254588,-0.4670488596617832,0.06821244955062866,0.005673830397427082,0.01654933393001556,-0.02166825532913208,-0.02798143029212952,0.02277505397796631,1,0.7104039788246155,0.09455237537622452,0.5757757425308228,-0.3935332000255585,-0.8924857378005981,0.4502531886100769,0.02722792886197567,0,0,0,-1,10169.2265285,3,1,1562003680.100521,0,0,0,0,0,0,0,0,0,10167.608728,0,-1.165283,75.31101,3232235528,182473588,1,1,0.31,-27.96394,-36.90705,1
1562003681.06202,2,0,0,1562003676.176806,4.63479235162881,-74.15098299934473,2563.781,-1,-1,10,65,-9999,1562003681.025978,-9.941810607910156,7.001222610473633,25.76580810546875,74.73665618896484,82.23062896728516,15,10170.156448625,-0.89776611328125,0.4264068603515625,0.04150390625,10170.156448625,0.05875439365321915,-0.04299061052882212,0.0257716761848058,10170.153640625,-7.8612060546875,17.94662475585938,-513.099853515625,10170.151382625,-2.422035614657332,-1.601096113008641,-0.4673457787592509,0.06050978973507881,-0.04167744144797325,0.01765614375472069,-0.011069655418396,-0.02594244480133057,0.01944708824157715,1,0.710291862487793,0.09491432458162308,0.5755081176757812,-0.3940395712852478,-0.8923574686050415,0.4505182802677155,0.02704651840031147,0,0,0,-1,10169.2265285,3,1,1562003680.100521,0,0,0,0,0,0,0,0,0,10167.608728,0,-1.165283,75.31101,3232235528,182473588,1,1,0.31,-27.96394,-36.90705,1
1562003681.068242,3,0,0,1562003676.176806,4.63479235162881,-74.15098299934473,2563.781,-1,-1,10,65,-9999,1562003681.025978,-9.941810607910156,7.001222610473633,25.76580810546875,74.73665618896484,82.23062896728516,15,10170.176712625,-0.9037628173828125,0.4361572265625,0.03253173828125,10170.176712625,0.005256014727380385,-0.008025169628844777,0.04594831723546412,10170.173751625,-7.883697509765625,17.8330078125,-513.269775390625,10170.171646625,-2.420981163467093,-1.601559559992734,-0.4679195192165758,0.02357014641165733,-0.03190470486879349,0.03886555880308151,-0.004565834999084473,-0.02097669243812561,0.01154935359954834,1,0.7103988528251648,0.09518156945705414,0.5750218033790588,-0.3944920301437378,-0.892086386680603,0.4510304033756256,0.02745212242007256,0,0,0,-1,10169.2265285,3,1,1562003680.100521,0,0,0,0,0,0,0,0,0,10167.608728,0,-1.165283,75.31101,3232235528,182473588,1,1,0.31,-28.52122,-34.91474,1
1562003681.081604,4,0,0,1562003676.176806,4.63479235162881,-74.15098299934473,2563.781,-1,-1,10,65,-9999,1562003681.075533,-9.941604614257812,6.997604370117188,25.54864501953125,74.61101531982422,82.10498809814453,15,10170.196945625,-0.900848388671875,0.4362945556640625,0.0262908935546875,10170.196945625,-0.04005207858202869,0.05836077844410544,0.04748096644280472,10170.193832625,-7.864669799804688,17.87046813964844,-513.0999145507812,10170.191909625,-2.421297047721902,-1.601602434088188,-0.4687206664511467,-0.03793422505259514,0.04267925024032593,0.04138410836458206,-0.01333612203598022,-0.01557281613349915,-0.001005291938781738,1,0.7104593515396118,0.0948004424571991,0.5749096870422363,-0.3946381211280823,-0.8917236924171448,0.4517453014850616,0.02747922763228416,0,0,0,-1,10169.2265285,3,1,1562003680.100521,0,0,0,0,0,0,0,0,0,10167.608728,0,-1.165283,75.31101,3232235528,182473588,1,1,0.31,-28.52122,-34.91474,1
1562003681.11055,5,0,0,1562003676.176806,4.63479235162881,-74.15098299934473,2563.781,-1,-1,10,65,-9999,1562003681.075533,-9.941604614257812,6.997604370117188,25.54864501953125,74.61101531982422,82.10498809814453,15,10170.217208625,-0.895538330078125,0.4352569580078125,0.025909423828125,10170.217208625,-0.02591708478032412,0.05435724837738932,0.06438005513990253,10170.213912625,-7.675430297851562,17.92633056640625,-513.20068359375,10170.212142625,-2.4222621704263,-1.600955439869407,-0.4696206298176467,-0.03530701994895935,0.05750027671456337,0.05717132985591888,-0.009178102016448975,-0.01709270477294922,-0.001377224922180176,1,0.7103559374809265,0.09401834756135941,0.5751512050628662,-0.3946595788002014,-0.8913346529006958,0.4525480270385742,0.02689001522958279,0,0,0,-1,10169.2265285,3,1,1562003680.100521,0,0,0,0,0,0,0,0,0,10167.608728,0,-1.165283,75.31101,3232235528,182473588,1,1,0.31,-29.0785,-35.35597,1
1562003681.122032,6,0,0,1562003676.176806,4.63479235162881,-74.15098299934473,2563.781,-1,-1,10,65,-9999,1562003681.120144,-9.730696678161621,6.97142219543457,25.70269775390625,74.71939086914062,82.21336364746094,15,10170.237472625,-0.8869476318359375,0.4305267333984375,0.0232391357421875,10170.237472625,0.009520800897033277,0.01942403172660193,0.08779243691500713,10170.234024625,-7.660110473632812,17.77265930175781,-513.076416015625,10170.232406625,-2.42274924535461,-1.60038015889635,-0.4709978429868418,-0.002269440330564976,0.02314842864871025,0.08425860852003098,0.003030896186828613,-0.02118903398513794,-8.308887481689453e-05,1,0.7102696299552917,0.09325473010540009,0.5751780271530151,-0.3949569463729858,-0.8907261490821838,0.4537757039070129,0.02635878324508667,0,0,0,-1,10169.2265285,3,1,1562003680.100521,0,0,0,0,0,0,0,0,0,10167.608728,0,-1.165283,75.31101,3232235528,182473588,1,1,0.31,-29.52526,-35.59159,1
1562003681.142299,7,0,0,1562003676.176806,4.63479235162881,-74.15098299934473,2563.781,-1,-1,10,65,-9999,1562003681.120144,-9.730696678161621,6.97142219543457,25.70269775390625,74.71939086914062,82.21336364746094,15,10170.257736625,-0.88800048828125,0.424774169921875,0.021240234375,10170.257736625,0.05015291596448122,-0.006161755814116333,0.08704968128698402,10170.254104625,-7.835342407226562,17.62870788574219,-513.4443359375,10170.252670625,-2.422393561015979,-1.600088254890366,-0.4726769078391415,0.03812645375728607,-0.00778605230152607,0.08516914397478104,0.001832902431488037,-0.02614840865135193,-0.002196431159973145,1,0.710237443447113,0.09274148195981979,0.5748772621154785,-0.3955728113651276,-0.8899707198143005,0.455271303653717,0.02607641741633415,0,0,0,-1,10169.2265285,3,1,1562003680.100521,0,0,0,0,0,0,0,0,0,10167.608728,0,-1.165283,75.31101,3232235528,182473588,1,1,0.31,-29.52526,-36.07974,1
1562003681.162633,8,0,0,1562003676.176806,4.63479235162881,-74.15098299934473,2563.781,-1,-1,10,65,-9999,1562003681.144555,-9.854969024658203,6.832218170166016,25.4459228515625,74.68110656738281,82.17507934570312,15,10170.277999625,-0.9062347412109375,0.43499755859375,0.018585205078125,10170.277999625,0.06572495149039255,0.03169614434579607,0.0376693483547348,10170.274185625,-7.965072631835938,17.889892578125,-513.2584838867188,10170.272933625,-2.421233349004505,-1.599664214415159,-0.474177701497401,0.06298466771841049,0.01171467918902636,0.050079595297575,-0.003875434398651123,-0.03203120827674866,-0.007582306861877441,1,0.7101227045059204,0.09254936873912811,0.5744991302490234,-0.3963724076747894,-0.8892977833747864,0.4566070139408112,0.02567928284406662,0,0,0,-1,10169.2265285,3,1,1562003680.100521,0,0,0,0,0,0,0,0,0,10167.608728,0,-1.165283,75.31101,3232235528,182473588,1,1,0.31,-29.52526,-35.4998,1
1562003681.193319,9,0,0,1562003676.176806,4.63479235162881,-74.15098299934473,2563.781,-1,-1,10,65,-9999,1562003681.170886,-9.960281372070312,7.029912948608398,25.54638671875,74.58713531494141,82.08110809326172,15,10170.298263625,-0.904052734375,0.4379119873046875,0.0177154541015625,10170.298263625,0.041608429923071,0.08506615890709301,-0.005593437237493424,10170.294296625,-8.14581298828125,18.13618469238281,-513.1181640625,10170.293197625,-2.419895162270657,-1.598195999325154,-0.4745892299764009,0.04840758442878723,0.06755983829498291,-0.00598234124481678,-0.02548038959503174,-0.01813033223152161,-0.004196286201477051,1,0.7096557021141052,0.09259048104286194,0.5746727585792542,-0.3969471156597137,-0.889146625995636,0.4569731056690216,0.02436842583119869,0,0,0,-1,10169.2265285,3,1,1562003680.100521,0,0,0,0,0,0,0,0,0,10167.608728,0,-1.165283,75.31101,3232235528,182473588,1,1,0.31,-28.32475,-33.56233,1
1562003681.203144,10,0,0,1562003676.176806,4.63479235162881,-74.15098299934473,2563.781,-1,-1,10,65,-9999,1562003681.195246,-10.08317852020264,7.19525146484375,25.68701171875,74.52478790283203,82.01876068115234,15,10170.318496625,-0.893157958984375,0.4415740966796875,0.0208892822265625,10170.318496625,0.008707471500123078,0.09157838672066378,0.01761867482363721,10170.314376625,-8.061386108398438,18.10858154296875,-512.8703002929688,10170.313461625,-2.419182952780579,-1.596226006282727,-0.4744866915434225,0.01535296160727739,0.08338327705860138,0.006230383180081844,-0.007137656211853027,-0.01875630021095276,-0.001957535743713379,1,0.7090522050857544,0.09248757362365723,0.5752506256103516,-0.3972126245498657,-0.8892399072647095,0.4568819105625153,0.02261796221137047,0,0,0,-1,10169.2265285,3,1,1562003680.100521,0,0,0,0,0,0,0,0,0,10167.608728,0,-1.165283,75.31101,3232235528,182473588,1,1,0.31,-28.32475,-33.56233,1
1562003681.223434,11,0,0,1562003676.176806,4.63479235162881,-74.15098299934473,2563.781,-1,-1,10,65,-9999,1562003681.221597,-10.26387119293213,7.127033233642578,25.57696533203125,74.51775360107422,82.01172637939453,15,10170.338760625,-0.879364013671875,0.445343017578125,0.02374267578125,10170.338760625,0.002918025606399821,0.09919369585774536,0.03397181549726878,10170.334457625,-8.260696411132812,17.97125244140625,-513.2222900390625,10170.333724625,-2.419031993463494,-1.594337357041453,-0.4748235000106384,0.003395369742065668,0.09498453885316849,0.02692713961005211,0.002942442893981934,-0.01162481307983398,0.0008089542388916016,1,0.7085156440734863,0.09204889833927155,0.575822651386261,-0.3974429965019226,-0.8891270756721497,0.4571814835071564,0.02093483507633209,0,0,0,-1,10169.2265285,3,1,1562003680.100521,0,0,0,0,0,0,0,0,0,10167.608728,0,-1.165283,75.31101,3232235528,182473588,1,1,0.31,-28.32475,-33.65843,1
1562003681.243681,12,0,0,1562003676.176806,4.63479235162881,-74.15098299934473,2563.781,-1,-1,10,65,-9999,1562003681.221597,-10.26387119293213,7.127033233642578,25.57696533203125,74.51775360107422,82.01172637939453,15,10170.359024625,-0.8893890380859375,0.4542388916015625,0.0152740478515625,10170.359024625,-0.01824931136976798,0.1096804252821504,0.06686771391414555,10170.354537625,-7.932968139648438,17.98628234863281,-513.3616943359375,10170.353958625,-2.419130262414073,-1.592437125131804,-0.475596648238851,-0.01316230185329914,0.1004951521754265,0.05777240172028542,0.007250130176544189,-0.00866544246673584,0.001407504081726074,1,0.7080047726631165,0.09136759489774704,0.5763605237007141,-0.3977305889129639,-0.8888113498687744,0.4578689634799957,0.0192375909537077,0,0,0,-1,10169.2265285,3,1,1562003680.100521,0,0,0,0,0,0,0,0,0,10167.608728,0,-1.165283,75.31101,3232235528,182473588,1,1,0.31,-28.32475,-34.44473,1
1562003681.282177,13,0,0,1562003676.176806,4.63479235162881,-74.15098299934473,2563.781,-1,-1,10,65,-9999,1562003681.272247,-10.10695457458496,7.067773818969727,25.65655517578125,74.56181335449219,82.0557861328125,15,10170.379287625,-0.8848876953125,0.450225830078125,0.0138397216796875,10170.379287625,-0.005965747157886501,0.125264445032967,0.06524052248810713,10170.374618625,-8.119461059570312,17.93362426757812,-513.07861328125,10170.374221625,-2.419562836545947,-1.590397549157415,-0.476840224249754,-0.01242327503859997,0.1182528436183929,0.06247581541538239,0.000934600830078125,-0.006261140108108521,-0.004489421844482422,1,0.7074877619743347,0.09037620574235916,0.5769199132919312,-0.3980661332607269,-0.8882789611816406,0.4589741826057434,0.01741358451545238,0,0,0,-1,10169.2265285,3,1,1562003680.100521,0,0,0,0,0,0,0,0,0,10167.608728,0,-1.165283,75.31101,3232235528,182473588,1,1,0.31,-28.32475,-35.09601,1
1562003681.284875,14,0,0,1562003676.176806,4.63479235162881,-74.15098299934473,2563.781,-1,-1,10,65,-9999,1562003681.272247,-10.10695457458496,7.067773818969727,25.65655517578125,74.56181335449219,82.0557861328125,15,10170.399551625,-0.893280029296875,0.454986572265625,0.0104827880859375,10170.399551625,0.01219807674088993,0.1117441088108528,0.06025268808249772,10170.394729625,-8.323684692382812,18.11553955078125,-512.99755859375,10170.394485625,-2.419656046913875,-1.588078635811786,-0.4780877280249115,0.00531550869345665,0.1117171794176102,0.06176102161407471,-0.0002568364143371582,-0.006529927253723145,-0.003594517707824707,1,0.7068741917610168,0.0894470289349556,0.5775089263916016,-0.3985115587711334,-0.8877436518669128,0.4600821435451508,0.01534378807991743,0,0,0,-1,10169.2265285,3,1,1562003680.100521,0,0,0,0,0,0,0,0,0,10167.608728,0,-1.165283,75.31101,3232235528,182473588,1,1,0.31,-28.32475,-35.09601,1
1562003681.304524,15,0,0,1562003676.176806,4.63479235162881,-74.15098299934473,2563.781,-1,-1,10,65,-9999,1562003681.296518,-10.25310707092285,7.216085433959961,25.69757080078125,74.54643249511719,82.0404052734375,15,10170.419837375,-0.8890533447265625,0.44989013671875,0.01373291015625,10170.419837375,0.04249632783050341,0.0849178208343756,0.02904044010676905,10170.414832375,-8.303131103515625,18.30360412597656,-513.2352294921875,10170.414771375,-2.419267611222752,-1.58588198354761,-0.479083903047229,0.03266111388802528,0.08905447274446487,0.03343696892261505,-0.003643989562988281,-0.008405983448028564,-0.001073002815246582,1,0.7062634825706482,0.08879908919334412,0.5780082941055298,-0.3990151286125183,-0.8873166441917419,0.4609664082527161,0.01338677015155554,0,0,0,-1,10169.2265285,3,1,1562003680.100521,0,0,0,0,0,0,0,0,0,10167.608728,0,-1.165283,75.31101,3232235528,182473588,1,1,0.31,-28.32475,-35.57028,1
1562003681.324709,16,0,0,1562003676.176806,4.63479235162881,-74.15098299934473,2563.781,-1,-1,10,65,-9999,1562003681.323268,-10.23521423339844,7.257822036743164,25.41107177734375,74.46807098388672,81.96204376220703,15,10170.440100375,-0.8905181884765625,0.4496917724609375,0.0177001953125,10170.440100375,0.08070363472543421,0.06949838443892582,0.01771374967455305,10170.434912375,-8.209869384765625,18.11080932617188,-513.484130859375,10170.435034375,-2.418078397547808,-1.583842789969045,-0.4795041951144332,0.07329189777374268,0.06396377086639404,0.01368323899805546,-0.004544734954833984,-0.0127767026424408,0.003882288932800293,1,0.7056386470794678,0.08866511285305023,0.5784065127372742,-0.3995729982852936,-0.8871483206748962,0.4613393545150757,0.01157480478286743,0,0,0,-1,10169.2265285,3,1,1562003680.100521,0,0,0,0,0,0,0,0,0,10167.608728,0,-1.165283,75.31101,3232235528,182473588,1,1,0.31,-28.32475,-35.67901,1
1562003681.371474,17,0,0,1562003676.176806,4.63479235162881,-74.15098299934473,2563.781,-1,-1,10,65,-9999,1562003681.349279,-10.25992584228516,7.100385665893555,25.49822998046875,74.35062408447266,81.84459686279297,15,10170.460333375,-0.880401611328125,0.4534759521484375,0.0184783935546875,10170.460333375,0.0629976082180424,0.0758031520035794,0.04062359295195969,10170.454993375,-8.207717895507812,17.92985534667969,-513.31884765625,10170.455298375,-2.416328076265479,-1.581719473900103,-0.4799055229004417,0.07084045559167862,0.06672919541597366,0.02918177098035812,0.002647280693054199,-0.009241729974746704,0.0104525089263916,1,0.7049636244773865,0.08871763199567795,0.5787248015403748,-0.4002912640571594,-0.8869856595993042,0.4616953730583191,0.009689060039818287,0,0,0,-1,10169.2265285,3,1,1562003680.100521,0,0,0,0,0,0,0,0,0,10167.608728,0,-1.165283,75.31101,3232235528,182473588,1,1,0.31,-28.10339,-35.19423,1
1562003681.374104,18,0,0,1562003676.176806,4.63479235162881,-74.15098299934473,2563.781,-1,-1,10,65,-9999,1562003681.349279,-10.25992584228516,7.100385665893555,25.49822998046875,74.35062408447266,81.84459686279297,15,10170.480597375,-0.8801422119140625,0.449462890625,0.015655517578125,10170.480597375,0.0213388445503689,0.0936260912828257,0.07083262814505552,10170.475104375,-8.405960083007812,18.06858825683594,-513.2672729492188,10170.475531375,-2.415146962573869,-1.579674866818293,-0.4808495491979248,0.03029196709394455,0.08257873356342316,0.06311337649822235,0.007279515266418457,-0.01319175958633423,0.009813308715820312,1,0.7043594717979431,0.08839428424835205,0.5790190100669861,-0.4010001420974731,-0.8865672945976257,0.4625325500965118,0.007871629670262337,0,0,0,-1,10169.2265285,3,1,1562003680.100521,0,0,0,0,0,0,0,0,0,10167.608728,0,-1.165283,75.31101,3232235528,182473588,1,1,0.31,-28.10339,-35.19423,1
1562003681.385619,19,0,0,1562003676.176806,4.63479235162881,-74.15098299934473,2563.781,-1,-1,10,65,-9999,1562003681.373531,-10.36271095275879,7.171195983886719,25.5301513671875,74.30224609375,81.79621887207031,15,10170.500861375,-0.88275146484375,0.45318603515625,0.01690673828125,10170.500861375,0.007993744327981842,0.1191841819482071,0.07137617932354069,10170.495184375,-8.35211181640625,18.254150390625,-513.2392578125,10170.495795375,-2.414847191147778,-1.577557975425014,-0.4822346794580335,0.00588542502373457,0.1091466918587685,0.06963066011667252,0.004623174667358398,-0.01017743349075317,0.01021432876586914,1,0.7037919759750366,0.08759057521820068,0.5794256329536438,-0.4015850126743317,-0.8859403729438782,0.4637601673603058,0.005990508478134871,0,0,0,-1,10169.2265285,3,1,1562003680.100521,0,0,0,0,0,0,0,0,0,10167.608728,0,-1.165283,75.31101,3232235528,182473588,1,1,0.31,-28.10339,-35.19423,1
1562003681.405809,20,0,0,1562003676.176806,4.63479235162881,-74.15098299934473,2563.781,-1,-1,10,65,-9999,1562003681.397809,-10.30205535888672,7.334432601928711,25.515380859375,74.29385375976562,81.78782653808594,15,10170.521124375,-0.888092041015625,0.4555816650390625,0.0194244384765625,10170.521124375,0.02143844677513787,0.08498439986162758,0.0508783610454188,10170.515265375,-8.308731079101562,18.1085205078125,-513.4195556640625,10170.516058375,-2.414657065214475,-1.575312582042592,-0.4835300633365218,0.01464908849447966,0.09299435466527939,0.05520565062761307,-0.0001631379127502441,-0.010943204164505,0.0134880542755127,1,0.703187882900238,0.08675280213356018,0.5799167156219482,-0.4021160304546356,-0.885350227355957,0.4649074375629425,0.003998494707047939,0,0,0,-1,10169.2265285,3,1,1562003680.100521,0,0,0,0,0,0,0,0,0,10167.608728,0,-1.165283,75.31101,3232235528,182473588,1,1,0.31,-28.10339,-35.54979,1
1562003681.449415,21,0,0,1562003676.176806,4.63479235162881,-74.15098299934473,2563.781,-1,-1,10,65,-9999,1562003681.42467,-10.38542079925537,7.134050369262695,25.33624267578125,74.24859619140625,81.74256896972656,15,10170.541388375,-0.88812255859375,0.45489501953125,0.02191162109375,10170.541388375,0.06412066324972882,0.02647874545422184,0.02332662798800405,10170.535346375,-8.367996215820312,18.0277099609375,-513.4900512695312,10170.536322375,-2.413936658293275,-1.573701384007391,-0.4842965771522378,0.0533517450094223,0.03257894515991211,0.02460672706365585,-0.00376439094543457,-0.009302377700805664,0.0187455415725708,1,0.7027220129966736,0.08641332387924194,0.5801838636398315,-0.4026180803775787,-0.8849990963935852,0.4655859470367432,0.002570980228483677,0,0,0,-1,10169.2265285,3,1,1562003680.100521,0,0,0,0,0,0,0,0,0,10167.608728,0,-1.165283,75.31101,3232235528,182473588,1,1,0.31,-28.01145,-36.09118,1
1562003681.452584,22,0,0,1562003676.176806,4.63479235162881,-74.15098299934473,2563.781,-1,-1,10,65,-9999,1562003681.448743,-10.18465328216553,7.261188507080078,25.47625732421875,74.14557647705078,81.63954925537109,15,10170.561652375,-0.8846282958984375,0.4567108154296875,0.0216522216796875,10170.561652375,0.06076055290237584,0.01032693975900026,0.04166515525428968,10170.555457375,-8.087753295898438,18.08566284179688,-513.3109130859375,10170.556586375,-2.412469080467293,-1.572764007604965,-0.484756138454749,0.0648784413933754,0.002397609408944845,0.03137994557619095,-0.0001619458198547363,-0.01170790195465088,0.02189493179321289,1,0.7024062871932983,0.0865788534283638,0.5801247358322144,-0.4032179713249207,-0.88478684425354,0.4659925997257233,0.00174098031129688,0,0,0,-1,10169.2265285,3,1,1562003680.100521,0,0,0,0,0,0,0,0,0,10167.608728,0,-1.165283,75.31101,3232235528,182473588,1,1,0.31,-28.01145,-36.09118,1
1562003681.466733,23,0,0,1562003676.176806,4.63479235162881,-74.15098299934473,2563.781,-1,-1,10,65,-9999,1562003681.448743,-10.18465328216553,7.261188507080078,25.47625732421875,74.14557647705078,81.63954925537109,15,10170.581885375,-0.885406494140625,0.456298828125,0.01898193359375,10170.581885375,0.02703907454757451,0.01292112497684645,0.0647353208293191,10170.575537375,-8.495742797851562,18.45616149902344,-513.37451171875,10170.576849375,-2.411297920942812,-1.572128502212447,-0.4856868647011511,0.03544491529464722,0.006722049787640572,0.06069894880056381,-0.001250982284545898,-0.00894540548324585,0.01949751377105713,1,0.7022112607955933,0.08653555810451508,0.5799238681793213,-0.4038556516170502,-0.8843538761138916,0.4668158888816833,0.001178115257062018,0,0,0,-1,10169.2265285,3,1,1562003680.100521,0,0,0,0,0,0,0,0,0,10167.608728,0,-1.165283,75.31101,3232235528,182473588,1,1,0.31,-28.01145,-34.29574,1
1562003681.486773,24,0,0,1562003676.176806,4.63479235162881,-74.15098299934473,2563.781,-1,-1,10,65,-9999,1562003681.474747,-10.45133018493652,7.528957366943359,25.42083740234375,74.08954620361328,81.58351898193359,15,10170.602149375,-0.890228271484375,0.45458984375,0.0171661376953125,10170.602149375,0.002385127072274966,0.04842638862978285,0.04918299269547436,10170.595618375,-8.51617431640625,18.53559875488281,-513.459716796875,10170.597113375,-2.410898635570316,-1.571633630197196,-0.4868362259503606,0.0041458485648036,0.03291983157396317,0.04915814101696014,-0.003817081451416016,-0.01231139898300171,0.01636505126953125,1,0.7020999193191528,0.08617258816957474,0.579784631729126,-0.4043264389038086,-0.883817195892334,0.4678320288658142,0.0007400233298540115,0,0,0,-1,10169.2265285,3,1,1562003680.100521,0,0,0,0,0,0,0,0,0,10167.608728,0,-1.165283,75.31101,3232235528,182473588,1,1,0.31,-28.01145,-34.57025,1
1562003681.520794,25,0,0,1562003676.176806,4.63479235162881,-74.15098299934473,2563.781,-1,-1,10,65,-9999,1562003681.51159,-10.48624038696289,7.567628860473633,25.32061767578125,74.08760833740234,81.58158111572266,15,10170.622412375,-0.8901519775390625,0.4561614990234375,0.0177764892578125,10170.622412375,0.009002283432794848,0.04546575244594176,0.04240657930176774,10170.615698375,-8.130508422851562,18.11082458496094,-513.31298828125,10170.617346375,-2.410887951452197,-1.570726131966257,-0.4877200770789209,0.00215540174394846,0.04776136204600334,0.04144616052508354,-0.005069851875305176,-0.01536595821380615,0.01762485504150391,1,0.7018742561340332,0.08568269014358521,0.5799222588539124,-0.4046249091625214,-0.8834037184715271,0.4686130285263062,-6.201037467690185e-05,0,0,0,-1,10169.2265285,3,1,1562003680.100521,0,0,0,0,0,0,0,0,0,10167.608728,0,-1.165283,75.31101,3232235528,182473588,1,1,0.31,-28.01145,-34.97036,1
1562003681.527737,26,0,0,1562003676.176806,4.63479235162881,-74.15098299934473,2563.781,-1,-1,10,65,-9999,1562003681.51159,-10.48624038696289,7.567628860473633,25.32061767578125,74.08760833740234,81.58158111572266,15,10170.642676375,-0.885528564453125,0.45294189453125,0.0177154541015625,10170.642676375,0.04661464014020195,-0.005952963984654121,0.0511737056103086,10170.635809375,-8.524078369140625,18.13446044921875,-513.6007080078125,10170.637610375,-2.410484456584053,-1.570015362550893,-0.4885270258395181,0.03679780289530754,0.001444730442017317,0.04137558862566948,-0.005891084671020508,-0.0134846568107605,0.01871025562286377,1,0.7016854882240295,0.08539713174104691,0.579926609992981,-0.4050061404705048,-0.8830248713493347,0.4693257212638855,-0.0006896110135130584,0,0,0,-1,10169.2265285,3,1,1562003680.100521,0,0,0,0,0,0,0,0,0,10167.608728,0,-1.165283,75.31101,3232235528,182473588,1,1,0.31,-28.01145,-34.97036,1
1562003681.547941,27,0,0,1562003676.176806,4.63479235162881,-74.15098299934473,2563.781,-1,-1,10,65,-9999,1562003681.51159,-10.48624038696289,7.567628860473633,25.32061767578125,74.08760833740234,81.58158111572266,15,10170.662940375,-0.8845367431640625,0.450927734375,0.0129852294921875,10170.662940375,0.05195427812581082,-0.02072605118354167,0.07468755382294522,10170.655890375,-8.3792724609375,18.02639770507812,-513.545166015625,10170.657874375,-2.40936947346718,-1.569879673333417,-0.4896039453509521,0.0544779933989048,-0.02819199115037918,0.06700611859560013,-0.0009803175926208496,-0.02026420831680298,0.0155947208404541,1,0.7016447186470032,0.08538270741701126,0.5795300006866455,-0.405646950006485,-0.8825188279151917,0.4702763855457306,-0.0008089641341939569,0,0,0,-1,10169.2265285,3,1,1562003680.100521,0,0,0,0,0,0,0,0,0,10167.608728,0,-1.165283,75.31101,3232235528,182473588,1,1,0.31,-28.01145,-35.10347,1
1562003681.568044,28,0,0,1562003676.176806,4.63479235162881,-74.15098299934473,2563.781,-1,-1,10,65,-9999,1562003681.551476,-10.42177295684814,7.234107971191406,25.22613525390625,73.98291015625,81.47688293457031,15,10170.683203375,-0.891021728515625,0.4532470703125,0.013824462890625,10170.683203375,0.0397969477495991,0.005115133505715193,0.06356166573692118,10170.675971375,-8.546661376953125,18.3212890625,-513.6022338867188,10170.678137375,-2.408246327030939,-1.569718864791221,-0.4909867449786371,0.04541286081075668,-0.001188869588077068,0.06419408321380615,-0.007155179977416992,-0.01733371615409851,0.01379811763763428,1,0.7016094923019409,0.0852586105465889,0.5790778398513794,-0.406379222869873,-0.8818676471710205,0.4714962840080261,-0.0009501792956143618,0,0,0,-1,10169.2265285,3,1,1562003680.100521,0,0,0,0,0,0,0,0,0,10167.608728,0,-1.165283,75.31101,3232235528,182473588,1,1,0.31,-28.01145,-33.55204,1
1562003681.605072,29,0,0,1562003676.176806,4.63479235162881,-74.15098299934473,2563.781,-1,-1,10,65,-9999,1562003681.602121,-10.62423419952393,7.443294525146484,25.4100341796875,73.8897705078125,81.38374328613281,15,10170.703467375,-0.888092041015625,0.4512939453125,0.0145111083984375,10170.703467375,0.01892255849334001,0.01214907457683248,0.05937198071000852,10170.696051375,-8.675018310546875,18.34808349609375,-513.3845825195312,10170.698401375,-2.407560878422452,-1.569353216195265,-0.4921466143405282,0.01868830621242523,0.007161471992731094,0.05696466565132141,-0.008588075637817383,-0.02210989594459534,0.01387560367584229,1,0.7015241384506226,0.08501742035150528,0.5788309574127197,-0.4069284498691559,-0.8813198208808899,0.4725188314914703,-0.001271842862479389,0,0,0,-1,10169.2265285,3,1,1562003680.100521,0,0,0,0,0,0,0,0,0,10167.608728,0,-1.165283,75.31101,3232235528,182473588,1,1,0.31,-28.01145,-34.48821,1
1562003681.60835,30,0,0,1562003676.176806,4.63479235162881,-74.15098299934473,2563.781,-1,-1,10,65,-9999,1562003681.602121,-10.62423419952393,7.443294525146484,25.4100341796875,73.8897705078125,81.38374328613281,15,10170.723700375,-0.8831787109375,0.452606201171875,0.014923095703125,10170.723700375,0.01217863566493236,0.006605704767832543,0.05498495544632099,10170.716132375,-8.529296875,18.55545043945312,-513.5026245117188,10170.718665375,-2.4072068640638,-1.569136823376158,-0.4932544852165478,0.01126367878168821,0.001326486002653837,0.05297019332647324,-0.003924369812011719,-0.02180427312850952,0.0187041163444519,1,0.7014938592910767,0.08470845967531204,0.5786093473434448,-0.4073600471019745,-0.8807954788208008,0.4734949171543121,-0.001461684470996261,0,0,0,-1,10169.2265285,3,1,1562003680.100521,0,0,0,0,0,0,0,0,0,10167.608728,0,-1.165283,75.31101,3232235528,182473588,1,1,0.31,-28.01145,-34.48821,1
1562003681.62854,31,0,0,1562003676.176806,4.63479235162881,-74.15098299934473,2563.781,-1,-1,10,65,-9999,1562003681.62664,-10.34335803985596,7.349374771118164,25.296875,73.88979339599609,81.38376617431641,15,10170.743964375,-0.887298583984375,0.4557037353515625,0.0101165771484375,10170.743964375,-0.0211002253166978,0.009194297347389562,0.04632142610418422,10170.736243375,-8.290298461914062,18.1107177734375,-513.5050048828125,10170.738898375,-2.407154730938582,-1.569092219483598,-0.494235461090639,-0.01248852256685495,0.0009674918837845325,0.04357322677969933,-0.005213558673858643,-0.01938742399215698,0.01538562774658203,1,0.701520562171936,0.08437304943799973,0.5784144401550293,-0.4076601266860962,-0.8803303241729736,0.4743587374687195,-0.00150017871055752,0,0,0,-1,10169.2265285,3,1,1562003680.100521,0,0,0,0,0,0,0,0,0,10167.608728,0,-1.165283,75.31101,3232235528,182473588,1,1,0.31,-28.01145,-34.67671,1
1562003681.649239,32,0,0,1562003676.176806,4.63479235162881,-74.15098299934473,2563.781,-1,-1,10,65,-9999,1562003681.62664,-10.34335803985596,7.349374771118164,25.296875,73.88979339599609,81.38376617431641,15,10170.764227375,-0.89044189453125,0.4563140869140625,0.0048980712890625,10170.764227375,-0.05533010112359526,0.03213849540285823,0.02804761365238751,10170.756323375,-8.121795654296875,18.37869262695312,-513.3881225585938,10170.759161375,-2.407938896749322,-1.569344434050629,-0.4950032235765318,-0.05416353046894073,0.01848656311631203,0.03174027055501938,-0.008888721466064453,-0.01807951927185059,0.008342444896697998,1,0.7016590237617493,0.08387970924377441,0.5783293843269348,-0.4076443612575531,-0.8799662590026855,0.4750344753265381,-0.001277617528103292,0,0,0,-1,10169.2265285,3,1,1562003680.100521,0,0,0,0,0,0,0,0,0,10167.608728,0,-1.165283,75.31101,3232235528,182473588,1,1,0.31,-28.01145,-34.94095,1
1562003681.684271,33,0,0,1562003676.176806,4.63479235162881,-74.15098299934473,2563.781,-1,-1,10,65,-9999,1562003681.677395,-10.48490238189697,7.566326141357422,25.2904052734375,74.03435516357422,81.52832794189453,15,10170.784491375,-0.88958740234375,0.4552459716796875,0.0022735595703125,10170.784491375,-0.0344093728643688,0.03162610320912698,0.01523700986077935,10170.776404375,-8.503143310546875,18.44012451171875,-513.5579833984375,10170.779425375,-2.40914729527739,-1.569355184318708,-0.4954259174775826,-0.04191005975008011,0.02964520826935768,0.01465369574725628,-0.01053911447525024,-0.02040454745292664,0.005937099456787109,1,0.7017304301261902,0.08330947905778885,0.5784857869148254,-0.4074164927005768,-0.8797654509544373,0.4754064083099365,-0.001267868210561574,0,0,0,-1,10169.2265285,3,1,1562003680.100521,0,0,0,0,0,0,0,0,0,10167.608728,0,-1.165283,75.31101,3232235528,182473588,1,1,0.31,-28.01145,-34.95149,1
1562003681.689482,34,0,0,1562003676.176806,4.63479235162881,-74.15098299934473,2563.781,-1,-1,10,65,-9999,1562003681.677395,-10.48490238189697,7.566326141357422,25.2904052734375,74.03435516357422,81.52832794189453,15,10170.804755375,-0.8931884765625,0.4605255126953125,0.0064697265625,10170.804755375,-0.01080950454852262,0.02367763261967649,0.01307505568785303,10170.796515375,-8.553451538085938,18.47824096679688,-513.3177490234375,10170.799689375,-2.409828051800977,-1.569173107095996,-0.4956021073679205,-0.0175088457763195,0.02163388952612877,0.008723367936909199,-0.01140153408050537,-0.01907947659492493,0.004678070545196533,1,0.7017134428024292,0.08297159522771835,0.5786523222923279,-0.4072779417037964,-0.8796812295913696,0.4755614101886749,-0.001427917159162462,0,0,0,-1,10169.2265285,3,1,1562003680.100521,0,0,0,0,0,0,0,0,0,10167.608728,0,-1.165283,75.31101,3232235528,182473588,1,1,0.31,-28.01145,-34.95149,1
1562003681.709689,35,0,0,1562003676.176806,4.63479235162881,-74.15098299934473,2563.781,-1,-1,10,65,-9999,1562003681.702171,-10.59142589569092,7.41356086730957,25.37677001953125,74.06271362304688,81.55668640136719,15,10170.825018375,-0.89178466796875,0.467071533203125,0.00421142578125,10170.825018375,-0.0006250439078415972,0.002402437619360481,0.02500947948082512,10170.816596375,-8.607559204101562,18.25161743164062,-513.436767578125,10170.819953375,-2.410056845058404,-1.569042644478722,-0.4958306994103665,-0.004674274940043688,0.001980025786906481,0.01963780075311661,-0.01308208703994751,-0.01024734973907471,0.006165921688079834,1,0.7016947269439697,0.08278444409370422,0.5786981582641602,-0.4072831571102142,-0.879572331905365,0.4757624864578247,-0.001542491954751313,0,0,0,-1,10169.2265285,3,1,1562003680.100521,0,0,0,0,0,0,0,0,0,10167.608728,0,-1.165283,75.31101,3232235528,182473588,1,1,0.31,-28.01145,-35.04542,1
1562003681.729982,36,0,0,1562003676.176806,4.63479235162881,-74.15098299934473,2563.781,-1,-1,10,65,-9999,1562003681.728012,-10.74606513977051,7.515871047973633,25.3106689453125,74.072021484375,81.56599426269531,15,10170.845252375,-0.885284423828125,0.4718170166015625,-0.00018310546875,10170.845252375,-0.002407763941540639,-0.005985454549953088,0.04656057797007334,10170.836676375,-8.801315307617188,18.41477966308594,-513.5433349609375,10170.840216375,-2.410139632532974,-1.569242344756262,-0.4963387200287244,-0.005985881667584181,-0.01279013231396675,0.03678962215781212,-0.009203672409057617,-0.005704522132873535,0.002983927726745605,1,0.7017771005630493,0.08261760324239731,0.5785415768623352,-0.4073976576328278,-0.8793308734893799,0.4762092530727386,-0.001366465468890965,0,0,0,-1,10169.2265285,3,1,1562003680.100521,0,0,0,0,0,0,0,0,0,10167.608728,0,-1.165283,75.31101,3232235528,182473588,1,1,0.31,-28.01145,-34.47535,1
1562003681.764117,37,0,0,1562003676.176806,4.63479235162881,-74.15098299934473,2563.781,-1,-1,10,65,-9999,1562003681.752656,-10.76416969299316,7.568735122680664,25.38116455078125,74.07846069335938,81.57243347167969,15,10170.865515375,-0.8776092529296875,0.469085693359375,-0.00714111328125,10170.865515375,0.0007744472449950424,0.01534566683325459,0.07140946883716667,10170.856757375,-8.796966552734375,18.44999694824219,-513.4039916992188,10170.860480375,-2.410214388012719,-1.569448712302034,-0.4973365009613874,-0.002832432743161917,0.003512142226099968,0.06368248909711838,-0.001545906066894531,-0.004186034202575684,-0.002325117588043213,1,0.7018812894821167,0.0822829008102417,0.5782812237739563,-0.4076556265354156,-0.8788557052612305,0.4770863950252533,-0.001184359425678849,0,0,0,-1,10169.2265285,3,1,1562003680.100521,0,0,0,0,0,0,0,0,0,10167.608728,0,-1.165283,75.31101,3232235528,182473588,1,1,0.31,-28.01145,-34.9231,1
1562003681.770746,38,0,0,1562003676.176806,4.63479235162881,-74.15098299934473,2563.781,-1,-1,10,65,-9999,1562003681.752656,-10.76416969299316,7.568735122680664,25.38116455078125,74.07846069335938,81.57243347167969,15,10170.885779375,-0.8795623779296875,0.4619903564453125,-0.0059661865234375,10170.885779375,0.02931953938900936,0.0247871055298035,0.04474829684827442,10170.876837375,-8.3441162109375,18.37857055664062,-513.46484375,10170.880713375,-2.410085721917032,-1.569121440870808,-0.4986456574874348,0.01818683370947838,0.01661329716444016,0.05548634752631187,0.000391542911529541,-0.01720750331878662,-0.00562441349029541,1,0.7018355131149292,0.08180125057697296,0.5781027674674988,-0.4080839455127716,-0.8782296776771545,0.4782365560531616,-0.001470935880206525,0,0,0,-1,10169.2265285,3,1,1562003680.100521,0,0,0,0,0,0,0,0,0,10167.608728,0,-1.165283,75.31101,3232235528,182473588,1,1,0.31,-28.01145,-34.9231,1
1562003681.790777,39,0,0,1562003676.176806,4.63479235162881,-74.15098299934473,2563.781,-1,-1,10,65,-9999,1562003681.778644,-10.44681930541992,7.539272308349609,25.3486328125,74.04789733886719,81.5418701171875,15,10170.906043375,-0.88458251953125,0.4529876708984375,0.000823974609375,10170.906043375,0.07344119443278813,0.00837750584106226,-0.006208627449301728,10170.896918375,-8.574905395507812,18.34205627441406,-513.4078369140625,10170.900977375,-2.409131413773147,-1.56834624994208,-0.4991823056329868,0.06522811204195023,0.008814762346446514,-0.0004919683560729027,-0.0073586106300354,-0.01990649104118347,0.001220285892486572,1,0.7015945911407471,0.08178923279047012,0.5780704617500305,-0.4085462391376495,-0.8779715895652771,0.4787077903747559,-0.002151102060452104,0,0,0,-1,10169.2265285,3,1,1562003680.100521,0,0,0,0,0,0,0,0,0,10167.608728,0,-1.165283,75.31101,3232235528,182473588,1,1,0.31,-28.01145,-35.20812,1
1562003681.811087,40,0,0,1562003676.176806,4.63479235162881,-74.15098299934473,2563.781,-1,-1,10,65,-9999,1562003681.803531,-10.21156406402588,7.436555862426758,25.48516845703125,73.93778991699219,81.4317626953125,15,10170.926306375,-0.8789520263671875,0.4589080810546875,0.0050201416015625,10170.926306375,0.07961413552348279,-0.005649896252603104,-0.01743385144398572,10170.917029375,-8.1290283203125,18.29689025878906,-513.3030395507812,10170.921240375,-2.407338256423251,-1.567558510447424,-0.4988650939250447,0.08303800225257874,-0.01125828176736832,-0.0207652822136879,-0.003912806510925293,-0.02312225103378296,0.005360901355743408,1,0.7012801170349121,0.0823686495423317,0.5780450701713562,-0.4090054929256439,-0.8781214952468872,0.4784292578697205,-0.002843206049874425,0,0,0,-1,10169.2265285,3,1,1562003680.100521,0,0,0,0,0,0,0,0,0,10167.608728,0,-1.165283,75.31101,3232235528,182473588,1,1,0.31,-28.01145,-32.58009,1
1562003681.843962,41,0,0,1562003676.176806,4.63479235162881,-74.15098299934473,2563.781,-1,-1,10,65,-9999,1562003681.829337,-10.31752872467041,7.724946975708008,25.23919677734375,73.81888580322266,81.31285858154297,15,10170.946570375,-0.873138427734375,0.4671630859375,0.0068817138671875,10170.926306375,0.07961413552348279,-0.005649896252603104,-0.01743385144398572,10170.937109375,-8.232803344726562,18.68130493164062,-513.6102905273438,10170.941504375,-2.405642084166753,-1.56685381684118,-0.4985207413788217,0.0582844503223896,0.008934338577091694,-0.007202335633337498,0.004962384700775146,-0.01633486151695251,0.009627223014831543,1,0.7009918689727783,0.08294015377759933,0.5780154466629028,-0.4094257354736328,-0.8782839179039001,0.4781268537044525,-0.003462661057710648,0,0,0,-1,10169.2265285,3,1,1562003680.100521,0,0,0,0,0,0,0,0,0,10167.608728,0,-1.165283,75.31101,3232235528,182473588,1,1,0.31,-28.01145,-32.89832,1
1562003681.851998,42,0,0,1562003676.176806,4.63479235162881,-74.15098299934473,2563.781,-1,-1,10,65,-9999,1562003681.829337,-10.31752872467041,7.724946975708008,25.23919677734375,73.81888580322266,81.31285858154297,15,10170.966834375,-0.8712158203125,0.4769439697265625,0.0075836181640625,10170.966834375,-0.00524243260582098,0.06223407993351668,0.03726694471402382,10170.957190375,-8.681884765625,18.73539733886719,-513.593017578125,10170.961768375,-2.404866462645553,-1.565787722286855,-0.498686229784993,0.004801252391189337,0.05408929660916328,0.02640542574226856,0.001644253730773926,-0.003647565841674805,0.01263833045959473,1,0.7006585597991943,0.08293542265892029,0.5781963467597961,-0.4097417294979095,-0.8782006502151489,0.4782721698284149,-0.004398596473038197,0,0,0,-1,10169.2265285,3,1,1562003680.100521,0,0,0,0,0,0,0,0,0,10168.551865,0,-0.7214355,75.30679,3232235528,182473588,1,1,0.31,-28.01145,-32.89832,1
1562003681.871875,43,0,0,1562003676.176806,4.63479235162881,-74.15098299934473,2563.781,-1,-1,10,65,-9999,1562003681.85372,-10.64627456665039,7.863767623901367,25.21466064453125,73.78562927246094,81.27960205078125,15,10170.987067375,-0.870330810546875,0.469818115234375,0.0051422119140625,10170.987067375,-0.02257508392838369,0.03475824696716918,0.05834746263865503,10170.977271375,-8.749176025390625,18.78627014160156,-513.53125,10170.982031375,-2.405170674803494,-1.564873828697629,-0.4995114981376374,-0.02332732081413269,0.03904217109084129,0.05577236786484718,0.009240627288818359,-0.003914415836334229,0.01056993007659912,1,0.7004418969154358,0.08235125988721848,0.5784099698066711,-0.4099286198616028,-0.8778014183044434,0.4789967834949493,-0.00519883818924427,0,0,0,-1,10169.2265285,3,1,1562003680.100521,0,0,0,0,0,0,0,0,0,10168.551865,0,-0.7214355,75.30679,3232235528,182473588,1,1,0.31,-28.01145,-33.52921,1
1562003681.892531,44,0,0,1562003676.176806,4.63479235162881,-74.15098299934473,2563.781,-1,-1,10,65,-9999,1562003681.879944,-10.71824073791504,7.895313262939453,25.26165771484375,73.82099914550781,81.31497192382812,15,10171.007330375,-0.88006591796875,0.467132568359375,0.0042266845703125,10171.007330375,0.00212680044653728,0.01807327642171374,0.02869289758451371,10170.997351375,-8.532424926757812,19.02774047851562,-513.6693725585938,10171.002265375,-2.405576137029055,-1.564500005638476,-0.5004624035690637,-0.006009583827108145,0.02151351422071457,0.03571264073252678,0.003915190696716309,-0.0126681923866272,0.009079456329345703,1,0.700390636920929,0.08179792761802673,0.5784292817115784,-0.4100996553897858,-0.8773435354232788,0.4798312783241272,-0.005524109583348036,0,0,0,-1,10169.2265285,3,1,1562003680.100521,0,0,0,0,0,0,0,0,0,10168.551865,0,-0.7214355,75.30679,3232235528,182473588,1,1,0.31,-28.01145,-33.48519,1
1562003681.926912,45,0,0,1562003676.176806,4.63479235162881,-74.15098299934473,2563.781,-1,-1,10,65,-9999,1562003681.905155,-10.37060451507568,7.798770904541016,25.28778076171875,73.82390594482422,81.31787872314453,15,10171.027594375,-0.886444091796875,0.467742919921875,4.57763671875e-05,10171.027594375,0.04665485387266214,0.01072454970974909,-0.00851465863720134,10171.017462375,-8.34295654296875,18.57345581054688,-513.4890747070312,10171.022528375,-2.40533280963936,-1.564208775829858,-0.5007476633504835,0.03340386971831322,0.003215998411178589,-0.00549951009452343,-0.00974273681640625,-0.01192659139633179,0.005427777767181396,1,0.7003085017204285,0.08172297477722168,0.5784229040145874,-0.4102637767791748,-0.8772048950195312,0.4800815284252167,-0.00577871548011899,0,0,0,-1,10169.2265285,3,1,1562003680.100521,0,0,0,0,0,0,0,0,0,10168.551865,0,-0.7214355,75.30679,3232235528,182473588,1,1,0.31,-28.01145,-34.26458,1
1562003681.93259,46,0,0,1562003676.176806,4.63479235162881,-74.15098299934473,2563.781,-1,-1,10,65,-9999,1562003681.905155,-10.37060451507568,7.798770904541016,25.28778076171875,73.82390594482422,81.31787872314453,15,10171.047858375,-0.88153076171875,0.4701690673828125,0.0009002685546875,10171.047858375,0.05990780872133247,0.006995591551420143,0.008076302321774297,10171.037543375,-8.663803100585938,18.34677124023438,-513.3532104492188,10171.042792375,-2.404164573447558,-1.563571539729768,-0.5005361243877284,0.05956676229834557,0.002564855851233006,-0.002791075268760324,-0.004853785037994385,-0.0118478536605835,0.007986366748809814,1,0.700067400932312,0.08207567781209946,0.5784496068954468,-0.4105670750141144,-0.8773025870323181,0.4798959493637085,-0.006338434759527445,0,0,0,-1,10169.2265285,3,1,1562003680.100521,0,0,0,0,0,0,0,0,0,10168.551865,0,-0.7214355,75.30679,3232235528,182473588,1,1,0.31,-28.01145,-34.26458,1
1562003681.952826,47,0,0,1562003676.176806,4.63479235162881,-74.15098299934473,2563.781,-1,-1,10,65,-9999,1562003681.935025,-10.63790893554688,7.596897125244141,25.39862060546875,73.74607086181641,81.24004364013672,15,10171.068121375,-0.874298095703125,0.4725799560546875,0.00067138671875,10171.068121375,0.02967347349788089,0.0240981457558,0.04842532336534682,10171.057623375,-8.562423706054688,18.70037841796875,-513.703369140625,10171.063056375,-2.402969002131293,-1.562886262999558,-0.5008326233668509,0.03856214508414268,0.01475973706692457,0.03485323861241341,-0.002208292484283447,-0.007362484931945801,0.007930338382720947,1,0.6998327374458313,0.08224894106388092,0.5783830881118774,-0.4110259711742401,-0.8771557211875916,0.4801560640335083,-0.006938502658158541,0,0,0,-1,10169.2265285,3,1,1562003680.100521,0,0,0,0,0,0,0,0,0,10168.551865,0,-0.7214355,75.30679,3232235528,182473588,1,1,0.31,-28.01145,-34.58171,1
1562003681.973086,48,0,0,1562003676.176806,4.63479235162881,-74.15098299934473,2563.781,-1,-1,10,65,-9999,1562003681.955168,-10.5819149017334,7.770217895507812,25.145751953125,73.67282867431641,81.16680145263672,15,10171.088385375,-0.8758087158203125,0.46929931640625,0.00067138671875,10171.088385375,0.008913067536277195,0.03759504616032158,0.05394712156951711,10171.077704375,-8.57757568359375,18.82981872558594,-513.7318115234375,10171.083319375,-2.402421267355732,-1.562209916647656,-0.5018121774334723,0.01240990310907364,0.02651652693748474,0.05511430278420448,0.00244295597076416,-0.01235660910606384,0.008031308650970459,1,0.6996565461158752,0.08195643872022629,0.5783059597015381,-0.4114925265312195,-0.8766800165176392,0.4810150861740112,-0.007527719251811504,0,0,0,-1,10169.2265285,3,1,1562003680.100521,0,0,0,0,0,0,0,0,0,10168.551865,0,-0.7214355,75.30679,3232235528,182473588,1,1,0.31,-28.01145,-34.58171,1
1562003682.001013,49,0,0,1562003676.176806,4.63479235162881,-74.15098299934473,2563.781,-1,-1,10,65,-9999,1562003681.98131,-10.63822269439697,7.905857086181641,25.08538818359375,73.64981842041016,81.14379119873047,15,10171.108618375,-0.8818359375,0.4654998779296875,0.0062408447265625,10171.108618375,0.0234392797021144,0.05960793678258954,0.0167209232201715,10171.097815375,-8.522918701171875,18.72547912597656,-513.3499755859375,10171.103583375,-2.402180044876538,-1.561301862269515,-0.5026280045571494,0.01499982643872499,0.05349328368902206,0.02148789912462234,-0.00291597843170166,-0.01424667239189148,0.009525537490844727,1,0.6994189620018005,0.08156644552946091,0.5784063339233398,-0.4118327498435974,-0.8762801885604858,0.4817301630973816,-0.00832006148993969,0,0,0,-1,10169.2265285,3,1,1562003680.100521,0,0,0,0,0,0,0,0,0,10168.551865,0,-0.7214355,75.30679,3232235528,182473588,1,1,0.31,-28.01145,-32.9653,1
1562003682.013695,50,0,0,1562003676.176806,4.63479235162881,-74.15098299934473,2563.781,-1,-1,10,65,-9999,1562003682.005553,-10.40644550323486,7.725683212280273,25.22125244140625,73.62216949462891,81.11614227294922,15,10171.128882375,-0.88055419921875,0.462493896484375,0.0084381103515625,10171.128882375,0.02303208237144128,0.02666969410438052,0.02224405300488684,10171.117896375,-8.332901000976562,18.52145385742188,-513.5875244140625,10171.123847375,-2.4016488720603,-1.560148560900358,-0.5029191127781517,0.02499706856906414,0.02674928680062294,0.01796826533973217,-0.007613420486450195,-0.01785868406295776,0.01814872026443481,1,0.6990761756896973,0.08141198754310608,0.578640341758728,-0.4121165871620178,-0.8761298060417175,0.4819852411746979,-0.009329177439212799,0,0,0,-1,10169.2265285,3,1,1562003680.100521,0,0,0,0,0,0,0,0,0,10168.551865,0,-0.7214355,75.30679,3232235528,182473588,1,1,0.31,-28.01145,-32.9653,1
1562003682.033675,51,0,0,1562003676.176806,4.63479235162881,-74.15098299934473,2563.781,-1,-1,10,65,-9999,1562003682.005553,-10.40644550323486,7.725683212280273,25.22125244140625,73.62216949462891,81.11614227294922,15,10171.149146375,-0.8748321533203125,0.46185302734375,0.0050201416015625,10171.149146375,0.005425391772709424,-0.001558215553805362,0.02472691808916771,10171.137976375,-8.573715209960938,18.6417236328125,-513.5790405273438,10171.144080375,-2.401243946432772,-1.559732708525843,-0.5033244365403784,0.008824489079415798,-0.001287939492613077,0.02123383432626724,0.001357614994049072,-0.02131131291389465,0.01735126972198486,1,0.6989567875862122,0.08132485300302505,0.5786188244819641,-0.4123663604259491,-0.8759303689002991,0.4823403656482697,-0.009691354818642139,0,0,0,-1,10169.2265285,3,1,1562003680.100521,0,0,0,0,0,0,0,0,0,10168.551865,0,-0.7214355,75.30679,3232235528,182473588,1,1,0.31,-28.01145,-33.14293,1
1562003682.053965,52,0,0,1562003676.176806,4.63479235162881,-74.15098299934473,2563.781,-1,-1,10,65,-9999,1562003682.033284,-10.64596271514893,7.851049423217773,25.20166015625,73.59387969970703,81.08785247802734,15,10171.169409375,-0.87652587890625,0.46624755859375,-0.0014190673828125,10171.169409375,0.0007613977556536542,0.001190965639483435,0.0391181079877379,10171.158057375,-8.679794311523438,18.66481018066406,-513.6114501953125,10171.164343375,-2.401181041246695,-1.559793717461652,-0.5037950322346527,0.00119772891048342,-0.004980145953595638,0.03016314655542374,-0.001234114170074463,-0.01931259036064148,0.01180219650268555,1,0.6989920735359192,0.08119343221187592,0.5784876346588135,-0.4125163555145264,-0.875703752040863,0.4827525317668915,-0.009635415859520435,0,0,0,-1,10169.2265285,3,1,1562003680.100521,0,0,0,0,0,0,0,0,0,10168.551865,0,-0.7214355,75.30679,3232235528,182473588,1,1,0.31,-28.01145,-33.6643,1
1562003682.076359,53,0,0,1562003676.176806,4.63479235162881,-74.15098299934473,2563.781,-1,-1,10,65,-9999,1562003682.056269,-10.65410614013672,7.852676391601562,25.15350341796875,73.59300231933594,81.08697509765625,15,10171.189673375,-0.8783111572265625,0.473358154296875,-0.00445556640625,10171.189673375,-0.01323804114656588,0.04924397908443718,0.09693586788557618,10171.178137375,-8.9769287109375,18.76109313964844,-513.4673461914062,10171.184607375,-2.401189730517292,-1.559733703720974,-0.5047358411005439,-0.004560557659715414,0.02796661853790283,0.07423660159111023,-0.0004837512969970703,-0.0153297483921051,0.002953767776489258,1,0.6990153193473816,0.08084622770547867,0.5783167481422424,-0.4127847254276276,-0.8752487301826477,0.483576238155365,-0.009682941250503063,0,0,0,-1,10169.2265285,3,1,1562003680.100521,0,0,0,0,0,0,0,0,0,10168.551865,0,-0.7214355,75.30679,3232235528,182473588,1,1,0.31,-28.01145,-34.34948,1
1562003682.094532,54,0,0,1562003676.176806,4.63479235162881,-74.15098299934473,2563.781,-1,-1,10,65,-9999,1562003682.083109,-10.91535758972168,7.880342483520508,25.254150390625,73.60768890380859,81.10166168212891,15,10171.209937375,-0.865966796875,0.4832763671875,-0.0003204345703125,10171.209937375,-0.07924049402254468,0.08909658690081892,0.1781684064035001,10171.198218375,-8.8216552734375,19.10614013671875,-513.7286987304688,10171.204871375,-2.401843175990154,-1.558908114207036,-0.5070735117359894,-0.06182464584708214,0.08135847002267838,0.1579277664422989,-0.002601146697998047,-0.003916382789611816,0.008118510246276855,1,0.6989021301269531,0.07962272316217422,0.5782586336135864,-0.4132954478263855,-0.8741077780723572,0.4856210947036743,-0.01039206888526678,0,0,0,-1,10169.2265285,3,1,1562003680.100521,0,0,0,0,0,0,0,0,0,10168.551865,0,-0.7214355,75.30679,3232235528,182473588,1,1,0.31,-28.01145,-33.31314,1
1562003682.114975,55,0,0,1562003676.176806,4.63479235162881,-74.15098299934473,2563.781,-1,-1,10,65,-9999,1562003682.106857,-10.66590213775635,7.860488891601562,25.08447265625,73.73426818847656,81.22824096679688,15,10171.230200375,-0.8638458251953125,0.4836578369140625,0.008148193359375,10171.230200375,-0.1212659749723221,0.04116634518211784,0.2075595848258326,10171.218329375,-8.572357177734375,18.68540954589844,-513.7297973632812,10171.225134375,-2.403950131322708,-1.558441372775749,-0.5108482336672399,-0.1176916360855103,0.05084423720836639,0.2067530900239944,0.01375830173492432,-0.002345085144042969,0.01570588350296021,1,0.6990076303482056,0.07745753973722458,0.5780786871910095,-0.4137797951698303,-0.8722635507583618,0.488917350769043,-0.01077732443809509,0,0,0,-1,10169.2265285,3,1,1562003680.100521,0,0,0,0,0,0,0,0,0,10168.551865,0,-0.7214355,75.30679,3232235528,182473588,1,1,0.31,-28.01145,-33.55883,1
1562003682.135151,56,0,0,1562003676.176806,4.63479235162881,-74.15098299934473,2563.781,-1,-1,10,65,-9999,1562003682.133154,-10.46814441680908,7.899349212646484,25.2066650390625,73.92919921875,81.42317199707031,15,10171.250433375,-0.88555908203125,0.47235107421875,0.003448486328125,10171.250433375,-0.09941234138324086,0.006417152962654932,0.1198446458985468,10171.238410375,-8.38922119140625,18.69515991210938,-513.5348510742188,10171.245398375,-2.406677721005845,-1.559286650527349,-0.5145980022077435,-0.1098619475960732,0.004653040319681168,0.145796000957489,-0.00612342357635498,-0.01293689012527466,0.01723629236221313,1,0.6995085477828979,0.07535495609045029,0.5775733590126038,-0.4140270948410034,-0.87043297290802,0.492184966802597,-0.01001884415745735,0,0,0,-1,10169.2265285,3,1,1562003680.100521,0,0,0,0,0,0,0,0,0,10168.551865,0,-0.7214355,75.30679,3232235528,182473588,1,1,0.31,-28.01145,-33.55883,1
1562003682.16887,57,0,0,1562003676.176806,4.63479235162881,-74.15098299934473,2563.781,-1,-1,10,65,-9999,1562003682.157738,-10.75127792358398,7.873752593994141,25.17681884765625,74.05473327636719,81.5487060546875,15,10171.270697375,-0.898345947265625,0.4627685546875,-0.0031585693359375,10171.270697375,-0.04015061554236162,0.005522330836388308,-0.009171127845905873,10171.258490375,-8.796356201171875,18.72358703613281,-513.6513671875,10171.265631375,-2.408681602150912,-1.560228634230664,-0.5162675009779253,-0.05999239161610603,0.001700660213828087,0.01697197742760181,-0.02355402708053589,-0.02737471461296082,0.01001417636871338,1,0.699921727180481,0.07425948232412338,0.5773137211799622,-0.4138888418674469,-0.8696191906929016,0.4936375617980957,-0.00919021014124155,0,0,0,-1,10169.2265285,3,1,1562003680.100521,0,0,0,0,0,0,0,0,0,10168.551865,0,-0.7214355,75.30679,3232235528,182473588,1,1,0.31,-28.01145,-31.32958,1
1562003682.175607,58,0,0,1562003676.176806,4.63479235162881,-74.15098299934473,2563.781,-1,-1,10,65,-9999,1562003682.157738,-10.75127792358398,7.873752593994141,25.17681884765625,74.05473327636719,81.5487060546875,15,10171.290961375,-0.8884735107421875,0.468292236328125,-0.010986328125,10171.290961375,0.01715874690338053,-0.00124556044183006,-0.08859431471922999,10171.278571375,-8.602157592773438,18.599853515625,-513.435546875,10171.285895375,-2.409319167644713,-1.56056760107906,-0.5154891828482674,0.002447017934173346,-0.0046752137131989,-0.08134793490171432,-0.02737843990325928,-0.02973419427871704,0.001208901405334473,1,0.7000126838684082,0.07438118010759354,0.5774876475334167,-0.4134703278541565,-0.8700062036514282,0.492960512638092,-0.008899364620447159,0,0,0,-1,10169.2265285,3,1,1562003680.100521,0,0,0,0,0,0,0,0,0,10168.551865,0,-0.7214355,75.30679,3232235528,182473588,1,1,0.31,-28.01145,-31.32958,1
1562003682.195849,59,0,0,1562003676.176806,4.63479235162881,-74.15098299934473,2563.781,-1,-1,10,65,-9999,1562003682.184241,-10.7305383682251,7.998868942260742,25.20635986328125,74.06333160400391,81.55730438232422,15,10171.311224375,-0.8659210205078125,0.4865264892578125,-0.0088043212890625,10171.311224375,0.05080831990874972,0.004578506546064226,-0.05843801011571773,10171.298651375,-8.766876220703125,18.91885375976562,-513.5906372070312,10171.306159375,-2.408784678473635,-1.560383605057029,-0.5136925978684534,0.04087110608816147,-0.0006668902933597565,-0.07847651839256287,-0.004446864128112793,-0.01396438479423523,-0.002329707145690918,1,0.6998685598373413,0.0751643106341362,0.5778121948242188,-0.4131192266941071,-0.8708888292312622,0.4913966059684753,-0.009068651124835014,0,0,0,-1,10169.2265285,3,1,1562003680.100521,0,0,0,0,0,0,0,0,0,10168.551865,0,-0.7214355,75.30679,3232235528,182473588,1,1,0.31,-28.01145,-31.8077,1
1562003682.244684,60,0,0,1562003676.176806,4.63479235162881,-74.15098299934473,2563.781,-1,-1,10,65,-9999,1562003682.234565,-10.93326568603516,7.745668411254883,25.33868408203125,73.83604431152344,81.33001708984375,15,10171.331488375,-0.859039306640625,0.4991912841796875,-0.00372314453125,10171.331488375,0.08683769366421372,0.01317252738374993,0.020266655895503,10171.318732375,-8.691268920898438,18.69035339355469,-513.6639404296875,10171.326422375,-2.407432988972057,-1.559691704680014,-0.5128303369205628,0.07775828242301941,0.006344947032630444,-0.001049367943778634,0.008772075176239014,0.004898995161056519,0.002458453178405762,1,0.6995831727981567,0.07579858601093292,0.5779527425765991,-0.4132899940013885,-0.8713056445121765,0.4906454384326935,-0.009675917215645313,0,0,0,-1,10169.2265285,3,1,1562003680.100521,0,0,0,0,0,0,0,0,0,10168.551865,0,-0.7214355,75.30679,3232235528,182473588,1,1,0.31,-28.01145,-32.93195,1
1562003682.248424,61,0,0,1562003676.176806,4.63479235162881,-74.15098299934473,2563.781,-1,-1,10,65,-9999,1562003682.234565,-10.93326568603516,7.745668411254883,25.33868408203125,73.83604431152344,81.33001708984375,15,10171.351752375,-0.85931396484375,0.491455078125,0.00262451171875,10171.351752375,0.1155849197349651,0.000664192375865762,0.05065572077828819,10171.338812375,-8.949813842773438,18.54183959960938,-513.4088745117188,10171.346686375,-2.405300335244506,-1.558536216295258,-0.5133340119697708,0.104890301823616,0.0001485696993768215,0.04606115445494652,0.01531845331192017,0.004628032445907593,0.008406102657318115,1,0.6991886496543884,0.07612752914428711,0.5778117179870605,-0.414093554019928,-0.8710466027259827,0.4910842776298523,-0.01067966315895319,0,0,0,-1,10169.2265285,3,1,1562003680.100521,0,0,0,0,0,0,0,0,0,10168.551865,0,-0.7214355,75.30679,3232235528,182473588,1,1,0.31,-28.01145,-32.93195,1
1562003682.257168,62,0,0,1562003676.176806,4.63479235162881,-74.15098299934473,2563.781,-1,-1,10,65,-9999,1562003682.234565,-10.93326568603516,7.745668411254883,25.33868408203125,73.83604431152344,81.33001708984375,15,10171.371985375,-0.875152587890625,0.4884490966796875,0.0112762451171875,10171.371985375,0.1038291940511373,-0.03131584494213276,0.02239771739978441,10171.358923375,-8.736724853515625,18.57896423339844,-513.5602416992188,10171.366950375,-2.402659525672562,-1.557483155090162,-0.5141324598125268,0.1103210225701332,-0.03096301108598709,0.03249554336071014,0.005011320114135742,-0.002094566822052002,0.02184557914733887,1,0.6988162994384766,0.0765501856803894,0.577467143535614,-0.415123462677002,-0.8706424832344055,0.4917796552181244,-0.01159169711172581,0,0,0,-1,10169.2265285,3,1,1562003680.100521,0,0,0,0,0,0,0,0,0,10168.551865,0,-0.7214355,75.30679,3232235528,182473588,1,1,0.31,-28.01145,-33.23141,1
1562003682.277033,63,0,0,1562003676.176806,4.63479235162881,-74.15098299934473,2563.781,-1,-1,10,65,-9999,1562003682.259008,-10.75602722167969,7.752544403076172,25.25482177734375,73.65300750732422,81.14698028564453,15,10171.392249375,-0.880157470703125,0.4798736572265625,0.0142059326171875,10171.392249375,0.06474597347367941,-0.04860588568725419,-0.03734763849505322,10171.379004375,-8.70428466796875,19.01019287109375,-513.6012573242188,10171.387213375,-2.4004917171676,-1.557273998875453,-0.5141200645788817,0.07500111311674118,-0.050535649061203,-0.02993134967982769,-0.009450316429138184,-0.007271796464920044,0.02556782960891724,1,0.6986720561981201,0.07726848125457764,0.5770924687385559,-0.4157536923885345,-0.870646059513092,0.49176886677742,-0.01177387963980436,0,0,0,-1,10169.2265285,3,1,1562003680.100521,0,0,0,0,0,0,0,0,0,10168.551865,0,-0.7214355,75.30679,3232235528,182473588,1,1,0.31,-28.01145,-33.5041,1
1562003682.32621,64,0,0,1562003676.176806,4.63479235162881,-74.15098299934473,2563.781,-1,-1,10,65,-9999,1562003682.309491,-10.61373329162598,7.919694900512695,25.238037109375,73.45584106445312,80.94981384277344,15,10171.412512375,-0.876983642578125,0.4785308837890625,0.0089569091796875,10171.412512375,0.04651370633488795,-0.009246495304755116,-0.03999055956084786,10171.399085375,-8.553939819335938,18.73550415039062,-513.4418334960938,10171.407446375,-2.399174882538304,-1.557547422932636,-0.5132575722332785,0.04421870037913322,-0.02868467569351196,-0.04457021504640579,-0.01033544540405273,-0.01242572069168091,0.02293974161148071,1,0.6986638903617859,0.07808999717235565,0.5769021511077881,-0.4158782660961151,-0.8710732460021973,0.4910176694393158,-0.01154144108295441,0,0,0,-1,10169.2265285,3,1,1562003680.100521,0,0,0,0,0,0,0,0,0,10168.551865,0,-0.7214355,75.30679,3232235528,182473588,1,1,0.31,-28.01145,-31.32946,1
1562003682.3289,65,0,0,1562003676.176806,4.63479235162881,-74.15098299934473,2563.781,-1,-1,10,65,-9999,1562003682.309491,-10.61373329162598,7.919694900512695,25.238037109375,73.45584106445312,80.94981384277344,15,10171.4327825,-0.8661651611328125,0.48590087890625,0.01055908203125,10171.4327825,0.06007212576059035,0.01093200995866627,0.005825398568439326,10171.4191715,-8.572494506835938,18.75502014160156,-513.585205078125,10171.4277165,-2.398049439075869,-1.557168264836076,-0.5125940088548216,0.05578241124749184,0.004103098064661026,-0.01312600448727608,0.00277245044708252,-0.01093208789825439,0.02106195688247681,1,0.6984825730323792,0.07863853871822357,0.5769380927085876,-0.4160294532775879,-0.8713942766189575,0.4904395043849945,-0.01187615096569061,0,0,0,-1,10169.2265285,3,1,1562003680.100521,0,0,0,0,0,0,0,0,0,10168.551865,0,-0.7214355,75.30679,3232235528,182473588,1,1,0.31,-28.01145,-31.32946,1
1562003682.337757,66,0,0,1562003676.176806,4.63479235162881,-74.15098299934473,2563.781,-1,-1,10,65,-9999,1562003682.335857,-10.72118949890137,8.023155212402344,25.0784912109375,73.35919189453125,80.85316467285156,15,10171.4530465,-0.861663818359375,0.49615478515625,0.01617431640625,10171.4530465,0.05423181349004658,-0.02173245975948261,0.0577714208948709,10171.4392825,-8.721176147460938,18.89390563964844,-513.7689819335938,10171.4479805,-2.396643051032564,-1.5565150518879,-0.5128932324450026,0.06012043356895447,-0.01457072142511606,0.04275989904999733,0.006432533264160156,0.004172801971435547,0.02689331769943237,1,0.6982514262199402,0.07888799905776978,0.5768113732337952,-0.4165456891059875,-0.8712396621704102,0.4907002449035645,-0.01244325842708349,0,0,0,-1,10169.2265285,3,1,1562003680.100521,0,0,0,0,0,0,0,0,0,10168.551865,0,-0.7214355,75.30679,3232235528,182473588,1,1,0.31,-28.01145,-31.32946,1
1562003682.358496,67,0,0,1562003676.176806,4.63479235162881,-74.15098299934473,2563.781,-1,-1,10,65,-9999,1562003682.335857,-10.72118949890137,8.023155212402344,25.0784912109375,73.35919189453125,80.85316467285156,15,10171.4733095,-0.8700103759765625,0.49395751953125,0.013824462890625,10171.4733095,0.01580452948907524,-0.04520582792355003,0.06579792210426072,10171.4593635,-8.65679931640625,19.23135375976562,-513.54443359375,10171.4682435,-2.395649678235546,-1.556734413536105,-0.5140763333943481,0.02381089702248573,-0.0467507615685463,0.0665816068649292,0.007700443267822266,0.003218591213226318,0.02722811698913574,1,0.6983256340026855,0.07886268943548203,0.5762818455696106,-0.4171585738658905,-0.8706612586975098,0.4917307794094086,-0.01224397029727697,0,0,0,-1,10169.2265285,3,1,1562003680.100521,0,0,0,0,0,0,0,0,0,10168.551865,0,-0.7214355,75.30679,3232235528,182473588,1,1,0.31,-28.01145,-31.54491,1
1562003682.406427,68,0,0,1562003676.176806,4.63479235162881,-74.15098299934473,2563.781,-1,-1,10,65,-9999,1562003682.386937,-10.4903736114502,8.247945785522461,25.15704345703125,73.30455017089844,80.79852294921875,15,10171.4935425,-0.8824920654296875,0.478546142578125,0.0066986083984375,10171.4935425,-0.0006900250384395306,-0.002682335849927809,0.0366711955781731,10171.4794435,-8.537139892578125,19.26408386230469,-513.5814819335938,10171.4885075,-2.395417353963037,-1.557488195073279,-0.5151405503554478,0.0006499167066067457,-0.02191971614956856,0.03809723630547523,-0.008576631546020508,-0.003918170928955078,0.0223381519317627,1,0.6985785365104675,0.07872530817985535,0.5757486820220947,-0.4174971878528595,-0.8701465129852295,0.4926571547985077,-0.01158070843666792,0,0,0,-1,10169.2265285,3,1,1562003680.100521,0,0,0,0,0,0,0,0,0,10168.551865,0,-0.7214355,75.30679,3232235528,182473588,1,1,0.31,-28.12988,-32.43029,1
1562003682.409168,69,0,0,1562003676.176806,4.63479235162881,-74.15098299934473,2563.781,-1,-1,10,65,-9999,1562003682.386937,-10.4903736114502,8.247945785522461,25.15704345703125,73.30455017089844,80.79852294921875,15,10171.5138065,-0.8822174072265625,0.471771240234375,0.00616455078125,10171.5138065,0.002471413491593533,0.03463733945367958,0.007510114274023452,10171.4995245,-8.506515502929688,19.16070556640625,-513.6574096679688,10171.5087715,-2.395475198428767,-1.557422808331232,-0.5156597581357925,-0.001276081311516464,0.02513914182782173,0.01304195076227188,-0.01341086626052856,-0.01927772164344788,0.01602870225906372,1,0.6985838413238525,0.07850812375545502,0.5756754875183105,-0.417630136013031,-0.8698899149894714,0.4931089282035828,-0.01163418218493462,0,0,0,-1,10169.2265285,3,1,1562003680.100521,0,0,0,0,0,0,0,0,0,10168.551865,0,-0.7214355,75.30679,3232235528,182473588,1,1,0.31,-28.12988,-32.43029,1
1562003682.418799,70,0,0,1562003676.176806,4.63479235162881,-74.15098299934473,2563.781,-1,-1,10,65,-9999,1562003682.410789,-10.60171890258789,8.128808975219727,25.1688232421875,73.30106353759766,80.79503631591797,15,10171.5340705,-0.872589111328125,0.4660491943359375,0.0168609619140625,10171.5340705,0.03254835589462143,-0.008267783604150996,-0.01688923500106451,10171.5196055,-8.598434448242188,18.90908813476562,-513.5847778320312,10171.5290045,-2.395257705474898,-1.556914287863334,-0.5155496965248092,0.02402767725288868,0.0009182235226035118,-0.01788241043686867,-0.007915258407592773,-0.0253618061542511,0.02423852682113647,1,0.6984242796897888,0.07851675152778625,0.5758305788040161,-0.4176815450191498,-0.8699381351470947,0.4930131733417511,-0.01207729056477547,0,0,0,-1,10169.2265285,3,1,1562003680.100521,0,0,0,0,0,0,0,0,0,10168.551865,0,-0.7214355,75.30679,3232235528,182473588,1,1,0.31,-28.12988,-32.92343,1
1562003682.439062,71,0,0,1562003676.176806,4.63479235162881,-74.15098299934473,2563.781,-1,-1,10,65,-9999,1562003682.437038,-10.61943912506104,8.136159896850586,25.31842041015625,73.24986267089844,80.74383544921875,15,10171.5543345,-0.8672943115234375,0.4726409912109375,0.0183258056640625,10171.5543345,0.03112862471750018,-0.04357996807805666,0.003423227265187853,10171.5396855,-8.552398681640625,18.94264221191406,-513.4443969726562,10171.5492685,-2.394491326086253,-1.557074632697667,-0.5151909189559787,0.03599246218800545,-0.04600188136100769,-0.009008491411805153,0.001678109169006348,-0.02401205897331238,0.03015923500061035,1,0.6984251141548157,0.07894457876682281,0.5756892561912537,-0.4177943170070648,-0.8701168894767761,0.49270099401474,-0.01194022689014673,0,0,0,-1,10169.2265285,3,1,1562003680.100521,0,0,0,0,0,0,0,0,0,10168.551865,0,-0.7214355,75.30679,3232235528,182473588,1,1,0.31,-28.12988,-33.00725,1
1562003682.488724,72,0,0,1562003676.176806,4.63479235162881,-74.15098299934473,2563.781,-1,-1,10,65,-9999,1562003682.462382,-10.80108451843262,8.179407119750977,25.01104736328125,73.24681854248047,80.74079132080078,15,10171.5745975,-0.8676605224609375,0.478057861328125,0.00909423828125,10171.5745975,-0.02195776318770332,-0.02780340178042725,0.03594042417505535,10171.5597965,-8.82647705078125,19.05644226074219,-513.8173828125,10171.5695315,-2.394148119998414,-1.557875991426916,-0.5153485588972819,-0.0132054453715682,-0.04133788868784904,0.02523869462311268,0.002311527729034424,-0.01742005348205566,0.02515798807144165,1,0.6986488103866577,0.07917618751525879,0.5753047466278076,-0.4179059863090515,-0.8700483441352844,0.4928381741046906,-0.01124194171279669,0,0,0,-1,10169.2265285,3,1,1562003680.100521,0,0,0,0,0,0,0,0,0,10168.551865,0,-0.7214355,75.30679,3232235528,182473588,1,1,0.31,-27.63195,-33.12241,1
1562003682.49199,73,0,0,1562003676.176806,4.63479235162881,-74.15098299934473,2563.781,-1,-1,10,65,-9999,1562003682.48773,-10.55112457275391,8.24884033203125,25.08447265625,73.33245849609375,80.82643127441406,15,10171.5948615,-0.87677001953125,0.4811248779296875,0.0018768310546875,10171.5948615,-0.0528139465256884,0.012939767104477,0.04669773076621242,10171.5798775,-8.55560302734375,19.31193542480469,-513.5524291992188,10171.5897955,-2.39492224286094,-1.558732216683602,-0.516084467837523,-0.05041273310780525,-0.003749765455722809,0.04519642516970634,-0.001048028469085693,-0.01427608728408813,0.01542115211486816,1,0.6989566087722778,0.07882485538721085,0.5750139355659485,-0.4178579449653625,-0.8696947693824768,0.4934783577919006,-0.0104926023632288,0,0,0,-1,10169.2265285,3,1,1562003680.100521,0,0,0,0,0,0,0,0,0,10168.551865,0,-0.7214355,75.30679,3232235528,182473588,1,1,0.31,-27.63195,-33.12241,1
1562003682.499771,74,0,0,1562003676.176806,4.63479235162881,-74.15098299934473,2563.781,-1,-1,10,65,-9999,1562003682.48773,-10.55112457275391,8.24884033203125,25.08447265625,73.33245849609375,80.82643127441406,15,10171.6151255,-0.88330078125,0.4781494140625,-0.001434326171875,10171.6151255,-0.05293804983248609,0.0231165045779968,0.02329307215826905,10171.5999575,-8.511276245117188,19.17254638671875,-513.6810302734375,10171.6100595,-2.39626043066996,-1.559153552947342,-0.5168566469640267,-0.05817185342311859,0.02107222750782967,0.02847283706068993,-0.01389145851135254,-0.01203310489654541,0.01079308986663818,1,0.699162483215332,0.07817261666059494,0.5749852657318115,-0.4176754653453827,-0.8693178296089172,0.4941498339176178,-0.0101217282935977,0,0,0,-1,10169.2265285,3,1,1562003680.100521,0,0,0,0,0,0,0,0,0,10168.551865,0,-0.7214355,75.30679,3232235528,182473588,1,1,0.31,-27.63195,-33.12241,1
1562003682.520018,75,0,0,1562003676.176806,4.63479235162881,-74.15098299934473,2563.781,-1,-1,10,65,-9999,1562003682.517128,-10.57196521759033,8.169717788696289,25.15692138671875,73.42494964599609,80.91892242431641,15,10171.6353585,-0.8838043212890625,0.4725494384765625,-0.0047607421875,10171.6353585,-0.02021206109315638,0.009454488185890304,-0.0058749333647148,10171.6200385,-8.560409545898438,18.96586608886719,-513.6500244140625,10171.6303225,-2.397360739193677,-1.559419511906473,-0.5170747669429843,-0.02895484678447247,0.006603007204830647,-0.00421959487721324,-0.01419484615325928,-0.02178996801376343,0.006883323192596436,1,0.6992908716201782,0.07776649296283722,0.5750765800476074,-0.4174105823040009,-0.8692127466201782,0.4943394362926483,-0.009889299049973488,0,0,0,-1,10169.2265285,3,1,1562003680.100521,0,0,0,0,0,0,0,0,0,10168.551865,0,-0.7214355,75.30679,3232235528,182473588,1,1,0.31,-27.63195,-33.70103,1
1562003682.559216,76,0,0,1562003676.176806,4.63479235162881,-74.15098299934473,2563.781,-1,-1,10,65,-9999,1562003682.538423,-10.39090251922607,8.222244262695312,25.35858154296875,73.46060180664062,80.95457458496094,15,10171.6556215,-0.8773956298828125,0.4752197265625,-0.0048980712890625,10171.6556215,-0.008450210138821423,-0.006639260597567541,-0.02547127161384486,10171.6401185,-8.306915283203125,19.05087280273438,-513.38671875,10171.6505555,-2.397783839828679,-1.559655650332106,-0.5167520188171574,-0.009671431034803391,-0.00812001246958971,-0.02422632649540901,-0.01002001762390137,-0.02057862281799316,0.003506004810333252,1,0.6993619203567505,0.07778170704841614,0.5751494765281677,-0.4171881973743439,-0.8693745136260986,0.4940588474273682,-0.009685820899903774,0,0,0,-1,10169.2265285,3,1,1562003680.100521,0,0,0,0,0,0,0,0,0,10168.551865,0,-0.7214355,75.30679,3232235528,182473588,1,1,0.31,-27.63195,-34.77888,1
1562003682.561173,77,0,0,1562003676.176806,4.63479235162881,-74.15098299934473,2563.781,-1,-1,10,65,-9999,1562003682.538423,-10.39090251922607,8.222244262695312,25.35858154296875,73.46060180664062,80.95457458496094,15,10171.6758855,-0.8707122802734375,0.476654052734375,-0.0038909912109375,10171.6758855,0.006079464136432885,-0.01552276704574486,-0.01582130740394274,10171.6601995,-8.443649291992188,18.99491882324219,-513.3325805664062,10171.6708195,-2.397935167760097,-1.560018017942383,-0.5161299892145303,0.002418255899101496,-0.01606155931949615,-0.02769456058740616,-0.005696475505828857,-0.01723012328147888,0.003209531307220459,1,0.6994463801383972,0.07802379876375198,0.5751836895942688,-0.4169540405273438,-0.8696849942207336,0.4935179650783539,-0.009374096058309078,0,0,0,-1,10169.2265285,3,1,1562003680.100521,0,0,0,0,0,0,0,0,0,10168.551865,0,-0.7214355,75.30679,3232235528,182473588,1,1,0.31,-27.63195,-34.77888,1
1562003682.580881,78,0,0,1562003682.551233,4.634796972318158,-74.15097690637023,2563.758,-1,-1,10,65,-9999,1562003682.570845,-10.47337341308594,8.142555236816406,25.4066162109375,73.46920776367188,80.96318054199219,15,10171.6961495,-0.868743896484375,0.4800567626953125,-0.007537841796875,10171.6961495,-0.01304469565142613,-0.005307413736418914,0.02470774332931914,10171.6803105,-8.464248657226562,19.03749084472656,-513.3795166015625,10171.6910835,-2.39792823193667,-1.560478206102966,-0.5159427832923302,-0.007398954592645168,-0.01948744989931583,0.01247922517359257,0.0006257891654968262,-0.0154498815536499,0.003756284713745117,1,0.6995707154273987,0.0781882256269455,0.5750603079795837,-0.4168849587440491,-0.8697816729545593,0.4933551251888275,-0.008974830619990826,0,0,0,-1,10169.2265285,3,1,1562003680.100521,0,0,0,0,0,0,0,0,0,10168.551865,0,-0.7214355,75.30679,3232235528,182473588,1,1,0.31,-27.63195,-34.96869,1
1562003682.600995,79,0,0,1562003682.551233,4.634796972318158,-74.15097690637023,2563.758,-1,-1,10,65,-9999,1562003682.570845,-10.47337341308594,8.142555236816406,25.4066162109375,73.46920776367188,80.96318054199219,15,10171.7164125,-0.8674774169921875,0.4781494140625,-0.0151214599609375,10171.7164125,-0.04774115728130546,0.02402837093523993,0.03734790481116223,10171.7003915,-8.2694091796875,18.64698791503906,-513.5009155273438,10171.7113465,-2.398479123713473,-1.560802750378188,-0.5164644735812036,-0.04159127920866013,0.01289019826799631,0.03512301668524742,0.002354919910430908,-0.01506432890892029,-0.001335024833679199,1,0.6997069716453552,0.0778791755437851,0.5749531388282776,-0.4168620705604553,-0.8695271611213684,0.4938088357448578,-0.008689975365996361,0,0,0,-1,10169.2265285,3,1,1562003680.100521,0,0,0,0,0,0,0,0,0,10168.551865,0,-0.7214355,75.30679,3232235528,182473588,1,1,0.31,-27.63195,-35.25085,1
1562003682.641673,80,0,0,1562003682.551233,4.634796972318158,-74.15097690637023,2563.758,-1,-1,10,65,-9999,1562003682.639699,-10.34562492370605,8.229564666748047,25.313232421875,73.573486328125,81.06745910644531,15,10171.7366765,-0.872283935546875,0.4733123779296875,-0.011993408203125,10171.7366765,-0.01523780880910638,0.03836629761200853,0.01616032781070982,10171.7204715,-8.3126220703125,18.85951232910156,-513.3734130859375,10171.7316105,-2.399457101070321,-1.560740358347351,-0.5170188334593119,-0.02873753197491169,0.03572094440460205,0.01799329929053783,-0.002649664878845215,-0.01861336827278137,-0.005647540092468262,1,0.6997496485710144,0.07732847332954407,0.5750634670257568,-0.416740745306015,-0.8692527413368225,0.494290828704834,-0.008741472847759724,0,0,0,-1,10169.2265285,3,1,1562003680.100521,0,0,0,0,0,0,0,0,0,10168.551865,0,-0.7214355,75.30679,3232235528,182473588,1,1,0.31,-27.63195,-31.50295,1
1562003682.64367,81,0,0,1562003682.551233,4.634796972318158,-74.15097690637023,2563.758,-1,-1,10,65,-9999,1562003682.639699,-10.34562492370605,8.229564666748047,25.313232421875,73.573486328125,81.06745910644531,15,10171.7569095,-0.87646484375,0.4733734130859375,-0.0074005126953125,10171.7569095,0.01954946661394466,0.007233944468982235,-0.01924027361138646,10171.7405525,-8.306182861328125,19.10011291503906,-513.51416015625,10171.7518745,-2.399591561979674,-1.560304778265688,-0.5170499857122778,0.01374947279691696,0.009847535751760006,-0.01455132756382227,-0.006483912467956543,-0.02063930034637451,-0.001057684421539307,1,0.6996308565139771,0.07717963308095932,0.5752372741699219,-0.4167276918888092,-0.869233250617981,0.494317889213562,-0.009119938127696514,0,0,0,-1,10169.2265285,3,1,1562003680.100521,0,0,0,0,0,0,0,0,0,10168.551865,0,-0.7214355,75.30679,3232235528,182473588,1,1,0.31,-27.63195,-31.50295,1
1562003682.66183,82,0,0,1562003682.551233,4.634796972318158,-74.15097690637023,2563.758,-1,-1,10,65,-9999,1562003682.639699,-10.34562492370605,8.229564666748047,25.313232421875,73.573486328125,81.06745910644531,15,10171.7771735,-0.8718719482421875,0.4752655029296875,-0.0083770751953125,10171.7771735,0.007267766614826241,0.006360427631436245,-0.02546488002722867,10171.7606635,-8.679763793945312,18.98860168457031,-513.3704833984375,10171.7721375,-2.399197589053296,-1.560131106736779,-0.5165128002076254,0.01301737036556005,-0.003061870811507106,-0.0305598545819521,-0.003000378608703613,-0.02334612607955933,0.001308619976043701,1,0.6995437145233154,0.0774708092212677,0.5753276944160461,-0.416695237159729,-0.8694971799850464,0.4938508570194244,-0.009273730218410492,0,0,0,-1,10169.2265285,3,1,1562003680.100521,0,0,0,0,0,0,0,0,0,10168.551865,0,-0.7214355,75.30679,3232235528,182473588,1,1,0.31,-27.63195,-32.23034,1
1562003682.682201,83,0,0,1562003682.551233,4.634796972318158,-74.15097690637023,2563.758,-1,-1,10,65,-9999,1562003682.666356,-10.62003231048584,8.131353378295898,25.36944580078125,73.55315399169922,81.04712677001953,15,10171.7974375,-0.87066650390625,0.4808502197265625,-0.010345458984375,10171.7974375,-0.0244544767096526,0.05292686455590775,0.00431378833371035,10171.7807435,-8.5123291015625,19.03489685058594,-513.5775146484375,10171.7923715,-2.399273275441443,-1.559868406737272,-0.5160517806088121,-0.01937572285532951,0.03916254639625549,-0.00860315840691328,-0.003080427646636963,-0.01452228426933289,-0.0009018182754516602,1,0.6994521617889404,0.07755228132009506,0.5755311846733093,-0.4165527522563934,-0.869722306728363,0.4934499263763428,-0.009504633955657482,0,0,0,-1,10169.2265285,3,1,1562003680.100521,0,0,0,0,0,0,0,0,0,10168.551865,0,-0.7214355,75.30679,3232235528,182473588,1,1,0.31,-27.63195,-32.50163,1
1562003682.72461,84,0,0,1562003682.551233,4.634796972318158,-74.15097690637023,2563.758,-1,-1,10,65,-9999,1562003682.716657,-10.64123153686523,8.052326202392578,25.30194091796875,73.63956451416016,81.13353729248047,15,10171.8177005,-0.8667449951171875,0.4853973388671875,-0.0136871337890625,10171.8177005,-0.03209641745763498,0.06170464350880892,0.03301867014312942,10171.8008245,-8.326690673828125,18.89480590820312,-513.556640625,10171.8126345,-2.399958130206984,-1.559121803745038,-0.5162311701717208,-0.03468543663620949,0.05953386798501015,0.02598571218550205,0.001828551292419434,-0.01016175746917725,-0.002282977104187012,1,0.6992710828781128,0.07709400355815887,0.5758975744247437,-0.4164353907108307,-0.8696264028549194,0.4936059415340424,-0.01015293411910534,0,0,0,-1,10169.2265285,3,1,1562003680.100521,0,0,0,0,0,0,0,0,0,10168.551865,0,-0.7214355,75.30679,3232235528,182473588,1,1,0.31,-27.63195,-32.61724,1
1562003682.727106,85,0,0,1562003682.551233,4.634796972318158,-74.15097690637023,2563.758,-1,-1,10,65,-9999,1562003682.716657,-10.64123153686523,8.052326202392578,25.30194091796875,73.63956451416016,81.13353729248047,15,10171.8379645,-0.873291015625,0.4872589111328125,-0.0131378173828125,10171.8379645,0.006629406901534247,0.05027062768466272,0.01750309363232778,10171.8209055,-8.620651245117188,18.88664245605469,-513.4468994140625,10171.8328985,-2.400566092262936,-1.558326083194557,-0.5168043146148293,-0.006294009275734425,0.04993237182497978,0.02115127630531788,0.001460909843444824,-0.007257401943206787,-0.00313568115234375,1,0.6990886926651001,0.07651345431804657,0.5761833190917969,-0.4164535105228424,-0.8693350553512573,0.4941043257713318,-0.01084138173609972,0,0,0,-1,10171.8206305,3,1,1562003682.694623,0,0,0,0,0,0,0,0,0,10168.551865,0,-0.7214355,75.30679,3232235528,182473588,1,1,0.31,-27.63195,-32.61724,1
1562003682.742969,86,0,0,1562003682.551233,4.634796972318158,-74.15097690637023,2563.758,-1,-1,10,65,-9999,1562003682.741095,-10.58134460449219,8.137521743774414,25.2537841796875,73.62056732177734,81.11454010009766,15,10171.8582285,-0.8754425048828125,0.480072021484375,-0.0063018798828125,10171.8582285,0.03635241519569061,0.03789758126015459,-0.009823602312975285,10171.8409855,-8.593734741210938,19.03677368164062,-513.541748046875,10171.8531625,-2.40023220863727,-1.557293155373014,-0.5168783285905181,0.03112127259373665,0.0370732955634594,-0.008547497913241386,-0.008246183395385742,-0.01098382472991943,0.002965033054351807,1,0.6987813115119934,0.07638885825872421,0.5764593482017517,-0.4166101813316345,-0.8692867755889893,0.4941686689853668,-0.01173884235322475,0,0,0,-1,10171.8206305,3,1,1562003682.694623,0,0,0,0,0,0,0,0,0,10168.551865,0,-0.7214355,75.30679,3232235528,182473588,1,1,0.31,-27.63195,-32.76385,1
1562003682.763199,87,0,0,1562003682.551233,4.634796972318158,-74.15097690637023,2563.758,-1,-1,10,65,-9999,1562003682.741095,-10.58134460449219,8.137521743774414,25.2537841796875,73.62056732177734,81.11454010009766,15,10171.8784915,-0.8728790283203125,0.480499267578125,-0.0037841796875,10171.8784915,0.02964923873196117,0.02497565733498111,-0.005388373833557322,10171.8610665,-8.542312622070312,18.99502563476562,-513.4052124023438,10171.8734255,-2.399453877089719,-1.556341598631502,-0.5165852030390161,0.03292316943407059,0.02260487526655197,-0.01181652769446373,-0.00451195240020752,-0.01323142647743225,0.008356690406799316,1,0.6984651684761047,0.07656602561473846,0.5766904354095459,-0.41678786277771,-0.8694199323654175,0.4939138293266296,-0.01256810408085585,0,0,0,-1,10171.8206305,3,1,1562003682.694623,0,0,0,0,0,0,0,0,0,10168.551865,0,-0.7214355,75.30679,3232235528,182473588,1,1,0.31,-27.63195,-33.12104,1
1562003682.809954,88,0,0,1562003682.551233,4.634796972318158,-74.15097690637023,2563.758,-1,-1,10,65,-9999,1562003682.791598,-10.5982494354248,8.083370208740234,25.3377685546875,73.52590942382812,81.01988220214844,15,10171.8987245,-0.871612548828125,0.4810333251953125,-0.005828857421875,10171.8987245,0.02885881252042565,0.03061649883987795,0.009333314356291698,10171.8811465,-8.57513427734375,18.90632629394531,-513.5048828125,10171.8936895,-2.3987992013408,-1.555623822534941,-0.5164867206399665,0.0276370607316494,0.02146504446864128,0.003712630597874522,-0.00181734561920166,-0.01528206467628479,0.007867574691772461,1,0.6982290148735046,0.07667984068393707,0.5768251419067383,-0.4169763028621674,-0.8694594502449036,0.4938281774520874,-0.01319288928061724,0,0,0,-1,10171.8206305,3,1,1562003682.694623,0,0,0,0,0,0,0,0,0,10168.551865,0,-0.7214355,75.30679,3232235528,182473588,1,1,0.31,-27.63195,-33.99792,1
1562003682.812495,89,0,0,1562003682.551233,4.634796972318158,-74.15097690637023,2563.758,-1,-1,10,65,-9999,1562003682.791598,-10.5982494354248,8.083370208740234,25.3377685546875,73.52590942382812,81.01988220214844,15,10171.9189885,-0.8708038330078125,0.485565185546875,-0.0025482177734375,10171.9189885,0.03166658325769619,0.03495026088176389,0.01696966246598491,10171.9012275,-8.628936767578125,18.97038269042969,-513.4615478515625,10171.9139225,-2.398109836549914,-1.554698596705727,-0.516641429858118,0.03109863772988319,0.0346042811870575,0.01237216591835022,-0.005400538444519043,-0.007680356502532959,0.01008987426757812,1,0.6979421377182007,0.07667282223701477,0.5769721865653992,-0.4172544181346893,-0.8693705797195435,0.4939627051353455,-0.01399610191583633,0,0,0,-1,10171.8206305,3,1,1562003682.694623,0,0,0,0,0,0,0,0,0,10169.495078,0,-0.4333496,75.30408,3232235528,182473588,1,1,0.31,-27.63195,-33.99792,1
1562003682.824299,90,0,0,1562003682.551233,4.634796972318158,-74.15097690637023,2563.758,-1,-1,10,65,-9999,1562003682.816198,-10.51327133178711,8.209056854248047,25.16546630859375,73.47533416748047,80.96930694580078,15,10171.9392525,-0.87060546875,0.48248291015625,-0.0020904541015625,10171.9392525,0.03768905574680138,0.02168239233098913,0.03191612145183662,10171.9213075,-8.388626098632812,19.04049682617188,-513.6638793945312,10171.9341865,-2.397354318175787,-1.553838974336903,-0.5169947694850124,0.03404435887932777,0.01487318705767393,0.0271934550255537,0.001645147800445557,-0.01233628392219543,0.0124516487121582,1,0.6976799368858337,0.076632060110569,0.5770409107208252,-0.4176052212715149,-0.8691835999488831,0.4942699074745178,-0.01474046614021063,0,0,0,-1,10171.8206305,3,1,1562003682.694623,0,0,0,0,0,0,0,0,0,10169.495078,0,-0.4333496,75.30408,3232235528,182473588,1,1,0.31,-27.63195,-33.99792,1
1562003682.844223,91,0,0,1562003682.551233,4.634796972318158,-74.15097690637023,2563.758,-1,-1,10,65,-9999,1562003682.842286,-10.56360816955566,8.306779861450195,25.05517578125,73.41787719726562,80.91184997558594,15,10171.9595155,-0.874969482421875,0.48138427734375,-0.0006866455078125,10171.9595155,0.03228603452724862,0.03987604363397445,0.02483823822273302,10171.9414185,-8.5552978515625,19.23294067382812,-513.8157348632812,10171.9544495,-2.396507438759111,-1.55301379744156,-0.5175755305837736,0.03530057147145271,0.02952403575181961,0.02640862204134464,-0.005154609680175781,-0.01033863425254822,0.01479643583297729,1,0.6974337697029114,0.07654961943626404,0.5770308971405029,-0.4180451929569244,-0.8688840866088867,0.4947746694087982,-0.01545258518308401,0,0,0,-1,10171.8206305,3,1,1562003682.694623,0,0,0,0,0,0,0,0,0,10169.495078,0,-0.4333496,75.30408,3232235528,182473588,1,1,0.31,-27.63195,-34.32355,1
1562003682.889423,92,0,0,1562003682.551233,4.634796972318158,-74.15097690637023,2563.758,-1,-1,10,65,-9999,1562003682.867289,-10.77022171020508,8.309690475463867,25.1964111328125,73.37474060058594,80.86871337890625,15,10171.9797795,-0.8785247802734375,0.4793701171875,-0.0002288818359375,10171.9797795,0.02858956693421864,0.04247315832901973,0.0001257012034517401,10171.9614995,-8.592330932617188,18.97431945800781,-513.5327758789062,10171.9747135,-2.395818969314938,-1.551948124451068,-0.517858742689342,0.02675342373549938,0.03945842385292053,0.00276374607346952,-0.007478594779968262,-0.01493346691131592,0.01509416103363037,1,0.6971118450164795,0.07646656781435013,0.577199399471283,-0.4183644950389862,-0.8687268495559692,0.4950207769870758,-0.01637587882578373,0,0,0,-1,10171.8206305,3,1,1562003682.694623,0,0,0,0,0,0,0,0,0,10169.495078,0,-0.4333496,75.30408,3232235528,182473588,1,1,0.31,-27.63195,-35.14289,1
1562003682.892371,93,0,0,1562003682.551233,4.634796972318158,-74.15097690637023,2563.758,-1,-1,10,65,-9999,1562003682.867289,-10.77022171020508,8.309690475463867,25.1964111328125,73.37474060058594,80.86871337890625,15,10172.0000435,-0.876678466796875,0.4789276123046875,0.0030975341796875,10172.0000435,0.01863999710168261,0.03103594671156543,-0.01507295913763047,10171.9815805,-8.788055419921875,19.26228332519531,-513.5986938476562,10171.9949775,-2.395232617854192,-1.550965878227691,-0.5176814765065617,0.0207597129046917,0.02819671481847763,-0.01471830811351538,-0.009314775466918945,-0.01677834987640381,0.02074044942855835,1,0.6967983841896057,0.07652813196182251,0.5774559378623962,-0.4185213446617126,-0.8687980175018311,0.4948667585849762,-0.01723091304302216,0,0,0,-1,10171.8206305,3,1,1562003682.694623,0,0,0,0,0,0,0,0,0,10169.495078,0,-0.4333496,75.30408,3232235528,182473588,1,1,0.31,-27.63195,-35.14289,1
1562003682.904995,94,0,0,1562003682.551233,4.634796972318158,-74.15097690637023,2563.758,-1,-1,10,65,-9999,1562003682.893023,-10.58689308166504,8.318370819091797,25.22637939453125,73.34146118164062,80.83543395996094,15,10172.0202765,-0.871490478515625,0.48504638671875,0.0048065185546875,10172.0202765,0.004119643890243573,0.04543991978336799,-0.0008269115184696035,10172.0016605,-8.596633911132812,19.23237609863281,-513.5278930664062,10172.0152405,-2.394919424152586,-1.550209847220688,-0.5173201171991862,0.005535485688596964,0.03629911690950394,-0.01198856811970472,-0.005044639110565186,-0.01199346780776978,0.02193498611450195,1,0.6965526938438416,0.07660698890686035,0.5777291059494019,-0.4185389578342438,-0.8689635396003723,0.4945527017116547,-0.01789142750203609,0,0,0,-1,10171.8206305,3,1,1562003682.694623,0,0,0,0,0,0,0,0,0,10169.495078,0,-0.4333496,75.30408,3232235528,182473588,1,1,0.31,-27.63195,-35.07006,1
1562003682.925235,95,0,0,1562003682.551233,4.634796972318158,-74.15097690637023,2563.758,-1,-1,10,65,-9999,1562003682.917248,-10.73016834259033,8.280441284179688,25.3975830078125,73.33793640136719,80.8319091796875,15,10172.0405405,-0.8616943359375,0.4811248779296875,0.0055694580078125,10172.0405405,-0.001430650137590567,0.04430807632008432,0.03197231415083729,10172.0217415,-8.812530517578125,19.10848999023438,-513.3946533203125,10172.0355045,-2.394925468901799,-1.549358072891213,-0.5173859899765075,-0.002749874722212553,0.04635787382721901,0.02182958275079727,0.002078890800476074,-0.01111999154090881,0.02227771282196045,1,0.6963096261024475,0.07640329003334045,0.5780132412910461,-0.4185883402824402,-0.8689154386520386,0.4946099519729614,-0.01863088458776474,0,0,0,-1,10171.8206305,3,1,1562003682.694623,0,0,0,0,0,0,0,0,0,10169.495078,0,-0.4333496,75.30408,3232235528,182473588,1,1,0.31,-27.63195,-33.9385,1
1562003682.966146,96,0,0,1562003682.551233,4.634796972318158,-74.15097690637023,2563.758,-1,-1,10,65,-9999,1562003682.943498,-10.55043792724609,8.16558837890625,25.296875,73.34377288818359,80.83774566650391,15,10172.0608035,-0.8666839599609375,0.4807586669921875,0.003692626953125,10172.0608035,0.001648496714759049,0.02037398128743319,0.03701447704268431,10172.0418215,-8.55364990234375,18.9769287109375,-513.5236206054688,10172.0557375,-2.394983001988626,-1.548745800026127,-0.5180207238972241,-0.0003309254534542561,0.01901892945170403,0.03533127531409264,0.00639188289642334,-0.01481485366821289,0.02336740493774414,1,0.6961619257926941,0.0760301873087883,0.5781061053276062,-0.4187736511230469,-0.8685898184776306,0.4951615035533905,-0.01915596798062325,0,0,0,-1,10171.8206305,3,1,1562003682.694623,0,0,0,0,0,0,0,0,0,10169.495078,0,-0.4333496,75.30408,3232235528,182473588,1,1,0.31,-27.63195,-29.91632,1
1562003682.969167,97,0,0,1562003682.551233,4.634796972318158,-74.15097690637023,2563.758,-1,-1,10,65,-9999,1562003682.943498,-10.55043792724609,8.16558837890625,25.296875,73.34377288818359,80.83774566650391,15,10172.0810675,-0.8787994384765625,0.4849090576171875,0.0022735595703125,10172.0810675,0.007144994888573588,-0.002109489899451765,0.02614798084683399,10172.0619325,-8.56036376953125,19.020263671875,-513.5361328125,10172.0760015,-2.394899934981609,-1.54853971619134,-0.5186649305650086,0.005066418088972569,-0.003302281722426414,0.02850446477532387,-0.003452599048614502,-0.01303982734680176,0.02321887016296387,1,0.6961266398429871,0.07578764855861664,0.5780261158943176,-0.4189866781234741,-0.868266761302948,0.4957211017608643,-0.01932786777615547,0,0,0,-1,10171.8206305,3,1,1562003682.694623,0,0,0,0,0,0,0,0,0,10169.495078,0,-0.4333496,75.30408,3232235528,182473588,1,1,0.31,-27.63195,-29.91632,1
1562003682.986391,98,0,0,1562003682.551233,4.634796972318158,-74.15097690637023,2563.758,-1,-1,10,65,-9999,1562003682.968567,-10.71515941619873,8.284023284912109,25.22491455078125,73.34033966064453,80.83431243896484,15,10172.1013315,-0.8837738037109375,0.4870758056640625,-0.0042266845703125,10172.1013315,-0.001310008940209977,-0.01130937988513049,-0.005754824799552226,10172.0820135,-8.740066528320312,19.19720458984375,-513.5716552734375,10172.0962655,-2.394828211061895,-1.548785773458239,-0.5189574785382329,-0.001048731966875494,-0.01724845729768276,0.0004427367821335793,-0.01122230291366577,-0.01063883304595947,0.0187448263168335,1,0.6962074637413025,0.07576049119234085,0.577864408493042,-0.4190803468227386,-0.8681265115737915,0.495975136756897,-0.01911103166639805,0,0,0,-1,10171.8206305,3,1,1562003682.694623,0,0,0,0,0,0,0,0,0,10169.495078,0,-0.4333496,75.30408,3232235528,182473588,1,1,0.31,-27.63195,-30.53771,1
1562003683.006272,99,0,0,1562003682.551233,4.634796972318158,-74.15097690637023,2563.758,-1,-1,10,65,-9999,1562003682.996483,-10.55005359649658,8.319843292236328,25.162109375,73.34413146972656,80.83810424804688,15,10172.1215945,-0.8779449462890625,0.481719970703125,-0.005859375,10172.1215945,-0.010654242256971,0.007629157574749993,-0.03085138964802293,10172.1020945,-8.507354736328125,19.23101806640625,-513.6687622070312,10172.1165285,-2.394973137376127,-1.549131024274629,-0.5185789095365758,-0.00918468926101923,-0.003138763597235084,-0.03313573077321053,-0.01546841859817505,-0.01098150014877319,0.01271182298660278,1,0.6962966322898865,0.07591649144887924,0.5778535008430481,-0.4189188778400421,-0.8683205842971802,0.4956463873386383,-0.01881537213921547,0,0,0,-1,10171.8206305,3,1,1562003682.694623,0,0,0,0,0,0,0,0,0,10169.495078,0,-0.4333496,75.30408,3232235528,182473588,1,1,0.31,-27.63195,-30.79789,1
1562003683.038304,100,0,0,1562003682.551233,4.634796972318158,-74.15097690637023,2563.758,-1,-1,10,65,-9999,1562003683.018614,-10.66838836669922,8.342103958129883,25.19757080078125,73.369140625,80.86311340332031,15,10172.1418585,-0.8671722412109375,0.477691650390625,-0.0063018798828125,10172.1418585,-0.02710698515537152,0.03864939163588395,0.002988333059177913,10172.1221745,-8.645645141601562,19.26071166992188,-513.607177734375,10172.1367925,-2.395386808118941,-1.549154766643476,-0.5180101066003463,-0.02360650524497032,0.0279467161744833,-0.01156705431640148,-0.002902805805206299,-0.01582795381546021,0.01199543476104736,1,0.6962950229644775,0.07597902417182922,0.5780505537986755,-0.4186384379863739,-0.8686029314994812,0.4951522946357727,-0.01880085840821266,0,0,0,-1,10171.8206305,3,1,1562003682.694623,0,0,0,0,0,0,0,0,0,10169.495078,0,-0.4333496,75.30408,3232235528,182473588,1,1,0.31,-27.63195,-30.92164,1
1562003683.047458,101,0,0,1562003682.551233,4.634796972318158,-74.15097690637023,2563.758,-1,-1,10,65,-9999,1562003683.044767,-10.6355094909668,8.136913299560547,25.07635498046875,73.41388702392578,80.90785980224609,15,10172.1620915,-0.8603363037109375,0.481536865234375,-0.004974365234375,10172.1620915,-0.01413659169835861,0.03939321252834308,0.03186445612668908,10172.1422555,-8.559005737304688,18.9503173828125,-513.7535400390625,10172.1570565,-2.395982162321636,-1.548775461839953,-0.5182037309506302,-0.0208104532212019,0.03355906531214714,0.02711349539458752,0.005828738212585449,-0.01593512296676636,0.01195657253265381,1,0.6962161660194397,0.07562372088432312,0.5782667398452759,-0.4185351431369781,-0.8684996962547302,0.4953204989433289,-0.01912820525467396,0,0,0,-1,10171.8206305,3,1,1562003682.694623,0,0,0,0,0,0,0,0,0,10169.495078,0,-0.4333496,75.30408,3232235528,182473588,1,1,0.31,-27.63195,-31.35075,1
1562003683.067231,102,0,0,1562003682.551233,4.634796972318158,-74.15097690637023,2563.758,-1,-1,10,65,-9999,1562003683.044767,-10.6355094909668,8.136913299560547,25.07635498046875,73.41388702392578,80.90785980224609,15,10172.1823555,-0.8641510009765625,0.4864044189453125,-0.0061798095703125,10172.1823555,-0.009852098136639134,0.01490944104669961,0.02907612646537611,10172.1623355,-8.897491455078125,19.15776062011719,-513.7789306640625,10172.1772895,-2.396275809391951,-1.5484251191949,-0.5188043150989398,-0.007245108485221863,0.01218346692621708,0.03076442331075668,0.004471540451049805,-0.01145190000534058,0.01558059453964233,1,0.6961513757705688,0.07523531466722488,0.5783249735832214,-0.4186324179172516,-0.8681953549385071,0.4958421587944031,-0.01942581869661808,0,0,0,-1,10171.8206305,3,1,1562003682.694623,0,0,0,0,0,0,0,0,0,10169.495078,0,-0.4333496,75.30408,3232235528,182473588,1,1,0.31,-27.63195,-31.8714,1
1562003683.087225,103,0,0,1562003682.551233,4.634796972318158,-74.15097690637023,2563.758,-1,-1,10,65,-9999,1562003683.069398,-10.77669048309326,8.130149841308594,25.411376953125,73.43744659423828,80.93141937255859,15,10172.2026185,-0.8695068359375,0.4846038818359375,-0.0091552734375,10172.2026185,-0.01351234673884404,-0.004004062698934135,0.008166583482727984,10172.1824465,-8.80841064453125,18.984619140625,-513.3081665039062,10172.1975535,-2.396547022962403,-1.548488485103053,-0.5192020222586495,-0.01606336794793606,-0.005273553542792797,0.00884607620537281,0.001101911067962646,-0.008943855762481689,0.01262205839157104,1,0.6961966753005981,0.07501323521137238,0.5782768726348877,-0.4186635315418243,-0.8679994940757751,0.4961874783039093,-0.01936640776693821,0,0,0,-1,10171.8206305,3,1,1562003682.694623,0,0,0,0,0,0,0,0,0,10169.495078,0,-0.4333496,75.30408,3232235528,182473588,1,1,0.31,-27.63195,-31.8714,1
1562003683.123329,104,0,0,1562003682.551233,4.634796972318158,-74.15097690637023,2563.758,-1,-1,10,65,-9999,1562003683.120003,-10.67263603210449,8.051006317138672,25.20159912109375,73.50022125244141,80.99419403076172,15,10172.2228825,-0.87432861328125,0.4833984375,-0.0146942138671875,10172.2228825,-0.02167520179604591,-0.00198059290269193,-0.007310909824485525,10172.2226075,-8.66424560546875,18.94395446777344,-513.57373046875,10172.2178165,-2.396984428445101,-1.548895182830145,-0.5192261797267423,-0.02195960655808449,-0.007982254028320312,-0.007955275475978851,-0.004624426364898682,-0.01380181312561035,0.006760358810424805,1,0.6963316798210144,0.07493749260902405,0.5782217383384705,-0.4185285866260529,-0.8679952025413513,0.4962084591388702,-0.01901312731206417,0,0,0,-1,10171.8206305,3,1,1562003682.694623,0,0,0,0,0,0,0,0,0,10169.495078,0,-0.4333496,75.30408,3232235528,182473588,1,1,0.31,-27.63195,-32.75483,1
1562003683.128201,105,0,0,1562003682.551233,4.634796972318158,-74.15097690637023,2563.758,-1,-1,10,65,-9999,1562003683.120003,-10.67263603210449,8.051006317138672,25.20159912109375,73.50022125244141,80.99419403076172,15,10172.2431465,-0.871673583984375,0.486328125,-0.018890380859375,10172.2431465,-0.003782221380130534,0.01419411597790432,-0.008965798125860763,10172.2426885,-8.65948486328125,18.92372131347656,-513.385009765625,10172.2380805,-2.39744182633234,-1.549166983825717,-0.5189595565024865,-0.01103505399078131,0.006920528132468462,-0.01259743049740791,-0.005341529846191406,-0.01022863388061523,0.001354575157165527,1,0.6964161992073059,0.07492959499359131,0.5782783627510071,-0.4183111190795898,-0.8681325912475586,0.4959769546985626,-0.0187800657004118,0,0,0,-1,10171.8206305,3,1,1562003682.694623,0,0,0,0,0,0,0,0,0,10169.495078,0,-0.4333496,75.30408,3232235528,182473588,1,1,0.31,-27.63195,-32.75483,1
1562003683.148018,106,0,0,1562003682.551233,4.634796972318158,-74.15097690637023,2563.758,-1,-1,10,65,-9999,1562003683.120003,-10.67263603210449,8.051006317138672,25.20159912109375,73.50022125244141,80.99419403076172,15,10172.2634095,-0.8643035888671875,0.48980712890625,-0.0210418701171875,10172.2634095,0.01310807888537001,0.009324259608585428,0.02400147300823013,10172.2627995,-8.728302001953125,19.15129089355469,-513.8424072265625,10172.2583445,-2.397510948019347,-1.549046757328009,-0.5189081253932405,0.008164473809301853,0.005590279120951891,0.01484883949160576,0.002021133899688721,-0.008398711681365967,-0.001577079296112061,1,0.6963818669319153,0.07489859312772751,0.5783453583717346,-0.4182811379432678,-0.8681557774543762,0.4959322810173035,-0.01888499222695827,0,0,0,-1,10171.8206305,3,1,1562003682.694623,0,0,0,0,0,0,0,0,0,10169.495078,0,-0.4333496,75.30408,3232235528,182473588,1,1,0.31,-27.63195,-33.36973,1
1562003683.168275,107,0,0,1562003682.551233,4.634796972318158,-74.15097690637023,2563.758,-1,-1,10,65,-9999,1562003683.146129,-10.6555814743042,8.055118560791016,25.3643798828125,73.50814056396484,81.00211334228516,15,10172.2836435,-0.8636932373046875,0.4907684326171875,-0.017578125,10172.2836435,0.03333132525510472,-0.0004769721512331915,0.03257631908606726,10172.2828805,-8.517471313476562,19.03518676757812,-513.7518920898438,10172.2786075,-2.397060029642234,-1.54875098955055,-0.5193338371452279,0.02914538979530334,0.0021566660143435,0.02613025717437267,0.004428863525390625,-0.004739999771118164,-0.0003941059112548828,1,0.6962973475456238,0.07484283298254013,0.5782653093338013,-0.4185424149036407,-0.8679389953613281,0.4963019192218781,-0.01913710869848728,0,0,0,-1,10171.8206305,3,1,1562003682.694623,0,0,0,0,0,0,0,0,0,10169.495078,0,-0.4333496,75.30408,3232235528,182473588,1,1,0.31,-27.63195,-33.91453,1
1562003683.198589,108,0,0,1562003682.551233,4.634796972318158,-74.15097690637023,2563.758,-1,-1,10,65,-9999,1562003683.171122,-10.53855419158936,8.129953384399414,25.0362548828125,73.47247314453125,80.96644592285156,15,10172.3039065,-0.869293212890625,0.4879150390625,-0.0188140869140625,10172.3039065,0.02760446364699833,-0.01350142777837471,0.02853896687350713,10172.3029605,-8.308731079101562,19.05763244628906,-513.7451171875,10172.2988715,-2.396323973055276,-1.548571814693043,-0.5198684596481535,0.0299384780228138,-0.0155301857739687,0.02598671242594719,0.001718640327453613,-0.007401376962661743,0.001998543739318848,1,0.6962404847145081,0.07487206906080246,0.578062117099762,-0.4189122915267944,-0.8676701784133911,0.4967659711837769,-0.01928672194480896,0,0,0,-1,10171.8206305,3,1,1562003682.694623,0,0,0,0,0,0,0,0,0,10169.495078,0,-0.4333496,75.30408,3232235528,182473588,1,1,0.31,-27.63195,-34.31588,1
1562003683.208818,109,0,0,1562003682.551233,4.634796972318158,-74.15097690637023,2563.758,-1,-1,10,65,-9999,1562003683.197876,-10.43008804321289,8.173702239990234,25.06927490234375,73.42546844482422,80.91944122314453,15,10172.3241705,-0.8740386962890625,0.4810028076171875,-0.0234527587890625,10172.3241705,0.01092268889485099,-0.01157036967195826,0.001780855820935987,10172.3230415,-8.673675537109375,19.11662292480469,-513.6672973632812,10172.3191045,-2.395786992763391,-1.548693988093127,-0.5202553581589469,0.01483462750911713,-0.01931427046656609,0.009939836338162422,-0.002728283405303955,-0.01422208547592163,-0.0014534592628479,1,0.6962719559669495,0.07494750618934631,0.5778264403343201,-0.4191717207431793,-0.867480456829071,0.4971017241477966,-0.01917647011578083,0,0,0,-1,10171.8206305,3,1,1562003682.694623,0,0,0,0,0,0,0,0,0,10169.495078,0,-0.4333496,75.30408,3232235528,182473588,1,1,0.31,-27.63195,-34.38715,1
1562003683.229599,110,0,0,1562003682.551233,4.634796972318158,-74.15097690637023,2563.758,-1,-1,10,65,-9999,1562003683.221175,-10.6650218963623,8.222858428955078,25.11602783203125,73.40557861328125,80.89955139160156,15,10172.3444345,-0.87689208984375,0.4760589599609375,-0.0328826904296875,10172.3444345,0.03080371906451052,-0.00490767325679802,-0.02790673243072232,10172.3431215,-8.755477905273438,18.78010559082031,-513.5856323242188,10172.3393685,-2.395522102582397,-1.548884054158756,-0.520016948510002,0.01821098290383816,-0.01226834580302238,-0.02932767570018768,-0.009137094020843506,-0.01818087697029114,-0.009443461894989014,1,0.6963068842887878,0.07516402751207352,0.5777544379234314,-0.4191740453243256,-0.8676024079322815,0.4968948364257812,-0.01901418343186378,0,0,0,-1,10171.8206305,3,1,1562003682.694623,0,0,0,0,0,0,0,0,0,10169.495078,0,-0.4333496,75.30408,3232235528,182473588,1,1,0.31,-27.63195,-34.85381,1
1562003683.249307,111,0,0,1562003682.551233,4.634796972318158,-74.15097690637023,2563.758,-1,-1,10,65,-9999,1562003683.247928,-10.71488857269287,8.00926399230957,25.18658447265625,73.34259796142578,80.83657073974609,15,10172.3646975,-0.869049072265625,0.480804443359375,-0.0372467041015625,10172.3646975,0.08279554776169146,0.02354261035240948,-0.01751214838003405,10172.3632325,-8.942611694335938,19.01594543457031,-513.708740234375,10172.3596315,-2.39459291290047,-1.548516895436523,-0.5194144779731202,0.06530153006315231,0.008827351033687592,-0.02503759041428566,-0.005396485328674316,-0.01831406354904175,-0.01638144254684448,1,0.6961402893066406,0.07562406361103058,0.5778132677078247,-0.4192869663238525,-0.8678945302963257,0.4963719248771667,-0.01933939754962921,0,0,0,-1,10171.8206305,3,1,1562003682.694623,0,0,0,0,0,0,0,0,0,10169.495078,0,-0.4333496,75.30408,3232235528,182473588,1,1,0.31,-27.63195,-34.85381,1
1562003683.286526,112,0,0,1562003682.551233,4.634796972318158,-74.15097690637023,2563.758,-1,-1,10,65,-9999,1562003683.272038,-10.93883895874023,8.348899841308594,25.14031982421875,73.16336059570312,80.65733337402344,15,10172.3849615,-0.8644866943359375,0.4862213134765625,-0.0287628173828125,10172.3849615,0.1412111873242525,0.001158475074184469,-0.001260207827825496,10172.3833135,-8.985488891601562,19.22987365722656,-513.6810302734375,10172.3798955,-2.392340046841198,-1.54706693706027,-0.5190585052877005,0.1257582157850266,0.006611335556954145,-0.004155743401497602,0.0005341768264770508,-0.01235926151275635,-0.01189923286437988,1,0.695620596408844,0.07622990012168884,0.5779194235801697,-0.4198929369449615,-0.8680421113967896,0.4960628747940063,-0.02060197666287422,0,0,0,-1,10171.8206305,3,1,1562003682.694623,0,0,0,0,0,0,0,0,0,10169.495078,0,-0.4333496,75.30408,3232235528,182473588,1,1,0.31,-27.63195,-35.48201,1
1562003683.290076,113,0,0,1562003682.551233,4.634796972318158,-74.15097690637023,2563.758,-1,-1,10,65,-9999,1562003683.272038,-10.93883895874023,8.348899841308594,25.14031982421875,73.16336059570312,80.65733337402344,15,10172.4052255,-0.8597869873046875,0.486480712890625,-0.0152130126953125,10172.4052255,0.1583931037291167,-0.03575533447929485,-0.002763562263175225,10172.4033945,-8.608810424804688,19.21041870117188,-513.7744750976562,10172.4001595,-2.388936823188081,-1.545645078192795,-0.5188542953478477,0.1589510589838028,-0.03012990206480026,-0.008344629779458046,0.006541132926940918,-0.009130209684371948,0.0002627968788146973,1,0.6950703859329224,0.0771867111325264,0.577741265296936,-0.4208735227584839,-0.8681133985519409,0.4958855509757996,-0.02183874137699604,0,0,0,-1,10171.8206305,3,1,1562003682.694623,0,0,0,0,0,0,0,0,0,10169.495078,0,-0.4333496,75.30408,3232235528,182473588,1,1,0.31,-27.63195,-35.48201,1
1562003683.310151,114,0,0,1562003682.551233,4.634796972318158,-74.15097690637023,2563.758,-1,-1,10,65,-9999,1562003683.298528,-10.7133150100708,8.349628448486328,25.09869384765625,72.90997314453125,80.40394592285156,15,10172.42546491667,-0.8667144775390625,0.4828948974609375,-0.017059326171875,10172.42546491667,0.1144570710133165,-0.03187564140326741,-0.0001390170089021362,10172.42351191667,-8.425827026367188,19.42759704589844,-513.5653076171875,10172.42042891667,-2.385476753138968,-1.544836811432585,-0.5186790991807901,0.1292448192834854,-0.04889027029275894,-0.001064878655597568,0.002825677394866943,-0.01016822457313538,0.007772147655487061,1,0.6946947574615479,0.07828070223331451,0.5773297548294067,-0.4218550324440002,-0.8681821227073669,0.4957334101200104,-0.02254265174269676,0,0,0,-1,10171.8206305,3,1,1562003682.694623,0,0,0,0,0,0,0,0,0,10169.495078,0,-0.4333496,75.30408,3232235528,182473588,1,1,0.31,-27.63195,-34.24378,1
1562003683.330578,115,0,0,1562003682.551233,4.634796972318158,-74.15097690637023,2563.758,-1,-1,10,65,-9999,1562003683.322416,-10.55229949951172,8.552675247192383,25.2115478515625,72.72095489501953,80.21492767333984,15,10172.44572791667,-0.8730316162109375,0.4799957275390625,-0.0167083740234375,10172.44572791667,0.04903119251333984,0.02975709675610938,0.005671201541323737,10172.44359191667,-8.645172119140625,19.20309448242188,-513.6775512695312,10172.44066291667,-2.383209121798367,-1.544115988414415,-0.5185209705243583,0.06468100845813751,0.009871045127511024,-0.002348788548260927,0.001025974750518799,-0.01636329293251038,0.006691098213195801,1,0.6943904757499695,0.07897212356328964,0.5771346092224121,-0.4224936664104462,-0.8682439923286438,0.4955960512161255,-0.02317054197192192,0,0,0,-1,10171.8206305,3,1,1562003682.694623,0,0,0,0,0,0,0,0,0,10169.495078,0,-0.4333496,75.30408,3232235528,182473588,1,1,0.31,-27.63195,-34.93293,1
1562003683.365421,116,0,0,1562003682.551233,4.634796972318158,-74.15097690637023,2563.758,-1,-1,10,65,-9999,1562003683.354733,-10.74581718444824,8.735628128051758,25.1495361328125,72.66084289550781,80.15481567382812,15,10172.46599191667,-0.870330810546875,0.4842529296875,-0.0137786865234375,10172.46599191667,0.005290902137660422,0.05837729004286393,0.01257278350626408,10172.46367291667,-8.753616333007812,19.71208190917969,-513.607666015625,10172.46092591667,-2.382343174010659,-1.542960986477696,-0.5185482715709083,0.01463888399302959,0.05290107056498528,0.005491824354976416,-0.005637049674987793,-0.01194670796394348,0.007495105266571045,1,0.6940241456031799,0.0790189653635025,0.5773468613624573,-0.4227968752384186,-0.8682032823562622,0.4956197738647461,-0.02417297661304474,0,0,0,-1,10171.8206305,3,1,1562003682.694623,0,0,0,0,0,0,0,0,0,10169.495078,0,-0.4333496,75.30408,3232235528,182473588,1,1,0.31,-27.63195,-34.67317,1
1562003683.370981,117,0,0,1562003682.551233,4.634796972318158,-74.15097690637023,2563.758,-1,-1,10,65,-9999,1562003683.354733,-10.74581718444824,8.735628128051758,25.1495361328125,72.66084289550781,80.15481567382812,15,10172.48625591667,-0.870880126953125,0.490753173828125,-0.0113983154296875,10172.48625591667,-0.004134823908457025,0.05224909005848259,0.02147972577203409,10172.48375291667,-8.615386962890625,19.46726989746094,-513.7542724609375,10172.48118991667,-2.382339314473497,-1.541880392989137,-0.5187954424394904,-0.008135403506457806,0.04964136332273483,0.01800042390823364,-0.001330852508544922,-0.009491026401519775,0.01171034574508667,1,0.693723201751709,0.07870403677225113,0.5776688456535339,-0.4229094386100769,-0.8680539131164551,0.4958344399929047,-0.02510758861899376,0,0,0,-1,10172.45955291667,2,0,1562003683.333545,0,0,0,0,0,0,0,0,0,10169.495078,0,-0.4333496,75.30408,3232235528,182473588,1,1,0.31,-27.63195,-34.67317,1
1562003683.391705,118,0,0,1562003682.551233,4.634796972318158,-74.15097690637023,2563.758,-1,-1,10,65,-9999,1562003683.354733,-10.74581718444824,8.735628128051758,25.1495361328125,72.66084289550781,80.15481567382812,15,10172.50651891667,-0.873626708984375,0.489471435546875,-0.011688232421875,10172.50651891667,0.01648603241202651,0.03409325564297639,0.01561943979331473,10172.50383391667,-8.5469970703125,19.2215576171875,-513.7554321289062,10172.50145391667,-2.382354803888303,-1.541080020713653,-0.519103631880687,0.01156639587134123,0.0325971320271492,0.01071002148091793,-0.004067361354827881,-0.003517836332321167,0.01719188690185547,1,0.6935065984725952,0.07841998338699341,0.5778849720954895,-0.4230223000049591,-0.8678808808326721,0.4961020648479462,-0.02579780854284763,0,0,0,-1,10172.45955291667,2,0,1562003683.333545,0,0,0,0,0,0,0,0,0,10169.495078,0,-0.4333496,75.30408,3232235528,182473588,1,1,0.31,-28.18923,-35.06228,1
1562003683.411626,119,0,0,1562003682.551233,4.634796972318158,-74.15097690637023,2563.758,-1,-1,10,65,-9999,1562003683.399351,-10.61501216888428,8.373126983642578,25.0469970703125,72.654296875,80.14826965332031,15,10172.52678291667,-0.8756256103515625,0.4888458251953125,-0.0112762451171875,10172.52678291667,0.04260471848686963,0.01998595871660865,0.005766809024457582,10172.52391391667,-8.651947021484375,19.23100280761719,-513.81201171875,10172.52171691667,-2.381831277892061,-1.540346512876206,-0.5192640155559628,0.03717801719903946,0.01542959362268448,0.006441773381084204,-0.005890130996704102,-0.008036375045776367,0.01529306173324585,1,0.6932814121246338,0.07838936895132065,0.5779948830604553,-0.4232470393180847,-0.8677823543548584,0.4962413012981415,-0.02643198147416115,0,0,0,-1,10172.45955291667,2,0,1562003683.333545,0,0,0,0,0,0,0,0,0,10169.495078,0,-0.4333496,75.30408,3232235528,182473588,1,1,0.31,-28.18923,-35.06228,1
1562003683.448505,120,0,0,1562003682.551233,4.634796972318158,-74.15097690637023,2563.758,-1,-1,10,65,-9999,1562003683.423848,-10.69829368591309,8.36395263671875,25.02301025390625,72.59175109863281,80.08572387695312,15,10172.54701591667,-0.8790435791015625,0.48919677734375,-0.003570556640625,10172.54701591667,0.04948126673756324,0.03887096663857854,0.000195742340120824,10172.54402591667,-8.821258544921875,19.31462097167969,-513.7919921875,10172.54198091667,-2.38082054339158,-1.539456552997819,-0.5191791042337197,0.04810736328363419,0.02976272813975811,-0.008225852623581886,-0.01298266649246216,-0.007169187068939209,0.01798927783966064,1,0.6929806470870972,0.07858138531446457,0.5781071186065674,-0.4235504269599915,-0.8678004741668701,0.4961675703525543,-0.0272055771201849,0,0,0,-1,10172.45955291667,2,0,1562003683.333545,0,0,0,0,0,0,0,0,0,10169.495078,0,-0.4333496,75.30408,3232235528,182473588,1,1,0.31,-29.30378,-35.74995,1
1562003683.45219,121,0,0,1562003682.551233,4.634796972318158,-74.15097690637023,2563.758,-1,-1,10,65,-9999,1562003683.450123,-10.80590724945068,8.555387496948242,25.15557861328125,72.52650451660156,80.02047729492188,15,10172.56727991667,-0.868804931640625,0.4879913330078125,-0.0004119873046875,10172.56727991667,0.02042032029040057,0.03988003837560957,0.03224369026591636,10172.56410591667,-8.798995971679688,19.44415283203125,-513.583740234375,10172.56224491667,-2.379842152375146,-1.538316069941186,-0.519260411471279,0.02497221529483795,0.03451940044760704,0.02137251943349838,-0.007500410079956055,-0.008246839046478271,0.02724790573120117,1,0.6926162242889404,0.07864976674318314,0.5782777667045593,-0.423900693655014,-0.8677285313606262,0.4962381720542908,-0.02819395996630192,0,0,0,-1,10172.45955291667,2,0,1562003683.333545,0,0,0,0,0,0,0,0,0,10169.495078,0,-0.4333496,75.30408,3232235528,182473588,1,1,0.31,-29.30378,-35.74995,1
1562003683.472345,122,0,0,1562003682.551233,4.634796972318158,-74.15097690637023,2563.758,-1,-1,10,65,-9999,1562003683.450123,-10.80590724945068,8.555387496948242,25.15557861328125,72.52650451660156,80.02047729492188,15,10172.58754391667,-0.863983154296875,0.48297119140625,-0.0013427734375,10172.58754391667,-5.326322180158476e-07,0.02477485498878914,0.03774471581358404,10172.58418691667,-9.004592895507812,19.56478881835938,-513.7084350585938,10172.58247791667,-2.379549688007802,-1.537578237322548,-0.5198901348541823,0.0009020334109663963,0.02144008129835129,0.03618688508868217,0.003183066844940186,-0.01192149519920349,0.0281219482421875,1,0.692420482635498,0.07837072014808655,0.5783386826515198,-0.4241890907287598,-0.8673951029777527,0.4967848062515259,-0.02882381156086922,0,0,0,-1,10172.45955291667,2,0,1562003683.333545,0,0,0,0,0,0,0,0,0,10169.495078,0,-0.4333496,75.30408,3232235528,182473588,1,1,0.31,-29.76096,-34.36919,1
1562003683.493006,123,0,0,1562003682.551233,4.634796972318158,-74.15097690637023,2563.758,-1,-1,10,65,-9999,1562003683.474588,-11.00492668151855,8.651954650878906,25.1019287109375,72.51522827148438,80.00920104980469,15,10172.60780691667,-0.87213134765625,0.47918701171875,-0.002166748046875,10172.60780691667,0.005195827286744593,0.0271264262313291,0.01894120062097056,10172.60426691667,-8.810791015625,19.21334838867188,-513.7788696289062,10172.60274091667,-2.379581060445138,-1.537169887541791,-0.5204753564158862,-0.0008679033489897847,0.02440071851015091,0.02006916888058186,4.214048385620117e-05,-0.01519113779067993,0.02723032236099243,1,0.6923306584358215,0.07806503027677536,0.5783632397651672,-0.4243582785129547,-0.8670923113822937,0.4972926080226898,-0.02916822023689747,0,0,0,-1,10172.45955291667,2,0,1562003683.333545,0,0,0,0,0,0,0,0,0,10169.495078,0,-0.4333496,75.30408,3232235528,182473588,1,1,0.31,-29.76096,-34.91545,1
1562003683.52557,124,0,0,1562003682.551233,4.634796972318158,-74.15097690637023,2563.758,-1,-1,10,65,-9999,1562003683.50089,-10.88248157501221,8.429681777954102,25.05755615234375,72.51486968994141,80.00884246826172,15,10172.62807091667,-0.874420166015625,0.475067138671875,0.0016937255859375,10172.62807091667,0.03206792163397113,0.008499212302878881,0.009376191249841974,10172.62437791667,-9.107574462890625,19.57464599609375,-513.640625,10172.62300491667,-2.379304915545518,-1.536679120725451,-0.520706533376871,0.02769689634442329,0.008513631299138069,0.007309964392334223,-0.00677025318145752,-0.02102220058441162,0.02786558866500854,1,0.6921886205673218,0.07797429710626602,0.5784259438514709,-0.4245214760303497,-0.866963267326355,0.4974931478500366,-0.02958984486758709,0,0,0,-1,10172.45955291667,2,0,1562003683.333545,0,0,0,0,0,0,0,0,0,10169.495078,0,-0.4333496,75.30408,3232235528,182473588,1,1,0.31,-29.76096,-35.00283,1
1562003683.532984,125,0,0,1562003682.551233,4.634796972318158,-74.15097690637023,2563.758,-1,-1,10,65,-9999,1562003683.50089,-10.88248157501221,8.429681777954102,25.05755615234375,72.51486968994141,80.00884246826172,15,10172.64833491667,-0.8745269775390625,0.48455810546875,0.0023956298828125,10172.64833491667,-0.001816808495652056,0.001185373001194269,0.006624613211572105,10172.64445891667,-8.9332275390625,19.35940551757812,-513.662841796875,10172.64326891667,-2.378730010023489,-1.536423300657148,-0.5207883043146364,0.00904597993940115,-0.00556277297437191,0.004700865130871534,-0.008558154106140137,-0.01860594749450684,0.03290772438049316,1,0.6920959949493408,0.07808981835842133,0.5783751010894775,-0.4247203469276428,-0.8669148683547974,0.4975640773773193,-0.02981022745370865,0,0,0,-1,10172.45955291667,2,0,1562003683.333545,0,0,0,0,0,0,0,0,0,10169.495078,0,-0.4333496,75.30408,3232235528,182473588,1,1,0.31,-29.76096,-35.30828,1
1562003683.553203,126,0,0,1562003682.551233,4.634796972318158,-74.15097690637023,2563.758,-1,-1,10,65,-9999,1562003683.539715,-11.06521606445312,8.714340209960938,25.1328125,72.4757080078125,79.96968078613281,15,10172.66859791667,-0.865234375,0.4832000732421875,-0.00250244140625,10172.66859791667,-0.04318928234614203,0.01414990750380901,0.02194258316948987,10172.66453891667,-8.883651733398438,19.60054016113281,-513.7222900390625,10172.66353191667,-2.379106535832173,-1.536658019239122,-0.5209182583602839,-0.03632815927267075,0.00651572784408927,0.01403817348182201,-0.002344310283660889,-0.0131492018699646,0.02997076511383057,1,0.6921845674514771,0.07796315103769302,0.5783464908599854,-0.4246383607387543,-0.8668573498725891,0.497676819562912,-0.02960454300045967,0,0,0,-1,10172.45955291667,2,0,1562003683.333545,0,0,0,0,0,0,0,0,0,10169.495078,0,-0.4333496,75.30408,3232235528,182473588,1,1,0.31,-28.53903,-35.4684,1
1562003683.573446,127,0,0,1562003682.551233,4.634796972318158,-74.15097690637023,2563.758,-1,-1,10,65,-9999,1562003683.539715,-11.06521606445312,8.714340209960938,25.1328125,72.4757080078125,79.96968078613281,15,10172.68883091667,-0.8672637939453125,0.4818572998046875,-0.007568359375,10172.68883091667,-0.05250901458087432,0.00483070790129473,0.04368036925115264,10172.68461991667,-8.91259765625,19.34446716308594,-513.7252807617188,10172.68379591667,-2.380209255934751,-1.537088345435329,-0.5214911104069435,-0.05229141190648079,0.004209430422633886,0.0409984178841114,0.002098262310028076,-0.01642310619354248,0.02436959743499756,1,0.6923782229423523,0.07746901363134384,0.5783108472824097,-0.4244616031646729,-0.8665848970413208,0.4981735944747925,-0.02922189608216286,0,0,0,-1,10172.45955291667,2,0,1562003683.333545,0,0,0,0,0,0,0,0,0,10169.495078,0,-0.4333496,75.30408,3232235528,182473588,1,1,0.31,-28.53903,-35.4684,1
1562003683.595079,128,0,0,1562003682.551233,4.634796972318158,-74.15097690637023,2563.758,-1,-1,10,65,-9999,1562003683.575882,-10.86992263793945,8.547000885009766,25.1131591796875,72.58921051025391,80.08318328857422,15,10172.70909491667,-0.8837432861328125,0.48443603515625,-0.012237548828125,10172.70909491667,-0.04103664923703098,-0.003454652566050788,0.01020629856161967,10172.70470091667,-8.750320434570312,19.62875366210938,-513.8106689453125,10172.70402891667,-2.381375858315,-1.537718932738199,-0.5221966604348315,-0.04517278075218201,-0.005041592288762331,0.02041724324226379,-0.008672118186950684,-0.01639387011528015,0.01834887266159058,1,0.6926378011703491,0.076947882771492,0.5781912803649902,-0.4242956638336182,-0.8662515878677368,0.4987852275371552,-0.02866379916667938,0,0,0,-1,10172.45955291667,2,0,1562003683.333545,0,0,0,0,0,0,0,0,0,10169.495078,0,-0.4333496,75.30408,3232235528,182473588,1,1,0.31,-28.52305,-33.08881,1
