loggingTime,loggingSample,identifierForVendor,deviceID,locationTimestamp_since1970,locationLatitude,locationLongitude,locationAltitude,locationSpeed,locationCourse,locationVerticalAccuracy,locationHorizontalAccuracy,locationFloor,locationHeadingTimestamp_since1970,locationHeadingX,locationHeadingY,locationHeadingZ,locationTrueHeading,locationMagneticHeading,locationHeadingAccuracy,accelerometerTimestamp_sinceReboot,accelerometerAccelerationX,accelerometerAccelerationY,accelerometerAccelerationZ,gyroTimestamp_sinceReboot,gyroRotationX,gyroRotationY,gyroRotationZ,magnetometerTimestamp_sinceReboot,magnetometerX,magnetometerY,magnetometerZ,motionTimestamp_sinceReboot,motionYaw,motionRoll,motionPitch,motionRotationRateX,motionRotationRateY,motionRotationRateZ,motionUserAccelerationX,motionUserAccelerationY,motionUserAccelerationZ,motionAttitudeReferenceFrame,motionQuaternionX,motionQuaternionY,motionQuaternionZ,motionQuaternionW,motionGravityX,motionGravityY,motionGravityZ,motionMagneticFieldX,motionMagneticFieldY,motionMagneticFieldZ,motionMagneticFieldCalibrationAccuracy,activityTimestamp_sinceReboot,activity,activityActivityConfidence,activityActivityStartDate,pedometerStartDate,pedometerNumberofSteps,pedometerAverageActivePace,pedometerCurrentPace,pedometerCurrentCadence,pedometerDistance,pedometerFloorAscended,pedometerFloorDescended,pedometerEndDate,altimeterTimestamp_sinceReboot,altimeterReset,altimeterRelativeAltitude,altimeterPressure,IP_en0,IP_pdp_ip0,deviceOrientation,batteryState,batteryLevel,avAudioRecorderPeakPower,avAudioRecorderAveragePower,label
1562003687.008746,1,0,0,1562003682.551233,4.634796972318158,-74.15097690637023,2563.758,-1,-1,10,65,-9999,1562003686.985523,-11.08805084228516,10.38129806518555,24.2427978515625,66.01393890380859,73.50791168212891,15,10176.11264104167,-0.9076385498046875,0.39031982421875,-0.0346527099609375,10176.11264104167,0.07346276603761777,-0.02613546398971062,-0.04067632354154326,10176.09970204167,-9.187774658203125,21.55029296875,-514.5250244140625,10176.10757504167,-2.254567921688244,-1.517349564751541,-0.3963263042238221,0.05791385099291801,-0.02683489769697189,-0.02946032769978046,0.02013671398162842,0.004135191440582275,0.01592469215393066,1,0.6705499291419983,0.1603826582431793,0.5845850110054016,-0.4276688396930695,-0.9211682081222534,0.3860320150852203,-0.04928039014339447,0,0,0,-1,10174.41541241667,3,2,1562003685.289404,0,0,0,0,0,0,0,0,0,10173.268138,0,-0.779541,75.30736,3232235528,182473588,1,1,0.31,-27.89218,-34.23407,2
1562003687.022698,2,0,0,1562003682.551233,4.634796972318158,-74.15097690637023,2563.758,-1,-1,10,65,-9999,1562003686.985523,-11.08805084228516,10.38129806518555,24.2427978515625,66.01393890380859,73.50791168212891,15,10176.13287404167,-0.923370361328125,0.3829193115234375,-0.0404815673828125,10176.11264104167,0.07346276603761777,-0.02613546398971062,-0.04067632354154326,10176.11978204167,-8.917678833007812,21.62860107421875,-514.3627319335938,10176.12783904167,-2.252736361595595,-1.517295350316042,-0.3950020307002792,0.1175433620810509,-0.02790974825620651,-0.08692601323127747,0.00561368465423584,-0.0001817643642425537,0.01073759794235229,1,0.6702651977539062,0.1614489257335663,0.5844885110855103,-0.427845686674118,-0.9216750860214233,0.3848100602626801,-0.04935761913657188,0,0,0,-1,10174.41541241667,3,2,1562003685.289404,0,0,0,0,0,0,0,0,0,10173.268138,0,-0.779541,75.30736,3232235528,182473588,1,1,0.31,-27.89218,-34.42105,2
1562003687.041894,3,0,0,1562003682.551233,4.634796972318158,-74.15097690637023,2563.758,-1,-1,10,65,-9999,1562003687.037107,-11.18853664398193,10.63238525390625,24.2459716796875,65.64328002929688,73.13725280761719,15,10176.15313804167,-0.9188232421875,0.3794097900390625,-0.04425048828125,10176.13287404167,0.1275877867679522,-0.01983735432778223,-0.09142392337743918,10176.13989304167,-9.13641357421875,21.30204772949219,-514.4180908203125,10176.14807204167,-2.249956493035769,-1.516671366859359,-0.3929079298497768,0.1437579095363617,-0.01068894937634468,-0.09520445019006729,-0.001473009586334229,-0.0003385245800018311,0.007175266742706299,1,0.669663667678833,0.1629799753427505,0.5845409631729126,-0.4281353056430817,-0.9224466681480408,0.3828763663768768,-0.04997619986534119,0,0,0,-1,10174.41541241667,3,2,1562003685.289404,0,0,0,0,0,0,0,0,0,10173.268138,0,-0.779541,75.30736,3232235528,182473588,1,1,0.31,-27.89218,-34.65035,2
1562003687.057977,4,0,0,1562003682.551233,4.634796972318158,-74.15097690637023,2563.758,-1,-1,10,65,-9999,1562003687.037107,-11.18853664398193,10.63238525390625,24.2459716796875,65.64328002929688,73.13725280761719,15,10176.17340204167,-0.9019775390625,0.38824462890625,-0.0444183349609375,10176.17340204167,0.1171844142856666,0.03060957462104374,-2.050634039361014e-05,10176.15997404167,-9.254745483398438,21.37901306152344,-514.6776733398438,10176.16833604167,-2.247025349015061,-1.515376131888283,-0.3914091174901288,0.1238790228962898,0.02646081522107124,-0.02601233310997486,0.01209497451782227,0.002312958240509033,0.005975604057312012,1,0.6689053177833557,0.1642082184553146,0.5846604108810425,-0.4286880493164062,-0.9229531288146973,0.3814913332462311,-0.0512026734650135,0,0,0,-1,10174.41541241667,3,2,1562003685.289404,0,0,0,0,0,0,0,0,0,10173.268138,0,-0.779541,75.30736,3232235528,182473588,1,1,0.31,-27.89218,-34.65035,2
1562003687.078195,5,0,0,1562003682.551233,4.634796972318158,-74.15097690637023,2563.758,-1,-1,10,65,-9999,1562003687.070218,-11.12738037109375,10.74776840209961,24.3363037109375,65.10105895996094,72.59503173828125,15,10176.19366504167,-0.8939971923828125,0.3939056396484375,-0.04248046875,10176.19366504167,0.1331695060966492,-0.02353035981139511,0.07943383951768443,10176.18005404167,-9.086135864257812,21.65670776367188,-514.4283447265625,10176.18859904167,-2.244450123110368,-1.514172094727998,-0.3917053218320878,0.1213668584823608,-0.01221361011266708,0.06133269146084785,0.02875018119812012,0.009271860122680664,0.009048819541931152,1,0.6683695316314697,0.1647070646286011,0.5844482183456421,-0.4296205937862396,-0.9227778315544128,0.3817651271820068,-0.05230750516057014,0,0,0,-1,10174.41541241667,3,2,1562003685.289404,0,0,0,0,0,0,0,0,0,10173.268138,0,-0.779541,75.30736,3232235528,182473588,1,1,0.31,-27.89218,-32.2051,2
1562003687.111402,6,0,0,1562003682.551233,4.634796972318158,-74.15097690637023,2563.758,-1,-1,10,65,-9999,1562003687.09651,-11.02091884613037,10.91155052185059,24.1644287109375,64.88125610351562,72.37522888183594,15,10176.21392904167,-0.912109375,0.3873291015625,-0.047637939453125,10176.21392904167,0.1490464735673746,-0.0219740084703528,0.08941936202493653,10176.20016604167,-8.952713012695312,21.78997802734375,-514.6253051757812,10176.20886304167,-2.241329892849375,-1.513675319369496,-0.3932487541824394,0.147058367729187,-0.04015709087252617,0.0940839871764183,0.02155828475952148,0.01036348938941956,0.009610891342163086,1,0.668113112449646,0.1651022732257843,0.5836186408996582,-0.4309934377670288,-0.9221625328063965,0.3831911981105804,-0.05273221805691719,0,0,0,-1,10174.41541241667,3,2,1562003685.289404,0,0,0,0,0,0,0,0,0,10173.268138,0,-0.779541,75.30736,3232235528,182473588,1,1,0.31,-27.89218,-33.00531,2
1562003687.118823,7,0,0,1562003682.551233,4.634796972318158,-74.15097690637023,2563.758,-1,-1,10,65,-9999,1562003687.09651,-11.02091884613037,10.91155052185059,24.1644287109375,64.88125610351562,72.37522888183594,15,10176.23419304167,-0.932281494140625,0.3731842041015625,-0.0472564697265625,10176.23419304167,0.1283148297455438,0.03482242914944009,0.03330522627642195,10176.22024604167,-8.94366455078125,21.738525390625,-514.8970947265625,10176.22912704167,-2.238104985163659,-1.512687198936126,-0.3945913855160091,0.1328509300947189,0.01721112430095673,0.04775163531303406,-0.003499150276184082,-0.004334568977355957,0.005609333515167236,1,0.667685866355896,0.1654957681894302,0.582969605922699,-0.432380735874176,-0.9215955138206482,0.384431004524231,-0.05361346900463104,0,0,0,-1,10174.41541241667,3,2,1562003685.289404,0,0,0,0,0,0,0,0,0,10173.268138,0,-0.779541,75.30736,3232235528,182473588,1,1,0.31,-27.89218,-33.00531,2
1562003687.139045,8,0,0,1562003682.551233,4.634796972318158,-74.15097690637023,2563.758,-1,-1,10,65,-9999,1562003687.121181,-11.03086948394775,10.90168190002441,23.927734375,64.65842437744141,72.15239715576172,15,10176.25442604167,-0.9249725341796875,0.3721923828125,-0.0381317138671875,10176.25442604167,0.1035290557962854,0.03964301703859251,-0.02413782685604218,10176.24032704167,-8.959716796875,21.80230712890625,-514.898193359375,10176.24939004167,-2.235522714741607,-1.511002276437337,-0.3947351011493883,0.1028277948498726,0.03636404871940613,-0.01649765856564045,-0.008849263191223145,-0.01470586657524109,0.01249933242797852,1,0.6669945120811462,0.165942370891571,0.5829425454139709,-0.4333119690418243,-0.9214485883712769,0.384563684463501,-0.05516289919614792,0,0,0,-1,10174.41541241667,3,2,1562003685.289404,0,0,0,0,0,0,0,0,0,10173.268138,0,-0.779541,75.30736,3232235528,182473588,1,1,0.31,-27.89218,-32.25663,2
1562003687.15929,9,0,0,1562003682.551233,4.634796972318158,-74.15097690637023,2563.758,-1,-1,10,65,-9999,1562003687.147932,-11.20072650909424,10.97997283935547,23.93914794921875,64.49501037597656,71.98898315429688,15,10176.27468904167,-0.9187774658203125,0.3832855224609375,-0.032135009765625,10176.27468904167,0.09824640945800417,0.02230184360054156,0.002664492670624278,10176.26043804167,-9.227493286132812,21.8026123046875,-514.84912109375,10176.26965404167,-2.233291257017762,-1.509563178468061,-0.3941041608418132,0.1011899560689926,0.01931528747081757,-0.01652402244508266,0.0003916025161743164,-0.005303800106048584,0.0232396125793457,1,0.6663288474082947,0.1665952950716019,0.5830719470977783,-0.4339113235473633,-0.9216104745864868,0.3839811682701111,-0.05650375038385391,0,0,0,-1,10174.41541241667,3,2,1562003685.289404,0,0,0,0,0,0,0,0,0,10173.268138,0,-0.779541,75.30736,3232235528,182473588,1,1,0.31,-27.89218,-32.80511,2
1562003687.201779,10,0,0,1562003682.551233,4.634796972318158,-74.15097690637023,2563.758,-1,-1,10,65,-9999,1562003687.197947,-11.0603141784668,11.16202735900879,23.814453125,64.24611663818359,71.74008941650391,15,10176.29495304167,-0.9106597900390625,0.3886260986328125,-0.034820556640625,10176.29495304167,0.06516675292591194,0.01969833731888009,0.04944717827561022,10176.28051804167,-9.191909790039062,22.02195739746094,-514.9659423828125,10176.28988704167,-2.231391601294883,-1.508546447830306,-0.3942990784355679,0.06929460167884827,0.01305339764803648,0.0397709384560585,0.008361339569091797,0.003061145544052124,0.02192890644073486,1,0.6658928990364075,0.166938915848732,0.582956850528717,-0.4346025586128235,-0.9214777946472168,0.3841611444950104,-0.05743608996272087,0,0,0,-1,10174.41541241667,3,2,1562003685.289404,0,0,0,0,0,0,0,0,0,10173.268138,0,-0.779541,75.30736,3232235528,182473588,1,1,0.31,-27.81849,-33.76436,2
1562003687.204496,11,0,0,1562003682.551233,4.634796972318158,-74.15097690637023,2563.758,-1,-1,10,65,-9999,1562003687.197947,-11.0603141784668,11.16202735900879,23.814453125,64.24611663818359,71.74008941650391,15,10176.31521704167,-0.914306640625,0.3866424560546875,-0.034332275390625,10176.31521704167,0.07383907069964597,-0.01506523597046924,0.05552504451538906,10176.30059904167,-9.03338623046875,22.01161193847656,-515.0111083984375,10176.31015104167,-2.22995550133076,-1.507834591255334,-0.3951985121117692,0.06446576118469238,-0.008023658767342567,0.05151920765638351,0.006220221519470215,0.00522160530090332,0.02463823556900024,1,0.6656527519226074,0.1669469326734543,0.582690954208374,-0.4353233277797699,-0.9210914373397827,0.3849914073944092,-0.05807027220726013,0,0,0,-1,10174.41541241667,3,2,1562003685.289404,0,0,0,0,0,0,0,0,0,10173.268138,0,-0.779541,75.30736,3232235528,182473588,1,1,0.31,-27.81849,-33.76436,2
1562003687.220118,12,0,0,1562003682.551233,4.634796972318158,-74.15097690637023,2563.758,-1,-1,10,65,-9999,1562003687.197947,-11.0603141784668,11.16202735900879,23.814453125,64.24611663818359,71.74008941650391,15,10176.33548004167,-0.92266845703125,0.37579345703125,-0.0389404296875,10176.33548004167,0.1003100929867066,-0.02898797583329449,0.05862070296649717,10176.32067904167,-8.856536865234375,22.09683227539062,-514.737548828125,10176.33041504167,-2.22810752220906,-1.507687254427096,-0.3961504626093861,0.09721678495407104,-0.0359109491109848,0.05380340293049812,0.005875945091247559,-0.006353199481964111,0.02205002307891846,1,0.6655479073524475,0.1671961843967438,0.5821353793144226,-0.4361304640769958,-0.9207166433334351,0.3858698010444641,-0.05818283930420876,0,0,0,-1,10174.41541241667,3,2,1562003685.289404,0,0,0,0,0,0,0,0,0,10173.268138,0,-0.779541,75.30736,3232235528,182473588,1,1,0.31,-27.81849,-33.76436,2
1562003687.240498,13,0,0,1562003682.551233,4.634796972318158,-74.15097690637023,2563.758,-1,-1,10,65,-9999,1562003687.222556,-10.9882116317749,11.2152214050293,24.0400390625,64.10714721679688,71.60111999511719,15,10176.35574404167,-0.9339447021484375,0.3673553466796875,-0.0433807373046875,10176.35574404167,0.07103849049731864,0.002136654142570573,0.05000084946623769,10176.34076004167,-9.077529907226562,21.99600219726562,-515.103515625,10176.35067804167,-2.225991444766943,-1.5074366953734,-0.397080832781977,0.08186233043670654,-0.01196194067597389,0.04890265315771103,-0.008809924125671387,-0.0145050585269928,0.01552885770797729,1,0.6653884649276733,0.1675195544958115,0.5815591216087341,-0.4370176494121552,-0.9203434586524963,0.3867279589176178,-0.0583907775580883,0,0,0,-1,10176.34921304167,3,2,1562003687.223205,0,0,0,0,0,0,0,0,0,10173.268138,0,-0.779541,75.30736,3232235528,182473588,1,1,0.31,-27.81849,-34.47631,2
1562003687.286301,14,0,0,1562003682.551233,4.634796972318158,-74.15097690637023,2563.758,-1,-1,10,65,-9999,1562003687.273501,-11.01755809783936,11.11517524719238,23.80743408203125,63.93014907836914,71.42411804199219,15,10176.37600804167,-0.936553955078125,0.3626708984375,-0.048980712890625,10176.37600804167,0.02717835787258565,0.04649266736227631,0.04189871448188963,10176.36087104167,-9.00469970703125,21.78385925292969,-515.14990234375,10176.37094204167,-2.224710631705368,-1.506778487625612,-0.3979794710234896,0.03140847757458687,0.0306403823196888,0.04559394344687462,-0.01691675186157227,-0.02224582433700562,0.01298427581787109,1,0.6651774644851685,0.1674867123365402,0.5813066363334656,-0.4376868009567261,-0.9199575781822205,0.3875565230846405,-0.05897428467869759,0,0,0,-1,10176.34921304167,3,2,1562003687.223205,0,0,0,0,0,0,0,0,0,10173.268138,0,-0.779541,75.30736,3232235528,182473588,1,1,0.31,-27.81849,-35.55562,2
1562003687.288738,15,0,0,1562003682.551233,4.634796972318158,-74.15097690637023,2563.758,-1,-1,10,65,-9999,1562003687.273501,-11.01755809783936,11.11517524719238,23.80743408203125,63.93014907836914,71.42411804199219,15,10176.39624104167,-0.93182373046875,0.366607666015625,-0.044525146484375,10176.39624104167,0.04005900280086289,0.06965630989156751,-0.01541251217661558,10176.38095204167,-8.987869262695312,22.03523254394531,-514.95849609375,10176.39120604167,-2.224083171811188,-1.50559961801172,-0.3984294920818215,0.03064734302461147,0.06002570316195488,-0.003545373911038041,-0.01626086235046387,-0.02256909012794495,0.01222634315490723,1,0.6648262143135071,0.167279452085495,0.5814653038978577,-0.4380887150764465,-0.9197132587432861,0.3879713416099548,-0.06004738062620163,0,0,0,-1,10176.34921304167,3,2,1562003687.223205,0,0,0,0,0,0,0,0,0,10173.268138,0,-0.779541,75.30736,3232235528,182473588,1,1,0.31,-27.81849,-35.55562,2
1562003687.301544,16,0,0,1562003682.551233,4.634796972318158,-74.15097690637023,2563.758,-1,-1,10,65,-9999,1562003687.299479,-11.22618389129639,11.23225784301758,23.67864990234375,63.86553573608398,71.35950469970703,15,10176.41650504167,-0.9203033447265625,0.3746490478515625,-0.0327606201171875,10176.41650504167,0.0641339790551792,0.0515031386371514,-0.006346845509876841,10176.40103204167,-9.252227783203125,22.14399719238281,-515.1051025390625,10176.41143904167,-2.223146425447275,-1.503950227515688,-0.3979380456052406,0.05730585381388664,0.06307581812143326,-0.02155180461704731,-0.004650592803955078,-0.01883545517921448,0.0220261812210083,1,0.6642199754714966,0.1674016863107681,0.5819128751754761,-0.4383673667907715,-0.9198032021522522,0.3875183165073395,-0.06157699972391129,0,0,0,-1,10176.34921304167,3,2,1562003687.223205,0,0,0,0,0,0,0,0,0,10173.268138,0,-0.779541,75.30736,3232235528,182473588,1,1,0.31,-27.81849,-35.71395,2
1562003687.321473,17,0,0,1562003682.551233,4.634796972318158,-74.15097690637023,2563.758,-1,-1,10,65,-9999,1562003687.299479,-11.22618389129639,11.23225784301758,23.67864990234375,63.86553573608398,71.35950469970703,15,10176.4367855,-0.916046142578125,0.37078857421875,-0.03680419921875,10176.4367855,0.09355365330117554,-0.03098987402470706,0.04714381024880069,10176.4211305,-8.954269409179688,22.13523864746094,-515.0794677734375,10176.4317195,-2.221586423792999,-1.502913396775993,-0.3979936747922089,0.08627837896347046,-0.02211897075176239,0.03857731074094772,0.00443422794342041,-0.0127221941947937,0.03056204319000244,1,0.6637930870056152,0.167672723531723,0.5819031596183777,-0.4389230608940125,-0.9197174310684204,0.3875696063041687,-0.06252919137477875,0,0,0,-1,10176.34921304167,3,2,1562003687.223205,0,0,0,0,0,0,0,0,0,10173.268138,0,-0.779541,75.30736,3232235528,182473588,1,1,0.31,-27.81849,-36.00444,2
1562003687.369251,18,0,0,1562003682.551233,4.634796972318158,-74.15097690637023,2563.758,-1,-1,10,65,-9999,1562003687.350215,-11.05526447296143,11.46408081054688,23.80731201171875,63.63130569458008,71.12527465820312,15,10176.4570495,-0.9296875,0.368194580078125,-0.0439910888671875,10176.4570495,0.05826410569653555,-0.009496566131113555,0.03399525131486147,10176.4412415,-9.145034790039062,21.977294921875,-515.1585083007812,10176.4519835,-2.219588496478926,-1.502882277054867,-0.3987049423358836,0.07417404651641846,-0.02843332663178444,0.03882338851690292,-0.001198947429656982,-0.02108347415924072,0.02251529693603516,1,0.6636865139007568,0.1680793613195419,0.5813227295875549,-0.4396969676017761,-0.9194400906562805,0.3882251977920532,-0.06253907829523087,0,0,0,-1,10176.34921304167,3,2,1562003687.223205,0,0,0,0,0,0,0,0,0,10173.268138,0,-0.779541,75.30736,3232235528,182473588,1,1,0.31,-27.81849,-35.93137,2
1562003687.372972,19,0,0,1562003682.551233,4.634796972318158,-74.15097690637023,2563.758,-1,-1,10,65,-9999,1562003687.350215,-11.05526447296143,11.46408081054688,23.80731201171875,63.63130569458008,71.12527465820312,15,10176.4773135,-0.932647705078125,0.365386962890625,-0.047271728515625,10176.4773135,0.009187373128555356,0.05349172102311357,-0.005602225669090685,10176.4613215,-8.947235107421875,22.35563659667969,-514.9642333984375,10176.4722475,-2.218621574403278,-1.502481115218746,-0.3990521195116087,0.01707001402974129,0.03380661457777023,0.001277344534173608,-0.01658689975738525,-0.02117452025413513,0.01405537128448486,1,0.6635229587554932,0.1681901514530182,0.5811689496040344,-0.4401045143604279,-0.9192803502082825,0.3885451257228851,-0.06289871037006378,0,0,0,-1,10176.34921304167,3,2,1562003687.223205,0,0,0,0,0,0,0,0,0,10173.268138,0,-0.779541,75.30736,3232235528,182473588,1,1,0.31,-27.81849,-35.93137,2
1562003687.38254,20,0,0,1562003682.551233,4.634796972318158,-74.15097690637023,2563.758,-1,-1,10,65,-9999,1562003687.3747,-11.13932609558105,11.34024620056152,23.90960693359375,63.61639785766602,71.11036682128906,15,10176.4975765,-0.9207763671875,0.3661346435546875,-0.0393218994140625,10176.4975765,-0.006726345965213132,0.03039412488885633,-0.02089436296443468,10176.4814025,-9.15625,22.21395874023438,-514.875732421875,10176.4925105,-2.21859335743489,-1.50155870483776,-0.3987608546376812,-0.008618837222456932,0.03750734031200409,-0.02044259943068027,-0.006705760955810547,-0.02220308780670166,0.02101457118988037,1,0.6632236242294312,0.1680987477302551,0.5815309882164001,-0.4401124715805054,-0.919334888458252,0.3882767260074615,-0.06375446915626526,0,0,0,-1,10176.34921304167,3,2,1562003687.223205,0,0,0,0,0,0,0,0,0,10173.268138,0,-0.779541,75.30736,3232235528,182473588,1,1,0.31,-27.81849,-35.93137,2
1562003687.402492,21,0,0,1562003682.551233,4.634796972318158,-74.15097690637023,2563.758,-1,-1,10,65,-9999,1562003687.400505,-11.21058559417725,11.69801902770996,23.70660400390625,63.62164688110352,71.11561584472656,15,10176.5178095,-0.914031982421875,0.363250732421875,-0.0381317138671875,10176.5178095,0.02114816221631923,-0.01946397914295312,-0.006131129461580422,10176.5015135,-9.140289306640625,22.69235229492188,-515.086181640625,10176.5127745,-2.21865242476558,-1.50138946764378,-0.3982444541685021,0.01432482805103064,-0.01428581494837999,-0.02043274603784084,0.004042327404022217,-0.02264267206192017,0.02699762582778931,1,0.6631281971931458,0.1682231277227402,0.5817103981971741,-0.439971536397934,-0.9195238947868347,0.3878007829189301,-0.06392394751310349,0,0,0,-1,10176.34921304167,3,2,1562003687.223205,0,0,0,0,0,0,0,0,0,10173.268138,0,-0.779541,75.30736,3232235528,182473588,1,1,0.31,-27.81849,-36.12978,2
1562003687.448044,22,0,0,1562003682.551233,4.634796972318158,-74.15097690637023,2563.758,-1,-1,10,65,-9999,1562003687.42513,-11.25241279602051,11.54876708984375,23.7828369140625,63.5843620300293,71.07833099365234,15,10176.5380735,-0.914459228515625,0.362823486328125,-0.050994873046875,10176.5380735,0.02876533556616387,-0.03255235063625654,0.03543282567128625,10176.5215945,-9.149093627929688,22.45024108886719,-515.0084228515625,10176.5330385,-2.218180555947232,-1.501883485197772,-0.3982578516989108,0.02638095803558826,-0.04059891030192375,0.02498986385762691,0.005762338638305664,-0.02425721287727356,0.01935619115829468,1,0.6632334589958191,0.1684835851192474,0.5814399123191833,-0.4400707483291626,-0.9195501804351807,0.3878131210803986,-0.06346932053565979,0,0,0,-1,10176.34921304167,3,2,1562003687.223205,0,0,0,0,0,0,0,0,0,10173.268138,0,-0.779541,75.30736,3232235528,182473588,1,1,0.31,-27.81849,-32.01574,2
1562003687.451753,23,0,0,1562003682.551233,4.634796972318158,-74.15097690637023,2563.758,-1,-1,10,65,-9999,1562003687.42513,-11.25241279602051,11.54876708984375,23.7828369140625,63.5843620300293,71.07833099365234,15,10176.5583375,-0.9195709228515625,0.3660125732421875,-0.0544891357421875,10176.5583375,0.03609701804715201,0.004546282296874268,0.01380529445875276,10176.5416745,-9.279403686523438,22.23353576660156,-514.9625854492188,10176.5532715,-2.21748839038725,-1.502204198554667,-0.3987638829360842,0.03443649038672447,-0.007983976975083351,0.01917192153632641,0.002977669239044189,-0.02570018172264099,0.009343206882476807,1,0.6633185148239136,0.1686062514781952,0.5810731053352356,-0.4403801560401917,-0.9193747639656067,0.3882794976234436,-0.0631609633564949,0,0,0,-1,10176.34921304167,3,2,1562003687.223205,0,0,0,0,0,0,0,0,0,10173.268138,0,-0.779541,75.30736,3232235528,182473588,1,1,0.31,-27.81849,-32.01574,2
1562003687.463907,24,0,0,1562003682.551233,4.634796972318158,-74.15097690637023,2563.758,-1,-1,10,65,-9999,1562003687.451183,-11.35738182067871,11.53497886657715,23.8076171875,63.53281021118164,71.02677917480469,15,10176.5786005,-0.9253082275390625,0.367706298828125,-0.050994873046875,10176.5786005,0.02586062576521444,0.04078924157176262,-0.01867302029919959,10176.5617555,-9.395355224609375,22.396484375,-514.9573364257812,10176.5735355,-2.216733292092686,-1.501828184589769,-0.3987291004991742,0.02962415665388107,0.02017229422926903,-0.01544331200420856,-0.005135238170623779,-0.01980870962142944,0.008728504180908203,1,0.6631421446800232,0.1687859892845154,0.5810388326644897,-0.4406218826770782,-0.9193642735481262,0.3882474601268768,-0.0635075718164444,0,0,0,-1,10176.34921304167,3,2,1562003687.223205,0,0,0,0,0,0,0,0,0,10173.268138,0,-0.779541,75.30736,3232235528,182473588,1,1,0.31,-27.81849,-32.48373,2
1562003687.483587,25,0,0,1562003682.551233,4.634796972318158,-74.15097690637023,2563.758,-1,-1,10,65,-9999,1562003687.475552,-11.14191341400146,11.5948314666748,23.681396484375,63.5004768371582,70.99444580078125,15,10176.5988645,-0.918914794921875,0.3705596923828125,-0.03271484375,10176.5988645,0.004171575531500119,0.06954179396469411,-0.02117000013725788,10176.5818665,-9.128219604492188,22.56013488769531,-515.1336669921875,10176.5937985,-2.216398488840982,-1.500791476746083,-0.3981887997645573,0.003427439369261265,0.06352961808443069,-0.02683977782726288,-0.004397273063659668,-0.01752549409866333,0.02211689949035645,1,0.6627588272094727,0.1688581556081772,0.581424355506897,-0.4406625330448151,-0.9195071458816528,0.3877494931221008,-0.06447532027959824,0,0,0,-1,10176.34921304167,3,2,1562003687.223205,0,0,0,0,0,0,0,0,0,10173.268138,0,-0.779541,75.30736,3232235528,182473588,1,1,0.31,-27.81849,-32.65592,2
1562003687.517521,26,0,0,1562003682.551233,4.634796972318158,-74.15097690637023,2563.758,-1,-1,10,65,-9999,1562003687.511238,-11.1127233505249,11.62163352966309,23.71551513671875,63.48754501342773,70.98151397705078,15,10176.6191285,-0.9112548828125,0.35235595703125,-0.0187530517578125,10176.6191285,0.03532230448604796,0.01357572997278792,-0.009519735632597245,10176.6019465,-9.076858520507812,22.44599914550781,-515.0436401367188,10176.6140625,-2.216196516137763,-1.499622626243597,-0.3976744725594553,0.02775994315743446,0.03105450421571732,-0.01926947571337223,0.003354966640472412,-0.0239483118057251,0.04102808237075806,1,0.6623505353927612,0.1688480377197266,0.5818770527839661,-0.4406827688217163,-0.9196299910545349,0.3872753381729126,-0.06556421518325806,0,0,0,-1,10176.34921304167,3,2,1562003687.223205,0,0,0,0,0,0,0,0,0,10173.268138,0,-0.779541,75.30736,3232235528,182473588,1,1,0.31,-27.81849,-33.26811,2
1562003687.524126,27,0,0,1562003682.551233,4.634796972318158,-74.15097690637023,2563.758,-1,-1,10,65,-9999,1562003687.511238,-11.1127233505249,11.62163352966309,23.71551513671875,63.48754501342773,70.98151397705078,15,10176.6393915,-0.9156341552734375,0.3451995849609375,-0.0281524658203125,10176.6393915,0.04395946853339294,-0.08463792260380827,0.01264149306238813,10176.6220275,-9.295059204101562,22.26573181152344,-515.062744140625,10176.6343265,-2.215379292398927,-1.499745209601174,-0.3975285926015177,0.0446302704513073,-0.07704906910657883,0.01087724138051271,0.01057565212249756,-0.04140719771385193,0.04288774728775024,1,0.662302553653717,0.1691968739032745,0.5816875100135803,-0.4408712089061737,-0.9196943044662476,0.3871408402919769,-0.06545548886060715,0,0,0,-1,10176.34921304167,3,2,1562003687.223205,0,0,0,0,0,0,0,0,0,10174.211392,0,-0.779541,75.30736,3232235528,182473588,1,1,0.31,-27.81849,-33.32252,2
1562003687.544233,28,0,0,1562003682.551233,4.634796972318158,-74.15097690637023,2563.758,-1,-1,10,65,-9999,1562003687.511238,-11.1127233505249,11.62163352966309,23.71551513671875,63.48754501342773,70.98151397705078,15,10176.6596255,-0.9435272216796875,0.3488311767578125,-0.0432891845703125,10176.6596255,0.01136530626802216,-0.0478333026550222,-0.01995985973792587,10176.6421385,-8.942291259765625,22.17446899414062,-515.1464233398438,10176.6545895,-2.214546896744426,-1.501191115311723,-0.3975279840391484,0.02374203130602837,-0.07463810592889786,-0.01151435077190399,-0.01018929481506348,-0.03983500599861145,0.027626633644104,1,0.6626522541046143,0.1697915494441986,0.5810251235961914,-0.4409904181957245,-0.919788122177124,0.3871402740478516,-0.06412564218044281,0,0,0,-1,10176.34921304167,3,2,1562003687.223205,0,0,0,0,0,0,0,0,0,10174.211392,0,-0.779541,75.30736,3232235528,182473588,1,1,0.31,-27.81849,-33.32252,2
1562003687.565128,29,0,0,1562003682.551233,4.634796972318158,-74.15097690637023,2563.758,-1,-1,10,65,-9999,1562003687.552496,-11.19706344604492,11.55881118774414,23.72955322265625,63.3978385925293,70.89180755615234,15,10176.6798885,-0.954071044921875,0.3587646484375,-0.055816650390625,10176.6798885,-0.03066949574557052,0.03377554052492994,-0.07295330332108561,10176.6622195,-9.233383178710938,22.37905883789062,-515.0732421875,10176.6748535,-2.214725022477781,-1.501840164425238,-0.3968057651035862,-0.03023171983659267,0.01548965740948915,-0.06170295178890228,-0.0324062705039978,-0.03327906131744385,0.01139336824417114,1,0.662783682346344,0.1701288968324661,0.5810039639472961,-0.4406908452510834,-0.9201083779335022,0.3864742815494537,-0.06354789435863495,0,0,0,-1,10176.34921304167,3,2,1562003687.223205,0,0,0,0,0,0,0,0,0,10174.211392,0,-0.779541,75.30736,3232235528,182473588,1,1,0.31,-27.81849,-33.603,2
1562003687.603872,30,0,0,1562003682.551233,4.634796972318158,-74.15097690637023,2563.758,-1,-1,10,65,-9999,1562003687.576845,-11.28759384155273,11.71510124206543,23.647216796875,63.45165634155273,70.94562530517578,15,10176.7001525,-0.945404052734375,0.367156982421875,-0.0557403564453125,10176.7001525,-0.01147476218882441,0.0175678084468167,-0.09324925398857949,10176.6822995,-9.296737670898438,22.673583984375,-515.15673828125,10176.6950865,-2.215504072653947,-1.501603381175217,-0.3951108131086633,-0.02028588019311428,0.02401017397642136,-0.09634614735841751,-0.0305485725402832,-0.0206221342086792,0.008940339088439941,1,0.6626114845275879,0.1704128682613373,0.581616222858429,-0.4400317966938019,-0.920745313167572,0.3849104642868042,-0.06381095200777054,0,0,0,-1,10176.34921304167,3,2,1562003687.223205,0,0,0,0,0,0,0,0,0,10174.211392,0,-0.779541,75.30736,3232235528,182473588,1,1,0.31,-27.81849,-34.27322,2
1562003687.606609,31,0,0,1562003682.551233,4.634796972318158,-74.15097690637023,2563.758,-1,-1,10,65,-9999,1562003687.603207,-11.0162353515625,11.18963623046875,23.5352783203125,63.46968460083008,70.96365356445312,15,10176.7204165,-0.9371337890625,0.3768768310546875,-0.0563201904296875,10176.7204165,0.02521560814919725,-0.03110172679049038,-0.08401580817316576,10176.7024105,-8.942947387695312,21.92494201660156,-515.3108520507812,10176.7153505,-2.215713736836374,-1.501749379649088,-0.3931763888539265,0.01661195047199726,-0.02740907296538353,-0.08934975415468216,-0.01774370670318604,-0.01180171966552734,0.007056653499603271,1,0.6624777317047119,0.1710536926984787,0.5820268988609314,-0.4394412338733673,-0.921495795249939,0.3831243515014648,-0.06372778117656708,0,0,0,-1,10176.34921304167,3,2,1562003687.223205,0,0,0,0,0,0,0,0,0,10174.211392,0,-0.779541,75.30736,3232235528,182473588,1,1,0.31,-27.81849,-34.27322,2
1562003687.625293,32,0,0,1562003682.551233,4.634796972318158,-74.15097690637023,2563.758,-1,-1,10,65,-9999,1562003687.603207,-11.0162353515625,11.18963623046875,23.5352783203125,63.46968460083008,70.96365356445312,15,10176.7406795,-0.9351043701171875,0.378692626953125,-0.0634613037109375,10176.7406795,0.05486990688722957,-0.01654675248488032,-0.1034816515288819,10176.7224915,-9.408126831054688,22.23294067382812,-515.2213745117188,10176.7356135,-2.215216581817631,-1.502342095980927,-0.3913097328886977,0.04222836717963219,-0.03024907037615776,-0.09780848771333694,-0.01232516765594482,-0.005056679248809814,0.001706898212432861,1,0.6624197363853455,0.1720026284456253,0.5821192860603333,-0.4390355050563812,-0.9222451448440552,0.3813994824886322,-0.06323038041591644,0,0,0,-1,10176.34921304167,3,2,1562003687.223205,0,0,0,0,0,0,0,0,0,10174.211392,0,-0.779541,75.30736,3232235528,182473588,1,1,0.31,-27.81849,-32.83714,2
1562003687.645598,33,0,0,1562003682.551233,4.634796972318158,-74.15097690637023,2563.758,-1,-1,10,65,-9999,1562003687.62897,-11.29442691802979,11.3637523651123,23.62701416015625,63.42697525024414,70.92094421386719,15,10176.7609435,-0.927734375,0.3853759765625,-0.060699462890625,10176.7609435,0.04402391703177286,0.004526574904807681,-0.1017287588993918,10176.7425715,-9.232284545898438,22.18177795410156,-515.1495971679688,10176.7558775,-2.214187508141674,-1.502279330646709,-0.3889759055401771,0.05289965122938156,-0.005926951766014099,-0.1121871620416641,-0.009307384490966797,0.003922402858734131,0.003854990005493164,1,0.6620767116546631,0.1731470823287964,0.5824114084243774,-0.4387155473232269,-0.9231266975402832,0.379241019487381,-0.06334903091192245,0,0,0,-1,10176.34921304167,3,2,1562003687.223205,0,0,0,0,0,0,0,0,0,10174.211392,0,-0.779541,75.30736,3232235528,182473588,1,1,0.31,-27.81849,-33.06484,2
1562003687.68853,34,0,0,1562003682.551233,4.634796972318158,-74.15097690637023,2563.758,-1,-1,10,65,-9999,1562003687.678197,-11.38275527954102,11.54223823547363,23.6328125,63.38930130004883,70.88327026367188,15,10176.7812075,-0.921966552734375,0.384429931640625,-0.0583953857421875,10176.7812075,-0.01255147821754345,0.02310771614639954,-0.04045261800997661,10176.7626835,-9.310562133789062,22.13148498535156,-515.19482421875,10176.7761415,-2.213748529140367,-1.502004079863872,-0.3871274555793114,-0.004177483264356852,0.01369468588382006,-0.05616757273674011,-8.20159912109375e-05,0.00876152515411377,0.004828572273254395,1,0.6617706418037415,0.1738793104887009,0.5827996730804443,-0.4383721351623535,-0.9238071441650391,0.3775300085544586,-0.06365120410919189,0,0,0,-1,10176.34921304167,3,2,1562003687.223205,0,0,0,0,0,0,0,0,0,10174.211392,0,-0.779541,75.30736,3232235528,182473588,1,1,0.31,-27.81849,-33.65708,2
1562003687.691768,35,0,0,1562003682.551233,4.634796972318158,-74.15097690637023,2563.758,-1,-1,10,65,-9999,1562003687.678197,-11.38275527954102,11.54223823547363,23.6328125,63.38930130004883,70.88327026367188,15,10176.8014405,-0.9222259521484375,0.3760223388671875,-0.0639801025390625,10176.8014405,-0.0350748968207796,0.02020007686825102,-0.01928927577544392,10176.7827635,-9.3936767578125,22.48426818847656,-515.1806640625,10176.7964045,-2.214269236888888,-1.501870414024485,-0.3864321086214392,-0.03441847488284111,0.01631869748234749,-0.02052196115255356,0.004855632781982422,0.003729194402694702,0.004848062992095947,1,0.6617061495780945,0.1739212274551392,0.5831058621406555,-0.4380456507205963,-0.9240603446960449,0.3768860399723053,-0.06379275768995285,0,0,0,-1,10176.34921304167,3,2,1562003687.223205,0,0,0,0,0,0,0,0,0,10174.211392,0,-0.779541,75.30736,3232235528,182473588,1,1,0.31,-27.81849,-33.65708,2
1562003687.706379,36,0,0,1562003682.551233,4.634796972318158,-74.15097690637023,2563.758,-1,-1,10,65,-9999,1562003687.7044,-11.33797073364258,11.39143753051758,23.8988037109375,63.44411087036133,70.93807983398438,15,10176.8217035,-0.9390716552734375,0.3639678955078125,-0.070709228515625,10176.8217035,-0.01950099708210522,0.01245427283775556,-0.0302252804757453,10176.8028445,-9.364547729492188,22.23822021484375,-514.9086303710938,10176.8166385,-2.21502725204395,-1.501844822051193,-0.3859903868934604,-0.02649796940386295,0.01307843159884214,-0.02810371480882168,-0.003769159317016602,-0.006664812564849854,-0.004394173622131348,1,0.6617196202278137,0.1738194823265076,0.5833740830421448,-0.4377083480358124,-0.9242246150970459,0.3764768540859222,-0.06382786482572556,0,0,0,-1,10176.34921304167,3,2,1562003687.223205,0,0,0,0,0,0,0,0,0,10174.211392,0,-0.779541,75.30736,3232235528,182473588,1,1,0.31,-27.81849,-33.65708,2
1562003687.72658,37,0,0,1562003682.551233,4.634796972318158,-74.15097690637023,2563.758,-1,-1,10,65,-9999,1562003687.7044,-11.33797073364258,11.39143753051758,23.8988037109375,63.44411087036133,70.93807983398438,15,10176.8419675,-0.9608001708984375,0.35577392578125,-0.075042724609375,10176.8419675,-0.01086569724752329,0.02693680916171546,-0.04202414936923236,10176.8229555,-9.189544677734375,22.244384765625,-515.03466796875,10176.8369015,-2.215431140775284,-1.501787836160153,-0.3852455859080302,-0.007856373675167561,0.01932274550199509,-0.04600175470113754,-0.02648830413818359,-0.01688474416732788,-0.01166170835494995,1,0.6616622805595398,0.1739341914653778,0.58363938331604,-0.4373956620693207,-0.9245004653930664,0.3757867217063904,-0.06389984488487244,0,0,0,-1,10176.34921304167,3,2,1562003687.223205,0,0,0,0,0,0,0,0,0,10174.211392,0,-0.779541,75.30736,3232235528,182473588,1,1,0.31,-27.81849,-33.54724,2
1562003687.768267,38,0,0,1562003682.551233,4.634796972318158,-74.15097690637023,2563.758,-1,-1,10,65,-9999,1562003687.755055,-11.30572032928467,11.39443206787109,23.82208251953125,63.5484504699707,71.04241943359375,15,10176.8622315,-0.9698486328125,0.3428192138671875,-0.0831298828125,10176.8622315,-0.05341076092597515,0.0748518708622031,-0.05115932454042216,10176.8430355,-9.178939819335938,22.2178955078125,-514.9039306640625,10176.8571655,-2.216010645442879,-1.501371713484451,-0.3843192918357917,-0.04202978685498238,0.05611271783709526,-0.05313130468130112,-0.0423271656036377,-0.02446430921554565,-0.01653242111206055,1,0.6614968180656433,0.1739759296178818,0.5841001868247986,-0.4370141327381134,-0.9248207211494446,0.3749281764030457,-0.06430867314338684,0,0,0,-1,10176.34921304167,3,2,1562003687.223205,0,0,0,0,0,0,0,0,0,10174.211392,0,-0.779541,75.30736,3232235528,182473588,1,1,0.31,-27.81849,-34.43886,2
1562003687.77177,39,0,0,1562003682.551233,4.634796972318158,-74.15097690637023,2563.758,-1,-1,10,65,-9999,1562003687.755055,-11.30572032928467,11.39443206787109,23.82208251953125,63.5484504699707,71.04241943359375,15,10176.8824955,-0.989471435546875,0.3222503662109375,-0.0993194580078125,10176.8824955,-0.1242697543658225,0.1300512107762755,-0.04378103674035764,10176.8631165,-9.348892211914062,22.27763366699219,-514.9498291015625,10176.8774295,-2.217638394336515,-1.500304490703152,-0.3833588389921254,-0.1045738607645035,0.1089658066630363,-0.05122341588139534,-0.05171161890029907,-0.04247939586639404,-0.02250862121582031,1,0.6612284183502197,0.1735410690307617,0.5850118398666382,-0.436373233795166,-0.9251102805137634,0.3740375936031342,-0.06532095372676849,0,0,0,-1,10176.34921304167,3,2,1562003687.223205,0,0,0,0,0,0,0,0,0,10174.211392,0,-0.779541,75.30736,3232235528,182473588,1,1,0.31,-27.81849,-34.43886,2
1562003687.787433,40,0,0,1562003682.551233,4.634796972318158,-74.15097690637023,2563.758,-1,-1,10,65,-9999,1562003687.779522,-11.20160007476807,11.27737808227539,23.745849609375,63.74713516235352,71.24110412597656,15,10176.9027585,-1.022354125976562,0.301116943359375,-0.1144866943359375,10176.9027585,-0.1954291523766307,0.1944507069921356,-0.03523122437676725,10176.8831965,-9.137420654296875,22.16523742675781,-515.0072021484375,10176.8976925,-2.220832798930738,-1.498628492436444,-0.3827166608063775,-0.1800276190042496,0.176093727350235,-0.0347144789993763,-0.07889622449874878,-0.06114029884338379,-0.03955668210983276,1,0.6609484553337097,0.1723450422286987,0.5863977074623108,-0.4354102313518524,-0.9252389073371887,0.3734419643878937,-0.06688865274190903,0,0,0,-1,10176.34921304167,3,2,1562003687.223205,0,0,0,0,0,0,0,0,0,10174.211392,0,-0.779541,75.30736,3232235528,182473588,1,1,0.31,-27.81849,-33.56152,2
1562003687.807739,41,0,0,1562003682.551233,4.634796972318158,-74.15097690637023,2563.758,-1,-1,10,65,-9999,1562003687.805684,-11.30481147766113,11.23094749450684,23.66314697265625,64.06615447998047,71.56012725830078,15,10176.9229915,-1.060897827148438,0.2855072021484375,-0.1271514892578125,10176.9229915,-0.2029480550822514,0.2440800454863072,-0.09672095078560677,10176.9032775,-9.297256469726562,22.02806091308594,-515.130615234375,10176.9179565,-2.225318092496373,-1.496131855416648,-0.3819400373794957,-0.2104156166315079,0.2342907190322876,-0.08132272213697433,-0.1152456402778625,-0.07941696047782898,-0.05367422103881836,1,0.6605209708213806,0.1705931574106216,0.5883610248565674,-0.4340983629226685,-0.92535799741745,0.372721403837204,-0.06922004371881485,0,0,0,-1,10176.34921304167,3,2,1562003687.223205,0,0,0,0,0,0,0,0,0,10174.211392,0,-0.779541,75.30736,3232235528,182473588,1,1,0.31,-27.81849,-29.96956,2
1562003687.844183,42,0,0,1562003682.551233,4.634796972318158,-74.15097690637023,2563.758,-1,-1,10,65,-9999,1562003687.830209,-11.81491374969482,10.99680328369141,23.74542236328125,64.35176849365234,71.84574127197266,15,10176.9432555,-1.100204467773438,0.285369873046875,-0.1383514404296875,10176.9432555,-0.1123467821655377,0.2437807061797823,-0.230830020114836,10176.9233885,-9.624710083007812,22.00135803222656,-515.3613891601562,10176.9382205,-2.229613441546255,-1.492927988803923,-0.3796103839485245,-0.147347167134285,0.23624387383461,-0.1922215521335602,-0.1510013341903687,-0.09080398082733154,-0.06249862909317017,1,0.659705638885498,0.1693003177642822,0.5908371210098267,-0.4324780702590942,-0.9259945154190063,0.3705586194992065,-0.07225174456834793,0,0,0,-1,10176.34921304167,3,2,1562003687.223205,0,0,0,0,0,0,0,0,0,10174.211392,0,-0.779541,75.30736,3232235528,182473588,1,1,0.31,-27.81849,-30.50185,2
1562003687.84882,43,0,0,1562003682.551233,4.634796972318158,-74.15097690637023,2563.758,-1,-1,10,65,-9999,1562003687.830209,-11.81491374969482,10.99680328369141,23.74542236328125,64.35176849365234,71.84574127197266,15,10176.9635195,-1.12384033203125,0.2948150634765625,-0.13128662109375,10176.9635195,0.1228510884531372,0.2242136627026431,-0.3419264481485815,10176.9434695,-9.887069702148438,21.86732482910156,-515.0272216796875,10176.9584535,-2.231371693265919,-1.488688291277655,-0.3742371699414715,0.05463390424847603,0.240240216255188,-0.3294363915920258,-0.1915202140808105,-0.07758349180221558,-0.06045585870742798,1,0.6580525040626526,0.169697642326355,0.593733012676239,-0.430871993303299,-0.9276509284973145,0.3655626177787781,-0.07633922249078751,0,0,0,-1,10176.34921304167,3,2,1562003687.223205,0,0,0,0,0,0,0,0,0,10174.211392,0,-0.779541,75.30736,3232235528,182473588,1,1,0.31,-27.81849,-31.02646,2
1562003687.868995,44,0,0,1562003682.551233,4.634796972318158,-74.15097690637023,2563.758,-1,-1,10,65,-9999,1562003687.856366,-12.07857799530029,10.86018753051758,23.7010498046875,64.31568145751953,71.80965423583984,15,10176.9837825,-1.153182983398438,0.344635009765625,-0.1222686767578125,10176.9837825,0.3928586050480199,0.2011139360395138,-0.5483390094929169,10176.9836605,-10.42930603027344,22.13148498535156,-515.3255615234375,10176.9787165,-2.228003156389915,-1.483345979437533,-0.3660836910088814,0.3218267261981964,0.188723236322403,-0.484537273645401,-0.1990277767181396,-0.04559874534606934,-0.04830074310302734,1,0.655331015586853,0.1725267767906189,0.5964518189430237,-0.4301407933235168,-0.9301683902740479,0.3579613864421844,-0.08155154436826706,0,0,0,-1,10176.34921304167,3,2,1562003687.223205,0,0,0,0,0,0,0,0,0,10174.211392,0,-0.779541,75.30736,3232235528,182473588,1,1,0.31,-27.81849,-31.02646,2
1562003687.88857,45,0,0,1562003682.551233,4.634796972318158,-74.15097690637023,2563.758,-1,-1,10,65,-9999,1562003687.880704,-12.34195327758789,11.10915756225586,23.54736328125,63.79795455932617,71.29192352294922,15,10177.0040465,-1.167129516601562,0.3543548583984375,-0.08660888671875,10177.0040465,0.6937931450658837,0.1348180028114083,-0.7485589223544912,10177.0037415,-10.37744140625,21.94583129882812,-515.6063232421875,10176.9989805,-2.219183835575237,-1.476464926729613,-0.3528963778734655,0.6141307353973389,0.162777915596962,-0.7211469411849976,-0.2339025139808655,0.008295238018035889,-0.008262097835540771,1,0.6510894298553467,0.1785749942064285,0.5995213985443115,-0.4298458695411682,-0.934203565120697,0.3456171452999115,-0.08838704973459244,0,0,0,-1,10176.34921304167,3,2,1562003687.223205,0,0,0,0,0,0,0,0,0,10174.211392,0,-0.779541,75.30736,3232235528,182473588,1,1,0.31,-27.81849,-31.35095,2
1562003687.924621,46,0,0,1562003682.551233,4.634796972318158,-74.15097690637023,2563.758,-1,-1,10,65,-9999,1562003687.906812,-12.37821292877197,11.05972290039062,23.2935791015625,62.74182510375977,70.23579406738281,15,10177.0243105,-1.1876220703125,0.35711669921875,-0.08624267578125,10177.0243105,0.9992697063228777,-0.1751172227425963,-0.7485594549867092,10177.0238215,-10.77972412109375,22.47956848144531,-515.542724609375,10177.0192445,-2.204218039826574,-1.470154248691365,-0.336136858449498,0.928913414478302,-0.08231174200773239,-0.7578420639038086,-0.2336841225624084,0.02944082021713257,0.01077353954315186,1,0.6459433436393738,0.1879693567752838,0.6017869710922241,-0.4304383993148804,-0.9392590522766113,0.3298426270484924,-0.09484943747520447,0,0,0,-1,10176.34921304167,3,2,1562003687.223205,0,0,0,0,0,0,0,0,0,10174.211392,0,-0.779541,75.30736,3232235528,182473588,1,1,0.31,-27.81849,-32.44803,2
1562003687.929236,47,0,0,1562003682.551233,4.634796972318158,-74.15097690637023,2563.758,-1,-1,10,65,-9999,1562003687.906812,-12.37821292877197,11.05972290039062,23.2935791015625,62.74182510375977,70.23579406738281,15,10177.0445735,-1.248367309570312,0.3319244384765625,-0.09649658203125,10177.0445735,1.227994231279897,-0.5640929389212807,-0.7660047580233823,10177.0439335,-10.9998779296875,22.85488891601562,-515.8211669921875,10177.0395075,-2.183223840890859,-1.469067939228556,-0.3188506903861581,1.183826804161072,-0.4793160855770111,-0.752056896686554,-0.2682799100875854,0.03286862373352051,0.006819546222686768,1,0.6415303349494934,0.2005533427000046,0.6011481881141663,-0.4322476387023926,-0.9446870088577271,0.3134754002094269,-0.09643436968326569,0,0,0,-1,10176.34921304167,3,2,1562003687.223205,0,0,0,0,0,0,0,0,0,10174.211392,0,-0.779541,75.30736,3232235528,182473588,1,1,0.31,-27.81849,-32.44803,2
1562003687.949347,48,0,0,1562003682.551233,4.634796972318158,-74.15097690637023,2563.758,-1,-1,10,65,-9999,1562003687.932682,-12.98279762268066,11.90478324890137,23.03533935546875,61.16735458374023,68.66132354736328,15,10177.0648075,-1.334625244140625,0.3292999267578125,-0.115447998046875,10177.0648075,1.278332236940139,-0.7352694821988868,-0.7741082245882753,10177.0640135,-10.53890991210938,23.35020446777344,-516.1386108398438,10177.0597715,-2.158342107912904,-1.474348578503176,-0.3006727498578782,1.289150238037109,-0.7430979609489441,-0.7837533354759216,-0.3347324728965759,0.03077197074890137,-0.009141921997070312,1,0.6382486820220947,0.215985119342804,0.5977997183799744,-0.434309184551239,-0.9506984353065491,0.2961628437042236,-0.09197809547185898,0,0,0,-1,10176.34921304167,3,2,1562003687.223205,0,0,0,0,0,0,0,0,0,10174.211392,0,-0.779541,75.30736,3232235528,182473588,1,1,0.31,-27.81849,-33.05576,2
1562003687.970246,49,0,0,1562003682.551233,4.634796972318158,-74.15097690637023,2563.758,-1,-1,10,65,-9999,1562003687.959585,-12.61186981201172,12.30353927612305,22.712890625,59.36677169799805,66.86074066162109,15,10177.0850705,-1.417922973632812,0.3601531982421875,-0.1776885986328125,10177.0850705,1.008348955111176,-0.4154270310736784,-0.7930342451910325,10177.0841245,-10.44192504882812,23.33247375488281,-516.2788696289062,10177.0800045,-2.134163595272214,-1.481087392857678,-0.2827371350086353,1.099463105201721,-0.5334416627883911,-0.7815287709236145,-0.4272634387016296,0.06091964244842529,-0.05882006883621216,1,0.63519287109375,0.2313314080238342,0.594092845916748,-0.4359697997570038,-0.9564340710639954,0.2789851427078247,-0.08603159338235855,0,0,0,-1,10176.34921304167,3,2,1562003687.223205,0,0,0,0,0,0,0,0,0,10174.211392,0,-0.779541,75.30736,3232235528,182473588,1,1,0.31,-27.81849,-33.30278,2
1562003687.999426,50,0,0,1562003682.551233,4.634796972318158,-74.15097690637023,2563.758,-1,-1,10,65,-9999,1562003687.983443,-12.49585819244385,12.42416954040527,22.570068359375,57.95320510864258,65.44717407226562,15,10177.1053345,-1.458648681640625,0.39410400390625,-0.23193359375,10177.1053345,0.7012414740026174,0.1167580421951449,-0.914280512771288,10177.1042055,-10.73330688476562,23.56201171875,-516.3902587890625,10177.1002685,-2.116389983233297,-1.482054968530327,-0.2643928861723443,0.757659375667572,-0.01630640029907227,-0.8878788948059082,-0.4803193211555481,0.1158892214298248,-0.1274063587188721,1,0.6308454275131226,0.2434366047382355,0.5937010049819946,-0.4362244606018066,-0.9614531397819519,0.2613233029842377,-0.08554533123970032,0,0,0,-1,10176.34921304167,3,2,1562003687.223205,0,0,0,0,0,0,0,0,0,10174.211392,0,-0.779541,75.30736,3232235528,182473588,1,1,0.31,-27.30856,-33.41533,2
1562003688.010173,51,0,0,1562003682.551233,4.634796972318158,-74.15097690637023,2563.758,-1,-1,10,65,-9999,1562003688.008264,-12.68628215789795,12.71080780029297,22.44793701171875,57.08011245727539,64.57408142089844,15,10177.1255985,-1.47711181640625,0.4311370849609375,-0.25250244140625,10177.1255985,0.5851151336180392,0.4943029383429912,-0.8964495840087715,10177.1242855,-10.97955322265625,23.87150573730469,-516.8977661132812,10177.1205325,-2.104325001131091,-1.474689332758157,-0.2445669082371349,0.5964867472648621,0.4073058366775513,-0.9213916063308716,-0.5079289078712463,0.1683253049850464,-0.1492365002632141,1,0.6243108510971069,0.2523572146892548,0.5974582433700562,-0.4354256689548492,-0.9657649397850037,0.242136150598526,-0.09310359507799149,0,0,0,-1,10176.34921304167,3,2,1562003687.223205,0,0,0,0,0,0,0,0,0,10174.211392,0,-0.779541,75.30736,3232235528,182473588,1,1,0.31,-27.30856,-33.41533,2
1562003688.030862,52,0,0,1562003682.551233,4.634796972318158,-74.15097690637023,2563.758,-1,-1,10,65,-9999,1562003688.008264,-12.68628215789795,12.71080780029297,22.44793701171875,57.08011245727539,64.57408142089844,15,10177.1458615,-1.448623657226562,0.46636962890625,-0.2721099853515625,10177.1458615,0.5811353056850248,0.7637216300208574,-0.7972162070507839,10177.1443965,-11.72727966308594,23.86964416503906,-516.9872436523438,10177.1407955,-2.094196042915265,-1.461039365052863,-0.2259377866318824,0.5724703669548035,0.6903141140937805,-0.805097222328186,-0.4971306920051575,0.2284331917762756,-0.1521278619766235,1,0.6161339282989502,0.2588485777378082,0.6032752990722656,-0.4352416694164276,-0.9687201380729675,0.2240204066038132,-0.1067527905106544,0,0,0,-1,10176.34921304167,3,2,1562003687.223205,0,0,0,0,0,0,0,0,0,10174.211392,0,-0.779541,75.30736,3232235528,182473588,1,1,0.31,-27.30856,-32.41363,2
1562003688.050784,53,0,0,1562003682.551233,4.634796972318158,-74.15097690637023,2563.758,-1,-1,10,65,-9999,1562003688.032694,-13.59745216369629,12.99240303039551,21.87237548828125,56.36374664306641,63.85771560668945,15,10177.1661255,-1.36224365234375,0.458526611328125,-0.2529754638671875,10177.1661255,0.6609198835182727,1.07731364206765,-0.8484365179801689,10177.1644775,-12.54167175292969,23.80058288574219,-517.662109375,10177.1610595,-2.083713945037162,-1.441840969595203,-0.2080526318027248,0.6494490504264832,0.992195188999176,-0.8426606059074402,-0.4436296224594116,0.2596010863780975,-0.1441029906272888,1,0.6061535477638245,0.2639419734477997,0.6104485392570496,-0.4361938536167145,-0.9703108072280884,0.2065549194812775,-0.1258250176906586,0,0,0,-1,10176.34921304167,3,2,1562003687.223205,0,0,0,0,0,0,0,0,0,10174.211392,0,-0.779541,75.30736,3232235528,182473588,1,1,0.31,-27.30856,-33.1841,2
1562003688.078855,54,0,0,1562003682.551233,4.634796972318158,-74.15097690637023,2563.758,-1,-1,10,65,-9999,1562003688.058985,-14.36874866485596,12.9797477722168,21.25262451171875,55.59090042114258,63.08486938476562,15,10177.1863585,-1.249832153320312,0.453033447265625,-0.2643585205078125,10177.1863585,0.53714947185684,1.346753905350346,-0.7091108487076925,10177.1845585,-13.07839965820312,24.18998718261719,-517.933349609375,10177.1813235,-2.073077461732104,-1.416430494984254,-0.1895378273940762,0.5864599347114563,1.294300436973572,-0.7752466797828674,-0.3385463953018188,0.269892692565918,-0.1052408218383789,1,0.5939180254936218,0.2678831517696381,0.6194058656692505,-0.4379912614822388,-0.9704135656356812,0.1884050220251083,-0.1509999930858612,0,0,0,-1,10176.34921304167,3,2,1562003687.223205,0,0,0,0,0,0,0,0,0,10174.211392,0,-0.779541,75.30736,3232235528,182473588,1,1,0.31,-27.30856,-31.5824,2
1562003688.091275,55,0,0,1562003682.551233,4.634796972318158,-74.15097690637023,2563.758,-1,-1,10,65,-9999,1562003688.083429,-14.94105243682861,13.22722816467285,20.92742919921875,54.98188018798828,62.47584915161133,15,10177.2066225,-1.116622924804688,0.44970703125,-0.287261962890625,10177.2066225,0.3174474703569001,1.327203906104183,-0.3649348283863211,10177.2046695,-13.96974182128906,24.17779541015625,-518.7503051757812,10177.2015865,-2.065538128070045,-1.387587016901402,-0.1754166289470221,0.3637357652187347,1.359834432601929,-0.4548247158527374,-0.2158156633377075,0.2717859447002411,-0.0939403772354126,1,0.5815166831016541,0.268594890832901,0.6289653182029724,-0.440565288066864,-0.9681748151779175,0.1745183914899826,-0.1793902665376663,0,0,0,-1,10176.34921304167,3,2,1562003687.223205,0,0,0,0,0,0,0,0,0,10174.211392,0,-0.779541,75.30736,3232235528,182473588,1,1,0.31,-27.30856,-32.24889,2
1562003688.11153,56,0,0,1562003682.551233,4.634796972318158,-74.15097690637023,2563.758,-1,-1,10,65,-9999,1562003688.109594,-16.47611808776855,13.17709541320801,20.17535400390625,54.62665557861328,62.12062454223633,15,10177.2268855,-0.9617462158203125,0.4403076171875,-0.3003692626953125,10177.2268855,0.3219514083924422,1.120402789556805,-0.1012467267420874,10177.2247495,-14.60084533691406,24.03475952148438,-518.6661376953125,10177.2218195,-2.060684894597014,-1.361086028208222,-0.1684606139250558,0.2823575437068939,1.165163516998291,-0.1494488269090652,-0.07449650764465332,0.2878098785877228,-0.09356796741485596,1,0.5712679028511047,0.2665298581123352,0.6368566751480103,-0.4438789486885071,-0.9642455577850342,0.167664960026741,-0.205229640007019,0,0,0,-1,10176.34921304167,3,2,1562003687.223205,0,0,0,0,0,0,0,0,0,10174.211392,0,-0.779541,75.30736,3232235528,182473588,1,1,0.31,-27.30856,-32.78644,2
1562003688.131864,57,0,0,1562003682.551233,4.634796972318158,-74.15097690637023,2563.758,-1,-1,10,65,-9999,1562003688.109594,-16.47611808776855,13.17709541320801,20.17535400390625,54.62665557861328,62.12062454223633,15,10177.2471495,-0.7782745361328125,0.3746337890625,-0.24798583984375,10177.2471495,0.5655552806758433,0.9996665173252995,-0.04206516205001958,10177.2448305,-15.04518127441406,24.23956298828125,-519.522705078125,10177.2420835,-2.053300906060963,-1.338769798944118,-0.1648743039661332,0.5297932028770447,0.8933072090148926,-0.07136041671037674,0.08360093832015991,0.246485710144043,-0.05660015344619751,1,0.5625106692314148,0.2648883163928986,0.6422111988067627,-0.4483086764812469,-0.9600047469139099,0.1641283482313156,-0.22683185338974,0,0,0,-1,10176.34921304167,3,2,1562003687.223205,0,0,0,0,0,0,0,0,0,10174.211392,0,-0.779541,75.30736,3232235528,182473588,1,1,0.31,-27.30856,-33.10816,2
1562003688.164557,58,0,0,1562003682.551233,4.634796972318158,-74.15097690637023,2563.758,-1,-1,10,65,-9999,1562003688.160745,-17.23301696777344,13.57334518432617,18.89752197265625,53.16826248168945,60.6622314453125,15,10177.2674135,-0.6512908935546875,0.3163604736328125,-0.2373809814453125,10177.2674135,0.6207290542434508,1.146929738226757,-0.01445989945469423,10177.2649415,-15.36009216308594,24.47218322753906,-520.0158081054688,10177.2623475,-2.042038053056719,-1.316163611033126,-0.1614773176869158,0.6003102660179138,1.11321747303009,-0.01301188766956329,0.2232173085212708,0.1791740953922272,0.008592367172241211,1,0.5531164407730103,0.2641129493713379,0.6466109156608582,-0.4540934562683105,-0.9551661610603333,0.1607764810323715,-0.248613104224205,0,0,0,-1,10176.34921304167,3,2,1562003687.223205,0,0,0,0,0,0,0,0,0,10174.211392,0,-0.779541,75.30736,3232235528,182473588,1,1,0.31,-27.06985,-33.34087,2
1562003688.172213,59,0,0,1562003682.551233,4.634796972318158,-74.15097690637023,2563.758,-1,-1,10,65,-9999,1562003688.160745,-17.23301696777344,13.57334518432617,18.89752197265625,53.16826248168945,60.6622314453125,15,10177.2876765,-0.5344390869140625,0.23333740234375,-0.1964111328125,10177.2876765,0.6570851978646676,1.201966358998226,0.06751725890401587,10177.2850215,-15.71621704101562,24.74703979492188,-520.67431640625,10177.2826105,-2.029429859747307,-1.290781568665495,-0.1578874127566406,0.6656945943832397,1.180886745452881,0.02460579574108124,0.3703315258026123,0.114892989397049,0.06771677732467651,1,0.5425452589988708,0.2630181014537811,0.6513469815254211,-0.4606660306453705,-0.9490974545478821,0.157232254743576,-0.272932231426239,0,0,0,-1,10176.34921304167,3,2,1562003687.223205,0,0,0,0,0,0,0,0,0,10174.211392,0,-0.779541,75.30736,3232235528,182473588,1,1,0.31,-27.06985,-33.34087,2
1562003688.19258,60,0,0,1562003682.551233,4.634796972318158,-74.15097690637023,2563.758,-1,-1,10,65,-9999,1562003688.184605,-17.62172698974609,13.87825584411621,18.28326416015625,52.22954559326172,59.72351455688477,15,10177.3079405,-0.4492950439453125,0.1922760009765625,-0.137664794921875,10177.3079405,0.6126117392408893,1.253811447519343,0.1929939578758622,10177.3051025,-16.09832763671875,24.95187377929688,-521.00341796875,10177.3028745,-2.016329316663292,-1.263867960447505,-0.1561160211405237,0.6058323383331299,1.280748128890991,0.1650553196668625,0.4422223567962646,0.05662977695465088,0.1172747611999512,1,0.5316925048828125,0.2609104514122009,0.6558598279953003,-0.4680562615394592,-0.9416730403900146,0.1554826498031616,-0.2984576225280762,0,0,0,-1,10176.34921304167,3,2,1562003687.223205,0,0,0,0,0,0,0,0,0,10174.211392,0,-0.779541,75.30736,3232235528,182473588,1,1,0.31,-27.06985,-33.64716,2
1562003688.212869,61,0,0,1562003682.551233,4.634796972318158,-74.15097690637023,2563.758,-1,-1,10,65,-9999,1562003688.210778,-18.27013778686523,14.3031063079834,17.33843994140625,51.23410797119141,58.72807693481445,15,10177.3281735,-0.4126739501953125,0.138641357421875,-0.0565185546875,10177.3281735,0.7275577666303443,0.64583946752959,0.2942734414993576,10177.3252135,-16.283203125,25.24440002441406,-521.5546875,10177.3231385,-2.002392115964323,-1.239171502246584,-0.1563664376780262,0.6966812610626221,0.8188745379447937,0.2865250110626221,0.5238379240036011,0.007416963577270508,0.2370433807373047,1,0.5218130350112915,0.258664608001709,0.6590293645858765,-0.4759033620357513,-0.9339789152145386,0.1557300090789795,-0.3216075599193573,0,0,0,-1,10177.3216735,3,2,1562003688.195666,0,0,0,0,0,0,0,0,0,10174.211392,0,-0.779541,75.30736,3232235528,182473588,1,1,0.31,-27.06985,-33.98533,2
1562003688.245134,62,0,0,1562003682.551233,4.634796972318158,-74.15097690637023,2563.758,-1,-1,10,65,-9999,1562003688.235414,-18.4776725769043,14.64537239074707,16.96466064453125,50.02872467041016,57.5226936340332,15,10177.3484375,-0.3654022216796875,0.0970916748046875,-0.011383056640625,10177.3484375,0.8855535267248212,-0.0150873402075169,0.1097856201452085,10177.3452945,-16.49130249023438,25.52517700195312,-521.8994750976562,10177.3434015,-1.985957521012589,-1.22695631105099,-0.1561323237506828,0.8302803635597229,0.1489877551794052,0.1726466566324234,0.5330730676651001,-0.03396248817443848,0.3033564686775208,1,0.515611469745636,0.2600820362567902,0.6583011746406555,-0.4828474521636963,-0.9300151467323303,0.155498743057251,-0.3330042958259583,0,0,0,-1,10177.3216735,3,2,1562003688.195666,0,0,0,0,0,0,0,0,0,10174.211392,0,-0.779541,75.30736,3232235528,182473588,1,1,0.31,-27.06985,-35.17404,2
1562003688.253325,63,0,0,1562003682.551233,4.634796972318158,-74.15097690637023,2563.758,-1,-1,10,65,-9999,1562003688.235414,-18.4776725769043,14.64537239074707,16.96466064453125,50.02872467041016,57.5226936340332,15,10177.3687015,-0.4027099609375,0.0467071533203125,-0.01214599609375,10177.3687015,1.213475742281221,-0.4641780590403419,-0.05694903675025443,10177.3653745,-16.36422729492188,25.95967102050781,-522.17724609375,10177.3636355,-1.967059100849253,-1.227338711046431,-0.150462999247953,1.129623293876648,-0.4115853011608124,-0.04892275109887123,0.573932409286499,-0.08225372433662415,0.3137751221656799,1,0.512079656124115,0.2670287489891052,0.6546607613563538,-0.4877389669418335,-0.930957555770874,0.1498959213495255,-0.3329401314258575,0,0,0,-1,10177.3216735,3,2,1562003688.195666,0,0,0,0,0,0,0,0,0,10174.211392,0,-0.779541,75.30736,3232235528,182473588,1,1,0.31,-27.06985,-35.17404,2
1562003688.273628,64,0,0,1562003682.551233,4.634796972318158,-74.15097690637023,2563.758,-1,-1,10,65,-9999,1562003688.262109,-18.40073776245117,15.02177810668945,16.6707763671875,48.50589752197266,55.9998664855957,15,10177.3889645,-0.482330322265625,0.03204345703125,-0.0298919677734375,10177.3889645,1.228188375723364,-0.5035204051918645,0.03417101994680671,10177.3854855,-15.89492797851562,26.62176513671875,-522.3607177734375,10177.3838985,-1.943312583085114,-1.233648712526987,-0.1411265638009633,1.28463077545166,-0.5040824413299561,-0.01158150378614664,0.4813475608825684,-0.1001465022563934,0.3143548369407654,1,0.5089383125305176,0.2778989672660828,0.6489627957344055,-0.4925456941127777,-0.9343199133872986,0.1406585723161697,-0.3275079131126404,0,0,0,-1,10177.3216735,3,2,1562003688.195666,0,0,0,0,0,0,0,0,0,10174.211392,0,-0.779541,75.30736,3232235528,182473588,1,1,0.31,-27.06985,-33.20243,2
1562003688.293879,65,0,0,1562003682.551233,4.634796972318158,-74.15097690637023,2563.758,-1,-1,10,65,-9999,1562003688.28587,-18.00432205200195,15.6397762298584,16.43011474609375,46.84347534179688,54.33744430541992,15,10177.4092285,-0.578155517578125,0.0231170654296875,-0.07745361328125,10177.4092285,0.6939326947070039,-0.3229913727981181,0.2526359831204048,10177.4055665,-15.72024536132812,26.83262634277344,-522.4627685546875,10177.4041625,-1.921310780413128,-1.240503713968848,-0.1354584866155004,0.8552722334861755,-0.4143350124359131,0.1996537744998932,0.4146076440811157,-0.1142621338367462,0.262739896774292,1,0.5068281292915344,0.2871424555778503,0.642839789390564,-0.497424840927124,-0.9372821450233459,0.1350446045398712,-0.3213489055633545,0,0,0,-1,10177.3216735,3,2,1562003688.195666,0,0,0,0,0,0,0,0,0,10174.211392,0,-0.779541,75.30736,3232235528,182473588,1,1,0.31,-27.06985,-33.54391,2
1562003688.327956,66,0,0,1562003682.551233,4.634796972318158,-74.15097690637023,2563.758,-1,-1,10,65,-9999,1562003688.312148,-17.65026473999023,16.40326309204102,16.07000732421875,45.96845626831055,53.46242523193359,15,10177.429493625,-0.6685943603515625,0.0188751220703125,-0.10052490234375,10177.429493625,0.05500759231558666,0.02655278133252604,0.3091179014154593,10177.425647625,-15.54161071777344,27.38774108886719,-522.784912109375,10177.424427625,-1.909339637560925,-1.243699738233584,-0.1373019721797717,0.1978083103895187,-0.06293968111276627,0.312601625919342,0.3015772104263306,-0.114867776632309,0.2356600761413574,1,0.5065242648124695,0.2903404533863068,0.6386917233467102,-0.5012070536613464,-0.9380670785903931,0.1368709802627563,-0.3182711899280548,0,0,0,-1,10177.3216735,3,2,1562003688.195666,0,0,0,0,0,0,0,0,0,10174.211392,0,-0.779541,75.30736,3232235528,182473588,1,1,0.31,-27.06985,-33.39644,2
1562003688.334986,67,0,0,1562003682.551233,4.634796972318158,-74.15097690637023,2563.758,-1,-1,10,65,-9999,1562003688.312148,-17.65026473999023,16.40326309204102,16.07000732421875,45.96845626831055,53.46242523193359,15,10177.449756625,-0.6986846923828125,0.03460693359375,-0.1237030029296875,10177.449756625,-0.270457857135215,0.1454525376763127,0.2582539214399269,10177.445758625,-15.79629516601562,27.0882568359375,-522.84716796875,10177.444690625,-1.908357635969117,-1.242072045496066,-0.143146725359302,-0.2283901274204254,0.1506913751363754,0.2582968473434448,0.2550883293151855,-0.1196328401565552,0.2044979333877563,1,0.5071356892585754,0.2881777584552765,0.6377407312393188,-0.503044605255127,-0.936774730682373,0.1426583528518677,-0.3195339441299438,0,0,0,-1,10177.3216735,3,2,1562003688.195666,0,0,0,0,0,0,0,0,0,10174.211392,0,-0.779541,75.30736,3232235528,182473588,1,1,0.31,-27.06985,-33.39644,2
1562003688.354641,68,0,0,1562003682.551233,4.634796972318158,-74.15097690637023,2563.758,-1,-1,10,65,-9999,1562003688.337021,-17.72971153259277,16.29015350341797,15.998046875,46.00865936279297,53.50262832641602,15,10177.469989625,-0.7480316162109375,0.0540924072265625,-0.1597747802734375,10177.469989625,-0.2773929949298904,-0.02658660347837004,0.340464106394019,10177.465839625,-15.71377563476562,27.08175659179688,-522.5879516601562,10177.464954625,-1.911945442978506,-1.240529480328919,-0.1501398149649878,-0.2834360599517822,0.02366817928850651,0.3059317469596863,0.2101093530654907,-0.1017400622367859,0.1823567152023315,1,0.5086743235588074,0.2844764590263367,0.6376939415931702,-0.5036564469337463,-0.935313880443573,0.1495763808488846,-0.3206471502780914,0,0,0,-1,10177.3216735,3,2,1562003688.195666,0,0,0,0,0,0,0,0,0,10174.211392,0,-0.779541,75.30736,3232235528,182473588,1,1,0.31,-27.06985,-33.09408,2
1562003688.374909,69,0,0,1562003682.551233,4.634796972318158,-74.15097690637023,2563.758,-1,-1,10,65,-9999,1562003688.362784,-17.68072509765625,16.25452613830566,16.12371826171875,46.25538635253906,53.74935531616211,15,10177.490253625,-0.8252716064453125,0.044464111328125,-0.1988067626953125,10177.490253625,-0.2933123066619481,-0.1210896737081588,0.399248593767556,10177.485920625,-15.23902893066406,27.21096801757812,-522.67138671875,10177.485187625,-1.914950740941104,-1.242421871314296,-0.1588594344498367,-0.2802522778511047,-0.1311450898647308,0.3987743258476257,0.147188663482666,-0.1048015654087067,0.1339040994644165,1,0.5115794539451599,0.2811841368675232,0.6362881660461426,-0.5043404102325439,-0.9346489310264587,0.1581921130418777,-0.3184438943862915,0,0,0,-1,10177.3216735,3,2,1562003688.195666,0,0,0,0,0,0,0,0,0,10174.211392,0,-0.779541,75.30736,3232235528,182473588,1,1,0.31,-27.06985,-31.70543,2
1562003688.406194,70,0,0,1562003682.551233,4.634796972318158,-74.15097690637023,2563.758,-1,-1,10,65,-9999,1562003688.387236,-17.35563659667969,16.32803344726562,16.10931396484375,46.49374389648438,53.98771286010742,15,10177.510517625,-0.88568115234375,0.04315185546875,-0.236541748046875,10177.510517625,-0.3957886148793251,0.01756221580852754,0.306049939839688,10177.506031625,-15.23638916015625,27.30250549316406,-522.5335083007812,10177.505451625,-1.918728444112128,-1.244953800443411,-0.1682204498788384,-0.3804209530353546,-0.0274227000772953,0.3370997607707977,0.07461822032928467,-0.130440890789032,0.1007601022720337,1,0.5149089694023132,0.2776228785514832,0.6347752809524536,-0.5048314332962036,-0.9340084791183472,0.1674281805753708,-0.3155885934829712,0,0,0,-1,10177.3216735,3,2,1562003688.195666,0,0,0,0,0,0,0,0,0,10174.211392,0,-0.779541,75.30736,3232235528,182473588,1,1,0.31,-27.06985,-32.51195,2
1562003688.415513,71,0,0,1562003682.551233,4.634796972318158,-74.15097690637023,2563.758,-1,-1,10,65,-9999,1562003688.41347,-17.35174942016602,16.36527061462402,16.33837890625,46.86776351928711,54.36173248291016,15,10177.530780625,-0.873138427734375,0.07647705078125,-0.2089691162109375,10177.530780625,-0.1565105151545397,-0.1712609654841616,0.08582782297885568,10177.526111625,-15.37834167480469,27.12892150878906,-522.4890747070312,10177.525715625,-1.924124539607232,-1.246063352354929,-0.1752986288877509,-0.2551788687705994,-0.0865938812494278,0.1348979473114014,0.04333418607711792,-0.1127109229564667,0.07547283172607422,1,0.5175011157989502,0.2740612328052521,0.6344701051712036,-0.5045105218887329,-0.9332115054130554,0.174402192234993,-0.3141660690307617,0,0,0,-1,10177.3216735,3,2,1562003688.195666,0,0,0,0,0,0,0,0,0,10174.211392,0,-0.779541,75.30736,3232235528,182473588,1,1,0.31,-27.06985,-32.51195,2
1562003688.436199,72,0,0,1562003682.551233,4.634796972318158,-74.15097690637023,2563.758,-1,-1,10,65,-9999,1562003688.41347,-17.35174942016602,16.36527061462402,16.33837890625,46.86776351928711,54.36173248291016,15,10177.551044625,-0.92596435546875,0.0919189453125,-0.16876220703125,10177.551044625,0.1504126752065853,-0.417331457569194,-0.03655508175464564,10177.546192625,-15.02207946777344,27.57780456542969,-521.9098510742188,10177.545978625,-1.924983972914988,-1.251495271480396,-0.1765717080332515,0.1132098138332367,-0.4050853252410889,-0.01994702592492104,0.04678380489349365,-0.08721569180488586,0.1347517371177673,1,0.5196075439453125,0.2747668325901031,0.6330292224884033,-0.5037710666656494,-0.9346926808357239,0.1756556183099747,-0.3090223670005798,0,0,0,-1,10177.3216735,3,2,1562003688.195666,0,0,0,0,0,0,0,0,0,10174.211392,0,-0.779541,75.30736,3232235528,182473588,1,1,0.31,-27.06985,-32.98122,2
1562003688.456127,73,0,0,1562003682.551233,4.634796972318158,-74.15097690637023,2563.758,-1,-1,10,65,-9999,1562003688.437963,-17.08041000366211,16.63754844665527,16.78826904296875,46.84681701660156,54.34078598022461,15,10177.571308625,-0.96990966796875,0.0992889404296875,-0.2152099609375,10177.571308625,0.03216139858823291,-0.1999344219927177,-0.07333679851805702,10177.566272625,-14.83746337890625,27.32005310058594,-521.941650390625,10177.566242625,-1.922753002512395,-1.258791950873887,-0.1747289236001666,0.08131552487611771,-0.2794498801231384,-0.07333222031593323,-0.02099251747131348,-0.0804421603679657,0.1100625991821289,1,0.5212190747261047,0.2778205275535583,0.6309308409690857,-0.5030632019042969,-0.9372289180755615,0.173841193318367,-0.3022928535938263,0,0,0,-1,10177.3216735,3,2,1562003688.195666,0,0,0,0,0,0,0,0,0,10175.154569,0,-0.5759277,75.30544,3232235528,182473588,1,1,0.31,-27.06985,-33.27205,2
1562003688.494153,74,0,0,1562003682.551233,4.634796972318158,-74.15097690637023,2563.758,-1,-1,10,65,-9999,1562003688.468889,-16.89355087280273,16.4755802154541,16.81768798828125,46.77069473266602,54.26466369628906,15,10177.591541625,-0.961944580078125,0.1251220703125,-0.2271270751953125,10177.591541625,-0.1032417007146658,0.03318778087234945,0.009039567688055958,10177.586383625,-15.00950622558594,27.38435363769531,-522.10693359375,10177.586506625,-1.923341002939372,-1.261658670085205,-0.1735039649698024,-0.07891649007797241,-0.009676726534962654,-0.03348520770668983,-0.0306086540222168,-0.0580870509147644,0.07206928730010986,1,0.5219485759735107,0.2788099050521851,0.6305720806121826,-0.5022087097167969,-0.9382939338684082,0.1726347506046295,-0.2996694445610046,0,0,0,-1,10177.3216735,3,2,1562003688.195666,0,0,0,0,0,0,0,0,0,10175.154569,0,-0.5759277,75.30544,3232235528,182473588,1,1,0.31,-27.06985,-33.97176,2
1562003688.498432,75,0,0,1562003682.551233,4.634796972318158,-74.15097690637023,2563.758,-1,-1,10,65,-9999,1562003688.468889,-16.89355087280273,16.4755802154541,16.81768798828125,46.77069473266602,54.26466369628906,15,10177.611805625,-0.9627685546875,0.160400390625,-0.2532806396484375,10177.611805625,-0.258894944314309,0.09047424013271692,0.1283124329005627,10177.606464625,-14.9755859375,26.98271179199219,-521.9019775390625,10177.606769625,-1.925780673179084,-1.261142092663493,-0.1752369178917041,-0.2102992832660675,0.07799693197011948,0.1153737753629684,-0.02425980567932129,-0.03135132789611816,0.06030118465423584,1,0.5224869251251221,0.2774457931518555,0.6309784054756165,-0.501893937587738,-0.937852680683136,0.1743414252996445,-0.3000624775886536,0,0,0,-1,10177.3216735,3,2,1562003688.195666,0,0,0,0,0,0,0,0,0,10175.154569,0,-0.5759277,75.30544,3232235528,182473588,1,1,0.31,-27.06985,-34.28899,2
1562003688.516749,76,0,0,1562003682.551233,4.634796972318158,-74.15097690637023,2563.758,-1,-1,10,65,-9999,1562003688.468889,-16.89355087280273,16.4755802154541,16.81768798828125,46.77069473266602,54.26466369628906,15,10177.632068625,-0.9739227294921875,0.165069580078125,-0.2658843994140625,10177.611805625,-0.258894944314309,0.09047424013271692,0.1283124329005627,10177.626545625,-15.04522705078125,27.02203369140625,-521.939208984375,10177.627002625,-1.93097789584801,-1.259955922471393,-0.1790991969138448,-0.3636904358863831,0.1421469002962112,0.0570305809378624,-0.03513681888580322,-0.01194453239440918,0.03859168291091919,1,0.5236327052116394,0.2744549512863159,0.6318323612213135,-0.5012695789337158,-0.936847984790802,0.178143247961998,-0.3009665310382843,0,0,0,-1,10177.3216735,3,2,1562003688.195666,0,0,0,0,0,0,0,0,0,10175.154569,0,-0.5759277,75.30544,3232235528,182473588,1,1,0.31,-27.06985,-34.28899,2
1562003688.556691,77,0,0,1562003682.551233,4.634796972318158,-74.15097690637023,2563.758,-1,-1,10,65,-9999,1562003688.520447,-17.00899124145508,16.20946884155273,16.82147216796875,47.28339767456055,54.77736663818359,15,10177.652332625,-0.944122314453125,0.1666259765625,-0.2814788818359375,10177.652332625,-0.2630031366118653,0.1550676144759348,-0.05388293938724621,10177.646656625,-15.01126098632812,26.7593994140625,-522.0072021484375,10177.647266625,-1.937873750211142,-1.25798936189859,-0.1810858044729795,-0.3005929589271545,0.1599943339824677,-0.05136966332793236,-0.02157324552536011,-0.01583686470985413,0.03138232231140137,1,0.5243622660636902,0.2714678645133972,0.6336833834648132,-0.4997948110103607,-0.9359157681465149,0.1800977289676666,-0.3026988208293915,0,0,0,-1,10177.3216735,3,2,1562003688.195666,0,0,0,0,0,0,0,0,0,10175.154569,0,-0.5759277,75.30544,3232235528,182473588,1,1,0.31,-27.06985,-33.57233,2
1562003688.558841,78,0,0,1562003682.551233,4.634796972318158,-74.15097690637023,2563.758,-1,-1,10,65,-9999,1562003688.520447,-17.00899124145508,16.20946884155273,16.82147216796875,47.28339767456055,54.77736663818359,15,10177.672596625,-0.943206787109375,0.1757965087890625,-0.3036956787109375,10177.672596625,-0.1799287558840425,0.1177753697315552,0.001714010477574998,10177.666736625,-15.1220703125,26.86972045898438,-521.873779296875,10177.667530625,-1.942756402873698,-1.256090856386513,-0.1816091222629865,-0.1841427832841873,0.1186343729496002,-0.02350154705345631,-0.007072210311889648,-0.009424090385437012,0.01588690280914307,1,0.5245280265808105,0.2695318460464478,0.6352974772453308,-0.4986180365085602,-0.9352495670318604,0.1806124597787857,-0.3044458627700806,0,0,0,-1,10177.3216735,3,2,1562003688.195666,0,0,0,0,0,0,0,0,0,10175.154569,0,-0.5759277,75.30544,3232235528,182473588,1,1,0.31,-27.06985,-33.57233,2
1562003688.577481,79,0,0,1562003682.551233,4.634796972318158,-74.15097690637023,2563.758,-1,-1,10,65,-9999,1562003688.565697,-17.11933326721191,15.99873542785645,16.884765625,48.04356002807617,55.53752899169922,15,10177.692859625,-0.9464569091796875,0.181396484375,-0.3350830078125,10177.692859625,-0.1717496555441911,0.1258937499985528,0.09531986173611609,10177.686847625,-15.06700134277344,26.55867004394531,-521.8563232421875,10177.687793625,-1.946232705766672,-1.254500453261369,-0.1831193498568526,-0.1840101480484009,0.1197065636515617,0.0677412748336792,-0.01147997379302979,-0.001876115798950195,-0.0199885368347168,1,0.5247989296913147,0.2676980197429657,0.6362860798835754,-0.4980599880218506,-0.9345038533210754,0.1820976436138153,-0.305847704410553,0,0,0,-1,10177.3216735,3,2,1562003688.195666,0,0,0,0,0,0,0,0,0,10175.154569,0,-0.5759277,75.30544,3232235528,182473588,1,1,0.31,-27.06985,-33.65943,2
1562003688.597755,80,0,0,1562003682.551233,4.634796972318158,-74.15097690637023,2563.758,-1,-1,10,65,-9999,1562003688.589824,-17.06372833251953,15.73204612731934,16.96844482421875,48.23697662353516,55.7309455871582,15,10177.713123625,-0.9301300048828125,0.1990814208984375,-0.3242645263671875,10177.713123625,-0.05496231857705532,0.09393102322763977,0.09329053298547571,10177.706928625,-15.15399169921875,26.64451599121094,-521.880126953125,10177.708057625,-1.948452775721561,-1.252680115901014,-0.185930845161445,-0.08777283132076263,0.1012910678982735,0.1040904968976974,-0.00813370943069458,0.001738309860229492,-0.02499520778656006,1,0.525090217590332,0.2656817138195038,0.6367684602737427,-0.4982161819934845,-0.9334556460380554,0.184861421585083,-0.3073869943618774,0,0,0,-1,10177.3216735,3,2,1562003688.195666,0,0,0,0,0,0,0,0,0,10175.154569,0,-0.5759277,75.30544,3232235528,182473588,1,1,0.31,-27.06985,-33.87197,2
1562003688.641571,81,0,0,1562003682.551233,4.634796972318158,-74.15097690637023,2563.758,-1,-1,10,65,-9999,1562003688.616027,-17.26875686645508,15.94192123413086,16.91680908203125,48.25253677368164,55.74650573730469,15,10177.733356625,-0.9280548095703125,0.2073974609375,-0.3015594482421875,10177.733356625,0.03118588268093689,0.05345709992894253,0.008409996406361227,10177.727008625,-15.25015258789062,26.83255004882812,-521.9207153320312,10177.728321625,-1.948564803647013,-1.251204739644536,-0.1874148783232227,0.02016003057360649,0.05165906995534897,0.0275813452899456,0.009567677974700928,0.01979604363441467,-0.002922415733337402,1,0.5249381065368652,0.2647665441036224,0.636894166469574,-0.4987027943134308,-0.9327396750450134,0.1863196641206741,-0.3086773157119751,0,0,0,-1,10177.3216735,3,2,1562003688.195666,0,0,0,0,0,0,0,0,0,10175.154569,0,-0.5759277,75.30544,3232235528,182473588,1,1,0.31,-27.06985,-32.97407,2
1562003688.64455,82,0,0,1562003682.551233,4.634796972318158,-74.15097690637023,2563.758,-1,-1,10,65,-9999,1562003688.640667,-17.20692443847656,16.08542823791504,16.86480712890625,48.24733352661133,55.74130249023438,15,10177.753620625,-0.9405975341796875,0.1988677978515625,-0.2904510498046875,10177.753620625,-0.002715092731335783,0.03769571364952658,-0.07777362489412903,10177.747120625,-15.24728393554688,27.00003051757812,-521.958740234375,10177.748554625,-1.948220693371899,-1.250218258971431,-0.1868715929940653,0.01015932857990265,0.0379112996160984,-0.06427827477455139,-0.002604126930236816,0.01915490627288818,0.01632475852966309,1,0.524467408657074,0.2648005783557892,0.6371731758117676,-0.4988236725330353,-0.9325307011604309,0.1857858598232269,-0.3096291720867157,0,0,0,-1,10177.3216735,3,2,1562003688.195666,0,0,0,0,0,0,0,0,0,10175.154569,0,-0.5759277,75.30544,3232235528,182473588,1,1,0.31,-27.06985,-32.97407,2
1562003688.658509,83,0,0,1562003682.551233,4.634796972318158,-74.15097690637023,2563.758,-1,-1,10,65,-9999,1562003688.640667,-17.20692443847656,16.08542823791504,16.86480712890625,48.24733352661133,55.74130249023438,15,10177.773883625,-0.94110107421875,0.182830810546875,-0.2872161865234375,10177.773883625,-0.02143445203350275,0.06953566869418693,-0.1010137001467055,10177.767200625,-15.27458190917969,26.62568664550781,-521.7437744140625,10177.768818625,-1.948988097889894,-1.249554770406835,-0.1852129004483044,-0.02292299084365368,0.05552571266889572,-0.1034520417451859,-0.009827852249145508,0.004458099603652954,0.01980209350585938,1,0.5240187048912048,0.2650133371353149,0.6378613710403442,-0.4983021914958954,-0.9326160550117493,0.1841557919979095,-0.3103446662425995,0,0,0,-1,10177.3216735,3,2,1562003688.195666,0,0,0,0,0,0,0,0,0,10175.154569,0,-0.5759277,75.30544,3232235528,182473588,1,1,0.31,-27.06985,-32.97407,2
1562003688.678724,84,0,0,1562003682.551233,4.634796972318158,-74.15097690637023,2563.758,-1,-1,10,65,-9999,1562003688.667095,-17.28347778320312,15.83513259887695,17.0072021484375,48.31991577148438,55.81388473510742,15,10177.794147625,-0.919403076171875,0.1684722900390625,-0.2908935546875,10177.794147625,0.008868859062181879,0.08731892687319104,-0.04214931794046609,10177.787281625,-15.30714416503906,26.94981384277344,-521.8218383789062,10177.789081625,-1.949938231150616,-1.248316244871627,-0.1834924604987981,-0.00246751680970192,0.07821664214134216,-0.06927942484617233,0.003269851207733154,-0.003127932548522949,0.0221555233001709,1,0.5233975052833557,0.2650572061538696,0.6387566328048706,-0.4977847635746002,-0.9325301051139832,0.1824645102024078,-0.311599463224411,0,0,0,-1,10177.3216735,3,2,1562003688.195666,0,0,0,0,0,0,0,0,0,10175.154569,0,-0.5759277,75.30544,3232235528,182473588,1,1,0.31,-27.06985,-33.23834,2
1562003688.721862,85,0,0,1562003682.551233,4.634796972318158,-74.15097690637023,2563.758,-1,-1,10,65,-9999,1562003688.717412,-17.43571472167969,16.01882743835449,16.784423828125,48.31011199951172,55.80408096313477,15,10177.814411625,-0.9187469482421875,0.156402587890625,-0.2893829345703125,10177.814411625,0.01801255634885994,0.1039144152060198,0.04441806487310459,10177.807361625,-15.39028930664062,26.65155029296875,-521.6290283203125,10177.809345625,-1.949765897288117,-1.246558073369516,-0.1830306291950268,0.02412334829568863,0.09391677379608154,0.02490859664976597,0.01500749588012695,-0.02034354209899902,0.02376037836074829,1,0.5227183699607849,0.2648260295391083,0.6392631530761719,-0.4979712665081024,-0.932060718536377,0.1820104122161865,-0.3132653534412384,0,0,0,-1,10177.3216735,3,2,1562003688.195666,0,0,0,0,0,0,0,0,0,10175.154569,0,-0.5759277,75.30544,3232235528,182473588,1,1,0.31,-27.06985,-34.47357,2
1562003688.724275,86,0,0,1562003682.551233,4.634796972318158,-74.15097690637023,2563.758,-1,-1,10,65,-9999,1562003688.717412,-17.43571472167969,16.01882743835449,16.784423828125,48.31011199951172,55.80408096313477,15,10177.834674625,-0.926483154296875,0.152984619140625,-0.297210693359375,10177.834674625,-0.0358445503758125,0.1263411610616861,0.05778686722919336,10177.827472625,-15.46649169921875,26.88723754882812,-522.066162109375,10177.829609625,-1.949401824477297,-1.244414403685305,-0.1839909208972289,-0.02484499290585518,0.1147584095597267,0.06248499825596809,0.01023095846176147,-0.02908492088317871,0.02177989482879639,1,0.5221816897392273,0.264051228761673,0.639546275138855,-0.4985817670822144,-0.9312209486961365,0.1829545795917511,-0.3152064681053162,0,0,0,-1,10177.3216735,3,2,1562003688.195666,0,0,0,0,0,0,0,0,0,10175.154569,0,-0.5759277,75.30544,3232235528,182473588,1,1,0.31,-27.06985,-34.47357,2
1562003688.740026,87,0,0,1562003682.551233,4.634796972318158,-74.15097690637023,2563.758,-1,-1,10,65,-9999,1562003688.717412,-17.43571472167969,16.01882743835449,16.784423828125,48.31011199951172,55.80408096313477,15,10177.854938625,-0.9293212890625,0.1468353271484375,-0.294708251953125,10177.854938625,-0.07314025722960918,0.1243690902744824,-0.00914449623500508,10177.847553625,-15.50471496582031,26.78524780273438,-522.1536865234375,10177.849872625,-1.950050975356475,-1.24202669473277,-0.185017859535623,-0.06384166330099106,0.1289171129465103,0.002860818291082978,-0.001627922058105469,-0.03493151068687439,0.02212584018707275,1,0.5217138528823853,0.2629269063472748,0.6401323080062866,-0.498913437128067,-0.9302873015403748,0.1839640885591507,-0.31736820936203,0,0,0,-1,10177.3216735,3,2,1562003688.195666,0,0,0,0,0,0,0,0,0,10175.154569,0,-0.5759277,75.30544,3232235528,182473588,1,1,0.31,-27.06985,-34.68414,2
1562003688.759834,88,0,0,1562003682.551233,4.634796972318158,-74.15097690637023,2563.758,-1,-1,10,65,-9999,1562003688.741905,-17.43959045410156,15.89872932434082,16.7091064453125,48.37646865844727,55.87043762207031,15,10177.875171625,-0.9154815673828125,0.1660614013671875,-0.311981201171875,10177.875171625,-0.08425176424574678,0.07949242906166618,-0.04212694738730942,10177.867633625,-15.51380920410156,26.57957458496094,-521.97265625,10177.870136625,-1.951799589539421,-1.240201882283809,-0.1851124257470989,-0.09180565178394318,0.08336879312992096,-0.04017692804336548,0.005923151969909668,-0.03055360913276672,0.01502823829650879,1,0.521378219127655,0.2619827091693878,0.6410259604454041,-0.4986135363578796,-0.9296901822090149,0.1840570420026779,-0.3190596401691437,0,0,0,-1,10177.3216735,3,2,1562003688.195666,0,0,0,0,0,0,0,0,0,10175.154569,0,-0.5759277,75.30544,3232235528,182473588,1,1,0.31,-27.06985,-33.75951,2
1562003688.807147,89,0,0,1562003682.551233,4.634796972318158,-74.15097690637023,2563.758,-1,-1,10,65,-9999,1562003688.792454,-17.65624618530273,15.61047172546387,16.8648681640625,48.58133697509766,56.0753059387207,15,10177.895435625,-0.905853271484375,0.1851806640625,-0.3258514404296875,10177.895435625,-0.03952530531841102,0.05478495204845604,-0.02306883399448438,10177.887745625,-15.6416015625,26.439453125,-521.925048828125,10177.890369625,-1.953564306917718,-1.239227951205053,-0.1847320315519864,-0.05482180044054985,0.05303379520773888,-0.03944322839379311,0.02021968364715576,-0.008725851774215698,0.0005296468734741211,1,0.5212188959121704,0.2614134848117828,0.6417930126190186,-0.4980919063091278,-0.9294451475143433,0.1836831271648407,-0.3199877142906189,0,0,0,-1,10177.3216735,3,2,1562003688.195666,0,0,0,0,0,0,0,0,0,10175.154569,0,-0.5759277,75.30544,3232235528,182473588,1,1,0.31,-27.06985,-34.94278,2
1562003688.810939,90,0,0,1562003682.551233,4.634796972318158,-74.15097690637023,2563.758,-1,-1,10,65,-9999,1562003688.792454,-17.65624618530273,15.61047172546387,16.8648681640625,48.58133697509766,56.0753059387207,15,10177.915699625,-0.9052276611328125,0.1844482421875,-0.324859619140625,10177.915699625,0.02725186111867183,0.02803829258857224,0.06376992493416538,10177.907825625,-15.48406982421875,26.31761169433594,-522.0951538085938,10177.910633625,-1.954049407026053,-1.238463883338475,-0.1847265620500813,0.01193911954760551,0.02885841391980648,0.03525684028863907,0.02670514583587646,0.004829317331314087,-0.007304787635803223,1,0.5210358500480652,0.2610987722873688,0.6421140432357788,-0.4980349540710449,-0.9292014837265015,0.1836777478456497,-0.3206981420516968,0,0,0,-1,10177.3216735,3,2,1562003688.195666,0,0,0,0,0,0,0,0,0,10175.154569,0,-0.5759277,75.30544,3232235528,182473588,1,1,0.31,-27.06985,-34.94278,2
1562003688.820578,91,0,0,1562003682.551233,4.634796972318158,-74.15097690637023,2563.758,-1,-1,10,65,-9999,1562003688.818695,-17.58218002319336,15.89970970153809,16.7227783203125,48.50943756103516,56.0034065246582,15,10177.935962625,-0.92645263671875,0.182830810546875,-0.3215789794921875,10177.935962625,0.02323341734985128,0.001567003985402624,0.1129451944624785,10177.927906625,-15.60029602050781,26.84684753417969,-522.1488037109375,10177.930896625,-1.952942987239428,-1.237999163317885,-0.1860248736104246,0.02954554371535778,-0.001160736195743084,0.1114858314394951,0.01549595594406128,-0.001344799995422363,-0.001305460929870605,1,0.5210081338882446,0.2608154118061066,0.6417087912559509,-0.4987339675426483,-0.9288260340690613,0.1849538236856461,-0.321051687002182,0,0,0,-1,10177.3216735,3,2,1562003688.195666,0,0,0,0,0,0,0,0,0,10175.154569,0,-0.5759277,75.30544,3232235528,182473588,1,1,0.31,-27.06985,-34.94278,2
1562003688.841289,92,0,0,1562003682.551233,4.634796972318158,-74.15097690637023,2563.758,-1,-1,10,65,-9999,1562003688.818695,-17.58218002319336,15.89970970153809,16.7227783203125,48.50943756103516,56.0034065246582,15,10177.956226625,-0.95489501953125,0.177276611328125,-0.3151092529296875,10177.956226625,-0.005875465996932816,0.01845570635424912,0.0414979087378327,10177.948017625,-15.58627319335938,26.56027221679688,-522.0482788085938,10177.951160625,-1.952079972269579,-1.237812934598064,-0.1877520254566958,-0.003712011966854334,0.0124240480363369,0.06439980864524841,-0.01338577270507812,-0.006429344415664673,0.001722812652587891,1,0.5211894512176514,0.260387510061264,0.6412082314491272,-0.4994116127490997,-0.9284630417823792,0.1866509020328522,-0.3211198151111603,0,0,0,-1,10177.3216735,3,2,1562003688.195666,0,0,0,0,0,0,0,0,0,10175.154569,0,-0.5759277,75.30544,3232235528,182473588,1,1,0.31,-27.06985,-34.72198,2
1562003688.888554,93,0,0,1562003682.551233,4.634796972318158,-74.15097690637023,2563.758,-1,-1,10,65,-9999,1562003688.869495,-17.48747825622559,15.77378273010254,16.7232666015625,48.45627593994141,55.95024490356445,15,10177.976490625,-0.95196533203125,0.1694793701171875,-0.3055877685546875,10177.976490625,0.0264270801290743,-0.01101856269409384,-0.03918095858946377,10177.968097625,-15.47451782226562,26.61512756347656,-522.0994873046875,10177.971424625,-1.951978285073247,-1.237649105550044,-0.188000904311533,0.01577167399227619,-0.008120641112327576,-0.02955331467092037,-0.02871048450469971,-0.01286888122558594,0.01154905557632446,1,0.5211746096611023,0.2602857351303101,0.6411774158477783,-0.4995197951793671,-0.9283665418624878,0.1868954002857208,-0.3212567269802094,0,0,0,-1,10177.3216735,3,2,1562003688.195666,0,0,0,0,0,0,0,0,0,10175.154569,0,-0.5759277,75.30544,3232235528,182473588,1,1,0.31,-27.06985,-35.4628,2
1562003688.891965,94,0,0,1562003682.551233,4.634796972318158,-74.15097690637023,2563.758,-1,-1,10,65,-9999,1562003688.869495,-17.48747825622559,15.77378273010254,16.7232666015625,48.45627593994141,55.95024490356445,15,10177.996723625,-0.9381256103515625,0.169219970703125,-0.3025054931640625,10177.996723625,0.05017502020152888,-0.02290718011631657,-0.04555390307802339,10177.988178625,-15.48246765136719,26.66361999511719,-522.082763671875,10177.991687625,-1.951694756721861,-1.238049353628804,-0.18686195734634,0.04213324189186096,-0.03180200234055519,-0.05575349181890488,-0.01622021198272705,-0.01794499158859253,0.01733505725860596,1,0.5210328102111816,0.260859340429306,0.6412225961685181,-0.4993104040622711,-0.9286955595016479,0.1857763975858688,-0.320954442024231,0,0,0,-1,10177.3216735,3,2,1562003688.195666,0,0,0,0,0,0,0,0,0,10175.154569,0,-0.5759277,75.30544,3232235528,182473588,1,1,0.31,-27.06985,-35.4628,2
1562003688.901716,95,0,0,1562003682.551233,4.634796972318158,-74.15097690637023,2563.758,-1,-1,10,65,-9999,1562003688.893682,-17.48003196716309,15.50834083557129,16.7152099609375,48.41682815551758,55.91079711914062,15,10178.016986625,-0.929351806640625,0.17193603515625,-0.29974365234375,10178.016986625,0.06386899452671632,0.004554804412362521,0.01778512239176717,10178.008289625,-15.482177734375,26.26631164550781,-522.1246948242188,10178.011951625,-1.950957486149202,-1.238316164915988,-0.1858664191074438,0.05694707483053207,-0.00592166930437088,-0.004490039311349392,-0.004592418670654297,-0.01606640219688416,0.0199550986289978,1,0.5208180546760559,0.2614672780036926,0.6411615014076233,-0.4992949068546295,-0.9289555549621582,0.1847981065511703,-0.3207668364048004,0,0,0,-1,10177.3216735,3,2,1562003688.195666,0,0,0,0,0,0,0,0,0,10175.154569,0,-0.5759277,75.30544,3232235528,182473588,1,1,0.31,-27.06985,-35.88573,2
1562003688.921916,96,0,0,1562003682.551233,4.634796972318158,-74.15097690637023,2563.758,-1,-1,10,65,-9999,1562003688.919942,-17.72947311401367,15.8249397277832,16.7830810546875,48.31099700927734,55.80496597290039,15,10178.037250625,-0.9201202392578125,0.17449951171875,-0.294342041015625,10178.037250625,0.06300453243687661,0.01242923912350881,0.08222563128841449,10178.028370625,-15.79974365234375,26.75485229492188,-522.017333984375,10178.032184625,-1.949427977759621,-1.238003724043688,-0.1861025554230764,0.06918589025735855,0.003518437501043081,0.07162949442863464,0.005352020263671875,-0.009615123271942139,0.02497649192810059,1,0.5205663442611694,0.2617045938968658,0.6408150792121887,-0.4998773634433746,-0.9288139343261719,0.1850301623344421,-0.3210427761077881,0,0,0,-1,10177.3216735,3,2,1562003688.195666,0,0,0,0,0,0,0,0,0,10175.154569,0,-0.5759277,75.30544,3232235528,182473588,1,1,0.31,-27.06985,-35.9579,2
1562003688.972532,97,0,0,1562003682.551233,4.634796972318158,-74.15097690637023,2563.758,-1,-1,10,65,-9999,1562003688.945069,-17.44309997558594,15.86632347106934,16.70758056640625,48.21491622924805,55.70888519287109,15,10178.057514625,-0.9278564453125,0.17364501953125,-0.2960968017578125,10178.057514625,0.01317066317098687,0.04696431319132935,0.08349915492169038,10178.048481625,-15.45973205566406,26.7149658203125,-522.109130859375,10178.052448625,-1.947873806970738,-1.237465435781106,-0.1873126317062934,0.02865844406187534,0.02739260904490948,0.08470534533262253,0.006386041641235352,-0.01094147562980652,0.02680677175521851,1,0.5204391479492188,0.2615501284599304,0.6403321623802185,-0.5007089972496033,-0.9284288287162781,0.1862192153930664,-0.321469247341156,0,0,0,-1,10177.3216735,3,2,1562003688.195666,0,0,0,0,0,0,0,0,0,10175.154569,0,-0.5759277,75.30544,3232235528,182473588,1,1,0.31,-27.06985,-35.1504,2
1562003688.975061,98,0,0,1562003682.551233,4.634796972318158,-74.15097690637023,2563.758,-1,-1,10,65,-9999,1562003688.973044,-17.41805648803711,15.80020713806152,16.819580078125,48.2197151184082,55.71368408203125,15,10178.077777625,-0.9337158203125,0.1668548583984375,-0.296905517578125,10178.077777625,-0.03050943976405676,0.09280370713820923,0.04744261692310758,10178.068561625,-15.36459350585938,26.71470642089844,-521.918701171875,10178.072712625,-1.947429180135131,-1.236242477371002,-0.1886119221372215,-0.02279542572796345,0.08468173444271088,0.04993671923875809,-0.005177795886993408,-0.01858082413673401,0.02546662092208862,1,0.5202565789222717,0.2609037160873413,0.6402870416641235,-0.5012931823730469,-0.9278056025505066,0.187495619058609,-0.3225246965885162,0,0,0,-1,10177.3216735,3,2,1562003688.195666,0,0,0,0,0,0,0,0,0,10175.154569,0,-0.5759277,75.30544,3232235528,182473588,1,1,0.31,-27.06985,-35.1504,2
1562003688.983526,99,0,0,1562003682.551233,4.634796972318158,-74.15097690637023,2563.758,-1,-1,10,65,-9999,1562003688.973044,-17.41805648803711,15.80020713806152,16.819580078125,48.2197151184082,55.71368408203125,15,10178.098041625,-0.9340972900390625,0.1700286865234375,-0.30279541015625,10178.098041625,-0.03748079654955718,0.07426064910020551,0.03663311237458496,10178.088642625,-15.40460205078125,26.61683654785156,-522.0728149414062,10178.092975625,-1.947858553038846,-1.234686764670461,-0.1895928043353385,-0.04337465763092041,0.07673510909080505,0.0335727259516716,-0.005335986614227295,-0.02161940932273865,0.02460575103759766,1,0.5200158953666687,0.2600577473640442,0.640609085559845,-0.5015709400177002,-0.9271286129951477,0.1884590089321136,-0.3239068686962128,0,0,0,-1,10177.3216735,3,2,1562003688.195666,0,0,0,0,0,0,0,0,0,10175.154569,0,-0.5759277,75.30544,3232235528,182473588,1,1,0.31,-27.06985,-35.1504,2
1562003689.002843,100,0,0,1562003682.551233,4.634796972318158,-74.15097690637023,2563.758,-1,-1,10,65,-9999,1562003688.994944,-17.53122329711914,16.00274848937988,16.6785888671875,48.25515365600586,55.74912261962891,15,10178.118305625,-0.9271087646484375,0.1656951904296875,-0.3074188232421875,10178.118305625,-0.01351128147440801,0.06822166501234182,0.05874240942831379,10178.108753625,-15.51321411132812,26.89509582519531,-522.1670532226562,10178.113239625,-1.94822776736246,-1.233374770122401,-0.1905203204157434,-0.01885546743869781,0.06465953588485718,0.04867817834019661,-0.004126489162445068,-0.01926484704017639,0.020804762840271,1,0.519834041595459,0.2593069076538086,0.6408630013465881,-0.5018238425254822,-0.9265375733375549,0.1893698275089264,-0.3250649869441986,0,0,0,-1,10177.3216735,3,2,1562003688.195666,0,0,0,0,0,0,0,0,0,10175.154569,0,-0.5759277,75.30544,3232235528,182473588,1,1,0.31,-27.06985,-35.70135,2
1562003689.034813,101,0,0,1562003682.551233,4.634796972318158,-74.15097690637023,2563.758,-1,-1,10,65,-9999,1562003689.021377,-17.47112083435059,15.97764205932617,16.69110107421875,48.24773788452148,55.74170684814453,15,10178.138538625,-0.9282989501953125,0.165618896484375,-0.313751220703125,10178.138538625,-0.01807434168614977,0.08721959096453108,0.08916875856636007,10178.128833625,-15.46380615234375,26.84075927734375,-522.1607055664062,10178.133503625,-1.948088983576825,-1.232020951640196,-0.1918562003210647,-0.01612226478755474,0.07403866201639175,0.08114584535360336,-0.002106070518493652,-0.0264509916305542,0.01336848735809326,1,0.5196566581726074,0.2585335969924927,0.6409209370613098,-0.5023322105407715,-0.9258571863174438,0.1906813681125641,-0.3262346684932709,0,0,0,-1,10177.3216735,3,2,1562003688.195666,0,0,0,0,0,0,0,0,0,10175.154569,0,-0.5759277,75.30544,3232235528,182473588,1,1,0.31,-27.06985,-34.0697,2
1562003689.043319,102,0,0,1562003682.551233,4.634796972318158,-74.15097690637023,2563.758,-1,-1,10,65,-9999,1562003689.021377,-17.47112083435059,15.97764205932617,16.69110107421875,48.24773788452148,55.74170684814453,15,10178.158802625,-0.9295654296875,0.1646575927734375,-0.3151702880859375,10178.158802625,-0.0269751586814126,0.09060793081943889,0.09239997191695322,10178.148914625,-15.49592590332031,26.72943115234375,-522.0338134765625,10178.153736625,-1.947922212189847,-1.230307533392707,-0.1936944380550623,-0.0278987642377615,0.08898378908634186,0.09350290894508362,-0.00328826904296875,-0.02726337313652039,0.01283788681030273,1,0.5194635391235352,0.2574997842311859,0.6409675478935242,-0.5030031204223633,-0.9249649047851562,0.1924855560064316,-0.3277029991149902,0,0,0,-1,10177.3216735,3,2,1562003688.195666,0,0,0,0,0,0,0,0,0,10175.154569,0,-0.5759277,75.30544,3232235528,182473588,1,1,0.31,-27.06985,-34.0697,2
1562003689.063672,103,0,0,1562003689.037178,4.634793447886948,-74.15098327027873,2563.692,-1,-1,10,65,-9999,1562003689.052149,-17.49443054199219,15.92833709716797,16.71246337890625,48.23861694335938,55.73258590698242,15,10178.179065625,-0.9325408935546875,0.1681060791015625,-0.3186187744140625,10178.179065625,-0.04011812497706265,0.06392385564517196,0.02949424275651856,10178.168995625,-15.58720397949219,26.66073608398438,-521.8338623046875,10178.173999625,-1.948051266655453,-1.228776401719231,-0.195299850601129,-0.0379527285695076,0.06575862318277359,0.04375079646706581,-0.006158709526062012,-0.02842652797698975,0.01298999786376953,1,0.5193189978599548,0.2565158903598785,0.6410859823226929,-0.5035037994384766,-0.9241697192192078,0.1940606981515884,-0.3290147483348846,0,0,0,-1,10177.3216735,3,2,1562003688.195666,0,0,0,0,0,0,0,0,0,10175.154569,0,-0.5759277,75.30544,3232235528,182473588,1,1,0.31,-27.06985,-34.29304,2
1562003689.083899,104,0,0,1562003689.037178,4.634793447886948,-74.15098327027873,2563.692,-1,-1,10,65,-9999,1562003689.052149,-17.49443054199219,15.92833709716797,16.71246337890625,48.23861694335938,55.73258590698242,15,10178.199329625,-0.9256134033203125,0.1820068359375,-0.3256683349609375,10178.199329625,0.001962749723388398,0.03104952883312483,-0.01344124033773892,10178.189106625,-15.51707458496094,26.65995788574219,-522.1529541015625,10178.194263625,-1.948644696574902,-1.227902421009949,-0.1957232205773682,-0.0176575779914856,0.03352611884474754,-0.01110792346298695,-0.006951212882995605,-0.01727569103240967,0.008581876754760742,1,0.5192016959190369,0.2559926807880402,0.6413801312446594,-0.5035164952278137,-0.9238044023513794,0.194475993514061,-0.329794704914093,0,0,0,-1,10177.3216735,3,2,1562003688.195666,0,0,0,0,0,0,0,0,0,10175.154569,0,-0.5759277,75.30544,3232235528,182473588,1,1,0.31,-27.62713,-34.43004,2
1562003689.114521,105,0,0,1562003689.037178,4.634793447886948,-74.15098327027873,2563.692,-1,-1,10,65,-9999,1562003689.096275,-17.52725601196289,15.98844337463379,16.58099365234375,48.27970123291016,55.7736701965332,15,10178.219593625,-0.9190216064453125,0.176605224609375,-0.3249359130859375,10178.219593625,0.04541648396577529,0.01249714973130583,0.003717240249532601,10178.209186625,-15.49333190917969,26.8770751953125,-522.2251586914062,10178.214527625,-1.948462153736549,-1.227471978775575,-0.1952767337796732,0.04058469086885452,0.01114731095731258,-0.009518816135823727,0.001640200614929199,-0.01508292555809021,0.00470578670501709,1,0.5189486145973206,0.2560890018939972,0.6415325403213501,-0.5035343170166016,-0.9237440228462219,0.1940380185842514,-0.3302215039730072,0,0,0,-1,10177.3216735,3,2,1562003688.195666,0,0,0,0,0,0,0,0,0,10175.154569,0,-0.5759277,75.30544,3232235528,182473588,1,1,0.31,-28.1844,-33.15731,2
1562003689.12436,106,0,0,1562003689.037178,4.634793447886948,-74.15098327027873,2563.692,-1,-1,10,65,-9999,1562003689.096275,-17.52725601196289,15.98844337463379,16.58099365234375,48.27970123291016,55.7736701965332,15,10178.239856625,-0.9207305908203125,0.170867919921875,-0.324554443359375,10178.239856625,0.03339630638570266,0.01344070770552091,0.05230767960246433,10178.229267625,-15.67265319824219,26.86453247070312,-522.407470703125,10178.234790625,-1.947537838703309,-1.227139594109733,-0.1952181005287054,0.0381055511534214,0.00974276103079319,0.04096992313861847,0.005172610282897949,-0.02044227719306946,0.004940330982208252,1,0.5187115669250488,0.2562657296657562,0.6413973569869995,-0.5038607716560364,-0.9236449599266052,0.1939805001020432,-0.3305323719978333,0,0,0,-1,10177.3216735,3,2,1562003688.195666,0,0,0,0,0,0,0,0,0,10175.154569,0,-0.5759277,75.30544,3232235528,182473588,1,1,0.31,-28.1844,-33.15731,2
1562003689.144709,107,0,0,1562003689.037178,4.634793447886948,-74.15098327027873,2563.692,-1,-1,10,65,-9999,1562003689.122535,-17.6810417175293,16.00302124023438,16.49310302734375,48.2174186706543,55.71138763427734,15,10178.260090625,-0.921905517578125,0.171173095703125,-0.319671630859375,10178.260090625,0.0378544380504953,0.01651026717794624,0.05473222145887247,10178.249378625,-15.44981384277344,26.96162414550781,-522.364990234375,10178.255054625,-1.946595963905707,-1.226774627320144,-0.1959539180908892,0.0284047219902277,0.01146502606570721,0.05374723672866821,0.001011133193969727,-0.02174389362335205,0.008097827434539795,1,0.5186251401901245,0.2561588287353516,0.6411117911338806,-0.5043673515319824,-0.9233896732330322,0.1947022825479507,-0.3308212459087372,0,0,0,-1,10177.3216735,3,2,1562003688.195666,0,0,0,0,0,0,0,0,0,10175.154569,0,-0.5759277,75.30544,3232235528,182473588,1,1,0.31,-28.74168,-33.52354,2
1562003689.165275,108,0,0,1562003689.037178,4.634793447886948,-74.15098327027873,2563.692,-1,-1,10,65,-9999,1562003689.148068,-17.51697540283203,16.02256393432617,16.47735595703125,48.15019989013672,55.64416885375977,15,10178.280353625,-0.9226531982421875,0.1688995361328125,-0.3128509521484375,10178.280353625,0.06829490194231901,0.0148654988887133,0.05970114742074231,10178.269458625,-15.46446228027344,27.03132629394531,-522.0902099609375,10178.275318625,-1.945334098096508,-1.22638034885997,-0.1966268994125411,0.06301277130842209,0.004145328421145678,0.05636539310216904,0.003183126449584961,-0.02768352627754211,0.01796948909759521,1,0.5184756517410278,0.2561494410037994,0.6407647728919983,-0.5049662590026855,-0.92313551902771,0.1953623443841934,-0.33114093542099,0,0,0,-1,10177.3216735,3,2,1562003688.195666,0,0,0,0,0,0,0,0,0,10175.154569,0,-0.5759277,75.30544,3232235528,182473588,1,1,0.31,-29.08839,-33.75708,2
1562003689.199607,109,0,0,1562003689.037178,4.634793447886948,-74.15098327027873,2563.692,-1,-1,10,65,-9999,1562003689.198305,-17.62605285644531,15.92931747436523,16.49951171875,47.95882797241211,55.45279693603516,15,10178.300617625,-0.92559814453125,0.1697540283203125,-0.3131866455078125,10178.300617625,0.05324138388064611,0.06351798989504388,0.02296923176971541,10178.289539625,-15.59147644042969,26.95162963867188,-522.3280639648438,10178.295551625,-1.943740794570462,-1.225613284588202,-0.1971031509229753,0.05849551409482956,0.04823049902915955,0.03348537534475327,-0.00242304801940918,-0.02599906921386719,0.01939374208450317,1,0.5181239247322083,0.2562008500099182,0.640468418598175,-0.505676805973053,-0.9227936863899231,0.1958293914794922,-0.3318174481391907,0,0,0,-1,10177.3216735,3,2,1562003688.195666,0,0,0,0,0,0,0,0,0,10175.154569,0,-0.5759277,75.30544,3232235528,182473588,1,1,0.31,-28.10682,-34.55126,2
1562003689.206023,110,0,0,1562003689.037178,4.634793447886948,-74.15098327027873,2563.692,-1,-1,10,65,-9999,1562003689.198305,-17.62605285644531,15.92931747436523,16.49951171875,47.95882797241211,55.45279693603516,15,10178.320881625,-0.9189300537109375,0.186065673828125,-0.3194580078125,10178.320881625,0.05614715894603157,0.06296378607219839,-0.001608815614516868,10178.309650625,-15.616943359375,26.71652221679688,-522.3681640625,10178.315815625,-1.942683385522646,-1.224179514723221,-0.1969449693087079,0.04868868738412857,0.06267707794904709,-0.004654285963624716,-0.001146256923675537,-0.01970994472503662,0.01724803447723389,1,0.517496645450592,0.2561676502227783,0.6406029462814331,-0.5061653852462769,-0.9223461747169495,0.1956742703914642,-0.333150714635849,0,0,0,-1,10177.3216735,3,2,1562003688.195666,0,0,0,0,0,0,0,0,0,10175.154569,0,-0.5759277,75.30544,3232235528,182473588,1,1,0.31,-28.10682,-34.55126,2
1562003689.225841,111,0,0,1562003689.037178,4.634793447886948,-74.15098327027873,2563.692,-1,-1,10,65,-9999,1562003689.223857,-17.61762046813965,16.00502014160156,16.49432373046875,47.86575698852539,55.35972595214844,15,10178.341144625,-0.9095916748046875,0.1933441162109375,-0.3226776123046875,10178.341144625,0.1150733264895608,0.06101222162538832,0.0275767667716615,10178.329731625,-15.63125610351562,26.87162780761719,-522.3370361328125,10178.336078625,-1.941373313623943,-1.222818467899628,-0.1964898012147314,0.09400370717048645,0.05293923243880272,0.01375348400324583,0.008980989456176758,-0.004050493240356445,0.01189577579498291,1,0.5167987942695618,0.2563220262527466,0.6407116055488586,-0.5066622495651245,-0.9219753742218018,0.1952278912067413,-0.3344360589981079,0,0,0,-1,10177.3216735,3,2,1562003688.195666,0,0,0,0,0,0,0,0,0,10175.154569,0,-0.5759277,75.30544,3232235528,182473588,1,1,0.31,-28.10682,-35.04623,2
1562003689.246082,112,0,0,1562003689.037178,4.634793447886948,-74.15098327027873,2563.692,-1,-1,10,65,-9999,1562003689.223857,-17.61762046813965,16.00502014160156,16.49432373046875,47.86575698852539,55.35972595214844,15,10178.361408625,-0.911376953125,0.19580078125,-0.320220947265625,10178.361408625,0.1454690492750712,0.07318419938759547,0.0724520964039327,10178.349842625,-15.51011657714844,26.84136962890625,-522.3902587890625,10178.356342625,-1.938704860076646,-1.221147272104513,-0.1962388757292192,0.144902303814888,0.06310798227787018,0.05518800765275955,0.01321232318878174,-4.947185516357422e-06,0.01519238948822021,1,0.5158692598342896,0.256675511598587,0.6405152082443237,-0.5076779723167419,-0.9214612245559692,0.1949817836284637,-0.3359931707382202,0,0,0,-1,10177.3216735,3,2,1562003688.195666,0,0,0,0,0,0,0,0,0,10175.154569,0,-0.5759277,75.30544,3232235528,182473588,1,1,0.31,-25.82167,-30.51313,2
1562003689.286455,113,0,0,1562003689.037178,4.634793447886948,-74.15098327027873,2563.692,-1,-1,10,65,-9999,1562003689.274596,-17.73491096496582,16.11804389953613,16.353759765625,47.46070098876953,54.95466995239258,15,10178.381672625,-0.9181365966796875,0.18914794921875,-0.3157196044921875,10178.381672625,0.100592920694473,0.09911646418613305,0.0888537066094037,10178.369922625,-15.71600341796875,26.99714660644531,-522.3984985351562,10178.376606625,-1.935492263501305,-1.219014698065751,-0.1966934926106314,0.1220518574118614,0.0904754251241684,0.08646070957183838,0.004582524299621582,-0.000511854887008667,0.01802635192871094,1,0.5148686170578003,0.2568012177944183,0.6401596069335938,-0.5090766549110413,-0.9206591844558716,0.1954276561737061,-0.3379268944263458,0,0,0,-1,10177.3216735,3,2,1562003688.195666,0,0,0,0,0,0,0,0,0,10175.154569,0,-0.5759277,75.30544,3232235528,182473588,1,1,0.31,-25.82167,-31.0113,2
1562003689.288944,114,0,0,1562003689.037178,4.634793447886948,-74.15098327027873,2563.692,-1,-1,10,65,-9999,1562003689.274596,-17.73491096496582,16.11804389953613,16.353759765625,47.46070098876953,54.95466995239258,15,10178.401905625,-0.9322509765625,0.1800537109375,-0.3131256103515625,10178.401905625,-0.02154657111539509,0.1156261987318613,0.07864021751284082,10178.390003625,-15.43125915527344,27.17630004882812,-522.5518798828125,10178.396869625,-1.933539454018484,-1.216675306743451,-0.1977902054248201,0.008188667707145214,0.1070402860641479,0.07992585003376007,-0.005292654037475586,-0.01394695043563843,0.02687960863113403,1,0.5140979886054993,0.2563213706016541,0.6400501728057861,-0.5102336406707764,-0.9196645617485046,0.1965031027793884,-0.3400052189826965,0,0,0,-1,10177.3216735,3,2,1562003688.195666,0,0,0,0,0,0,0,0,0,10175.154569,0,-0.5759277,75.30544,3232235528,182473588,1,1,0.31,-25.82167,-31.84376,2
1562003689.306853,115,0,0,1562003689.037178,4.634793447886948,-74.15098327027873,2563.692,-1,-1,10,65,-9999,1562003689.299198,-17.58123397827148,16.36948204040527,16.19378662109375,47.44889831542969,54.94286727905273,15,10178.42218541667,-0.930023193359375,0.1832122802734375,-0.3218536376953125,10178.42218541667,-0.1044198831809169,0.1132197663708657,0.03985793413856191,10178.410114625,-15.528076171875,27.15876770019531,-522.559814453125,10178.417133625,-1.934003485546339,-1.214523240288383,-0.199391246614412,-0.09485781937837601,0.108981728553772,0.04636042937636375,-0.01387578248977661,-0.0186445415019989,0.0296022891998291,1,0.5138024687767029,0.2550888359546661,0.6404096484184265,-0.510697603225708,-0.9186346530914307,0.1980726718902588,-0.3418734073638916,0,0,0,-1,10177.3216735,3,2,1562003688.195666,0,0,0,0,0,0,0,0,0,10175.154569,0,-0.5759277,75.30544,3232235528,182473588,1,1,0.31,-25.82167,-31.84376,2
1562003689.32711,116,0,0,1562003689.037178,4.634793447886948,-74.15098327027873,2563.692,-1,-1,10,65,-9999,1562003689.325081,-17.50933837890625,16.41215324401855,16.0953369140625,47.57508850097656,55.06905746459961,15,10178.44244941667,-0.920166015625,0.1993865966796875,-0.3271484375,10178.44244941667,-0.09153444456267747,0.1308970307384846,0.02899916110987283,10178.43021141667,-15.55531311035156,27.34861755371094,-522.7973022460938,10178.43738341667,-1.935809264352518,-1.212624199114755,-0.200730260893955,-0.1009229049086571,0.1197584792971611,0.02383381314575672,-0.008718013763427734,-0.008436471223831177,0.01674187183380127,1,0.5137028098106384,0.2536678612232208,0.6410978436470032,-0.5106423497200012,-0.9177346229553223,0.1993849873542786,-0.3435240685939789,0,0,0,-1,10177.3216735,3,2,1562003688.195666,0,0,0,0,0,0,0,0,0,10175.154569,0,-0.5759277,75.30544,3232235528,182473588,1,1,0.31,-25.82167,-32.4511,2
1562003689.368971,117,0,0,1562003689.037178,4.634793447886948,-74.15098327027873,2563.692,-1,-1,10,65,-9999,1562003689.349749,-17.63283538818359,16.29098320007324,16.03631591796875,47.64939117431641,55.14336013793945,15,10178.46271341667,-0.910797119140625,0.20660400390625,-0.3333587646484375,10178.46271341667,-0.03861849896723903,0.1001622875462072,0.06590364959953686,10178.45029241667,-15.65771484375,27.16328430175781,-522.8021240234375,10178.45764741667,-1.937097881959482,-1.210537808258707,-0.2019148603540388,-0.05144297331571579,0.1050836592912674,0.05062388256192207,0.001556813716888428,0.005417495965957642,0.01321649551391602,1,0.5134433507919312,0.2523858845233917,0.6417321562767029,-0.5107417702674866,-0.9167942404747009,0.2005456537008286,-0.3453545868396759,0,0,0,-1,10177.3216735,3,2,1562003688.195666,0,0,0,0,0,0,0,0,0,10175.154569,0,-0.5759277,75.30544,3232235528,182473588,1,1,0.31,-25.82167,-32.48259,2
1562003689.372026,118,0,0,1562003689.037178,4.634793447886948,-74.15098327027873,2563.692,-1,-1,10,65,-9999,1562003689.349749,-17.63283538818359,16.29098320007324,16.03631591796875,47.64939117431641,55.14336013793945,15,10178.48297641667,-0.9102783203125,0.2039642333984375,-0.339080810546875,10178.48297641667,-0.0239500739991916,0.06306019250365925,0.07654990237323762,10178.47040341667,-15.67205810546875,27.06324768066406,-522.6651611328125,10178.47791041667,-1.937248707570215,-1.208892050887573,-0.203420326207657,-0.0238526239991188,0.06660178303718567,0.07642192393541336,0.006532609462738037,0.004659980535507202,0.01008570194244385,1,0.5132474899291992,0.251394510269165,0.6419002413749695,-0.5112160444259644,-0.9159411787986755,0.2020203024148941,-0.3467556238174438,0,0,0,-1,10177.3216735,3,2,1562003688.195666,0,0,0,0,0,0,0,0,0,10175.154569,0,-0.5759277,75.30544,3232235528,182473588,1,1,0.31,-25.82167,-32.48259,2
1562003689.387894,119,0,0,1562003689.037178,4.634793447886948,-74.15098327027873,2563.692,-1,-1,10,65,-9999,1562003689.37575,-17.75042724609375,16.37892723083496,16.23675537109375,47.65184020996094,55.14580917358398,15,10178.50324041667,-0.910491943359375,0.1981658935546875,-0.3391265869140625,10178.50324041667,-0.07607559338309451,0.006408630847166679,0.03406076507767743,10178.49048441667,-15.70761108398438,27.29991149902344,-522.5374755859375,10178.49817441667,-1.937465132449697,-1.20802246194089,-0.2048549297372511,-0.05764174461364746,0.01753383688628674,0.04357635974884033,0.004310905933380127,-0.003443449735641479,0.008688449859619141,1,0.5132939219474792,0.2506091594696045,0.641899585723877,-0.5115557909011841,-0.9153674244880676,0.2034251242876053,-0.3474487960338593,0,0,0,-1,10177.3216735,3,2,1562003688.195666,0,0,0,0,0,0,0,0,0,10175.154569,0,-0.5759277,75.30544,3232235528,182473588,1,1,0.31,-25.82167,-33.27245,2
1562003689.408086,120,0,0,1562003689.037178,4.634793447886948,-74.15098327027873,2563.692,-1,-1,10,65,-9999,1562003689.400149,-17.50073623657227,16.14259719848633,16.26214599609375,47.7459602355957,55.23992919921875,15,10178.52350441667,-0.91455078125,0.2070159912109375,-0.334014892578125,10178.52350441667,-0.1601918027293563,-0.04651104317379787,-0.0361604012810959,10178.51059541667,-15.44960021972656,26.97291564941406,-522.5782470703125,10178.51843841667,-1.939303720596041,-1.208678668338124,-0.20585914256035,-0.1445769071578979,-0.04210685566067696,-0.01593996398150921,0.003629922866821289,-0.005998194217681885,0.01364558935165405,1,0.5139431953430176,0.2499493062496185,0.6420055627822876,-0.5110933780670166,-0.9154036641120911,0.2044082432985306,-0.3467754721641541,0,0,0,-1,10177.3216735,3,2,1562003688.195666,0,0,0,0,0,0,0,0,0,10176.097915,0,-0.5178223,75.30489,3232235528,182473588,1,1,0.31,-25.82167,-33.69636,2
1562003689.445515,121,0,0,1562003689.037178,4.634793447886948,-74.15098327027873,2563.692,-1,-1,10,65,-9999,1562003689.426577,-17.58964729309082,16.21578598022461,16.46875,48.01505661010742,55.50902557373047,15,10178.54373741667,-0.89691162109375,0.2293243408203125,-0.3353424072265625,10178.54373741667,-0.1862955751020949,-0.07642127169258679,-0.0848776071019154,10178.53067541667,-15.60482788085938,27.07310485839844,-522.2648315429688,10178.53870141667,-1.943141463445268,-1.210680401813971,-0.2060167993234903,-0.194486677646637,-0.07615643739700317,-0.08750975131988525,0.00600123405456543,0.01325663924217224,0.007391393184661865,1,0.5150976777076721,0.2494170218706131,0.6424393057823181,-0.5096442699432373,-0.9160658717155457,0.2045625597238541,-0.3449310660362244,0,0,0,-1,10177.3216735,3,2,1562003688.195666,0,0,0,0,0,0,0,0,0,10176.097915,0,-0.5178223,75.30489,3232235528,182473588,1,1,0.31,-25.82167,-31.73408,2
1562003689.450441,122,0,0,1562003689.037178,4.634793447886948,-74.15098327027873,2563.692,-1,-1,10,65,-9999,1562003689.426577,-17.58964729309082,16.21578598022461,16.46875,48.01505661010742,55.50902557373047,15,10178.56400141667,-0.8771820068359375,0.2393798828125,-0.34197998046875,10178.56400141667,-0.09316483178202398,-0.07792302823128248,-0.01829005773444619,10178.55075641667,-15.52775573730469,27.03947448730469,-522.6419677734375,10178.55893541667,-1.946909519762671,-1.213228868810016,-0.2058604941865475,-0.1233624294400215,-0.09330745786428452,-0.03916805610060692,0.03417462110519409,0.03385639190673828,0.004273414611816406,1,0.516353964805603,0.2491491585969925,0.6427712440490723,-0.5080830454826355,-0.9169718623161316,0.2044095546007156,-0.3426065742969513,0,0,0,-1,10177.3216735,3,2,1562003688.195666,0,0,0,0,0,0,0,0,0,10176.097915,0,-0.5178223,75.30489,3232235528,182473588,1,1,0.31,-25.82167,-32.25962,2
1562003689.469449,123,0,0,1562003689.037178,4.634793447886948,-74.15098327027873,2563.692,-1,-1,10,65,-9999,1562003689.451039,-17.62051391601562,16.14440155029297,16.23468017578125,48.25276184082031,55.74673080444336,15,10178.58426441667,-0.8916015625,0.23321533203125,-0.3296051025390625,10178.58426441667,-0.03992877422355802,-0.002575543090215631,0.04390993373711747,10178.57086741667,-15.53184509277344,26.82015991210938,-522.304931640625,10178.57919841667,-1.948418037453951,-1.214805163292032,-0.2062983570186558,-0.0431075431406498,-0.02570497989654541,0.02732468582689762,0.03942084312438965,0.03513678908348083,0.006504237651824951,1,0.5171383023262024,0.2490044683218002,0.6426618695259094,-0.507494330406189,-0.9174268245697021,0.2048381567001343,-0.3411295115947723,0,0,0,-1,10177.3216735,3,2,1562003688.195666,0,0,0,0,0,0,0,0,0,10176.097915,0,-0.5178223,75.30489,3232235528,182473588,1,1,0.31,-25.82167,-32.25962,2
1562003689.489141,124,0,0,1562003689.037178,4.634793447886948,-74.15098327027873,2563.692,-1,-1,10,65,-9999,1562003689.477124,-17.78811073303223,16.06542205810547,16.40093994140625,48.31674957275391,55.81071853637695,15,10178.60452841667,-0.921630859375,0.2027435302734375,-0.3194732666015625,10178.60452841667,-0.1089579096784119,0.04722530297815711,0.06085562775329167,10178.59094841667,-15.82968139648438,26.96226501464844,-522.4104614257812,10178.59946241667,-1.949195712428934,-1.214814500420874,-0.2075569461989891,-0.08928462117910385,0.03441375121474266,0.05398399382829666,0.006314277648925781,0.01235967874526978,0.01374506950378418,1,0.5174959897994995,0.2483596056699753,0.6426119804382324,-0.5075088739395142,-0.9171876311302185,0.2060699015855789,-0.3410308063030243,0,0,0,-1,10177.3216735,3,2,1562003688.195666,0,0,0,0,0,0,0,0,0,10176.097915,0,-0.5178223,75.30489,3232235528,182473588,1,1,0.31,-25.82167,-32.69857,2
1562003689.52241,125,0,0,1562003689.037178,4.634793447886948,-74.15098327027873,2563.692,-1,-1,10,65,-9999,1562003689.518516,-17.65322113037109,16.05931282043457,16.48236083984375,48.43490600585938,55.92887496948242,15,10178.62479241667,-0.9381103515625,0.1767730712890625,-0.31427001953125,10178.62479241667,-0.1587230693881776,0.05546538970697128,0.04053757284875013,10178.61105941667,-15.67286682128906,26.89030456542969,-522.3819580078125,10178.61972641667,-1.951202739139194,-1.214337914412387,-0.2095248235393476,-0.1490837782621384,0.04672527685761452,0.04806565120816231,-0.01835441589355469,-0.01637524366378784,0.02319526672363281,1,0.5179939270019531,0.2470211237668991,0.6428616046905518,-0.5073379278182983,-0.9166432023048401,0.207995131611824,-0.3413257002830505,0,0,0,-1,10177.3216735,3,2,1562003688.195666,0,0,0,0,0,0,0,0,0,10176.097915,0,-0.5178223,75.30489,3232235528,182473588,1,1,0.31,-25.82167,-33.77651,2
1562003689.529597,126,0,0,1562003689.037178,4.634793447886948,-74.15098327027873,2563.692,-1,-1,10,65,-9999,1562003689.518516,-17.65322113037109,16.05931282043457,16.48236083984375,48.43490600585938,55.92887496948242,15,10178.64505541667,-0.94024658203125,0.1688232421875,-0.31439208984375,10178.64505541667,-0.160083145756881,0.07452723152532244,0.01765223065337222,10178.63113941667,-15.48574829101562,27.01124572753906,-521.94384765625,10178.63998941667,-1.954146019064645,-1.213840564787021,-0.2112864984945223,-0.1645785719156265,0.06235403567552567,0.01761906035244465,-0.02285146713256836,-0.04097101092338562,0.03031265735626221,1,0.5185556411743164,0.2455067187547684,0.6433939337730408,-0.5068241357803345,-0.9161285758018494,0.2097179591655731,-0.3416529893875122,0,0,0,-1,10177.3216735,3,2,1562003688.195666,0,0,0,0,0,0,0,0,0,10176.097915,0,-0.5178223,75.30489,3232235528,182473588,1,1,0.31,-25.82167,-33.77651,2
1562003689.549946,127,0,0,1562003689.037178,4.634793447886948,-74.15098327027873,2563.692,-1,-1,10,65,-9999,1562003689.518516,-17.65322113037109,16.05931282043457,16.48236083984375,48.43490600585938,55.92887496948242,15,10178.66528841667,-0.935333251953125,0.1688385009765625,-0.319854736328125,10178.66528841667,-0.1126067066879294,0.1082100940443176,0.05365976648789756,10178.65122041667,-15.68035888671875,27.07301330566406,-522.1113891601562,10178.66025341667,-1.956910283411102,-1.212837485953925,-0.2128331428433921,-0.1276181638240814,0.09373779594898224,0.03966790437698364,-0.02237045764923096,-0.04425302147865295,0.02486127614974976,1,0.5188854336738586,0.2439857423305511,0.6440535187721252,-0.5063831806182861,-0.9154805541038513,0.2112299650907516,-0.3424577414989471,0,0,0,-1,10177.3216735,3,2,1562003688.195666,0,0,0,0,0,0,0,0,0,10176.097915,0,-0.5178223,75.30489,3232235528,182473588,1,1,0.31,-25.82167,-34.2024,2
1562003689.570565,128,0,0,1562003689.037178,4.634793447886948,-74.15098327027873,2563.692,-1,-1,10,65,-9999,1562003689.552342,-17.70037078857422,16.18721771240234,16.6422119140625,48.82430648803711,56.31827545166016,15,10178.68555241667,-0.927581787109375,0.161651611328125,-0.3298187255859375,10178.68555241667,-0.09253339628756618,0.1315633536432225,0.07169416075769615,10178.67130041667,-15.67384338378906,26.84103393554688,-522.166748046875,10178.68051741667,-1.958515346182887,-1.210984341759978,-0.2146713231006182,-0.09028863161802292,0.1233247146010399,0.06950543075799942,-0.01505559682846069,-0.04736164212226868,0.01760029792785645,1,0.518856406211853,0.2424455732107162,0.6445834040641785,-0.5064783692359924,-0.9144793152809143,0.21302630007267,-0.3440163433551788,0,0,0,-1,10177.3216735,3,2,1562003688.195666,0,0,0,0,0,0,0,0,0,10176.097915,0,-0.5178223,75.30489,3232235528,182473588,1,1,0.31,-25.82167,-34.46869,2
