loggingTime,loggingSample,identifierForVendor,deviceID,locationTimestamp_since1970,locationLatitude,locationLongitude,locationAltitude,locationSpeed,locationCourse,locationVerticalAccuracy,locationHorizontalAccuracy,locationFloor,locationHeadingTimestamp_since1970,locationHeadingX,locationHeadingY,locationHeadingZ,locationTrueHeading,locationMagneticHeading,locationHeadingAccuracy,accelerometerTimestamp_sinceReboot,accelerometerAccelerationX,accelerometerAccelerationY,accelerometerAccelerationZ,gyroTimestamp_sinceReboot,gyroRotationX,gyroRotationY,gyroRotationZ,magnetometerTimestamp_sinceReboot,magnetometerX,magnetometerY,magnetometerZ,motionTimestamp_sinceReboot,motionYaw,motionRoll,motionPitch,motionRotationRateX,motionRotationRateY,motionRotationRateZ,motionUserAccelerationX,motionUserAccelerationY,motionUserAccelerationZ,motionAttitudeReferenceFrame,motionQuaternionX,motionQuaternionY,motionQuaternionZ,motionQuaternionW,motionGravityX,motionGravityY,motionGravityZ,motionMagneticFieldX,motionMagneticFieldY,motionMagneticFieldZ,motionMagneticFieldCalibrationAccuracy,activityTimestamp_sinceReboot,activity,activityActivityConfidence,activityActivityStartDate,pedometerStartDate,pedometerNumberofSteps,pedometerAverageActivePace,pedometerCurrentPace,pedometerCurrentCadence,pedometerDistance,pedometerFloorAscended,pedometerFloorDescended,pedometerEndDate,altimeterTimestamp_sinceReboot,altimeterReset,altimeterRelativeAltitude,altimeterPressure,IP_en0,IP_pdp_ip0,deviceOrientation,batteryState,batteryLevel,avAudioRecorderPeakPower,avAudioRecorderAveragePower,label
1562003701.093461,1,0,0,1562003695.524804,4.634791519864301,-74.15100317554536,2563.674,-1,-1,10,65,-9999,1562003701.072385,-23.69901657104492,-10.86636543273926,15.44317626953125,124.2437133789062,131.7376861572266,15,10190.19284075,-0.1900177001953125,-0.9796142578125,-0.0363922119140625,10190.19284075,0.01709456472110962,0.05239369970567389,0.09999450839753218,10190.18383875,-21.65452575683594,0.15924072265625,-523.2377319335938,10190.18777475,-1.918574525453892,-1.355587222879589,1.365197961316033,0.02477822825312614,0.05739951133728027,0.09515224397182465,0.01070699095726013,0.0010032057762146,0.005465388298034668,1,0.1162949949502945,0.6816721558570862,0.7219861745834351,-0.0231168270111084,-0.1994429528713226,-0.9789389967918396,-0.04359709098935127,0,0,0,-1,10189.97287075,3,2,1562003700.846863,0,0,0,0,0,0,0,0,0,10187.4181,0,-0.6711426,75.30633,3232235528,182473588,1,1,0.31,-16.0822,-31.26861,4
1562003701.118409,2,0,0,1562003695.524804,4.634791519864301,-74.15100317554536,2563.674,-1,-1,10,65,-9999,1562003701.072385,-23.69901657104492,-10.86636543273926,15.44317626953125,124.2437133789062,131.7376861572266,15,10190.21310475,-0.18719482421875,-0.9830169677734375,-0.0324249267578125,10190.21310475,0.01068886335114203,-0.02247787854859579,0.09166999946216249,10190.20394975,-21.95585632324219,0.139495849609375,-523.1683959960938,10190.20803875,-1.915501977569772,-1.358063920768043,1.363350832434359,0.005284688901156187,-0.01390316523611546,0.09490057826042175,0.0135587751865387,-0.003129243850708008,0.01054114103317261,1,0.1167613714933395,0.6816335916519165,0.7219182252883911,-0.02401132509112358,-0.2013181746006012,-0.978560209274292,-0.04348485916852951,0,0,0,-1,10189.97287075,3,2,1562003700.846863,0,0,0,0,0,0,0,0,0,10187.4181,0,-0.6711426,75.30633,3232235528,182473588,1,1,0.31,-16.63948,-31.64147,4
1562003701.120549,3,0,0,1562003695.524804,4.634791519864301,-74.15100317554536,2563.674,-1,-1,10,65,-9999,1562003701.072385,-23.69901657104492,-10.86636543273926,15.44317626953125,124.2437133789062,131.7376861572266,15,10190.23336875,-0.194671630859375,-0.9825286865234375,-0.032257080078125,10190.23336875,0.04073704361439707,-0.02678261213459987,0.05357854007465015,10190.22402975,-21.70262145996094,0.1760711669921875,-523.41259765625,10190.22830275,-1.912428881033725,-1.361763104425076,1.361875072061963,0.03149658441543579,-0.0387568473815918,0.05970850586891174,0.01230762898921967,-0.004456579685211182,0.01163685321807861,1,0.1175447329878807,0.6816623210906982,0.7217521667480469,-0.02436218783259392,-0.2028899043798447,-0.9782552123069763,-0.04303942993283272,0,0,0,-1,10189.97287075,3,2,1562003700.846863,0,0,0,0,0,0,0,0,0,10187.4181,0,-0.6711426,75.30633,3232235528,182473588,1,1,0.31,-16.63948,-31.64147,4
1562003701.138543,4,0,0,1562003695.524804,4.634791519864301,-74.15100317554536,2563.674,-1,-1,10,65,-9999,1562003701.12273,-23.92448043823242,-10.7277307510376,15.6253662109375,124.1346740722656,131.6286468505859,15,10190.25363175,-0.194091796875,-0.9778594970703125,-0.039093017578125,10190.25363175,0.08056515034875009,-0.02388562550081168,0.02618579773431312,10190.24411075,-21.94361877441406,0.2642059326171875,-523.1463623046875,10190.24856575,-1.906766282239564,-1.367884987514857,1.361322074074569,0.07378518581390381,-0.0253054890781641,0.02455637417733669,0.008763685822486877,-0.004022121429443359,0.006825625896453857,1,0.1180088147521019,0.6819978952407837,0.7213544249534607,-0.02450673840939999,-0.2036794424057007,-0.9781403541564941,-0.04190558195114136,0,0,0,-1,10189.97287075,3,2,1562003700.846863,0,0,0,0,0,0,0,0,0,10187.4181,0,-0.6711426,75.30633,3232235528,182473588,1,1,0.31,-17.19676,-32.19113,4
1562003701.158351,5,0,0,1562003695.524804,4.634791519864301,-74.15100317554536,2563.674,-1,-1,10,65,-9999,1562003701.150432,-23.70676040649414,-10.59835243225098,15.6458740234375,124.1906585693359,131.6846313476562,15,10190.27389575,-0.1910247802734375,-0.9678497314453125,-0.0449066162109375,10190.27389575,0.07327288265189512,-0.04452006394285463,0.03877935389707982,10190.26422175,-21.65475463867188,0.330169677734375,-523.06982421875,10190.26882975,-1.899037218534682,-1.376143585483345,1.361156968633022,0.07295907288789749,-0.0451819896697998,0.02945659309625626,0.01046723127365112,0.007219791412353516,-0.002120256423950195,1,0.1184051036834717,0.6825346350669861,0.7207807898521423,-0.02453304827213287,-0.2041775584220886,-0.9781060218811035,-0.0402534082531929,0,0,0,-1,10189.97287075,3,2,1562003700.846863,0,0,0,0,0,0,0,0,0,10187.4181,0,-0.6711426,75.30633,3232235528,182473588,1,1,0.31,-17.75404,-32.61337,4
1562003701.194068,6,0,0,1562003695.524804,4.634791519864301,-74.15100317554536,2563.674,-1,-1,10,65,-9999,1562003701.17676,-23.8677978515625,-10.60642242431641,15.68505859375,124.2307281494141,131.7247009277344,15,10190.29412875,-0.195526123046875,-0.966461181640625,-0.0354766845703125,10190.29412875,0.07955421439895601,-0.02289546220752022,0.06531242783753927,10190.28430175,-21.8907470703125,0.231414794921875,-523.1011962890625,10190.28909375,-1.891206042940131,-1.384745878256236,1.360606132119148,0.07722944766283035,-0.03702978789806366,0.05608101189136505,0.01106005907058716,0.01120960712432861,-0.001810193061828613,1,0.1190167143940926,0.6830354928970337,0.7202028036117554,-0.02460538782179356,-0.2050450444221497,-0.9779912233352661,-0.03859507292509079,0,0,0,-1,10189.97287075,3,2,1562003700.846863,0,0,0,0,0,0,0,0,0,10187.4181,0,-0.6711426,75.30633,3232235528,182473588,1,1,0.31,-18.31131,-33.20679,4
1562003701.199012,7,0,0,1562003695.524804,4.634791519864301,-74.15100317554536,2563.674,-1,-1,10,65,-9999,1562003701.17676,-23.8677978515625,-10.60642242431641,15.68505859375,124.2307281494141,131.7247009277344,15,10190.31439275,-0.1974945068359375,-0.968017578125,-0.0386962890625,10190.31439275,0.06063671591168715,-0.009124788842938493,0.06535344051832649,10190.30438275,-21.78121948242188,0.324920654296875,-523.0980834960938,10190.30932675,-1.882892287432734,-1.393387940718287,1.359610352359134,0.06704019755125046,-0.01875730976462364,0.06634483486413956,0.009475991129875183,0.01058942079544067,0.001242220401763916,1,0.1196239590644836,0.6835154294967651,0.7196335196495056,-0.02498759329319,-0.2063296288251877,-0.9777830243110657,-0.03699353337287903,0,0,0,-1,10189.97287075,3,2,1562003700.846863,0,0,0,0,0,0,0,0,0,10187.4181,0,-0.6711426,75.30633,3232235528,182473588,1,1,0.31,-18.31131,-33.20679,4
1562003701.219209,8,0,0,1562003695.524804,4.634791519864301,-74.15100317554536,2563.674,-1,-1,10,65,-9999,1562003701.201395,-23.83036422729492,-10.53550148010254,15.69036865234375,124.2380218505859,131.7319946289062,15,10190.33465575,-0.1927490234375,-0.9720458984375,-0.036468505859375,10190.33465575,0.04909617364393778,-0.02234791628739993,0.06581230317414714,10190.32449375,-21.96357727050781,0.34783935546875,-523.137451171875,10190.32958975,-1.876968936030633,-1.39953160918123,1.358609768158032,0.04334312304854393,-0.02088890224695206,0.06061823666095734,0.01275350153446198,0.008044600486755371,-0.003933548927307129,1,0.1201482638716698,0.6838263273239136,0.7192375659942627,-0.02536199428141117,-0.207516685128212,-0.9775727391242981,-0.03589189797639847,0,0,0,-1,10189.97287075,3,2,1562003700.846863,0,0,0,0,0,0,0,0,0,10187.4181,0,-0.6711426,75.30633,3232235528,182473588,1,1,0.31,-18.86859,-33.67461,4
1562003701.239441,9,0,0,1562003695.524804,4.634791519864301,-74.15100317554536,2563.674,-1,-1,10,65,-9999,1562003701.227857,-23.94606781005859,-10.51668834686279,15.66119384765625,124.2534027099609,131.7473754882812,15,10190.35491975,-0.1965179443359375,-0.979644775390625,-0.01708984375,10190.35491975,0.1262535430618225,-0.03079120220738715,0.06893166375895696,10190.34457475,-21.78071594238281,0.272003173828125,-523.23681640625,10190.34985375,-1.86987721266866,-1.407117917256212,1.357519757627652,0.1016493067145348,-0.03726974129676819,0.06911318749189377,0.01339985430240631,0.001741468906402588,0.005696892738342285,1,0.1208198666572571,0.6842203140258789,0.7187384963035583,-0.02569249086081982,-0.2088344246149063,-0.9773426055908203,-0.03449024260044098,0,0,0,-1,10189.97287075,3,2,1562003700.846863,0,0,0,0,0,0,0,0,0,10187.4181,0,-0.6711426,75.30633,3232235528,182473588,1,1,0.31,-19.42587,-34.52998,4
1562003701.287723,10,0,0,1562003695.524804,4.634791519864301,-74.15100317554536,2563.674,-1,-1,10,65,-9999,1562003701.27791,-24.17567443847656,-10.37649726867676,15.8011474609375,124.2864685058594,131.7804412841797,15,10190.37518375,-0.2002716064453125,-0.98480224609375,-0.012451171875,10190.37518375,0.1615311064415571,-0.04741225688668068,0.04226170333846743,10190.36468575,-22.15130615234375,0.40472412109375,-522.9263916015625,10190.37011775,-1.855663831873083,-1.42176914092056,1.356829205304209,0.1664932817220688,-0.0470866858959198,0.0448715016245842,0.01491609215736389,-0.005454480648040771,0.02412664890289307,1,0.1214502677321434,0.6851906776428223,0.7176952958106995,-0.02601895108819008,-0.2099844515323639,-0.977196216583252,-0.03152713552117348,0,0,0,-1,10189.97287075,3,2,1562003700.846863,0,0,0,0,0,0,0,0,0,10187.4181,0,-0.6711426,75.30633,3232235528,182473588,1,1,0.31,-20.54043,-31.99106,4
1562003701.290471,11,0,0,1562003695.524804,4.634791519864301,-74.15100317554536,2563.674,-1,-1,10,65,-9999,1562003701.27791,-24.17567443847656,-10.37649726867676,15.8011474609375,124.2864685058594,131.7804412841797,15,10190.39544675,-0.2050628662109375,-0.985992431640625,-0.0276947021484375,10190.39544675,0.07954968702510287,-0.01894626062704172,0.03438886652397519,10190.38476575,-22.20620727539062,0.494903564453125,-522.9819946289062,10190.39038075,-1.841772363263782,-1.436341738752655,1.356549166250556,0.1064147651195526,-0.03745536506175995,0.0282115638256073,0.005614548921585083,-0.009374499320983887,0.006024360656738281,1,0.1220087110996246,0.6861950159072876,0.7166372537612915,-0.02610096335411072,-0.2106926739215851,-0.9771367311477661,-0.02850054949522018,0,0,0,-1,10189.97287075,3,2,1562003700.846863,0,0,0,0,0,0,0,0,0,10187.4181,0,-0.6711426,75.30633,3232235528,182473588,1,1,0.31,-20.54043,-31.99106,4
1562003701.301068,12,0,0,1562003695.524804,4.634791519864301,-74.15100317554536,2563.674,-1,-1,10,65,-9999,1562003701.27791,-24.17567443847656,-10.37649726867676,15.8011474609375,124.2864685058594,131.7804412841797,15,10190.41571075,-0.20556640625,-0.9810028076171875,-0.035980224609375,10190.41571075,-0.0300098307435579,0.04047525487924228,0.04790973537830748,10190.40484675,-22.189697265625,0.45587158203125,-523.2596435546875,10190.41064475,-1.8369113721803,-1.441291882258012,1.355999009382798,-0.009039922617375851,0.01954667083919048,0.04170100763440132,0.004806607961654663,-0.007950425148010254,-0.004852414131164551,1,0.1223017349839211,0.6864975690841675,0.7162889838218689,-0.02633517980575562,-0.2113648504018784,-0.9770196080207825,-0.02752674743533134,0,0,0,-1,10189.97287075,3,2,1562003700.846863,0,0,0,0,0,0,0,0,0,10187.4181,0,-0.6711426,75.30633,3232235528,182473588,1,1,0.31,-21.09771,-32.69031,4
1562003701.320548,13,0,0,1562003695.524804,4.634791519864301,-74.15100317554536,2563.674,-1,-1,10,65,-9999,1562003701.302534,-24.14932250976562,-10.42084980010986,15.58843994140625,124.2729187011719,131.7668914794922,15,10190.43592916667,-0.199493408203125,-0.974639892578125,-0.0294189453125,10190.43592916667,-0.06477367034901624,0.04850308766917713,0.06340693607758757,10190.42495775,-21.97496032714844,0.6048583984375,-522.85986328125,10190.43089416667,-1.840444974060292,-1.437030641154319,1.35494448125802,-0.06717486679553986,0.04623527079820633,0.05480722337961197,0.01100316643714905,-7.337331771850586e-05,-0.005309939384460449,1,0.1223483756184578,0.6861112117767334,0.716630220413208,-0.02689760737121105,-0.212266594171524,-0.9767943024635315,-0.02856455929577351,0,0,0,-1,10189.97287075,3,2,1562003700.846863,0,0,0,0,0,0,0,0,0,10187.4181,0,-0.6711426,75.30633,3232235528,182473588,1,1,0.31,-21.65499,-32.74287,4
1562003701.365989,14,0,0,1562003695.524804,4.634791519864301,-74.15100317554536,2563.674,-1,-1,10,65,-9999,1562003701.353127,-24.09676742553711,-10.13035011291504,15.9808349609375,124.2319030761719,131.7258758544922,15,10190.45619316667,-0.1970672607421875,-0.9706268310546875,-0.021514892578125,10190.45619316667,-0.01655474196815056,0.006742857563971623,0.05195640865468288,10190.44502316667,-22.13789367675781,0.5535125732421875,-522.9149169921875,10190.45112716667,-1.844756587976852,-1.432171431218272,1.353620556584132,-0.03323021158576012,0.01431302726268768,0.05668022111058235,0.01403439044952393,0.00595933198928833,0.004963517189025879,1,0.1225376948714256,0.6856364607810974,0.7170301079750061,-0.02747760154306889,-0.2134057283401489,-0.9765098690986633,-0.02977431379258633,0,0,0,-1,10189.97287075,3,2,1562003700.846863,0,0,0,0,0,0,0,0,0,10187.4181,0,-0.6711426,75.30633,3232235528,182473588,1,1,0.31,-22.76955,-28.64397,4
1562003701.369283,15,0,0,1562003695.524804,4.634791519864301,-74.15100317554536,2563.674,-1,-1,10,65,-9999,1562003701.353127,-24.09676742553711,-10.13035011291504,15.9808349609375,124.2319030761719,131.7258758544922,15,10190.47645716667,-0.198333740234375,-0.9767303466796875,-0.0198516845703125,10190.47645716667,0.04795527543294784,-0.04222894645705946,0.0362043434390822,10190.46510416667,-22.12423706054688,0.8037872314453125,-522.7818603515625,10190.47139116667,-1.844284269459007,-1.432960392233399,1.352746994516585,0.03138020634651184,-0.04513858258724213,0.03552939742803574,0.01944999396800995,0.001437246799468994,0.01022243499755859,1,0.1229568272829056,0.6855800747871399,0.7170045375823975,-0.02767948433756828,-0.2142742127180099,-0.976321280002594,-0.029723159968853,0,0,0,-1,10189.97287075,3,2,1562003700.846863,0,0,0,0,0,0,0,0,0,10187.4181,0,-0.6711426,75.30633,3232235528,182473588,1,1,0.31,-22.76955,-28.64397,4
1562003701.381489,16,0,0,1562003695.524804,4.634791519864301,-74.15100317554536,2563.674,-1,-1,10,65,-9999,1562003701.379354,-24.06694412231445,-10.40360450744629,15.96533203125,124.2705993652344,131.7645721435547,15,10190.49672016667,-0.2060546875,-0.9827728271484375,-0.0130767822265625,10190.47645716667,0.04795527543294784,-0.04222894645705946,0.0362043434390822,10190.48518516667,-22.00247192382812,0.43017578125,-522.8271484375,10190.49165416667,-1.83828919243299,-1.439678548665679,1.352259104173717,0.08426046371459961,-0.02750872261822224,0.03331631049513817,0.01290015876293182,-0.003627538681030273,0.01110291481018066,1,0.1234753429889679,0.6859892010688782,0.7165234684944153,-0.02769418060779572,-0.2149417847394943,-0.9762156009674072,-0.02834531106054783,0,0,0,-1,10189.97287075,3,2,1562003700.846863,0,0,0,0,0,0,0,0,0,10187.4181,0,-0.6711426,75.30633,3232235528,182473588,1,1,0.31,-22.76955,-28.64397,4
1562003701.402222,17,0,0,1562003695.524804,4.634791519864301,-74.15100317554536,2563.674,-1,-1,10,65,-9999,1562003701.379354,-24.06694412231445,-10.40360450744629,15.96533203125,124.2705993652344,131.7645721435547,15,10190.51698416667,-0.2122650146484375,-0.9771728515625,-0.0246124267578125,10190.51698416667,0.04894623767456632,0.02987587374072691,0.05228264588821759,10190.50529616667,-22.14637756347656,0.5933380126953125,-522.8564453125,10190.51191816667,-1.830300509096999,-1.447532815437727,1.351740417833384,0.06380711495876312,0.01608669199049473,0.04434419423341751,0.005240648984909058,-0.005983114242553711,0.0109407901763916,1,0.1237246915698051,0.686536967754364,0.7159420251846313,-0.0280392337590456,-0.2156593501567841,-0.9761030673980713,-0.0267183855175972,0,0,0,-1,10189.97287075,3,2,1562003700.846863,0,0,0,0,0,0,0,0,0,10187.4181,0,-0.6711426,75.30633,3232235528,182473588,1,1,0.31,-23.32682,-29.32673,4
1562003701.44605,18,0,0,1562003695.524804,4.634791519864301,-74.15100317554536,2563.674,-1,-1,10,65,-9999,1562003701.430602,-24.01990509033203,-10.04102993011475,15.71380615234375,124.1751556396484,131.6691284179688,15,10190.53724816667,-0.2123260498046875,-0.968231201171875,-0.0285491943359375,10190.53724816667,-0.02088184610731131,0.0576166912355373,0.06271770998747507,10190.52537616667,-21.94343566894531,0.8437042236328125,-523.103515625,10190.53218216667,-1.827250338601687,-1.449824871384783,1.350750291956379,-0.009992800652980804,0.04785607010126114,0.05959025770425797,0.004277676343917847,0.004757046699523926,-0.004680395126342773,1,0.1238368153572083,0.686654269695282,0.71578449010849,-0.02868916839361191,-0.2166800200939178,-0.9758874177932739,-0.02634071372449398,0,0,0,-1,10189.97287075,3,2,1562003700.846863,0,0,0,0,0,0,0,0,0,10187.4181,0,-0.6711426,75.30633,3232235528,182473588,1,1,0.31,-24.44138,-30.26738,4
1562003701.450476,19,0,0,1562003695.524804,4.634791519864301,-74.15100317554536,2563.674,-1,-1,10,65,-9999,1562003701.430602,-24.01990509033203,-10.04102993011475,15.71380615234375,124.1751556396484,131.6691284179688,15,10190.55751116667,-0.2042694091796875,-0.9722900390625,-0.017425537109375,10190.55751116667,-0.01448999317501213,0.02169570813643952,0.05547577603522259,10190.54548716667,-22.25840759277344,0.7015838623046875,-523.0472412109375,10190.55244516667,-1.828881797532203,-1.44733442748118,1.349582647158033,-0.02530171535909176,0.02982700429856777,0.053567785769701,0.01139917969703674,0.007354915142059326,0.0005769729614257812,1,0.1239055022597313,0.6863943338394165,0.7159943580627441,-0.02936540730297565,-0.2177437841892242,-0.9756318926811218,-0.02702048979699612,0,0,0,-1,10189.97287075,3,2,1562003700.846863,0,0,0,0,0,0,0,0,0,10187.4181,0,-0.6711426,75.30633,3232235528,182473588,1,1,0.31,-24.44138,-30.26738,4
1562003701.462296,20,0,0,1562003695.524804,4.634791519864301,-74.15100317554536,2563.674,-1,-1,10,65,-9999,1562003701.454408,-24.10669326782227,-10.20294952392578,15.93231201171875,124.1538391113281,131.6478118896484,15,10190.57774416667,-0.200775146484375,-0.9794464111328125,-0.00244140625,10190.57774416667,0.04058817290946164,-0.04213600213501569,0.06095256681697055,10190.56556816667,-22.13461303710938,0.674346923828125,-522.8026733398438,10190.57270916667,-1.828468223437461,-1.44772265996147,1.348581849547125,0.02493935078382492,-0.03151491284370422,0.05201063677668571,0.01753652095794678,-0.003347992897033691,0.01893818378448486,1,0.1242450550198555,0.6863200664520264,0.7159917950630188,-0.02972866967320442,-0.2187236398458481,-0.9754117727279663,-0.02705586515367031,0,0,0,-1,10189.97287075,3,2,1562003700.846863,0,0,0,0,0,0,0,0,0,10187.4181,0,-0.6711426,75.30633,3232235528,182473588,1,1,0.31,-24.99866,-30.45902,4
1562003701.482638,21,0,0,1562003695.524804,4.634791519864301,-74.15100317554536,2563.674,-1,-1,10,65,-9999,1562003701.480722,-24.14686584472656,-10.36301612854004,15.912841796875,124.2182006835938,131.7121734619141,15,10190.59800816667,-0.2081756591796875,-0.9754180908203125,-0.0078582763671875,10190.59800816667,0.07496904995016658,-0.0607190075893706,0.07768147952041229,10190.58564816667,-22.15655517578125,0.4647979736328125,-522.885009765625,10190.59294216667,-1.823207010021595,-1.454061630880682,1.347394635957656,0.06720265001058578,-0.07949335873126984,0.07587788254022598,0.01430585980415344,-0.005807578563690186,0.02276712656021118,1,0.1251147538423538,0.6866181492805481,0.7155493497848511,-0.02984814159572124,-0.2200401127338409,-0.9751494526863098,-0.02580363117158413,0,0,0,-1,10189.97287075,3,2,1562003700.846863,0,0,0,0,0,0,0,0,0,10187.4181,0,-0.6711426,75.30633,3232235528,182473588,1,1,0.31,-25.55594,-31.28899,4
1562003701.532441,22,0,0,1562003695.524804,4.634791519864301,-74.15100317554536,2563.674,-1,-1,10,65,-9999,1562003701.505664,-24.26482772827148,-10.0733003616333,15.91961669921875,124.2231140136719,131.7170867919922,15,10190.61827216667,-0.212493896484375,-0.96209716796875,-0.010528564453125,10190.61827216667,0.06450735424000832,0.0319760425763634,0.07318286780705044,10190.60576016667,-22.31376647949219,0.81756591796875,-522.8265380859375,10190.61320616667,-1.815729086060402,-1.462179399576696,1.346137029003945,0.07394310832023621,0.007726496085524559,0.06655948609113693,0.01136280596256256,0.01124703884124756,0.01647424697875977,1,0.1258811354637146,0.6870802044868469,0.7149575352668762,-0.03017241507768631,-0.2214610725641251,-0.9748700857162476,-0.024149464443326,0,0,0,-1,10189.97287075,3,2,1562003700.846863,0,0,0,0,0,0,0,0,0,10187.4181,0,-0.6711426,75.30633,3232235528,182473588,1,1,0.31,-26.6705,-31.2571,4
1562003701.536245,23,0,0,1562003695.524804,4.634791519864301,-74.15100317554536,2563.674,-1,-1,10,65,-9999,1562003701.505664,-24.26482772827148,-10.0733003616333,15.91961669921875,124.2231140136719,131.7170867919922,15,10190.63853516667,-0.2115020751953125,-0.95355224609375,-0.0335693359375,10190.63853516667,0.01383245870187156,0.07777708700354613,0.1013463289668564,10190.62584016667,-22.11241149902344,0.885498046875,-522.8182373046875,10190.63347016667,-1.810410953707719,-1.466678420567046,1.344747520011855,0.02846377715468407,0.05261354148387909,0.08721309900283813,0.009230285882949829,0.01377463340759277,-0.005179286003112793,1,0.1261387765407562,0.6873443126678467,0.7146222591400146,-0.03101154044270515,-0.2229143679141998,-0.9745596051216125,-0.02329361066222191,0,0,0,-1,10189.97287075,3,2,1562003700.846863,0,0,0,0,0,0,0,0,0,10187.4181,0,-0.6711426,75.30633,3232235528,182473588,1,1,0.31,-26.6705,-31.2571,4
1562003701.543287,24,0,0,1562003695.524804,4.634791519864301,-74.15100317554536,2563.674,-1,-1,10,65,-9999,1562003701.505664,-24.26482772827148,-10.0733003616333,15.91961669921875,124.2231140136719,131.7170867919922,15,10190.65879916667,-0.2036590576171875,-0.93719482421875,-0.0167388916015625,10190.65879916667,-0.03504427046824369,0.2889481845836352,0.1840081860418259,10190.64592116667,-22.36190795898438,0.746795654296875,-522.9422607421875,10190.65373316667,-1.809169016603869,-1.465631812993865,1.342365099577153,-0.02494937926530838,0.2017537504434586,0.1631331741809845,0.01880866289138794,0.02642148733139038,-0.001055419445037842,1,0.1261558830738068,0.6871676445007324,0.7147164344787598,-0.03264681622385979,-0.2251990437507629,-0.9740228652954102,-0.0237706433981657,0,0,0,-1,10189.97287075,3,2,1562003700.846863,0,0,0,0,0,0,0,0,0,10187.4181,0,-0.6711426,75.30633,3232235528,182473588,1,1,0.31,-26.6705,-31.2571,4
1562003701.563519,25,0,0,1562003695.524804,4.634791519864301,-74.15100317554536,2563.674,-1,-1,10,65,-9999,1562003701.545894,-24.34343719482422,-10.09553527832031,15.86822509765625,124.1253204345703,131.6192932128906,15,10190.67906316667,-0.19244384765625,-0.919708251953125,0.005218505859375,10190.67906316667,-0.08386747010044834,0.512949060715181,0.2115444727649182,10190.66603216667,-22.32501220703125,0.824737548828125,-523.1099243164062,10190.67399716667,-1.811661471304596,-1.455909660208641,1.338470569142121,-0.07433477789163589,0.4941491186618805,0.2069687992334366,0.03963679075241089,0.04761165380477905,0.02463877201080322,1,0.1248725205659866,0.6864474415779114,0.7154495716094971,-0.03645123168826103,-0.2287236899137497,-0.9731335639953613,-0.02639352716505527,0,0,0,-1,10189.97287075,3,2,1562003700.846863,0,0,0,0,0,0,0,0,0,10187.4181,0,-0.6711426,75.30633,3232235528,182473588,1,1,0.31,-22.40773,-22.40773,4
1562003701.592536,26,0,0,1562003701.557202,4.63479120702074,-74.15100502934915,2563.731,-1,-1,10,65,-9999,1562003701.581967,-24.4465217590332,-9.952781677246094,15.54547119140625,123.1747894287109,130.6687622070312,15,10190.69929616667,-0.217254638671875,-0.9794769287109375,-0.0724639892578125,10190.69929616667,-0.163274944323341,0.1851144631586448,0.3035518947371937,10190.68611216667,-22.47024536132812,0.9273681640625,-523.2636108398438,10190.69426116667,-1.817758766926728,-1.441277306232694,1.333625231632849,-0.1394908726215363,0.2676272988319397,0.2801101207733154,0.01937863230705261,0.03421658277511597,-0.001895785331726074,1,0.1233854964375496,0.6852758526802063,0.7165852785110474,-0.0409717932343483,-0.2329864203929901,-0.9720064997673035,-0.03034605085849762,0,0,0,-1,10189.97287075,3,2,1562003700.846863,0,0,0,0,0,0,0,0,0,10187.4181,0,-0.6711426,75.30633,3232235528,182473588,1,1,0.31,-22.40773,-23.22248,4
1562003701.604,27,0,0,1562003701.557202,4.63479120702074,-74.15100502934915,2563.731,-1,-1,10,65,-9999,1562003701.581967,-24.4465217590332,-9.952781677246094,15.54547119140625,123.1747894287109,130.6687622070312,15,10190.71956016667,-0.2379913330078125,-0.977020263671875,-0.039276123046875,10190.71956016667,-0.2213742003484006,0.05042535734399633,0.3223349035894136,10190.70622316667,-22.62794494628906,1.036041259765625,-523.245849609375,10190.71452416667,-1.82955603979735,-1.427208902950227,1.327012707257464,-0.2152982801198959,0.0451713427901268,0.3149541020393372,0.02253752946853638,-0.0180022120475769,-0.03131735324859619,1,0.1246384903788567,0.6835169792175293,0.7178767919540405,-0.04384803026914597,-0.2388918995857239,-0.9704316258430481,-0.03453957289457321,0,0,0,-1,10189.97287075,3,2,1562003700.846863,0,0,0,0,0,0,0,0,0,10187.4181,0,-0.6711426,75.30633,3232235528,182473588,1,1,0.31,-22.40773,-23.46192,4
1562003701.624308,28,0,0,1562003701.557202,4.63479120702074,-74.15100502934915,2563.731,-1,-1,10,65,-9999,1562003701.606804,-24.64711380004883,-9.840507507324219,15.5030517578125,123.1053771972656,130.5993499755859,15,10190.73982316667,-0.2739715576171875,-0.9915771484375,-0.040679931640625,10190.73982316667,-0.2074655752393528,0.1607651813120503,0.3011545171239044,10190.72630416667,-22.84577941894531,1.352203369140625,-523.470703125,10190.73475716667,-1.843834417775759,-1.412043060335954,1.319962958199081,-0.2199090123176575,0.1146713271737099,0.3151770234107971,-0.02068722248077393,-0.01527237892150879,0.008523166179656982,1,0.1264638155698776,0.6814597249031067,0.7193560004234314,-0.04633095115423203,-0.2450903654098511,-0.9687058925628662,-0.03923909366130829,0,0,0,-1,10189.97287075,3,2,1562003700.846863,0,0,0,0,0,0,0,0,0,10187.4181,0,-0.6711426,75.30633,3232235528,182473588,1,1,0.31,-18.52996,-23.7154,4
1562003701.644587,29,0,0,1562003701.557202,4.63479120702074,-74.15100502934915,2563.731,-1,-1,10,65,-9999,1562003701.632535,-25.08519744873047,-9.591205596923828,15.2008056640625,123.0113067626953,130.5052795410156,15,10190.76008716667,-0.253875732421875,-0.9804840087890625,-0.038818359375,10190.76008716667,-0.1487977343215612,0.2557143310244274,0.2082019392807597,10190.74638516667,-23.10235595703125,1.346084594726562,-523.6380615234375,10190.75502116667,-1.855638665761853,-1.396839068066552,1.314041558906861,-0.1657696068286896,0.2376473098993301,0.2116040289402008,-0.01273715496063232,-0.02211493253707886,0.003303408622741699,1,0.1270169913768768,0.6796250939369202,0.720795750617981,-0.04929492250084877,-0.2501107454299927,-0.9672191739082336,-0.0439528301358223,0,0,0,-1,10189.97287075,3,2,1562003700.846863,0,0,0,0,0,0,0,0,0,10187.4181,0,-0.6711426,75.30633,3232235528,182473588,1,1,0.31,-18.52996,-24.51764,4
1562003701.680901,30,0,0,1562003701.557202,4.63479120702074,-74.15100502934915,2563.731,-1,-1,10,65,-9999,1562003701.656898,-24.98554611206055,-9.611292839050293,15.1177978515625,122.7299957275391,130.2239685058594,15,10190.78035116667,-0.2461395263671875,-0.959808349609375,-0.0541839599609375,10190.78035116667,-0.08194812990282824,0.1973144041122978,0.2592177194384266,10190.76649616667,-22.92750549316406,1.30670166015625,-523.6846313476562,10190.77528516667,-1.862896686725067,-1.384911300352975,1.309266464791306,-0.1010651886463165,0.2148796766996384,0.2410615235567093,0.001358479261398315,-0.009529352188110352,0.00867772102355957,1,0.1267953217029572,0.6782550811767578,0.7219077944755554,-0.0523667186498642,-0.2541050612926483,-0.9659955501556396,-0.04778598248958588,0,0,0,-1,10189.97287075,3,2,1562003700.846863,0,0,0,0,0,0,0,0,0,10188.361384,0,-0.6711426,75.30633,3232235528,182473588,1,1,0.31,-18.52996,-25.35459,4
1562003701.685142,31,0,0,1562003701.557202,4.63479120702074,-74.15100502934915,2563.731,-1,-1,10,65,-9999,1562003701.683323,-25.21781158447266,-9.83414363861084,14.79925537109375,122.5189056396484,130.0128784179688,15,10190.80061416667,-0.233551025390625,-0.9421234130859375,-0.0570526123046875,10190.80061416667,0.006677876433373689,0.07050106458934065,0.2924912540978766,10190.78657616667,-23.27255249023438,0.9271392822265625,-524.0473022460938,10190.79554816667,-1.863764240364662,-1.380729895311635,1.303811159432957,-0.01700969785451889,0.100552573800087,0.2833759486675262,0.02527865767478943,0.01791542768478394,-0.009147584438323975,1,0.1274233758449554,0.6773786544799805,0.722398042678833,-0.05534056201577187,-0.2590738236904144,-0.9645706415176392,-0.04984288290143013,0,0,0,-1,10189.97287075,3,2,1562003700.846863,0,0,0,0,0,0,0,0,0,10188.361384,0,-0.6711426,75.30633,3232235528,182473588,1,1,0.31,-18.52996,-25.35459,4
1562003701.705431,32,0,0,1562003701.557202,4.63479120702074,-74.15100502934915,2563.731,-1,-1,10,65,-9999,1562003701.683323,-25.21781158447266,-9.83414363861084,14.79925537109375,122.5189056396484,130.0128784179688,15,10190.82087816667,-0.257171630859375,-0.9417266845703125,-0.03363037109375,10190.82087816667,0.1033857777296391,-0.01787433828828482,0.2802281962263887,10190.80668716667,-23.28855895996094,1.292160034179688,-523.6950073242188,10190.81581216667,-1.857248309269572,-1.386190905199389,1.298186470798695,0.08116959780454636,-0.00138470996171236,0.2854776978492737,0.0181349515914917,0.02168053388595581,-0.0003364682197570801,1,0.1290899217128754,0.6772182583808899,0.7220620512962341,-0.05777261778712273,-0.2646712064743042,-0.9630714654922485,-0.04942244663834572,0,0,0,-1,10189.97287075,3,2,1562003700.846863,0,0,0,0,0,0,0,0,0,10188.361384,0,-0.6711426,75.30633,3232235528,182473588,1,1,0.31,-18.52996,-24.64094,4
1562003701.725738,33,0,0,1562003701.557202,4.63479120702074,-74.15100502934915,2563.731,-1,-1,10,65,-9999,1562003701.708209,-25.27005386352539,-9.599858283996582,15.007080078125,122.4671325683594,129.9611053466797,15,10190.84111116667,-0.267303466796875,-0.9519805908203125,-0.014801025390625,10190.84111116667,0.1128493206632356,-0.132387335684493,0.2234935439438857,10190.82676816667,-23.30949401855469,1.533538818359375,-523.8995361328125,10190.83607616667,-1.845516818034321,-1.398525765694776,1.293296693067919,0.123956210911274,-0.1078653410077095,0.2419696599245071,0.005599260330200195,0.01864343881607056,0.02536952495574951,1,0.1312218606472015,0.6777170896530151,0.7210682034492493,-0.05950633808970451,-0.2698967456817627,-0.9617434144020081,-0.0469607375562191,0,0,0,-1,10189.97287075,3,2,1562003700.846863,0,0,0,0,0,0,0,0,0,10188.361384,0,-0.6711426,75.30633,3232235528,182473588,1,1,0.31,-18.52996,-23.44358,4
1562003701.76119,34,0,0,1562003701.557202,4.63479120702074,-74.15100502934915,2563.731,-1,-1,10,65,-9999,1562003701.758269,-25.17340469360352,-9.311635971069336,15.0626220703125,122.8646392822266,130.3586120605469,15,10190.86137516667,-0.2773895263671875,-0.9665374755859375,-0.0179901123046875,10190.86137516667,-0.03999508693470099,-0.2116041275733359,0.2199446154752461,10190.84684816667,-23.15101623535156,1.497772216796875,-523.8418579101562,10190.85633916667,-1.837398508090853,-1.409603766590127,1.289369284690149,0.003795981872826815,-0.2045125365257263,0.2014755010604858,0.002779603004455566,0.000897526741027832,0.03135979175567627,1,0.133793905377388,0.6780945658683777,0.7201968431472778,-0.0600290521979332,-0.2741266489028931,-0.9606600999832153,-0.04457390308380127,0,0,0,-1,10189.97287075,3,2,1562003700.846863,0,0,0,0,0,0,0,0,0,10188.361384,0,-0.6711426,75.30633,3232235528,182473588,1,1,0.31,-18.52996,-24.46447,4
1562003701.766886,35,0,0,1562003701.557202,4.63479120702074,-74.15100502934915,2563.731,-1,-1,10,65,-9999,1562003701.758269,-25.17340469360352,-9.311635971069336,15.0626220703125,122.8646392822266,130.3586120605469,15,10190.88163816667,-0.280181884765625,-0.958404541015625,-0.0276336669921875,10190.88163816667,-0.2271015945887251,-0.145429368174829,0.3018187094997701,10190.86696016667,-23.196044921875,1.531829833984375,-523.72900390625,10190.87657316667,-1.84084591999329,-1.410495068262615,1.284382392038254,-0.1767953634262085,-0.180496409535408,0.2786597609519958,-0.002754718065261841,-0.006511390209197998,0.02052700519561768,1,0.136975035071373,0.67726731300354,0.7203626036643982,-0.0602041631937027,-0.2788920104503632,-0.9592631459236145,-0.04509365186095238,0,0,0,-1,10189.97287075,3,2,1562003700.846863,0,0,0,0,0,0,0,0,0,10188.361384,0,-0.6711426,75.30633,3232235528,182473588,1,1,0.31,-18.52996,-24.46447,4
1562003701.786488,36,0,0,1562003701.557202,4.63479120702074,-74.15100502934915,2563.731,-1,-1,10,65,-9999,1562003701.784554,-25.2204475402832,-9.237312316894531,15.08233642578125,123.1596527099609,130.6536254882812,15,10190.90190216667,-0.2644195556640625,-0.9438018798828125,-0.0475921630859375,10190.90190216667,-0.4541403385757242,-0.06402185997328687,0.3647808976753145,10190.88704016667,-23.2386474609375,1.601837158203125,-523.6947021484375,10190.89683616667,-1.857092741656935,-1.397505101229632,1.277180376891312,-0.3977293372154236,-0.08387905359268188,0.3498380482196808,0.02102750539779663,0.00851893424987793,0.01383072137832642,1,0.1402199119329453,0.6748237609863281,0.7219446301460266,-0.0612151175737381,-0.2850808501243591,-0.9572036266326904,-0.0499025359749794,0,0,0,-1,10189.97287075,3,2,1562003700.846863,0,0,0,0,0,0,0,0,0,10188.361384,0,-0.6711426,75.30633,3232235528,182473588,1,1,0.31,-17.50375,-18.88258,4
1562003701.806757,37,0,0,1562003701.557202,4.63479120702074,-74.15100502934915,2563.731,-1,-1,10,65,-9999,1562003701.784554,-25.2204475402832,-9.237312316894531,15.08233642578125,123.1596527099609,130.6536254882812,15,10190.92216616667,-0.2792816162109375,-0.9667816162109375,-0.0298614501953125,10190.92216616667,-0.6168384422069541,-0.1404236905899161,0.3443523215855347,10190.90712116667,-23.30197143554688,1.805938720703125,-523.8565063476562,10190.91710016667,-1.886507603343566,-1.370952580078842,1.268115681437744,-0.594734787940979,-0.1073891744017601,0.355576366186142,0.0197780430316925,0.001309037208557129,0.01768505573272705,1,0.1435578763484955,0.6706745028495789,0.725028932094574,-0.06260877102613449,-0.2921474277973175,-0.9545408487319946,-0.05917369574308395,0,0,0,-1,10189.97287075,3,2,1562003700.846863,0,0,0,0,0,0,0,0,0,10188.361384,0,-0.6711426,75.30633,3232235528,182473588,1,1,0.31,-16.90869,-19.24183,4
1562003701.845884,38,0,0,1562003701.557202,4.63479120702074,-74.15100502934915,2563.731,-1,-1,10,65,-9999,1562003701.835179,-25.50661087036133,-9.163980484008789,15.1265869140625,124.1014862060547,131.595458984375,15,10190.94242916667,-0.33837890625,-1.040451049804688,-0.007232666015625,10190.94242916667,-0.5850115366516351,-0.2692189545961102,0.1985490455936585,10190.92723216667,-23.35673522949219,1.948150634765625,-523.6387939453125,10190.93736416667,-1.921969325219334,-1.340851537721081,1.259300115099378,-0.5963412523269653,-0.2531048357486725,0.2494478076696396,-0.006973057985305786,-0.04316478967666626,0.05657964944839478,1,0.1474041193723679,0.665841281414032,0.7286885976791382,-0.06277242302894592,-0.2984163463115692,-0.9518760442733765,-0.06985482573509216,0,0,0,-1,10189.97287075,3,2,1562003700.846863,0,0,0,0,0,0,0,0,0,10188.361384,0,-0.6711426,75.30633,3232235528,182473588,1,1,0.31,-16.90869,-19.45925,4
1562003701.850033,39,0,0,1562003701.557202,4.63479120702074,-74.15100502934915,2563.731,-1,-1,10,65,-9999,1562003701.835179,-25.50661087036133,-9.163980484008789,15.1265869140625,124.1014862060547,131.595458984375,15,10190.96269316667,-0.4376373291015625,-1.14068603515625,-0.0596923828125,10190.96269316667,-0.69736178092659,-0.06906508812956992,-0.06565757351481354,10190.94731216667,-23.49354553222656,1.7379150390625,-523.6904907226562,10190.95762716667,-1.957704667383015,-1.311942924480589,1.253790172455553,-0.6398364901542664,-0.1673590391874313,0.00741973239928484,-0.07263952493667603,-0.135535717010498,0.05284559726715088,1,0.1505185961723328,0.6613984107971191,0.7322260737419128,-0.06116651743650436,-0.3013381659984589,-0.9501729011535645,-0.07979258894920349,0,0,0,-1,10189.97287075,3,2,1562003700.846863,0,0,0,0,0,0,0,0,0,10188.361384,0,-0.6711426,75.30633,3232235528,182473588,1,1,0.31,-16.90869,-17.78494,4
1562003701.868125,40,0,0,1562003701.557202,4.63479120702074,-74.15100502934915,2563.731,-1,-1,10,65,-9999,1562003701.859552,-25.22294998168945,-9.335056304931641,14.95050048828125,124.5002136230469,131.9941864013672,15,10190.98292616667,-0.5356903076171875,-1.295822143554688,-0.12237548828125,10190.98292616667,-1.012173787068748,0.4334779369422355,-0.5470409847776123,10190.96739316667,-23.10826110839844,1.509384155273438,-523.8803100585938,10190.97789116667,-2.009274544668671,-1.26205341254141,1.252916678930573,-0.9323599934577942,0.2914599478244781,-0.4139828979969025,-0.2090007066726685,-0.2631582021713257,-0.005247056484222412,1,0.1494530290365219,0.6558791399002075,0.7375722527503967,-0.05893568694591522,-0.2977741956710815,-0.9499002695083618,-0.09497269243001938,0,0,0,-1,10189.97287075,3,2,1562003700.846863,0,0,0,0,0,0,0,0,0,10188.361384,0,-0.6711426,75.30633,3232235528,182473588,1,1,0.31,-16.90869,-17.78494,4
1562003701.887725,41,0,0,1562003701.557202,4.63479120702074,-74.15100502934915,2563.731,-1,-1,10,65,-9999,1562003701.885848,-25.24446487426758,-9.610243797302246,14.50616455078125,124.25,131.7439727783203,15,10191.00319016667,-0.5932159423828125,-1.435195922851562,-0.1336517333984375,10191.00319016667,-1.357117596732389,0.7102895638061616,-1.14102577640616,10190.98750416667,-23.25704956054688,1.149810791015625,-524.4469604492188,10190.99815516667,-2.092228280940382,-1.17244926689728,1.258420473245324,-1.268316388130188,0.6997070908546448,-0.984527051448822,-0.2739620804786682,-0.4159933924674988,-0.004372715950012207,1,0.1415251344442368,0.6483567953109741,0.7459974884986877,-0.05560487136244774,-0.2832583785057068,-0.9516060948371887,-0.1192082017660141,0,0,0,-1,10189.97287075,3,2,1562003700.846863,0,0,0,0,0,0,0,0,0,10188.361384,0,-0.6711426,75.30633,3232235528,182473588,1,1,0.31,-14.47741,-14.47741,4
1562003701.925361,42,0,0,1562003701.557202,4.63479120702074,-74.15100502934915,2563.731,-1,-1,10,65,-9999,1562003701.910288,-25.15851974487305,-10.45520687103271,14.2718505859375,124.0222473144531,131.5162200927734,15,10191.02345416667,-0.650848388671875,-1.519027709960938,-0.25970458984375,10191.02345416667,-1.510775067411127,0.3770498145012005,-1.681938028567173,10191.00758516667,-23.13414001464844,0.267425537109375,-524.5726318359375,10191.01838816667,-2.216801982571516,-1.040884248551646,1.268945002215197,-1.538140416145325,0.4764881134033203,-1.57783567905426,-0.3576506972312927,-0.5368046760559082,-0.02923786640167236,1,0.1290186792612076,0.6389216780662537,0.7568607330322266,-0.04790667071938515,-0.2565155625343323,-0.9547877311706543,-0.1502665430307388,0,0,0,-1,10189.97287075,3,2,1562003700.846863,0,0,0,0,0,0,0,0,0,10188.361384,0,-0.6711426,75.30633,3232235528,182473588,1,1,0.31,-12.50489,-15.86355,4
1562003701.928365,43,0,0,1562003701.557202,4.63479120702074,-74.15100502934915,2563.731,-1,-1,10,65,-9999,1562003701.910288,-25.15851974487305,-10.45520687103271,14.2718505859375,124.0222473144531,131.5162200927734,15,10191.04371716667,-0.7293548583984375,-1.554214477539062,-0.3723602294921875,10191.04371716667,-0.764648676396314,0.3215732395176509,-2.300054788097365,10191.02769616667,-22.90155029296875,-0.7500762939453125,-525.220947265625,10191.03865116667,-2.367368193027151,-0.8903100624722164,1.283302783128412,-1.036860823631287,0.2571283280849457,-2.093571424484253,-0.4883005619049072,-0.5806847214698792,-0.1514021158218384,1,0.1154995337128639,0.6304436326026917,0.7668271064758301,-0.03430724516510963,-0.2203939110040665,-0.9589576125144958,-0.1784013658761978,0,0,0,-1,10189.97287075,3,2,1562003700.846863,0,0,0,0,0,0,0,0,0,10188.361384,0,-0.6711426,75.30633,3232235528,182473588,1,1,0.31,-12.50489,-15.86355,4
1562003701.948591,44,0,0,1562003701.557202,4.63479120702074,-74.15100502934915,2563.731,-1,-1,10,65,-9999,1562003701.93647,-24.55876541137695,-12.64760303497314,13.4085693359375,123.9124908447266,131.4064636230469,15,10191.06398116667,-0.792205810546875,-1.581344604492188,-0.400482177734375,10191.06398116667,0.296132594256342,0.8660115169619288,-3.314391594603475,10191.04777616667,-22.42184448242188,-2.009048461914062,-525.5009155273438,10191.05891516667,-2.526470371762874,-0.7282599750557904,1.3142669551715,0.07918394356966019,0.6964185833930969,-3.060680866241455,-0.5724457502365112,-0.5978938937187195,-0.2022383213043213,1,0.09593754261732101,0.6293761730194092,0.7709764838218689,-0.01663619093596935,-0.1688720285892487,-0.967276394367218,-0.1893632411956787,0,0,0,-1,10189.97287075,3,2,1562003700.846863,0,0,0,0,0,0,0,0,0,10188.361384,0,-0.6711426,75.30633,3232235528,182473588,1,1,0.31,-4.166746,-15.7016,4
1562003701.968846,45,0,0,1562003701.557202,4.63479120702074,-74.15100502934915,2563.731,-1,-1,10,65,-9999,1562003701.961048,-23.76808929443359,-14.18805885314941,12.96771240234375,122.6287536621094,130.1227264404297,15,10191.08424516667,-0.952362060546875,-1.636245727539062,-0.4120635986328125,10191.08424516667,0.7346947720356477,1.446713526337598,-4.262771754604356,10191.06785716667,-21.59893798828125,-3.653732299804688,-525.9277954101562,10191.07917916667,-2.764368035279018,-0.4758535873839621,1.362697118457904,0.6652791500091553,1.345643043518066,-4.058465003967285,-0.7881540656089783,-0.6373583078384399,-0.227881908416748,1,0.0650523453950882,0.6355661749839783,0.769288957118988,0.004283524584025145,-0.09464317560195923,-0.9784253835678101,-0.1836476624011993,0,0,0,-1,10189.97287075,3,2,1562003700.846863,0,0,0,0,0,0,0,0,0,10188.361384,0,-0.6711426,75.30633,3232235528,182473588,1,1,0.31,-4.166746,-16.17889,4
1562003702.005521,46,0,0,1562003701.557202,4.63479120702074,-74.15100502934915,2563.731,-1,-1,10,65,-9999,1562003701.991999,-22.89402008056641,-15.36257743835449,12.674072265625,120.4493637084961,127.9433364868164,15,10191.10450816667,-1.007080078125,-1.54327392578125,-0.3880767822265625,10191.10450816667,1.070762798418273,1.396654619959596,-4.895311928282308,10191.08796816667,-20.705810546875,-4.741622924804688,-526.21923828125,10191.09944216667,3.07238735660676,-0.007428261343464654,1.400993724257783,0.9725349545478821,1.473865151405334,-4.744175910949707,-0.9821431636810303,-0.6200794577598572,-0.2385943531990051,1,0.025138009339571,0.6441090703010559,0.7639762759208679,0.02884170785546303,-0.001255274284631014,-0.9856181144714355,-0.1689831763505936,0,0,0,-1,10189.97287075,3,2,1562003700.846863,0,0,0,0,0,0,0,0,0,10188.361384,0,-0.6711426,75.30633,3232235528,182473588,1,1,0.31,-4.166746,-16.03092,4
1562003702.009316,47,0,0,1562003701.557202,4.63479120702074,-74.15100502934915,2563.731,-1,-1,10,65,-9999,1562003701.991999,-22.89402008056641,-15.36257743835449,12.674072265625,120.4493637084961,127.9433364868164,15,10191.12474116667,-1.007598876953125,-1.434295654296875,-0.4091644287109375,10191.12474116667,1.56043077120009,1.179444271975534,-5.416035555167758,10191.10804816667,-19.48289489746094,-6.18511962890625,-526.3012084960938,10191.11970616667,2.457898777282351,0.6244818900129053,1.392163623655479,1.415825486183167,1.15044891834259,-5.340725898742676,-1.111257910728455,-0.4975408315658569,-0.2497105598449707,1,-0.01752726547420025,0.6539251804351807,0.7540339827537537,0.05922363698482513,0.1038879603147507,-0.9840875864028931,-0.1441493034362793,0,0,0,-1,10189.97287075,3,2,1562003700.846863,0,0,0,0,0,0,0,0,0,10188.361384,0,-0.6711426,75.30633,3232235528,182473588,1,1,0.31,-4.166746,-16.03092,4
1562003702.029978,48,0,0,1562003701.557202,4.63479120702074,-74.15100502934915,2563.731,-1,-1,10,65,-9999,1562003701.991999,-22.89402008056641,-15.36257743835449,12.674072265625,120.4493637084961,127.9433364868164,15,10191.14500516667,-0.8890838623046875,-1.253494262695312,-0.3299407958984375,10191.14500516667,1.901425645599362,1.403973519267352,-5.554018192302507,10191.12815916667,-17.62153625488281,-7.402999877929688,-526.10888671875,10191.13997016667,1.987305594811982,1.110844889493699,1.327983596132844,1.876105785369873,1.404830098152161,-5.543283939361572,-1.227073311805725,-0.3969187140464783,-0.2519130706787109,1,-0.06229947879910469,0.6653976440429688,0.7380751371383667,0.0927886962890625,0.2154461592435837,-0.9706655144691467,-0.1067294999957085,0,0,0,-1,10189.97287075,3,2,1562003700.846863,0,0,0,0,0,0,0,0,0,10188.361384,0,-0.6711426,75.30633,3232235528,182473588,1,1,0.31,-4.166746,-7.482658,4
1562003702.049857,49,0,0,1562003701.557202,4.63479120702074,-74.15100502934915,2563.731,-1,-1,10,65,-9999,1562003702.037812,-18.34168243408203,-19.35740089416504,12.85272216796875,117.4328765869141,124.9268493652344,15,10191.16526916667,-0.4773101806640625,-1.00885009765625,-0.319854736328125,10191.16526916667,1.790239469036881,0.983686751836497,-5.307258207811254,10191.14824016667,-16.01319885253906,-8.708877563476562,-525.8701171875,10191.16020316667,1.73635415540003,1.37826457596712,1.233429811477901,1.81439745426178,1.121713399887085,-5.431283950805664,-0.9885374903678894,-0.1765333414077759,-0.2791631817817688,1,-0.107413537800312,0.6758657693862915,0.7181485891342163,0.126215323805809,0.3248870074748993,-0.9436296224594116,-0.0633355900645256,0,0,0,-1,10189.97287075,3,2,1562003700.846863,0,0,0,0,0,0,0,0,0,10188.361384,0,-0.6711426,75.30633,3232235528,182473588,1,1,0.31,-0.09999885,-0.09999885,4
1562003702.081921,50,0,0,1562003701.557202,4.63479120702074,-74.15100502934915,2563.731,-1,-1,10,65,-9999,1562003702.064234,-16.26380920410156,-20.28081130981445,13.01043701171875,116.999626159668,124.4935989379883,15,10191.18553316667,-0.243804931640625,-0.8306884765625,-0.130340576171875,10191.18553316667,1.890990581500104,0.5714099740162734,-4.751871941441768,10191.16832116667,-13.82670593261719,-9.598312377929688,-525.769775390625,10191.18046716667,1.606315738524766,1.515852472708948,1.133839483668894,1.8390793800354,0.5996509194374084,-4.889584064483643,-0.7705070376396179,-0.01149779558181763,-0.2228235602378845,1,-0.1464004963636398,0.6833352446556091,0.6971950531005859,0.1598089933395386,0.4225456416606903,-0.9060436487197876,-0.02323967590928078,0,0,0,-1,10189.97287075,3,2,1562003700.846863,0,0,0,0,0,0,0,0,0,10188.361384,0,-0.6711426,75.30633,3232235528,182473588,1,1,0.31,-0.09999885,-1.568843,4
1562003702.09046,51,0,0,1562003701.557202,4.63479120702074,-74.15100502934915,2563.731,-1,-1,10,65,-9999,1562003702.088395,-14.41189670562744,-21.11532211303711,13.88787841796875,117.4615631103516,124.9555358886719,15,10191.20579616667,-0.1667327880859375,-0.6217803955078125,0.130218505859375,10191.20579616667,2.27206310082787,1.000833248198863,-4.279388281909797,10191.18843216667,-12.0087890625,-10.42758178710938,-524.677490234375,10191.20073016667,1.518297186687563,1.607196218932392,1.040138657947348,2.147033214569092,0.8648759722709656,-4.40207052230835,-0.6907474398612976,0.127382218837738,-0.01422178745269775,1,-0.1797464638948441,0.6905795931816101,0.6741011738777161,0.190731480717659,0.5057651400566101,-0.8624743819236755,0.01841793209314346,0,0,0,-1,10189.97287075,3,2,1562003700.846863,0,0,0,0,0,0,0,0,0,10188.361384,0,-0.6711426,75.30633,3232235528,182473588,1,1,0.31,-0.09999885,-1.568843,4
1562003702.11075,52,0,0,1562003701.557202,4.63479120702074,-74.15100502934915,2563.731,-1,-1,10,65,-9999,1562003702.088395,-14.41189670562744,-21.11532211303711,13.88787841796875,117.4615631103516,124.9555358886719,15,10191.22606016667,0.094818115234375,-0.5414276123046875,0.29217529296875,10191.22606016667,2.927044934063593,0.8815891451261293,-4.335978324545108,10191.20851216667,-10.53817749023438,-10.50114440917969,-524.473388671875,10191.22099416667,1.439710714580951,1.694223237127414,0.9506751572835219,2.811970949172974,1.067186236381531,-4.198046207427979,-0.677237868309021,0.2717395424842834,0.1588621139526367,1,-0.2114265561103821,0.7007650136947632,0.6460020542144775,0.2165840268135071,0.5767130255699158,-0.8138080239295959,0.07154558598995209,0,0,0,-1,10189.97287075,3,2,1562003700.846863,0,0,0,0,0,0,0,0,0,10188.361384,0,-0.6711426,75.30633,3232235528,182473588,1,1,0.31,-0.09999885,-1.95245,4
1562003702.131638,53,0,0,1562003701.557202,4.63479120702074,-74.15100502934915,2563.731,-1,-1,10,65,-9999,1562003702.112971,-12.88739585876465,-21.29373550415039,14.264892578125,118.3479766845703,125.8419494628906,15,10191.24632416667,0.392791748046875,-0.3847503662109375,0.13409423828125,10191.24632416667,2.538067619988254,-0.5301703919041784,-4.876946769405122,10191.22862316667,-8.962677001953125,-10.15966796875,-523.513671875,10191.24125816667,1.370456953607593,1.759141869891415,0.8509854538277895,2.710714101791382,-0.2004632949829102,-4.831636905670166,-0.3226175308227539,0.2487260699272156,0.09655332565307617,1,-0.2403760999441147,0.7098842263221741,0.6136970520019531,0.2483135610818863,0.6475839614868164,-0.7519304156303406,0.123432569205761,0,0,0,-1,10189.97287075,3,2,1562003700.846863,0,0,0,0,0,0,0,0,0,10188.361384,0,-0.6711426,75.30633,3232235528,182473588,1,1,0.31,-0.09999885,-2.931003,4
1562003702.16607,54,0,0,1562003701.557202,4.63479120702074,-74.15100502934915,2563.731,-1,-1,10,65,-9999,1562003702.139061,-9.645727157592773,-20.84176254272461,16.12255859375,121.0142364501953,128.5082092285156,15,10191.26655716667,0.3167877197265625,-0.2017364501953125,0.1701202392578125,10191.26655716667,1.934877345735738,-1.19029585446928,-4.332887726100071,10191.24870416667,-7.202102661132812,-9.969497680664062,-522.4844970703125,10191.26152116667,1.329767373203659,1.773536654363414,0.7468579431836118,2.079052925109863,-1.096243262290955,-4.501151561737061,-0.3668683767318726,0.4005125164985657,-0.008217573165893555,1,-0.2637908756732941,0.7101365923881531,0.5855180621147156,0.2885983288288116,0.7187970876693726,-0.6793363690376282,0.1477592140436172,0,0,0,-1,10189.97287075,3,2,1562003700.846863,0,0,0,0,0,0,0,0,0,10188.361384,0,-0.6711426,75.30633,3232235528,182473588,1,1,0.31,-0.09999885,-3.90974,4
1562003702.1716,55,0,0,1562003701.557202,4.63479120702074,-74.15100502934915,2563.731,-1,-1,10,65,-9999,1562003702.16352,-7.56255054473877,-20.45661354064941,17.12115478515625,124.2408447265625,131.7348175048828,15,10191.28682016667,0.44805908203125,-0.0770721435546875,0.0765533447265625,10191.28682016667,1.204192761669532,-1.352737762003645,-4.002820334285612,10191.26878416667,-5.088088989257812,-9.551986694335938,-521.5264892578125,10191.28175416667,1.306287429394267,1.763439337955286,0.6557276219811338,1.392817974090576,-1.346176743507385,-4.068045616149902,-0.4092141389846802,0.4806773066520691,-0.01757657527923584,1,-0.2814410030841827,0.704744279384613,0.5631905198097229,0.3270214200019836,0.7779427766799927,-0.6097361445426941,0.151747077703476,0,0,0,-1,10189.97287075,3,2,1562003700.846863,0,0,0,0,0,0,0,0,0,10188.361384,0,-0.6711426,75.30633,3232235528,182473588,1,1,0.31,-0.09999885,-3.90974,4
1562003702.191767,56,0,0,1562003701.557202,4.63479120702074,-74.15100502934915,2563.731,-1,-1,10,65,-9999,1562003702.19023,-5.584334373474121,-20.19911575317383,17.93560791015625,126.6756591796875,134.1696319580078,15,10191.30708416667,0.6111907958984375,0.09429931640625,0.0305633544921875,10191.30708416667,0.7547281350196597,-1.154234789096845,-3.605509722843308,10191.28889616667,-3.227325439453125,-9.323333740234375,-520.697998046875,10191.30201816667,1.297858730326191,1.741229984196993,0.5737382913737623,0.819092869758606,-1.266369462013245,-3.726934432983398,-0.2931631803512573,0.5407003164291382,-0.1036789417266846,1,-0.2980024218559265,0.6945648193359375,0.5458893775939941,0.3616339266300201,0.8277091383934021,-0.542775571346283,0.1424514651298523,0,0,0,-1,10189.97287075,3,2,1562003700.846863,0,0,0,0,0,0,0,0,0,10188.361384,0,-0.6711426,75.30633,3232235528,182473588,1,1,0.31,-0.09999885,-5.00458,4
1562003702.211939,57,0,0,1562003701.557202,4.63479120702074,-74.15100502934915,2563.731,-1,-1,10,65,-9999,1562003702.19023,-5.584334373474121,-20.19911575317383,17.93560791015625,126.6756591796875,134.1696319580078,15,10191.32734816667,0.633026123046875,0.2685699462890625,0.0747222900390625,10191.32734816667,0.4720612821830855,-0.8645292014991908,-3.307581891696143,10191.30897616667,-1.211029052734375,-9.112075805664062,-520.407470703125,10191.32228216667,1.294777236959233,1.721269141996337,0.5014373713418511,0.5665181875228882,-0.9069847464561462,-3.325162410736084,-0.2368112802505493,0.6646769642829895,-0.07687044143676758,1,-0.3139883577823639,0.6834741234779358,0.5309638381004333,0.3903228044509888,0.8669840097427368,-0.4806864559650421,0.1314511299133301,0,0,0,-1,10189.97287075,3,2,1562003700.846863,0,0,0,0,0,0,0,0,0,10188.361384,0,-0.6711426,75.30633,3232235528,182473588,1,1,0.31,-0.09999885,-6.063512,4
1562003702.247217,58,0,0,1562003701.557202,4.63479120702074,-74.15100502934915,2563.731,-1,-1,10,65,-9999,1562003702.240369,-0.3679015636444092,-19.79201507568359,18.52191162109375,221.58447265625,229.0784454345703,15,10191.34761116667,0.7628326416015625,0.4314422607421875,0.07476806640625,10191.34761116667,0.05908995195056913,-0.9075435141617145,-3.28394900018278,10191.32908716667,0.4536590576171875,-8.9049072265625,-520.309326171875,10191.34254516667,1.297235552679896,1.702624472304175,0.4337972999941072,0.1536759883165359,-0.882337212562561,-3.322675943374634,-0.2155584692955017,0.7703865170478821,-0.03830838203430176,1,-0.3306974172592163,0.6710253357887268,0.5177549123764038,0.415083259344101,0.8995031714439392,-0.4203194081783295,0.1192715689539909,0,0,0,-1,10189.97287075,3,2,1562003700.846863,0,0,0,0,0,0,0,0,0,10188.361384,0,-0.6711426,75.30633,3232235528,182473588,1,1,0.31,-0.09999885,-8.217969,4
1562003702.25266,59,0,0,1562003701.557202,4.63479120702074,-74.15100502934915,2563.731,-1,-1,10,65,-9999,1562003702.240369,-0.3679015636444092,-19.79201507568359,18.52191162109375,221.58447265625,229.0784454345703,15,10191.36787516667,0.9328765869140625,0.6473846435546875,0.0475921630859375,10191.36787516667,-0.2955477640809606,-0.9087938682935067,-2.854569135525958,10191.34916816667,2.007339477539062,-8.890426635742188,-520.2447509765625,10191.36280916667,1.306349650883438,1.680305733721308,0.3695795497940789,-0.2085895538330078,-0.9460333585739136,-2.994064092636108,-0.08456283807754517,0.8865681886672974,-0.03860259056091309,1,-0.3475055992603302,0.6558929085731506,0.5073227286338806,0.4377992153167725,0.9268937706947327,-0.3612233996391296,0.101911298930645,0,0,0,-1,10189.97287075,3,2,1562003700.846863,0,0,0,0,0,0,0,0,0,10188.361384,0,-0.6711426,75.30633,3232235528,182473588,1,1,0.31,-0.09999885,-8.217969,4
1562003702.272844,60,0,0,1562003701.557202,4.63479120702074,-74.15100502934915,2563.731,-1,-1,10,65,-9999,1562003702.265039,1.159141540527344,-19.60564422607422,18.4825439453125,220.6934356689453,228.1874084472656,15,10191.38813916667,1.163314819335938,0.834014892578125,0.0081939697265625,10191.38813916667,-0.5306700009246773,-0.5888033454116899,-2.265573243567455,10191.36927916667,3.490081787109375,-8.74517822265625,-520.3762817382812,10191.38307316667,1.319970426891063,1.658835048486792,0.3155553373362691,-0.4949517846107483,-0.6688012480735779,-2.426534175872803,0.09686553478240967,1.064449071884155,-0.06527316570281982,1,-0.3627474308013916,0.6404733657836914,0.5004397034645081,0.4558160006999969,0.9469424486160278,-0.3103444278240204,0.08358366042375565,0,0,0,-1,10189.97287075,3,2,1562003700.846863,0,0,0,0,0,0,0,0,0,10188.361384,0,-0.6711426,75.30633,3232235528,182473588,1,1,0.31,-0.09999885,-9.303413,4
1562003702.293001,61,0,0,1562003701.557202,4.63479120702074,-74.15100502934915,2563.731,-1,-1,10,65,-9999,1562003702.291536,2.283530712127686,-19.51143264770508,18.4058837890625,219.6235046386719,227.1174774169922,15,10191.40837216667,1.29449462890625,0.9516754150390625,0.0375518798828125,10191.40837216667,-0.5627669510145302,-0.5763967431574468,-1.389648908396034,10191.38935916667,4.488189697265625,-8.636138916015625,-520.4592895507812,10191.40333616667,1.335008365250998,1.642766467384335,0.2745811448513971,-0.5677849650382996,-0.5584443807601929,-1.652209997177124,0.2956749200820923,1.174464106559753,-0.05265843868255615,1,-0.3756990134716034,0.6272618174552917,0.4964083731174469,0.4679440557956696,0.9600471258163452,-0.2711437940597534,0.06921426951885223,0,0,0,-1,10189.97287075,3,2,1562003700.846863,0,0,0,0,0,0,0,0,0,10188.361384,0,-0.6711426,75.30633,3232235528,182473588,1,1,0.31,-0.09999885,-10.3989,4
1562003702.327063,62,0,0,1562003701.557202,4.63479120702074,-74.15100502934915,2563.731,-1,-1,10,65,-9999,1562003702.31541,3.803845405578613,-19.8568115234375,17.7799072265625,218.7001953125,226.1941680908203,15,10191.42863616667,1.347305297851562,1.025894165039062,0.072784423828125,10191.42863616667,-0.5545931769968591,-0.4959327929301197,-0.3900524322074034,10191.40947116667,5.295791625976562,-8.74383544921875,-520.5704345703125,10191.42357016667,1.348281141988193,1.627525654995326,0.2524665264215169,-0.5536379814147949,-0.5581082701683044,-0.6215471625328064,0.3508397340774536,1.24442195892334,0.0006557703018188477,1,-0.3825764060020447,0.6173216700553894,0.4967811107635498,0.4751396477222443,0.9667414426803589,-0.2497930526733398,0.05490150302648544,0,0,0,-1,10189.97287075,3,2,1562003700.846863,0,0,0,0,0,0,0,0,0,10188.361384,0,-0.6711426,75.30633,3232235528,182473588,1,1,0.31,-0.09999885,-11.42859,4
1562003702.33359,63,0,0,1562003701.557202,4.63479120702074,-74.15100502934915,2563.731,-1,-1,10,65,-9999,1562003702.31541,3.803845405578613,-19.8568115234375,17.7799072265625,218.7001953125,226.1941680908203,15,10191.448924,1.382125854492188,1.100082397460938,0.0921783447265625,10191.448924,-0.6131688725409339,-0.2290542242999712,0.5154558942492726,10191.42955116667,5.902389526367188,-8.998977661132812,-521.1094970703125,10191.443858,1.360411080547991,1.615818446917944,0.2494892453143904,-0.6013698577880859,-0.2926400899887085,0.2687425315380096,0.4004125595092773,1.303473353385925,0.04304122924804688,1,-0.3842601478099823,0.6116787195205688,0.5011574029922485,0.4764813482761383,0.9680566191673279,-0.2469090521335602,0.04361343383789062,0,0,0,-1,10189.97287075,3,2,1562003700.846863,0,0,0,0,0,0,0,0,0,10188.361384,0,-0.6711426,75.30633,3232235528,182473588,1,1,0.31,-0.09999885,-11.42859,4
1562003702.353781,64,0,0,1562003701.557202,4.63479120702074,-74.15100502934915,2563.731,-1,-1,10,65,-9999,1562003702.341717,3.940404415130615,-20.16866302490234,17.52508544921875,217.8249664306641,225.3189392089844,15,10191.469188,1.427017211914062,1.131439208984375,0.0758514404296875,10191.469188,-0.5907461214269027,-0.08968647708227148,1.737734449197642,10191.449657,5.9041748046875,-9.359420776367188,-521.3529052734375,10191.464122,1.372569274787264,1.609009828062933,0.2662983735578957,-0.6078231930732727,-0.09673290699720383,1.402501225471497,0.4422637224197388,1.393441677093506,0.04569244384765625,1,-0.3812885284423828,0.610776424407959,0.5095332264900208,0.4711126089096069,0.9640473127365112,-0.2631621062755585,0.03685756400227547,0,0,0,-1,10189.97287075,3,2,1562003700.846863,0,0,0,0,0,0,0,0,0,10188.361384,0,-0.6711426,75.30633,3232235528,182473588,1,1,0.31,-0.09999885,-12.43764,4
1562003702.374328,65,0,0,1562003701.557202,4.63479120702074,-74.15100502934915,2563.731,-1,-1,10,65,-9999,1562003702.366092,3.591580867767334,-20.42472839355469,17.32415771484375,217.0257415771484,224.5197143554688,15,10191.489452,1.406158447265625,1.024688720703125,0.084686279296875,10191.489452,-0.5758728993710281,-0.1817490264891116,3.036998333357476,10191.469768,5.521682739257812,-9.677749633789062,-521.4993286132812,10191.484386,1.383236357250856,1.603486673345086,0.308661729765395,-0.5664430260658264,-0.1811300814151764,2.734349727630615,0.4796985387802124,1.406689167022705,0.04816007614135742,1,-0.3705058991909027,0.6150571703910828,0.5233548283576965,0.4588353335857391,0.9522320032119751,-0.3037838935852051,0.03113988786935806,0,0,0,-1,10189.97287075,3,2,1562003700.846863,0,0,0,0,0,0,0,0,0,10188.361384,0,-0.6711426,75.30633,3232235528,182473588,1,1,0.31,-0.09999885,-13.44139,4
1562003702.412094,66,0,0,1562003701.557202,4.63479120702074,-74.15100502934915,2563.731,-1,-1,10,65,-9999,1562003702.392924,2.652005195617676,-20.69628143310547,17.14404296875,216.2292633056641,223.7232360839844,15,10191.509715,1.246185302734375,0.813385009765625,0.0913543701171875,10191.509715,-0.7287708365068755,-0.06015308585772876,3.987456025324728,10191.489848,4.444259643554688,-9.908432006835938,-521.736328125,10191.504649,1.394234754032927,1.596613631605941,0.3756417219873827,-0.6774401068687439,-0.09663251042366028,3.780334234237671,0.4178159236907959,1.288241028785706,0.06222820281982422,1,-0.3517940640449524,0.6230956315994263,0.5427170395851135,0.4398306906223297,0.9299624562263489,-0.3668695688247681,0.02401445992290974,0,0,0,-1,10189.97287075,3,2,1562003700.846863,0,0,0,0,0,0,0,0,0,10188.361384,0,-0.6711426,75.30633,3232235528,182473588,1,1,0.31,-0.09999885,-15.45165,4
1562003702.415144,67,0,0,1562003701.557202,4.63479120702074,-74.15100502934915,2563.731,-1,-1,10,65,-9999,1562003702.392924,2.652005195617676,-20.69628143310547,17.14404296875,216.2292633056641,223.7232360839844,15,10191.529979,1.034378051757812,0.57958984375,0.1183013916015625,10191.529979,-0.8896934106393495,-0.1038102856073977,4.57593925877339,10191.509929,3.186492919921875,-10.59284973144531,-521.9418334960938,10191.524913,1.409429513569739,1.589314595098328,0.4599956598601277,-0.8648827075958252,-0.06046944111585617,4.457420349121094,0.2364692687988281,1.139394044876099,0.08823549747467041,1,-0.3284619450569153,0.6327787637710571,0.5657997727394104,0.4142153263092041,0.8959007263183594,-0.4439442157745361,0.01659242622554302,0,0,0,-1,10189.97287075,3,2,1562003700.846863,0,0,0,0,0,0,0,0,0,10188.361384,0,-0.6711426,75.30633,3232235528,182473588,1,1,0.31,-0.09999885,-15.45165,4
1562003702.434689,68,0,0,1562003701.557202,4.63479120702074,-74.15100502934915,2563.731,-1,-1,10,65,-9999,1562003702.417206,-0.2793246507644653,-21.70729446411133,16.52154541015625,215.0547332763672,222.5487060546875,15,10191.550212,0.86474609375,0.339630126953125,0.116851806640625,10191.550212,-0.8126633403215705,-0.5224458931624035,4.791248376055244,10191.53004,1.366744995117188,-10.8778076171875,-522.373291015625,10191.545177,1.428579407162412,1.575785961945324,0.5541811528111419,-0.856453001499176,-0.4182752370834351,4.749118804931641,0.09601372480392456,0.9873220324516296,0.1133718490600586,1,-0.3008668422698975,0.6415610313415527,0.590945839881897,0.3855666816234589,0.8503211140632629,-0.5262472033500671,0.004242827650159597,0,0,0,-1,10189.97287075,3,2,1562003700.846863,0,0,0,0,0,0,0,0,0,10188.361384,0,-0.6711426,75.30633,3232235528,182473588,1,1,0.31,-0.09999885,-16.46099,4
1562003702.455135,69,0,0,1562003701.557202,4.63479120702074,-74.15100502934915,2563.731,-1,-1,10,65,-9999,1562003702.442933,-1.85302746295929,-21.98618507385254,16.1278076171875,213.6430816650391,221.1370544433594,15,10191.570476,0.68011474609375,0.1527557373046875,0.0552215576171875,10191.570476,-0.497253720830799,-0.5177416854128876,5.207707115735219,10191.570232,-2.236236572265625,-11.49668884277344,-523.0364990234375,10191.56541,1.447724155366142,1.553286434575114,0.6526038690486593,-0.6075792908668518,-0.6263943910598755,5.055578231811523,-0.01993894577026367,0.8437379598617554,0.1079356670379639,1,-0.2683895826339722,0.6488540172576904,0.6157918572425842,0.3574296534061432,0.7943835854530334,-0.6072572469711304,-0.01391099207103252,0,0,0,-1,10189.97287075,3,2,1562003700.846863,0,0,0,0,0,0,0,0,0,10188.361384,0,-0.6711426,75.30633,3232235528,182473588,1,1,0.31,-0.09999885,-17.3659,4
1562003702.493434,70,0,0,1562003701.557202,4.63479120702074,-74.15100502934915,2563.731,-1,-1,10,65,-9999,1562003702.470072,-3.901647090911865,-22.3430290222168,15.8336181640625,212.5005950927734,219.9945678710938,15,10191.590739,0.5152587890625,0.0066680908203125,0.00689697265625,10191.590739,-0.09973991019732061,-0.009795106489311438,5.821217405527901,10191.590312,-4.691970825195312,-11.21498107910156,-523.1526489257812,10191.585673,1.461602538659387,1.536771650013787,0.7614492353371607,-0.1558027714490891,-0.1070931404829025,5.72248363494873,-0.1093738079071045,0.7713158130645752,0.053905189037323,1,-0.231698676943779,0.6587897539138794,0.6378675103187561,0.324710488319397,0.7234179973602295,-0.6899712085723877,-0.02462356723845005,0,0,0,-1,10189.97287075,3,2,1562003700.846863,0,0,0,0,0,0,0,0,0,10188.361384,0,-0.6711426,75.30633,3232235528,182473588,1,1,0.31,-0.09999885,-17.645,4
1562003702.49631,71,0,0,1562003701.557202,4.63479120702074,-74.15100502934915,2563.731,-1,-1,10,65,-9999,1562003702.470072,-3.901647090911865,-22.3430290222168,15.8336181640625,212.5005950927734,219.9945678710938,15,10191.611003,0.2913665771484375,-0.2176513671875,0.0368499755859375,10191.611003,-0.3857471659891813,0.1124003117034483,5.544114428840721,10191.610423,-6.913650512695312,-10.656005859375,-523.1920776367188,10191.605937,1.472214939772367,1.529796550060603,0.8782897784223348,-0.2510773539543152,0.1204468160867691,5.659000873565674,-0.2354355454444885,0.6661477088928223,0.03462308645248413,1,-0.193492591381073,0.670429527759552,0.656613290309906,0.2862584888935089,0.6379318833351135,-0.7696480751037598,-0.02616973035037518,0,0,0,-1,10189.97287075,3,2,1562003700.846863,0,0,0,0,0,0,0,0,0,10188.361384,0,-0.6711426,75.30633,3232235528,182473588,1,1,0.31,-0.09999885,-17.645,4
1562003702.515834,72,0,0,1562003701.557202,4.63479120702074,-74.15100502934915,2563.731,-1,-1,10,65,-9999,1562003702.504965,-6.237718105316162,-22.13250160217285,15.6695556640625,211.6904907226562,219.1844635009766,15,10191.631267,0.1261138916015625,-0.3558349609375,0.0089569091796875,10191.631267,-0.8133791980225838,0.3036360506276402,5.525938887033147,10191.630504,-9.414642333984375,-10.12724304199219,-523.7496337890625,10191.626201,1.499350463643381,1.510307435515851,0.9888773176370698,-0.7489539980888367,0.2022284865379333,5.449355602264404,-0.3667228817939758,0.5370543599128723,0.0661851167678833,1,-0.1581927537918091,0.6770243644714355,0.674801766872406,0.2474987804889679,0.5486229062080383,-0.8354094624519348,-0.0332261249423027,0,0,0,-1,10189.97287075,3,2,1562003700.846863,0,0,0,0,0,0,0,0,0,10188.361384,0,-0.6711426,75.30633,3232235528,182473588,1,1,0.31,-0.09999885,-18.51687,4
1562003702.53607,73,0,0,1562003701.557202,4.63479120702074,-74.15100502934915,2563.731,-1,-1,10,65,-9999,1562003702.504965,-6.237718105316162,-22.13250160217285,15.6695556640625,211.6904907226562,219.1844635009766,15,10191.65153,0.056488037109375,-0.4375762939453125,-0.0134735107421875,10191.65153,-0.8887503852973524,0.5760603859117698,5.763108295806808,10191.650584,-11.84115600585938,-9.33123779296875,-523.963623046875,10191.646464,1.551442691981244,1.47238203973324,1.100607867717266,-0.8992452025413513,0.4722549319267273,5.725728988647461,-0.3534349203109741,0.4965854287147522,0.04025787115097046,1,-0.1241123825311661,0.6799548268318176,0.6929734945297241,0.2050497382879257,0.4508622884750366,-0.891482949256897,-0.04451509937644005,0,0,0,-1,10189.97287075,3,2,1562003700.846863,0,0,0,0,0,0,0,0,0,10188.361384,0,-0.6711426,75.30633,3232235528,182473588,1,1,0.31,-0.09999885,-19.25531,4
1562003702.560462,74,0,0,1562003701.557202,4.63479120702074,-74.15100502934915,2563.731,-1,-1,10,65,-9999,1562003702.544458,-13.33762741088867,-20.38851928710938,14.90679931640625,121.709716796875,129.2036895751953,15,10191.671764,-0.2386322021484375,-0.621856689453125,-0.03704833984375,10191.671764,-1.098606680247269,0.5910742228732004,5.582083649134198,10191.670695,-13.92291259765625,-8.486465454101562,-524.5905151367188,10191.666728,1.634976944333062,1.408232188930374,1.213786034266018,-0.9994008541107178,0.6505266427993774,5.693475246429443,-0.4015990197658539,0.4223431348800659,0.04313439130783081,1,-0.09052965044975281,0.6808254718780518,0.7092329859733582,0.1589640974998474,0.3448668420314789,-0.9369458556175232,-0.05656211823225021,0,0,0,-1,10189.97287075,3,2,1562003700.846863,0,0,0,0,0,0,0,0,0,10188.361384,0,-0.6711426,75.30633,3232235528,182473588,1,1,0.31,-0.09999885,-20.13131,4
1562003702.576537,75,0,0,1562003701.557202,4.63479120702074,-74.15100502934915,2563.731,-1,-1,10,65,-9999,1562003702.568609,-15.52490520477295,-19.52487945556641,14.356689453125,120.3881530761719,127.8821258544922,15,10191.692027,-0.6623687744140625,-0.9509735107421875,-0.067230224609375,10191.692027,-1.539887945499546,0.613272735823447,4.785076233912877,10191.690776,-16.42599487304688,-7.528961181640625,-525.25390625,10191.686992,1.798343523063759,1.263333058309654,1.314572947403204,-1.427480816841125,0.5437504053115845,4.990951538085938,-0.7072113752365112,0.1923143267631531,0.01534241437911987,1,-0.05911258235573769,0.676872730255127,0.7246316075325012,0.1151427403092384,0.2415436506271362,-0.9673539996147156,-0.07669802010059357,0,0,0,-1,10189.97287075,3,2,1562003700.846863,0,0,0,0,0,0,0,0,0,10188.361384,0,-0.6711426,75.30633,3232235528,182473588,1,1,0.31,-0.09999885,-20.82165,4
1562003702.596817,76,0,0,1562003701.557202,4.63479120702074,-74.15100502934915,2563.731,-1,-1,10,65,-9999,1562003702.595,-18.00432014465332,-18.61846160888672,13.686279296875,119.0622329711914,126.5562057495117,15,10191.712291,-0.8392486572265625,-1.058090209960938,-0.3094635009765625,10191.712291,-1.611419120798529,0.5305562839461309,4.36724889574871,10191.710887,-18.06871032714844,-6.439285278320312,-525.9884033203125,10191.707225,2.12534868073769,0.9563971189790965,1.384943804363191,-1.743730425834656,0.5913006067276001,4.405628681182861,-0.9443713426589966,-0.06968063116073608,-0.02598536014556885,1,-0.03365794569253922,0.6675373911857605,0.7399441003799438,0.07578647136688232,0.1509906053543091,-0.9827790856361389,-0.10652194917202,0,0,0,-1,10189.97287075,3,2,1562003700.846863,0,0,0,0,0,0,0,0,0,10188.361384,0,-0.6711426,75.30633,3232235528,182473588,1,1,0.31,-0.09999885,-18.0505,4
1562003702.646776,77,0,0,1562003701.557202,4.63479120702074,-74.15100502934915,2563.731,-1,-1,10,65,-9999,1562003702.620055,-21.43149948120117,-16.64255905151367,12.3731689453125,118.0971145629883,125.5910873413086,15,10191.732555,-0.8493499755859375,-1.128738403320312,-0.5344696044921875,10191.732555,-0.1100932152511127,0.6455635640406577,4.217819193300473,10191.730968,-19.75614929199219,-5.542251586914062,-526.5228271484375,10191.727489,2.635328655618213,0.4641973896658345,1.424259624468719,-0.5315209627151489,0.6107919812202454,4.294879913330078,-0.9440787434577942,-0.08235728740692139,-0.3353191614151001,1,-0.009310680441558361,0.6592664122581482,0.750840961933136,0.03897451609373093,0.06537085771560669,-0.9892826676368713,-0.1305622160434723,0,0,0,-1,10189.97287075,3,2,1562003700.846863,0,0,0,0,0,0,0,0,0,10189.304738,0,-0.546875,75.30515,3232235528,182473588,1,1,0.31,-0.09999885,-19.23473,4
1562003702.649474,78,0,0,1562003701.557202,4.63479120702074,-74.15100502934915,2563.731,-1,-1,10,65,-9999,1562003702.64567,-22.61568450927734,-15.17038536071777,12.4278564453125,117.6001892089844,125.0941619873047,15,10191.752818,-0.7808074951171875,-1.231048583984375,-0.54559326171875,10191.752818,0.9094186458852394,0.1724271637255073,3.311849341026886,10191.751079,-20.77369689941406,-3.998382568359375,-526.3268432617188,10191.747752,-3.057045973095879,-0.1104652212290195,1.443378636336458,0.7570912837982178,0.3058148324489594,3.599411487579346,-0.7670124173164368,-0.1647991538047791,-0.4384285807609558,1,0.01352733839303255,0.6608081459999084,0.7504178881645203,0.004762060008943081,-0.01400869712233543,-0.9918933510780334,-0.1262992173433304,0,0,0,-1,10189.97287075,3,2,1562003700.846863,0,0,0,0,0,0,0,0,0,10189.304738,0,-0.546875,75.30515,3232235528,182473588,1,1,0.31,-0.09999885,-19.23473,4
1562003702.657475,79,0,0,1562003701.557202,4.63479120702074,-74.15100502934915,2563.731,-1,-1,10,65,-9999,1562003702.64567,-22.61568450927734,-15.17038536071777,12.4278564453125,117.6001892089844,125.0941619873047,15,10191.773082,-0.7088470458984375,-1.40167236328125,-0.3337554931640625,10191.773082,0.7975238021566881,-0.2241859658273063,2.290397100720302,10191.771159,-22.13626098632812,-3.0765380859375,-526.3278198242188,10191.768016,-2.554738021871921,-0.6070772813933576,1.439499119163017,0.9310157299041748,-0.1056883260607719,2.497593879699707,-0.6983699202537537,-0.350510835647583,-0.3323681950569153,1,0.0332101546227932,0.6671831607818604,0.7439119219779968,-0.01894176378846169,-0.07468611001968384,-0.9913929104804993,-0.1075274348258972,0,0,0,-1,10189.97287075,3,2,1562003700.846863,0,0,0,0,0,0,0,0,0,10189.304738,0,-0.546875,75.30515,3232235528,182473588,1,1,0.31,-0.09999885,-19.23473,4
1562003702.677956,80,0,0,1562003701.557202,4.63479120702074,-74.15100502934915,2563.731,-1,-1,10,65,-9999,1562003702.66991,-23.8934211730957,-14.08115768432617,12.49395751953125,117.8552703857422,125.3492431640625,15,10191.793346,-0.57958984375,-1.403289794921875,-0.184478759765625,10191.793346,0.1969135983682408,-0.7507746723814371,1.824030722212242,10191.79124,-22.45783996582031,-1.664718627929688,-526.05029296875,10191.78828,-2.267983032947138,-0.8987469005659084,1.418875821468903,0.3012849092483521,-0.6615036129951477,1.876297354698181,-0.5137275457382202,-0.4271976351737976,-0.1708695292472839,1,0.05042985081672668,0.6710783243179321,0.7389459013938904,-0.03270777687430382,-0.1184288263320923,-0.9884822368621826,-0.09422142803668976,0,0,0,-1,10189.97287075,3,2,1562003700.846863,0,0,0,0,0,0,0,0,0,10189.304738,0,-0.546875,75.30515,3232235528,182473588,1,1,0.31,-0.09999885,-20.03719,4
1562003702.724962,81,0,0,1562003701.557202,4.63479120702074,-74.15100502934915,2563.731,-1,-1,10,65,-9999,1562003702.720638,-25.07087707519531,-11.26031494140625,13.5135498046875,120.0611801147461,127.5551528930664,15,10191.813579,-0.591339111328125,-1.33935546875,-0.0248260498046875,10191.813579,-0.04299380632213021,-0.812913943780147,1.908887822973764,10191.811351,-22.8880615234375,-0.9121246337890625,-525.465576171875,10191.808543,-2.127430265607153,-1.053423741653754,1.389579226632091,0.03193224966526031,-0.8412702083587646,1.883440732955933,-0.4159463047981262,-0.396044135093689,0.00445401668548584,1,0.06879939883947372,0.6713393330574036,0.7368016242980957,-0.04115410149097443,-0.1566397547721863,-0.983625054359436,-0.08914028853178024,0,0,0,-1,10189.97287075,3,2,1562003700.846863,0,0,0,0,0,0,0,0,0,10189.304738,0,-0.546875,75.30515,3232235528,182473588,1,1,0.31,-0.09999885,-21.47093,4
1562003702.727422,82,0,0,1562003701.557202,4.63479120702074,-74.15100502934915,2563.731,-1,-1,10,65,-9999,1562003702.720638,-25.07087707519531,-11.26031494140625,13.5135498046875,120.0611801147461,127.5551528930664,15,10191.833842,-0.634552001953125,-1.363616943359375,-0.0367279052734375,10191.833842,-0.725192346950136,-0.5845907571994026,1.655565010608228,10191.831432,-23.11703491210938,-0.2794952392578125,-525.2230224609375,10191.828807,-2.05740714739528,-1.137629183149678,1.354195510167643,-0.5106034278869629,-0.6555626392364502,1.756646037101746,-0.4255124926567078,-0.346150815486908,0.06681686639785767,1,0.08727148920297623,0.6687895059585571,0.7366366386413574,-0.04970749840140343,-0.1950624585151672,-0.976633608341217,-0.09020856767892838,0,0,0,-1,10189.97287075,3,2,1562003700.846863,0,0,0,0,0,0,0,0,0,10189.304738,0,-0.546875,75.30515,3232235528,182473588,1,1,0.31,-0.09999885,-21.47093,4
1562003702.738685,83,0,0,1562003701.557202,4.63479120702074,-74.15100502934915,2563.731,-1,-1,10,65,-9999,1562003702.720638,-25.07087707519531,-11.26031494140625,13.5135498046875,120.0611801147461,127.5551528930664,15,10191.854106,-0.5048370361328125,-1.2935791015625,-0.112152099609375,10191.854106,-1.24345308245948,-0.7444011952606595,1.286533175200929,10191.851543,-23.41714477539062,-0.3009185791015625,-525.1405029296875,10191.84904,-2.07245726289357,-1.134962248186383,1.318012181668439,-1.221935153007507,-0.6420910358428955,1.360993266105652,-0.3552801311016083,-0.3896445035934448,0.05022519826889038,1,0.1026039198040962,0.6608179807662964,0.741354763507843,-0.05643671751022339,-0.2267206013202667,-0.9682198762893677,-0.1055840626358986,0,0,0,-1,10189.97287075,3,2,1562003700.846863,0,0,0,0,0,0,0,0,0,10189.304738,0,-0.546875,75.30515,3232235528,182473588,1,1,0.31,-0.09999885,-22.40682,4
1562003702.758856,84,0,0,1562003701.557202,4.63479120702074,-74.15100502934915,2563.731,-1,-1,10,65,-9999,1562003702.74685,-25.34606170654297,-11.16032600402832,13.64459228515625,121.3832092285156,128.8771820068359,15,10191.87437,-0.388916015625,-1.160354614257812,-0.16693115234375,10191.87437,-0.4595303103059356,-0.9951734982502268,0.9452746478537392,10191.871623,-23.16229248046875,0.108489990234375,-524.9854736328125,10191.869304,-2.108106095052436,-1.11754524486455,1.286502903254464,-0.7323917746543884,-0.9821506142616272,1.032176494598389,-0.1794971525669098,-0.2670228481292725,-0.03881716728210449,1,0.1175481677055359,0.6517459750175476,0.7469677329063416,-0.05872637033462524,-0.2521587312221527,-0.95986008644104,-0.122819222509861,0,0,0,-1,10189.97287075,3,2,1562003700.846863,0,0,0,0,0,0,0,0,0,10189.304738,0,-0.546875,75.30515,3232235528,182473588,1,1,0.31,-0.09999885,-23.34608,4
1562003702.806243,85,0,0,1562003701.557202,4.63479120702074,-74.15100502934915,2563.731,-1,-1,10,65,-9999,1562003702.798175,-25.16915893554688,-10.01202011108398,14.6734619140625,124.0373687744141,131.5313415527344,15,10191.894633,-0.398162841796875,-1.113082885742188,-0.16583251953125,10191.894633,0.3931899022876257,-0.9197013771701443,0.6796685375924305,10191.891734,-23.22415161132812,0.5366058349609375,-524.6192016601562,10191.889568,-2.0962353440319,-1.148878645643467,1.268849322051468,0.2409041076898575,-0.9578695297241211,0.7119484543800354,-0.1211549043655396,-0.1702559590339661,-0.04730242490768433,1,0.1308076679706573,0.649614691734314,0.7466399073600769,-0.05847213417291641,-0.2713011503219604,-0.9547592997550964,-0.1217802092432976,0,0,0,-1,10189.97287075,3,2,1562003700.846863,0,0,0,0,0,0,0,0,0,10189.304738,0,-0.546875,75.30515,3232235528,182473588,1,1,0.31,-0.09999885,-24.93757,4
1562003702.809588,86,0,0,1562003701.557202,4.63479120702074,-74.15100502934915,2563.731,-1,-1,10,65,-9999,1562003702.798175,-25.16915893554688,-10.01202011108398,14.6734619140625,124.0373687744141,131.5313415527344,15,10191.914897,-0.3745574951171875,-1.085220336914062,-0.1078338623046875,10191.914897,0.468113145867043,-0.858790355666179,0.6245562830460037,10191.911815,-23.16107177734375,0.9374847412109375,-524.0541381835938,10191.909831,-2.051807513335969,-1.209607199807319,1.259886038355464,0.5104660987854004,-0.8684070110321045,0.629494845867157,-0.115180492401123,-0.1523299217224121,-0.03039383888244629,1,0.1417443305253983,0.6525744795799255,0.7420787215232849,-0.05808975547552109,-0.286186695098877,-0.9520554542541504,-0.1081101894378662,0,0,0,-1,10189.97287075,3,2,1562003700.846863,0,0,0,0,0,0,0,0,0,10189.304738,0,-0.546875,75.30515,3232235528,182473588,1,1,0.31,-0.09999885,-24.93757,4
1562003702.819785,87,0,0,1562003701.557202,4.63479120702074,-74.15100502934915,2563.731,-1,-1,10,65,-9999,1562003702.798175,-25.16915893554688,-10.01202011108398,14.6734619140625,124.0373687744141,131.5313415527344,15,10191.935161,-0.3590545654296875,-1.0440673828125,-0.0660552978515625,10191.935161,0.2900006658464345,-1.027178835598581,0.5724198447016314,10191.931895,-22.74171447753906,1.2696533203125,-523.5188598632812,10191.930095,-2.013754150767627,-1.263832532778447,1.250793274074037,0.2952336668968201,-0.9596242904663086,0.5935747027397156,-0.05912858247756958,-0.1152644157409668,0.01659137010574341,1,0.1522594094276428,0.6552030444145203,0.7377204298973083,-0.05739837512373924,-0.2998649477958679,-0.9492344856262207,-0.0950520858168602,0,0,0,-1,10189.97287075,3,2,1562003700.846863,0,0,0,0,0,0,0,0,0,10189.304738,0,-0.546875,75.30515,3232235528,182473588,1,1,0.31,-0.09999885,-24.93757,4
1562003702.839965,88,0,0,1562003701.557202,4.63479120702074,-74.15100502934915,2563.731,-1,-1,10,65,-9999,1562003702.821985,-24.8765983581543,-9.675258636474609,15.1363525390625,125.1674041748047,132.661376953125,15,10191.955394,-0.33837890625,-0.9759979248046875,-0.1129302978515625,10191.955394,0.7104464239943672,-1.24672797165195,0.4102312037869338,10191.952006,-22.94136047363281,1.423004150390625,-523.052001953125,10191.950359,-1.982604505280926,-1.315645515936788,1.242570692070092,0.5325961709022522,-1.220750570297241,0.4377243518829346,-0.03461509943008423,-0.06597268581390381,-0.005949020385742188,1,0.1637474596500397,0.6576517820358276,0.7332820296287537,-0.05457380041480064,-0.3119272589683533,-0.9466158151626587,-0.0813618078827858,0,0,0,-1,10189.97287075,3,2,1562003700.846863,0,0,0,0,0,0,0,0,0,10189.304738,0,-0.546875,75.30515,3232235528,182473588,1,1,0.31,-0.09999885,-25.71722,4
1562003702.886784,89,0,0,1562003701.557202,4.63479120702074,-74.15100502934915,2563.731,-1,-1,10,65,-9999,1562003702.873033,-24.68207931518555,-8.951356887817383,16.250732421875,127.6467895507812,135.1407623291016,15,10191.975658,-0.406341552734375,-0.925384521484375,-0.09515380859375,10191.975658,1.535603451937827,-1.321399280192246,0.5444302879610077,10191.972087,-22.55680847167969,2.01080322265625,-522.4440307617188,10191.970622,-1.920499242892137,-1.400137337970841,1.238131418797543,1.34583580493927,-1.31202757358551,0.4757646918296814,-0.03877699375152588,-0.005401372909545898,-0.05826306343078613,1,0.1754776388406754,0.6644375324249268,0.7246729135513306,-0.0507880225777626,-0.3218187093734741,-0.9451754689216614,-0.05546072870492935,0,0,0,-1,10189.97287075,3,2,1562003700.846863,0,0,0,0,0,0,0,0,0,10189.304738,0,-0.546875,75.30515,3232235528,182473588,1,1,0.31,-0.09999885,-26.91096,4
1562003702.890022,90,0,0,1562003701.557202,4.63479120702074,-74.15100502934915,2563.731,-1,-1,10,65,-9999,1562003702.873033,-24.68207931518555,-8.951356887817383,16.250732421875,127.6467895507812,135.1407623291016,15,10191.995921,-0.45318603515625,-0.9083709716796875,-0.0458831787109375,10191.995921,1.853442140658859,-1.071380385475062,0.7296781754902655,10191.992168,-21.94139099121094,2.819686889648438,-521.2291259765625,10191.990855,-1.8163133530776,-1.524385580014076,1.229646125028085,1.83436131477356,-1.173672080039978,0.7026572227478027,-0.09868067502975464,0.04867845773696899,-0.06177890300750732,1,0.1880128532648087,0.6759364604949951,0.7108525037765503,-0.04949604719877243,-0.3342111706733704,-0.9423704743385315,-0.0155221363529563,0,0,0,-1,10189.97287075,3,2,1562003700.846863,0,0,0,0,0,0,0,0,0,10189.304738,0,-0.546875,75.30515,3232235528,182473588,1,1,0.31,-0.09999885,-26.91096,4
1562003702.901421,91,0,0,1562003701.557202,4.63479120702074,-74.15100502934915,2563.731,-1,-1,10,65,-9999,1562003702.898864,-23.97551345825195,-7.225464820861816,17.75439453125,128.0108489990234,135.5048217773438,15,10192.016185,-0.5987091064453125,-1.090469360351562,0.0866546630859375,10192.016185,1.595525908045154,-0.4219629610209508,0.6175806652027591,10192.012279,-21.92697143554688,3.842636108398438,-520.9356079101562,10192.011119,-1.709640147978019,-1.643193627651751,1.214802304627268,1.691855311393738,-0.5942593216896057,0.6600700616836548,-0.1584789454936981,-0.04800528287887573,-0.01413214206695557,1,0.1984986513853073,0.6878977417945862,0.6962152719497681,-0.05176184698939323,-0.3476093113422394,-0.9373005032539368,0.02521003596484661,0,0,0,-1,10189.97287075,3,2,1562003700.846863,0,0,0,0,0,0,0,0,0,10189.304738,0,-0.546875,75.30515,3232235528,182473588,1,1,0.31,-0.09999885,-27.62698,4
1562003702.92107,92,0,0,1562003701.557202,4.63479120702074,-74.15100502934915,2563.731,-1,-1,10,65,-9999,1562003702.898864,-23.97551345825195,-7.225464820861816,17.75439453125,128.0108489990234,135.5048217773438,15,10192.036449,-0.6673583984375,-1.286178588867188,0.2302398681640625,10192.036449,1.327133864967514,0.05158889242425195,0.2656074418418538,10192.032359,-21.59552001953125,4.741424560546875,-520.849609375,10192.031383,-1.625333959681242,-1.728268455142204,1.199643991453611,1.469502091407776,-0.05652476847171783,0.4422413408756256,-0.3074470460414886,-0.2774710655212402,0.09876179695129395,1,0.2038292586803436,0.6977768540382385,0.6843528747558594,-0.05676605924963951,-0.3582023680210114,-0.9319100379943848,0.05687781050801277,0,0,0,-1,10189.97287075,3,2,1562003700.846863,0,0,0,0,0,0,0,0,0,10189.304738,0,-0.546875,75.30515,3232235528,182473588,1,1,0.31,-0.09999885,-28.26584,4
1562003702.973112,93,0,0,1562003701.557202,4.63479120702074,-74.15100502934915,2563.731,-1,-1,10,65,-9999,1562003702.949537,-23.80906677246094,-5.8550705909729,18.0001220703125,127.3191528320312,134.8131256103516,15,10192.056712,-0.4186859130859375,-1.22540283203125,0.080291748046875,10192.056712,0.5272297294285129,-0.2767264057090436,-0.2728142220677172,10192.05247,-21.81547546386719,5.04998779296875,-520.7935791015625,10192.051646,-1.565719107216998,-1.784132144274539,1.194179849200709,0.686827540397644,-0.1761744767427444,-0.2444302290678024,-0.1339233815670013,-0.3410970568656921,0.0828852653503418,1,0.2037781327962875,0.7052712440490723,0.6764176487922668,-0.05938198044896126,-0.3594390451908112,-0.9299143552780151,0.07786610722541809,0,0,0,-1,10189.97287075,3,2,1562003700.846863,0,0,0,0,0,0,0,0,0,10189.304738,0,-0.546875,75.30515,3232235528,182473588,1,1,0.31,-0.6572778,-15.38957,4
1562003702.976583,94,0,0,1562003701.557202,4.63479120702074,-74.15100502934915,2563.731,-1,-1,10,65,-9999,1562003702.974457,-23.74202346801758,-5.585371017456055,18.36114501953125,127.3939208984375,134.8878936767578,15,10192.076976,-0.4575042724609375,-1.084640502929688,0.1436614990234375,10192.076976,0.2226850082369377,-0.1253749662182053,-0.06554092705906807,10192.072551,-21.78550720214844,5.311019897460938,-520.4124755859375,10192.07191,-1.539559737556147,-1.81403913906948,1.196696304540884,0.2666337192058563,-0.2223257273435593,-0.1288711428642273,-0.1113412380218506,-0.2225596904754639,0.02157306671142578,1,0.2037681937217712,0.7088626623153687,0.6728833317756653,-0.05674795806407928,-0.3546774685382843,-0.9308368563652039,0.08801550418138504,0,0,0,-1,10189.97287075,3,2,1562003700.846863,0,0,0,0,0,0,0,0,0,10189.304738,0,-0.546875,75.30515,3232235528,182473588,1,1,0.31,-0.6572778,-15.38957,4
1562003702.98186,95,0,0,1562003701.557202,4.63479120702074,-74.15100502934915,2563.731,-1,-1,10,65,-9999,1562003702.974457,-23.74202346801758,-5.585371017456055,18.36114501953125,127.3939208984375,134.8878936767578,15,10192.097209,-0.4112548828125,-1.0416259765625,0.08184814453125,10192.097209,-0.1260490122901044,0.1394537673209092,-0.03200240787115518,10192.092662,-21.81344604492188,5.321853637695312,-520.4009399414062,10192.092174,-1.530565672183816,-1.823566870728631,1.19679692321688,0.000456878449767828,0.07403323799371719,-0.01758537255227566,-0.07413974404335022,-0.1245614886283875,0.03172540664672852,1,0.2037465274333954,0.7100499868392944,0.6716698408126831,-0.05635599419474602,-0.3537319302558899,-0.9308736324310303,0.09136725962162018,0,0,0,-1,10189.97287075,3,2,1562003700.846863,0,0,0,0,0,0,0,0,0,10189.304738,0,-0.546875,75.30515,3232235528,182473588,1,1,0.31,-0.6572778,-15.38957,4
1562003703.002557,96,0,0,1562003701.557202,4.63479120702074,-74.15100502934915,2563.731,-1,-1,10,65,-9999,1562003703.000078,-23.94809722900391,-5.718898773193359,18.25872802734375,127.2384033203125,134.7323760986328,15,10192.117473,-0.4407501220703125,-1.068313598632812,0.08074951171875,10192.117473,-0.6593361016180025,0.4446032923960415,-0.0535937200928636,10192.112743,-21.9427490234375,5.16748046875,-520.5274658203125,10192.112437,-1.544913004020256,-1.805853464558176,1.19895449858398,-0.5541794300079346,0.3779574632644653,-0.0526014156639576,-0.06879341602325439,-0.1232566833496094,-0.02616310119628906,1,0.202146053314209,0.7081290483474731,0.6741182208061218,-0.05705196037888527,-0.3533409833908081,-0.9316597580909729,0.08461955189704895,0,0,0,-1,10189.97287075,3,2,1562003700.846863,0,0,0,0,0,0,0,0,0,10189.304738,0,-0.546875,75.30515,3232235528,182473588,1,1,0.31,-1.214557,-16.3195,4
1562003703.054033,97,0,0,1562003701.557202,4.63479120702074,-74.15100502934915,2563.731,-1,-1,10,65,-9999,1562003703.02466,-24.07905197143555,-6.194369316101074,18.0777587890625,127.066162109375,134.5601348876953,15,10192.137736,-0.385894775390625,-1.041549682617188,0.1350860595703125,10192.137736,-0.8116145874842974,0.3191998303541723,-0.1302072720161541,10192.132823,-22.1019287109375,4.574981689453125,-520.771240234375,10192.132671,-1.583501907974753,-1.76107887246536,1.203431438298767,-0.816368579864502,0.401769608259201,-0.1050134748220444,-0.07476979494094849,-0.1245232820510864,0.05073785781860352,1,0.19908407330513,0.7030863165855408,0.6801816821098328,-0.0582062192261219,-0.352674663066864,-0.9332770109176636,0.06792967021465302,0,0,0,-1,10189.97287075,3,2,1562003700.846863,0,0,0,0,0,0,0,0,0,10189.304738,0,-0.546875,75.30515,3232235528,182473588,1,1,0.31,-2.329114,-18.1763,4
1562003703.05639,98,0,0,1562003701.557202,4.63479120702074,-74.15100502934915,2563.731,-1,-1,10,65,-9999,1562003703.02466,-24.07905197143555,-6.194369316101074,18.0777587890625,127.066162109375,134.5601348876953,15,10192.158,-0.3423004150390625,-1.007125854492188,0.154937744140625,10192.158,-0.6320437604507615,0.02061499736608537,-0.2658111736652448,10192.152934,-22.17906188964844,4.228179931640625,-521.0011596679688,10192.152934,-1.62539316034559,-1.717437587501801,1.209388293919509,-0.694349467754364,0.05899281427264214,-0.2379851043224335,-0.0163993239402771,-0.08645069599151611,0.1008156538009644,1,0.1968202143907547,0.6979215741157532,0.6862284541130066,-0.05707595497369766,-0.3497963547706604,-0.9353998899459839,0.05166544020175934,0,0,0,-1,10189.97287075,3,2,1562003700.846863,0,0,0,0,0,0,0,0,0,10189.304738,0,-0.546875,75.30515,3232235528,182473588,1,1,0.31,-2.886393,-19.14676,4
1562003703.062842,99,0,0,1562003701.557202,4.63479120702074,-74.15100502934915,2563.731,-1,-1,10,65,-9999,1562003703.02466,-24.07905197143555,-6.194369316101074,18.0777587890625,127.066162109375,134.5601348876953,15,10192.178264,-0.3244476318359375,-0.949554443359375,0.121337890625,10192.178264,-0.3746519042556932,0.01001614885978801,-0.2767812668274992,10192.173015,-22.09288024902344,4.207122802734375,-520.8014526367188,10192.173198,-1.655544436333126,-1.689022598707235,1.216523510540955,-0.4278625845909119,0.0001673167571425438,-0.2906219661235809,0.01952004432678223,-0.04894793033599854,0.09787571430206299,1,0.1951011717319489,0.6945463418960571,0.6903751492500305,-0.05406442657113075,-0.3444865047931671,-0.9378989934921265,0.04091817513108253,0,0,0,-1,10189.97287075,3,2,1562003700.846863,0,0,0,0,0,0,0,0,0,10189.304738,0,-0.546875,75.30515,3232235528,182473588,1,1,0.31,-2.886393,-19.14676,4
1562003703.083055,100,0,0,1562003701.557202,4.63479120702074,-74.15100502934915,2563.731,-1,-1,10,65,-9999,1562003703.074592,-24.15556716918945,-6.536202907562256,17.85565185546875,127.29150390625,134.7854766845703,15,10192.198527,-0.3086090087890625,-0.90167236328125,0.079620361328125,10192.198527,-0.2467639792328891,0.08970831500321014,-0.1933516204102599,10192.193126,-22.08062744140625,3.954071044921875,-521.1571655273438,10192.193462,-1.673601618845509,-1.671661842417141,1.222613810995722,-0.2673831582069397,0.05865006521344185,-0.2304693907499313,0.02024179697036743,0.01570844650268555,0.05939400196075439,1,0.1932777613401413,0.6926916241645813,0.692929208278656,-0.05168247222900391,-0.339455634355545,-0.9399943947792053,0.03435595706105232,0,0,0,-1,10189.97287075,3,2,1562003700.846863,0,0,0,0,0,0,0,0,0,10189.304738,0,-0.546875,75.30515,3232235528,182473588,1,1,0.31,-3.443672,-20.05745,4
1562003703.120209,101,0,0,1562003701.557202,4.63479120702074,-74.15100502934915,2563.731,-1,-1,10,65,-9999,1562003703.101492,-24.01177978515625,-7.209012985229492,17.7333984375,127.4692230224609,134.9631958007812,15,10192.218791,-0.29095458984375,-0.8778533935546875,0.0461273193359375,10192.218791,-0.2930142989359682,0.09969516909100727,-0.00432284308141662,10192.213206,-22.00401306152344,3.576339721679688,-521.06689453125,10192.213725,-1.68763066624244,-1.656538016952282,1.226125426891146,-0.2659938037395477,0.1067715287208557,-0.05589999258518219,0.03401774168014526,0.05898457765579224,0.03917968273162842,1,0.1916826665401459,0.6911768913269043,0.6949469447135925,-0.05080228671431541,-0.3366453051567078,-0.9411867260932922,0.02893547900021076,0,0,0,-1,10189.97287075,3,2,1562003700.846863,0,0,0,0,0,0,0,0,0,10189.304738,0,-0.546875,75.30515,3232235528,182473588,1,1,0.31,-4.000951,-20.95606,4
1562003703.123529,102,0,0,1562003701.557202,4.63479120702074,-74.15100502934915,2563.731,-1,-1,10,65,-9999,1562003703.101492,-24.01177978515625,-7.209012985229492,17.7333984375,127.4692230224609,134.9631958007812,15,10192.239024,-0.3037567138671875,-0.8914337158203125,0.027435302734375,10192.239024,-0.3493558686415755,-0.00914449623500508,0.0985161876764292,10192.233318,-22.28572082519531,3.522125244140625,-521.28173828125,10192.233989,-1.706700184010311,-1.637130969931907,1.225995705883352,-0.3536259233951569,0.02045474573969841,0.09154804795980453,0.04356452822685242,0.05858975648880005,0.01116406917572021,1,0.1915512084960938,0.6888474225997925,0.6972846388816833,-0.05090698599815369,-0.3372657299041748,-0.9411428570747375,0.02240527421236038,0,0,0,-1,10189.97287075,3,2,1562003700.846863,0,0,0,0,0,0,0,0,0,10189.304738,0,-0.546875,75.30515,3232235528,182473588,1,1,0.31,-4.000951,-20.95606,4
1562003703.143834,103,0,0,1562003701.557202,4.63479120702074,-74.15100502934915,2563.731,-1,-1,10,65,-9999,1562003703.125789,-24.23855972290039,-7.305398941040039,17.5501708984375,127.5609130859375,135.0548858642578,15,10192.259288,-0.330535888671875,-0.90911865234375,0.032958984375,10192.259288,-0.2176055610898295,-0.07568224449008981,0.007230482359565132,10192.253398,-22.10784912109375,3.59234619140625,-521.3189697265625,10192.254222,-1.725906590416403,-1.619827598344116,1.22486245334164,-0.2607066333293915,-0.07709258049726486,0.03313028067350388,0.02311590313911438,0.04215389490127563,0.007581830024719238,1,0.1925006657838821,0.6864785552024841,0.6993820071220398,-0.05055122822523117,-0.3386676609516144,-0.9407591819763184,0.0166186261922121,0,0,0,-1,10189.97287075,3,2,1562003700.846863,0,0,0,0,0,0,0,0,0,10189.304738,0,-0.546875,75.30515,3232235528,182473588,1,1,0.31,-4.55823,-21.73315,4
1562003703.164139,104,0,0,1562003701.557202,4.63479120702074,-74.15100502934915,2563.731,-1,-1,10,65,-9999,1562003703.152058,-24.10224533081055,-7.270710468292236,17.53265380859375,127.7778472900391,135.2718200683594,15,10192.279552,-0.342498779296875,-0.9194183349609375,0.0413360595703125,10192.279552,-0.1229586801611764,-0.06261597723383404,-0.03465385105243807,10192.273509,-22.0211181640625,3.75714111328125,-521.1383666992188,10192.274486,-1.736818892063477,-1.611112234181371,1.225331517767848,-0.1326115131378174,-0.06564152240753174,-0.04154129326343536,-0.003712594509124756,0.02800005674362183,0.0321429967880249,1,0.1930324286222458,0.6852465271949768,0.7005140781402588,-0.0495552085340023,-0.3383589386940002,-0.9409181475639343,0.01364864315837622,0,0,0,-1,10189.97287075,3,2,1562003700.846863,0,0,0,0,0,0,0,0,0,10189.304738,0,-0.546875,75.30515,3232235528,182473588,1,1,0.31,-5.115509,-22.34965,4
1562003703.205556,105,0,0,1562003701.557202,4.63479120702074,-74.15100502934915,2563.731,-1,-1,10,65,-9999,1562003703.20255,-24.17380523681641,-7.371549606323242,17.62103271484375,128.0681915283203,135.5621643066406,15,10192.299815,-0.3410186767578125,-0.92681884765625,-0.0054473876953125,10192.299815,-0.179339930967026,-0.04607827949665999,0.0640564810674579,10192.29359,-21.92912292480469,3.38470458984375,-521.3563232421875,10192.294749,-1.744419891128777,-1.605337706059019,1.225798166945071,-0.1563373506069183,-0.06203320994973183,0.02834724448621273,0.000499427318572998,0.01502019166946411,0.002541780471801758,1,0.1934521794319153,0.6844092011451721,0.7012761831283569,-0.04870368912816048,-0.337993323802948,-0.9410760998725891,0.01167940068989992,0,0,0,-1,10189.97287075,3,2,1562003700.846863,0,0,0,0,0,0,0,0,0,10189.304738,0,-0.546875,75.30515,3232235528,182473588,1,1,0.31,-6.230067,-23.91029,4
1562003703.208078,106,0,0,1562003701.557202,4.63479120702074,-74.15100502934915,2563.731,-1,-1,10,65,-9999,1562003703.20255,-24.17380523681641,-7.371549606323242,17.62103271484375,128.0681915283203,135.5621643066406,15,10192.320079,-0.3452911376953125,-0.92535400390625,-0.0183563232421875,10192.320079,-0.2760952365306948,0.04942560667078058,0.1491205094456788,10192.31367,-22.16764831542969,3.510528564453125,-521.154052734375,10192.315013,-1.756971093953076,-1.594075513780543,1.224229204157453,-0.2607553601264954,0.02357170917093754,0.1290032863616943,-0.006307005882263184,0.01323717832565308,-0.02266180515289307,1,0.19432432949543,0.6827820539474487,0.7026199698448181,-0.04870288446545601,-0.3395792245864868,-0.9405443072319031,0.007906556129455566,0,0,0,-1,10189.97287075,3,2,1562003700.846863,0,0,0,0,0,0,0,0,0,10189.304738,0,-0.546875,75.30515,3232235528,182473588,1,1,0.31,-6.230067,-23.91029,4
1562003703.224892,107,0,0,1562003701.557202,4.63479120702074,-74.15100502934915,2563.731,-1,-1,10,65,-9999,1562003703.20255,-24.17380523681641,-7.371549606323242,17.62103271484375,128.0681915283203,135.5621643066406,15,10192.340343,-0.353240966796875,-0.9119415283203125,-0.0236053466796875,10192.340343,-0.2014428364341386,0.01639761546383589,0.1475814686517221,10192.333781,-22.34136962890625,3.290664672851562,-521.2598266601562,10192.335277,-1.773119535650662,-1.577968267679628,1.221180215475473,-0.243634968996048,0.0366680696606636,0.1646342575550079,-0.006470322608947754,0.01811754703521729,-0.02362060546875,1,0.1951999068260193,0.6805331110954285,0.7044946551322937,-0.04958916455507278,-0.3425287306308746,-0.9395042657852173,0.002456637797877192,0,0,0,-1,10189.97287075,3,2,1562003700.846863,0,0,0,0,0,0,0,0,0,10189.304738,0,-0.546875,75.30515,3232235528,182473588,1,1,0.31,-6.787346,-24.56912,4
1562003703.245189,108,0,0,1562003701.557202,4.63479120702074,-74.15100502934915,2563.731,-1,-1,10,65,-9999,1562003703.22717,-24.32080459594727,-7.491733551025391,17.51263427734375,128.1386566162109,135.6326293945312,15,10192.360606,-0.3516082763671875,-0.9347686767578125,-0.0073394775390625,10192.360606,0.08551729839575244,-0.06996070920416357,-0.02463344113490593,10192.353862,-22.31690979003906,3.144012451171875,-521.118896484375,10192.35554,-1.781136325180904,-1.570815748061087,1.219095667320096,0.003718897234648466,-0.06492433696985245,0.01932445541024208,-0.01024138927459717,0.02194863557815552,-0.02130794525146484,1,0.1961130648851395,0.6793695688247681,0.7053393721580505,-0.0499304011464119,-0.3444949090480804,-0.9387881755828857,6.690527698083315e-06,0,0,0,-1,10189.97287075,3,2,1562003700.846863,0,0,0,0,0,0,0,0,0,10189.304738,0,-0.546875,75.30515,3232235528,182473588,1,1,0.31,-7.344625,-25.35529,4
1562003703.288126,109,0,0,1562003701.557202,4.63479120702074,-74.15100502934915,2563.731,-1,-1,10,65,-9999,1562003703.277904,-24.23421478271484,-7.459193229675293,17.6717529296875,128.1658477783203,135.6598205566406,15,10192.380839,-0.3502960205078125,-0.951751708984375,0.018798828125,10192.380839,0.2581388728808355,-0.05601772931705372,-0.1576929586785349,10192.373943,-22.29904174804688,3.380722045898438,-521.0721435546875,10192.375804,-1.772618184953878,-1.580212722740733,1.220444409569033,0.243114709854126,-0.06304014474153519,-0.1404039561748505,-0.007372379302978516,-0.006182610988616943,0.00732719898223877,1,0.1960699707269669,0.6805678009986877,0.704242467880249,-0.04926178231835365,-0.3432135581970215,-0.9392519593238831,0.003231930313631892,0,0,0,-1,10189.97287075,3,2,1562003700.846863,0,0,0,0,0,0,0,0,0,10189.304738,0,-0.546875,75.30515,3232235528,182473588,1,1,0.31,-7.901904,-26.23258,4
1562003703.290527,110,0,0,1562003701.557202,4.63479120702074,-74.15100502934915,2563.731,-1,-1,10,65,-9999,1562003703.277904,-24.23421478271484,-7.459193229675293,17.6717529296875,128.1658477783203,135.6598205566406,15,10192.401103,-0.33197021484375,-0.9490509033203125,0.0263519287109375,10192.401103,0.1439925927667313,-0.007527691137217974,-0.1389277930056186,10192.394054,-21.97331237792969,3.2821044921875,-521.26611328125,10192.396037,-1.758272737572661,-1.594581585769736,1.223669451491369,0.1968036741018295,-0.01747426204383373,-0.161044254899025,-0.00761646032333374,-0.01415950059890747,0.01311874389648438,1,0.1951373368501663,0.6826176643371582,0.7025840878486633,-0.0482700951397419,-0.3401008248329163,-0.94035404920578,0.0080909114331007,0,0,0,-1,10189.97287075,3,2,1562003700.846863,0,0,0,0,0,0,0,0,0,10189.304738,0,-0.546875,75.30515,3232235528,182473588,1,1,0.31,-8.459183,-26.72058,4
1562003703.305974,111,0,0,1562003701.557202,4.63479120702074,-74.15100502934915,2563.731,-1,-1,10,65,-9999,1562003703.303997,-24.02689743041992,-7.356924533843994,17.71484375,128.1342315673828,135.6282043457031,15,10192.421367,-0.3230438232421875,-0.93011474609375,0.00640869140625,10192.421367,-0.1457199190497567,0.02837251930537718,-0.009532252489720618,10192.414134,-21.96327209472656,3.541961669921875,-521.073974609375,10192.416301,-1.754154985461037,-1.598552187758733,1.225820147340205,-0.08053446561098099,0.01173662208020687,-0.043305903673172,0.0145576000213623,0.00184398889541626,0.006392478942871094,1,0.194392666220665,0.6833037734031677,0.7021692395210266,-0.04760023579001427,-0.3380439281463623,-0.9410834908485413,0.009385110810399055,0,0,0,-1,10189.97287075,3,2,1562003700.846863,0,0,0,0,0,0,0,0,0,10189.304738,0,-0.546875,75.30515,3232235528,182473588,1,1,0.31,-8.459183,-26.72058,4
1562003703.326199,112,0,0,1562003701.557202,4.63479120702074,-74.15100502934915,2563.731,-1,-1,10,65,-9999,1562003703.303997,-24.02689743041992,-7.356924533843994,17.71484375,128.1342315673828,135.6282043457031,15,10192.441624,-0.315032958984375,-0.9210052490234375,-0.0040740966796875,10192.441624,-0.227267243208528,0.07659437716344195,0.08046927654950724,10192.434238,-21.97447204589844,3.03204345703125,-521.241943359375,10192.436558,-1.765181316338739,-1.587388045065814,1.225632951791137,-0.2349064499139786,0.06610905379056931,0.05972780287265778,0.01974594593048096,0.01696318387985229,-0.007169961929321289,1,0.1942966133356094,0.6819498538970947,0.7035106420516968,-0.04760188981890678,-0.3383036851882935,-0.9410201907157898,0.005613554269075394,0,0,0,-1,10189.97287075,3,2,1562003700.846863,0,0,0,0,0,0,0,0,0,10189.304738,0,-0.546875,75.30515,3232235528,182473588,1,1,0.31,-9.016461,-27.36212,4
1562003703.368742,113,0,0,1562003701.557202,4.63479120702074,-74.15100502934915,2563.731,-1,-1,10,65,-9999,1562003703.354624,-23.80658340454102,-7.640640258789062,17.60968017578125,128.1410522460938,135.6350250244141,15,10192.461887,-0.3187255859375,-0.91680908203125,0.0010528564453125,10192.461887,-0.07995768330410302,0.06118213130293538,0.07422256589661738,10192.454319,-21.71881103515625,3.141189575195312,-521.2020874023438,10192.456821,-1.776998280834426,-1.574843302321453,1.22400751071488,-0.1297603249549866,0.06370022147893906,0.08279131352901459,0.02308949828147888,0.02481955289840698,-0.004259347915649414,1,0.1944568753242493,0.6803486347198486,0.7049685716629028,-0.04828791692852974,-0.3398772180080414,-0.940468966960907,0.001375482301227748,0,0,0,-1,10189.97287075,3,2,1562003700.846863,0,0,0,0,0,0,0,0,0,10189.304738,0,-0.546875,75.30515,3232235528,182473588,1,1,0.31,-10.13102,-28.34219,4
1562003703.37185,114,0,0,1562003701.557202,4.63479120702074,-74.15100502934915,2563.731,-1,-1,10,65,-9999,1562003703.354624,-23.80658340454102,-7.640640258789062,17.60968017578125,128.1410522460938,135.6350250244141,15,10192.482151,-0.32891845703125,-0.937255859375,0.010589599609375,10192.482151,0.05846357646218249,0.04654806111294996,0.03988829417498881,10192.474399,-21.93841552734375,3.332992553710938,-521.2409057617188,10192.477085,-1.77925450559254,-1.571736982148814,1.222753949858393,0.03763851150870323,0.03918608650565147,0.04450597241520882,0.02054741978645325,0.01336061954498291,0.004745125770568848,1,0.1945552676916122,0.6799328327178955,0.7052939534187317,-0.04899084568023682,-0.3410582840442657,-0.9400421977043152,0.0003208183916285634,0,0,0,-1,10189.97287075,3,2,1562003700.846863,0,0,0,0,0,0,0,0,0,10189.304738,0,-0.546875,75.30515,3232235528,182473588,1,1,0.31,-10.13102,-28.34219,4
1562003703.387033,115,0,0,1562003701.557202,4.63479120702074,-74.15100502934915,2563.731,-1,-1,10,65,-9999,1562003703.379001,-23.98312377929688,-7.521174430847168,17.53619384765625,128.0620574951172,135.5560302734375,15,10192.502415,-0.3258209228515625,-0.959381103515625,0.01824951171875,10192.502415,0.005535380325729697,0.009722934823770291,-0.015729162030226,10192.49451,-22.10592651367188,3.559661865234375,-521.3281860351562,10192.497349,-1.776031296718198,-1.573982913389572,1.222299065942466,0.03406348451972008,0.02561355568468571,-0.006139093544334173,0.008125573396682739,-0.008080601692199707,0.01693248748779297,1,0.1944057047367096,0.6802576780319214,0.7049846649169922,-0.04952407255768776,-0.3414843380451202,-0.9398869276046753,0.001088173128664494,0,0,0,-1,10189.97287075,3,2,1562003700.846863,0,0,0,0,0,0,0,0,0,10189.304738,0,-0.546875,75.30515,3232235528,182473588,1,1,0.31,-10.6883,-28.90847,4
1562003703.407261,116,0,0,1562003701.557202,4.63479120702074,-74.15100502934915,2563.731,-1,-1,10,65,-9999,1562003703.405258,-24.06173324584961,-7.628231048583984,17.4581298828125,128.0836486816406,135.5776214599609,15,10192.522648,-0.3450164794921875,-0.9745941162109375,0.0144195556640625,10192.522648,-0.1066593353415645,-0.02836133402879885,-0.02095241987619841,10192.514591,-21.97984313964844,3.209228515625,-521.324462890625,10192.517612,-1.777849274806319,-1.572528519328513,1.222783904419645,-0.09328354895114899,-0.03555286303162575,-0.02652345970273018,0.009441137313842773,-0.03203928470611572,0.01184511184692383,1,0.1943463683128357,0.6800917983055115,0.7051832675933838,-0.04920678585767746,-0.3410298824310303,-0.9400523900985718,0.0005907299928367138,0,0,0,-1,10189.97287075,3,2,1562003700.846863,0,0,0,0,0,0,0,0,0,10189.304738,0,-0.546875,75.30515,3232235528,182473588,1,1,0.31,-11.24558,-29.2037,4
1562003703.44873,117,0,0,1562003701.557202,4.63479120702074,-74.15100502934915,2563.731,-1,-1,10,65,-9999,1562003703.429908,-23.95484924316406,-7.567754745483398,17.35528564453125,128.1542358398438,135.6482086181641,15,10192.542911,-0.353515625,-0.96136474609375,0.0113525390625,10192.542911,-0.09476485896494358,0.008861402211129658,0.005215800994920188,10192.534672,-21.92160034179688,3.297882080078125,-521.4942016601562,10192.537845,-1.784311789646089,-1.566904023533392,1.223150911792698,-0.1052669733762741,-0.0001043258234858513,-0.002517460845410824,-0.01290959119796753,-0.03009837865829468,0.02163547277450562,1,0.1944339871406555,0.6793617606163025,0.7058969140052795,-0.04870869219303131,-0.3406823575496674,-0.9401775002479553,-0.001326045719906688,0,0,0,-1,10189.97287075,3,2,1562003700.846863,0,0,0,0,0,0,0,0,0,10189.304738,0,-0.546875,75.30515,3232235528,182473588,1,1,0.31,-11.80286,-29.35642,4
1562003703.452821,118,0,0,1562003701.557202,4.63479120702074,-74.15100502934915,2563.731,-1,-1,10,65,-9999,1562003703.429908,-23.95484924316406,-7.567754745483398,17.35528564453125,128.1542358398438,135.6482086181641,15,10192.563175,-0.3438568115234375,-0.941497802734375,-0.0237884521484375,10192.563175,-0.03446583187947848,0.007826231495415857,-0.01731001445329703,10192.554783,-22.09707641601562,3.156417846679688,-521.240966796875,10192.558109,-1.789325643294328,-1.56228750317973,1.223128546403571,-0.05785525217652321,-0.01301985792815685,-0.008105837740004063,-0.008717209100723267,-0.009445607662200928,-0.003997981548309326,1,0.1945138275623322,0.6787598133087158,0.7064672112464905,-0.04851386323571205,-0.3406938016414642,-0.9401698708534241,-0.002898973412811756,0,0,0,-1,10189.97287075,3,2,1562003700.846863,0,0,0,0,0,0,0,0,0,10189.304738,0,-0.546875,75.30515,3232235528,182473588,1,1,0.31,-12.36014,-29.52771,4
1562003703.468158,119,0,0,1562003701.557202,4.63479120702074,-74.15100502934915,2563.731,-1,-1,10,65,-9999,1562003703.456015,-24.10671615600586,-7.657854080200195,17.55859375,128.1814422607422,135.6754150390625,15,10192.583439,-0.341796875,-0.935333251953125,-0.0253143310546875,10192.583439,0.09139862334708343,0.01517868663290662,-0.02830194553649008,10192.574863,-21.8892822265625,3.16680908203125,-521.2861328125,10192.578373,-1.789808345703853,-1.561570690617475,1.223725730723427,0.04813562706112862,0.02377357706427574,-0.03829063847661018,0.002178668975830078,0.004444777965545654,-0.01473003625869751,1,0.1942215710878372,0.6787554621696472,0.706561267375946,-0.04837637767195702,-0.3401303291320801,-0.9403731822967529,-0.003138007828965783,0,0,0,-1,10189.97287075,3,2,1562003700.846863,0,0,0,0,0,0,0,0,0,10189.304738,0,-0.546875,75.30515,3232235528,182473588,1,1,0.31,-12.36014,-29.52771,4
1562003703.488292,120,0,0,1562003701.557202,4.63479120702074,-74.15100502934915,2563.731,-1,-1,10,65,-9999,1562003703.48028,-23.99882125854492,-7.534242630004883,17.41729736328125,128.1259307861328,135.6199035644531,15,10192.603702,-0.3315277099609375,-0.9111328125,-0.0409088134765625,10192.603702,0.4954449018184172,-0.1321796091194668,0.003307912389987422,10192.594974,-21.91328430175781,3.448318481445312,-521.4791870117188,10192.598636,-1.779635204995582,-1.571568522577622,1.224213575331352,0.3490549921989441,-0.0901990607380867,-0.006821395363658667,-9.667873382568359e-05,0.01565802097320557,-0.03805828094482422,1,0.194129005074501,0.6800331473350525,0.7053555846214294,-0.04839916527271271,-0.3396860361099243,-0.9405390024185181,0.0002623041800688952,0,0,0,-1,10189.97287075,3,2,1562003700.846863,0,0,0,0,0,0,0,0,0,10189.304738,0,-0.546875,75.30515,3232235528,182473588,1,1,0.31,-12.91741,-29.91095,4
1562003703.527587,121,0,0,1562003701.557202,4.63479120702074,-74.15100502934915,2563.731,-1,-1,10,65,-9999,1562003703.506607,-24.07012939453125,-7.379798889160156,17.69482421875,128.0567321777344,135.5507049560547,15,10192.623966,-0.306640625,-0.88018798828125,-0.0388641357421875,10192.623966,1.225904182456403,-0.3612940208600737,0.01456030062779022,10192.615055,-22.10057067871094,3.547027587890625,-521.0654296875,10192.6189,-1.739523398920146,-1.613202628708273,1.223816247452107,1.035833358764648,-0.3099716603755951,0.01307960879057646,0.02137863636016846,0.04414844512939453,-0.05657637119293213,1,0.1952081173658371,0.6849101781845093,0.7003188133239746,-0.04842783883213997,-0.339753270149231,-0.940403938293457,0.01441632211208344,0,0,0,-1,10189.97287075,3,2,1562003700.846863,0,0,0,0,0,0,0,0,0,10189.304738,0,-0.546875,75.30515,3232235528,182473588,1,1,0.31,-14.03197,-30.03536,4
1562003703.530175,122,0,0,1562003701.557202,4.63479120702074,-74.15100502934915,2563.731,-1,-1,10,65,-9999,1562003703.506607,-24.07012939453125,-7.379798889160156,17.69482421875,128.0567321777344,135.5507049560547,15,10192.644199,-0.33843994140625,-0.896820068359375,-0.0050201416015625,10192.644199,1.660624750363269,-0.3773696601481191,-0.04212455054232835,10192.635135,-21.77113342285156,3.700302124023438,-520.7147827148438,10192.639164,-1.658502490320473,-1.697389232603693,1.221396060575098,1.620627045631409,-0.4299236238002777,-0.02060005813837051,0.02852898836135864,0.06325066089630127,-0.06974112987518311,1,0.1973513066768646,0.6947396397590637,0.6899605989456177,-0.04841053485870361,-0.339594691991806,-0.9395781755447388,0.04322141036391258,0,0,0,-1,10189.97287075,3,2,1562003700.846863,0,0,0,0,0,0,0,0,0,10189.304738,0,-0.546875,75.30515,3232235528,182473588,1,1,0.31,-14.03197,-30.03536,4
1562003703.549172,123,0,0,1562003701.557202,4.63479120702074,-74.15100502934915,2563.731,-1,-1,10,65,-9999,1562003703.53115,-23.82948303222656,-7.164753913879395,17.97186279296875,127.878662109375,135.3726348876953,15,10192.664463,-0.393341064453125,-0.9810791015625,0.0537872314453125,10192.664463,1.39859446649761,-0.03399897974038758,-0.09468389886780518,10192.655247,-21.72502136230469,4.468048095703125,-520.6527099609375,10192.659427,-1.563952485717607,-1.792261363340795,1.217044341316125,1.515218257904053,-0.1355471014976501,-0.1012158095836639,-0.03238683938980103,-0.004883110523223877,-0.05363333225250244,1,0.1981621980667114,0.7062427997589111,0.6778984665870667,-0.04905644431710243,-0.3379592299461365,-0.9380795359611511,0.07609429955482483,0,0,0,-1,10189.97287075,3,2,1562003700.846863,0,0,0,0,0,0,0,0,0,10190.248182,0,-0.480957,75.30455,3232235528,182473588,1,1,0.31,-14.58925,-30.69147,4
1562003703.569569,124,0,0,1562003701.557202,4.63479120702074,-74.15100502934915,2563.731,-1,-1,10,65,-9999,1562003703.557741,-23.75404357910156,-6.493260383605957,18.15875244140625,127.3386077880859,134.8325805664062,15,10192.684727,-0.360260009765625,-1.003585815429688,0.0960540771484375,10192.684727,0.7606464779101428,0.1617761172618444,-0.01236585588956493,10192.675327,-21.2841796875,5.203201293945312,-520.303466796875,10192.679661,-1.493202354422486,-1.857988447951528,1.212066286522793,0.9275246858596802,0.1383715271949768,-0.01955529861152172,-0.04541990160942078,-0.06258845329284668,-0.0186227560043335,1,0.1968406289815903,0.714827299118042,0.6690638065338135,-0.05127677321434021,-0.3367059528827667,-0.9363434314727783,0.09944859892129898,0,0,0,-1,10189.97287075,3,2,1562003700.846863,0,0,0,0,0,0,0,0,0,10190.248182,0,-0.480957,75.30455,3232235528,182473588,1,1,0.31,-15.14653,-30.72882,4
1562003703.597848,125,0,0,1562003701.557202,4.63479120702074,-74.15100502934915,2563.731,-1,-1,10,65,-9999,1562003703.592889,-23.73349761962891,-5.385785579681396,18.5557861328125,126.7667999267578,134.2607727050781,15,10192.70499,-0.323516845703125,-0.9881744384765625,0.147186279296875,10192.70499,0.3028107370058247,0.05605208409511574,-0.02350665767769341,10192.695438,-21.71858215332031,5.546524047851562,-520.2310791015625,10192.699924,-1.458782592734232,-1.88752246151139,1.208651479434127,0.3750732839107513,0.08137748390436172,-0.02152444049715996,-0.005824238061904907,-0.05150943994522095,0.009407639503479004,1,0.1954934298992157,0.7189951539039612,0.6648169755935669,-0.05335542559623718,-0.3366592824459076,-0.9351391196250916,0.1103434264659882,0,0,0,-1,10189.97287075,3,2,1562003700.846863,0,0,0,0,0,0,0,0,0,10190.248182,0,-0.480957,75.30455,3232235528,182473588,1,1,0.31,-15.70381,-27.65615,4
1562003703.609727,126,0,0,1562003701.557202,4.63479120702074,-74.15100502934915,2563.731,-1,-1,10,65,-9999,1562003703.592889,-23.73349761962891,-5.385785579681396,18.5557861328125,126.7667999267578,134.2607727050781,15,10192.725254,-0.3175048828125,-0.9699859619140625,0.1972808837890625,10192.725254,0.2308398738108693,-0.004436027427744987,-0.05159235453366905,10192.715519,-21.9898681640625,5.656524658203125,-520.378173828125,10192.720188,-1.443426673666286,-1.901099372400856,1.207552525300942,0.2265027165412903,0.009566411375999451,-0.04730837047100067,0.01565229892730713,-0.04834407567977905,0.06309235095977783,1,0.1948381513357162,0.720872163772583,0.6629264354705811,-0.05394537374377251,-0.336102157831192,-0.9347491860389709,0.1152371615171432,0,0,0,-1,10189.97287075,3,2,1562003700.846863,0,0,0,0,0,0,0,0,0,10190.248182,0,-0.480957,75.30455,3232235528,182473588,1,1,0.31,-15.70381,-27.65615,4
1562003703.630579,127,0,0,1562003701.557202,4.63479120702074,-74.15100502934915,2563.731,-1,-1,10,65,-9999,1562003703.592889,-23.73349761962891,-5.385785579681396,18.5557861328125,126.7667999267578,134.2607727050781,15,10192.745518,-0.3047943115234375,-0.9474945068359375,0.17279052734375,10192.745518,0.2686639518249377,-0.08516389691909892,-0.08004157287844051,10192.73563,-21.99040222167969,5.515762329101562,-520.3634033203125,10192.740452,-1.429342993390593,-1.914879799985929,1.207127458081805,0.257159948348999,-0.06971828639507294,-0.07748091965913773,0.02264586091041565,-0.02488982677459717,0.06665384769439697,1,0.1944583654403687,0.7226214408874512,0.6611443758010864,-0.05378046631813049,-0.3348559439182281,-0.9345980882644653,0.1199916079640388,0,0,0,-1,10189.97287075,3,2,1562003700.846863,0,0,0,0,0,0,0,0,0,10190.248182,0,-0.480957,75.30455,3232235528,182473588,1,1,0.31,-16.26109,-26.35388,4
1562003703.650427,128,0,0,1562003701.557202,4.63479120702074,-74.15100502934915,2563.731,-1,-1,10,65,-9999,1562003703.632211,-23.97745513916016,-5.305076599121094,18.469482421875,126.5082855224609,134.0022583007812,15,10192.765781,-0.3150787353515625,-0.9318695068359375,0.1605072021484375,10192.765781,0.311795177259316,-0.1035562200394042,-0.08016807303021928,10192.75571,-21.94084167480469,5.792129516601562,-520.06884765625,10192.760715,-1.412742934167364,-1.932408675189812,1.206757811893139,0.3037402331829071,-0.1077591478824615,-0.08486213535070419,0.02348434925079346,-0.001385509967803955,0.03884553909301758,1,0.1943589895963669,0.7247115969657898,0.6589416265487671,-0.0530429445207119,-0.3330241441726685,-0.934466540813446,0.1259646266698837,0,0,0,-1,10189.97287075,3,2,1562003700.846863,0,0,0,0,0,0,0,0,0,10190.248182,0,-0.480957,75.30455,3232235528,182473588,1,1,0.31,-16.81837,-26.58313,4
1562003703.685008,129,0,0,1562003701.557202,4.63479120702074,-74.15100502934915,2563.731,-1,-1,10,65,-9999,1562003703.658594,-23.91459274291992,-5.150055408477783,18.65509033203125,126.5089721679688,134.0029449462891,15,10192.786014,-0.315765380859375,-0.919891357421875,0.1423492431640625,10192.786014,0.3214499351591802,-0.08747845022248678,-0.07967858402186272,10192.775822,-21.76045227050781,5.802749633789062,-520.28271484375,10192.780979,-1.394434796214973,-1.951699695028998,1.205999991357453,0.3191346526145935,-0.1014288142323494,-0.08148418366909027,0.01428020000457764,0.00978851318359375,0.01760947704315186,1,0.1943071931600571,0.7270206212997437,0.6564664840698242,-0.05232153832912445,-0.3311899900436401,-0.934196412563324,0.132628545165062,0,0,0,-1,10189.97287075,3,2,1562003700.846863,0,0,0,0,0,0,0,0,0,10190.248182,0,-0.480957,75.30455,3232235528,182473588,1,1,0.31,-17.93292,-27.23907,4
