loggingTime,loggingSample,identifierForVendor,deviceID,locationTimestamp_since1970,locationLatitude,locationLongitude,locationAltitude,locationSpeed,locationCourse,locationVerticalAccuracy,locationHorizontalAccuracy,locationFloor,locationHeadingTimestamp_since1970,locationHeadingX,locationHeadingY,locationHeadingZ,locationTrueHeading,locationMagneticHeading,locationHeadingAccuracy,accelerometerTimestamp_sinceReboot,accelerometerAccelerationX,accelerometerAccelerationY,accelerometerAccelerationZ,gyroTimestamp_sinceReboot,gyroRotationX,gyroRotationY,gyroRotationZ,magnetometerTimestamp_sinceReboot,magnetometerX,magnetometerY,magnetometerZ,motionTimestamp_sinceReboot,motionYaw,motionRoll,motionPitch,motionRotationRateX,motionRotationRateY,motionRotationRateZ,motionUserAccelerationX,motionUserAccelerationY,motionUserAccelerationZ,motionAttitudeReferenceFrame,motionQuaternionX,motionQuaternionY,motionQuaternionZ,motionQuaternionW,motionGravityX,motionGravityY,motionGravityZ,motionMagneticFieldX,motionMagneticFieldY,motionMagneticFieldZ,motionMagneticFieldCalibrationAccuracy,activityTimestamp_sinceReboot,activity,activityActivityConfidence,activityActivityStartDate,pedometerStartDate,pedometerNumberofSteps,pedometerAverageActivePace,pedometerCurrentPace,pedometerCurrentCadence,pedometerDistance,pedometerFloorAscended,pedometerFloorDescended,pedometerEndDate,altimeterTimestamp_sinceReboot,altimeterReset,altimeterRelativeAltitude,altimeterPressure,IP_en0,IP_pdp_ip0,deviceOrientation,batteryState,batteryLevel,avAudioRecorderPeakPower,avAudioRecorderAveragePower,label
1561841759.161063,1,0,0,1561841758.999178,4.63470098097309,-74.15105852305344,2558.643,0.18,125.15625,3,10,-9999,1561841759.158029,-18.23804473876953,-19.78819274902344,14.0806884765625,137.6849365234375,145.1781463623047,15,169575.4568855,-0.927276611328125,0.268280029296875,-0.0867156982421875,169575.4568855,0.120995664121679,0.07830093078996472,-0.09529536065408736,169575.4279235,-92.890869140625,-46.32548522949219,-548.68505859375,169575.4518195,0.004914533898998813,-1.460985011053739,-0.2099810721028517,0.125915914773941,0.08492323756217957,-0.1091767698526382,0.03443044424057007,0.06472146511077881,0.01943033933639526,1,-0.0764273926615715,-0.6637522578239441,0.0717448815703392,0.7405704259872437,-0.9721440076828003,0.2084413915872574,-0.1071835905313492,0,0,0,-1,169573.259333875,1,2,1561841757.205832,1561841239.621676,42,1.91319,0,0,42.10339,0,0,1561841755.596066,169572.674332,0,-0.2695312,75.19551,0,182478453,3,1,0.99,-37.811,-47.12811,2
1561841759.175552,2,0,0,1561841758.999178,4.63470098097309,-74.15105852305344,2558.643,0.18,125.15625,3,10,-9999,1561841759.158029,-18.23804473876953,-19.78819274902344,14.0806884765625,137.6849365234375,145.1781463623047,15,169575.4771485,-0.92706298828125,0.268798828125,-0.08428955078125,169575.4771485,0.08365921090320415,0.04986689246340671,-0.0405197296694466,169575.4480345,-92.67619323730469,-46.13858032226562,-548.281494140625,169575.4720825,0.00695576275581137,-1.45926767718274,-0.2081856514388918,0.09068122506141663,0.0475873202085495,-0.05704726278781891,0.04744786024093628,0.06159496307373047,0.02149206399917603,1,-0.07514641433954239,-0.6632539629936218,0.07184071838855743,0.7411383986473083,-0.9723288416862488,0.2066850662231445,-0.1088943928480148,0,0,0,-1,169573.259333875,1,2,1561841757.205832,1561841239.621676,42,1.91319,0,0,42.10339,0,0,1561841755.596066,169572.674332,0,-0.2695312,75.19551,0,182478453,3,1,0.99,-37.811,-47.74928,2
1561841759.195448,3,0,0,1561841758.999178,4.63470098097309,-74.15105852305344,2558.643,0.18,125.15625,3,10,-9999,1561841759.17956,-18.29637908935547,-19.6591682434082,14.322021484375,137.5499114990234,145.0431213378906,15,169575.4974125,-0.9251251220703125,0.2682037353515625,-0.088104248046875,169575.4974125,0.06516515502925789,0.02522785869021162,-0.0003749730814831567,169575.4882575,-92.57914733886719,-46.19868469238281,-548.430908203125,169575.4923465,0.008489792418751252,-1.458224085123414,-0.2076103151596826,0.06553912162780762,0.02144652977585793,-0.007837639190256596,0.0498320460319519,0.06145599484443665,0.02697563171386719,1,-0.07446198165416718,-0.6629436016082764,0.07217969000339508,0.741452157497406,-0.9723326563835144,0.2061221152544022,-0.1099223867058754,0,0,0,-1,169573.259333875,1,2,1561841757.205832,1561841239.621676,42,1.91319,0,0,42.10339,0,0,1561841755.596066,169572.674332,0,-0.2695312,75.19551,0,182478453,3,1,0.99,-38.36828,-40.3919,2
1561841759.215958,4,0,0,1561841758.999178,4.63470098097309,-74.15105852305344,2558.643,0.18,125.15625,3,10,-9999,1561841759.203838,-18.26398468017578,-19.56328582763672,14.427490234375,137.4509735107422,144.9441833496094,15,169575.5176765,-0.9360809326171875,0.257415771484375,-0.0886993408203125,169575.5176765,0.04607588265167892,0.03550632891737244,0.02192766946738542,169575.5083685,-92.64993286132812,-46.23342895507812,-548.3485107421875,169575.5125795,0.009742496291523545,-1.457551030739875,-0.2077064181316049,0.05266274139285088,0.02881949208676815,0.01175097655504942,0.03933161497116089,0.05988186597824097,0.02192097902297974,1,-0.0741068422794342,-0.6627374291419983,0.0726509764790535,0.741625964641571,-0.9722387194633484,0.2062161564826965,-0.1105745509266853,0,0,0,-1,169573.259333875,1,2,1561841757.205832,1561841239.621676,42,1.91319,0,0,42.10339,0,0,1561841755.596066,169572.674332,0,-0.2695312,75.19551,0,182478453,3,1,0.99,-38.92556,-40.61992,2
1561841759.235749,5,0,0,1561841758.999178,4.63470098097309,-74.15105852305344,2558.643,0.18,125.15625,3,10,-9999,1561841759.230566,-18.34521484375,-19.63261795043945,14.37359619140625,137.3868865966797,144.8800964355469,15,169575.5379095,-0.946258544921875,0.2547149658203125,-0.097076416015625,169575.5379095,0.004027498516526832,0.04869829737707995,0.07015938102148349,169575.5284795,-92.74186706542969,-45.96754455566406,-548.4823608398438,169575.5328435,0.01050740004524722,-1.456768271598838,-0.2084617167662379,0.0133377043530345,0.03714506700634956,0.05437619984149933,0.03332191705703735,0.04655435681343079,0.01750677824020386,1,-0.07416234165430069,-0.6624507904052734,0.07315556704998016,0.7418268918991089,-0.9719968438148499,0.2069551646709442,-0.1113177910447121,0,0,0,-1,169573.259333875,1,2,1561841757.205832,1561841239.621676,42,1.91319,0,0,42.10339,0,0,1561841755.596066,169572.674332,0,-0.2695312,75.19551,0,182478453,3,1,0.99,-38.92556,-40.61992,2
1561841759.265584,6,0,0,1561841758.999178,4.63470098097309,-74.15105852305344,2558.643,0.18,125.15625,3,10,-9999,1561841759.254512,-18.30558013916016,-19.5694580078125,14.383056640625,137.3826141357422,144.8758239746094,15,169575.5581725,-0.9480438232421875,0.2579803466796875,-0.0992279052734375,169575.5581725,-0.009901100300696592,0.0621943988332745,0.1022904195732895,169575.5485595,-92.84391784667969,-46.01472473144531,-548.5343627929688,169575.5531075,0.01056799860024684,-1.455827048194728,-0.2102163483837786,-0.01486543752253056,0.05868764594197273,0.09451457113027573,0.02051013708114624,0.04503639042377472,0.01322227716445923,1,-0.07482840120792389,-0.6620463132858276,0.07372327148914337,0.7420648336410522,-0.9715293645858765,0.2086714953184128,-0.1121907755732536,0,0,0,-1,169573.259333875,1,2,1561841757.205832,1561841239.621676,42,1.91319,0,0,42.10339,0,0,1561841755.596066,169572.674332,0,-0.2695312,75.19551,0,182478453,3,1,0.99,-40.04012,-42.0904,2
1561841759.276641,7,0,0,1561841758.999178,4.63470098097309,-74.15105852305344,2558.643,0.18,125.15625,3,10,-9999,1561841759.254512,-18.30558013916016,-19.5694580078125,14.383056640625,137.3826141357422,144.8758239746094,15,169575.5784365,-0.9475250244140625,0.2610931396484375,-0.0974884033203125,169575.5784365,0.06136722099869588,0.04394535377961552,0.1265038802042899,169575.5686705,-93.00115966796875,-46.05386352539062,-548.5048828125,169575.5733705,0.01081480394128772,-1.454753418595763,-0.2125116217356031,0.03233776241540909,0.04409059137105942,0.118016429245472,0.02122300863265991,0.05106246471405029,0.01216483116149902,1,-0.07563915103673935,-0.6615812182426453,0.07453303039073944,0.7423164844512939,-0.9709300398826599,0.2109156847000122,-0.1131780222058296,0,0,0,-1,169573.259333875,1,2,1561841757.205832,1561841239.621676,42,1.91319,0,0,42.10339,0,0,1561841755.596066,169572.674332,0,-0.2695312,75.19551,0,182478453,3,1,0.99,-40.04012,-42.0904,2
1561841759.296665,8,0,0,1561841758.999178,4.63470098097309,-74.15105852305344,2558.643,0.18,125.15625,3,10,-9999,1561841759.280683,-18.55550384521484,-19.5148811340332,14.2752685546875,137.3269348144531,144.8201446533203,15,169575.5987005,-0.940185546875,0.2664794921875,-0.0894622802734375,169575.5987005,0.1510339906889008,-0.00781691043160058,0.1670252077703906,169575.5887825,-92.78849792480469,-46.08889770507812,-548.5012817382812,169575.5936345,0.01290129018171567,-1.453779373056559,-0.2151666561799994,0.1346665322780609,0.004512820858508348,0.1531951874494553,0.03105086088180542,0.04929187893867493,0.02097934484481812,1,-0.07597249001264572,-0.6612104177474976,0.07614734768867493,0.7424490451812744,-0.9702599048614502,0.2135102450847626,-0.1140579283237457,0,0,0,-1,169573.259333875,1,2,1561841757.205832,1561841239.621676,42,1.91319,0,0,42.10339,0,0,1561841755.596066,169572.674332,0,-0.2695312,75.19551,0,182478453,3,1,0.99,-40.59739,-42.31033,2
1561841759.316919,9,0,0,1561841758.999178,4.63470098097309,-74.15105852305344,2558.643,0.18,125.15625,3,10,-9999,1561841759.305652,-18.47195434570312,-19.61705017089844,14.4034423828125,137.1048736572266,144.5980834960938,15,169575.6189635,-0.9503326416015625,0.25897216796875,-0.0880584716796875,169575.6189635,0.1509160126526103,-0.0613978473512318,0.1656755177299384,169575.6088935,-92.69447326660156,-46.09126281738281,-548.7694702148438,169575.6138985,0.01641041874521898,-1.453662500769982,-0.2182850631428851,0.1536889523267746,-0.05855083093047142,0.1681509613990784,0.02593141794204712,0.04871834814548492,0.02678215503692627,1,-0.07597597688436508,-0.661196768283844,0.07847447693347931,0.742218554019928,-0.9695806503295898,0.2165556997060776,-0.1140929684042931,0,0,0,-1,169573.259333875,1,2,1561841757.205832,1561841239.621676,42,1.91319,0,0,42.10339,0,0,1561841755.596066,169572.674332,0,-0.2695312,75.19551,0,182478453,3,1,0.99,-41.15467,-41.1713,2
1561841759.345932,10,0,0,1561841758.999178,4.63470098097309,-74.15105852305344,2558.643,0.18,125.15625,3,10,-9999,1561841759.331422,-18.45026397705078,-19.32072830200195,14.28021240234375,136.8658447265625,144.3590545654297,15,169575.6392275,-0.961456298828125,0.236114501953125,-0.089935302734375,169575.6392275,0.1066572048126924,-0.03166338746438809,0.1163630954054862,169575.6290045,-92.91529846191406,-45.74723815917969,-548.4591674804688,169575.6341615,0.01963733702641151,-1.454291514346681,-0.221063580547803,0.1182875484228134,-0.0535544753074646,0.1241132095456123,0.0116686224937439,0.02603285014629364,0.02399617433547974,1,-0.07591657340526581,-0.6614607572555542,0.08061224222183228,0.7417601346969604,-0.9690508246421814,0.2192674428224564,-0.1134126782417297,0,0,0,-1,169573.259333875,1,2,1561841757.205832,1561841239.621676,42,1.91319,0,0,42.10339,0,0,1561841755.596066,169572.674332,0,-0.2695312,75.19551,0,182478453,3,1,0.99,-41.71195,-41.71785,2
1561841759.358906,11,0,0,1561841758.999178,4.63470098097309,-74.15105852305344,2558.643,0.18,125.15625,3,10,-9999,1561841759.355798,-18.51786041259766,-19.1830940246582,14.53369140625,136.7239074707031,144.2171173095703,15,169575.6594915,-0.9650421142578125,0.2233428955078125,-0.0953216552734375,169575.6594915,0.04481460955941739,0.01398585678066013,0.1317543022933811,169575.6491155,-93.18643188476562,-45.87286376953125,-548.198486328125,169575.6544255,0.02169829585092935,-1.454317969806526,-0.2232293617167411,0.0567067489027977,0.003406277392059565,0.1167213395237923,0.00370556116104126,0.00838683545589447,0.01996302604675293,1,-0.076038658618927,-0.6614773869514465,0.08209197223186493,0.7415704131126404,-0.9685797691345215,0.2213800102472305,-0.1133315786719322,0,0,0,-1,169573.259333875,1,2,1561841757.205832,1561841239.621676,42,1.91319,0,0,42.10339,0,0,1561841755.596066,169572.674332,0,-0.2695312,75.19551,0,182478453,3,1,0.99,-38.30785,-41.83896,2
1561841759.377804,12,0,0,1561841758.999178,4.63470098097309,-74.15105852305344,2558.643,0.18,125.15625,3,10,-9999,1561841759.355798,-18.51786041259766,-19.1830940246582,14.53369140625,136.7239074707031,144.2171173095703,15,169575.6797545,-0.9650115966796875,0.23095703125,-0.0929412841796875,169575.6797545,0.03519900012757729,0.01837794205041881,0.1688971437006073,169575.6692265,-93.27561950683594,-45.83306884765625,-548.6163330078125,169575.6746585,0.02278552683859274,-1.453888395976626,-0.2260467422193204,0.02976807579398155,0.01704112812876701,0.1559952348470688,0.00326240062713623,0.0001928508281707764,0.01690322160720825,1,-0.07674385607242584,-0.6612663269042969,0.08340772241353989,0.7415392398834229,-0.9679077863693237,0.2241265922784805,-0.1136744543910027,0,0,0,-1,169573.259333875,1,2,1561841757.205832,1561841239.621676,42,1.91319,0,0,42.10339,0,0,1561841755.596066,169572.674332,0,-0.2695312,75.19551,0,182478453,3,1,0.99,-38.30785,-40.53118,2
1561841759.397951,13,0,0,1561841758.999178,4.63470098097309,-74.15105852305344,2558.643,0.18,125.15625,3,10,-9999,1561841759.382003,-19.04442596435547,-19.15431213378906,14.41558837890625,136.6482391357422,144.1414489746094,15,169575.6999885,-0.9557342529296875,0.244293212890625,-0.088165283203125,169575.6999885,0.08844890612371166,-0.06623228367805264,0.1805292987098554,169575.6893375,-93.12979125976562,-45.889892578125,-548.3588256835938,169575.6949225,0.02407306385014132,-1.453738750681171,-0.2295376825959234,0.06862838566303253,-0.03876381367444992,0.1780440807342529,0.004552781581878662,0.01017406582832336,0.02487528324127197,1,-0.07762177288532257,-0.6611438989639282,0.08502992242574692,0.7413727045059204,-0.9671077132225037,0.2275273501873016,-0.1137272119522095,0,0,0,-1,169573.259333875,1,2,1561841757.205832,1561841239.621676,42,1.91319,0,0,42.10339,0,0,1561841755.596066,169572.674332,0,-0.2695312,75.19551,0,182478453,3,1,0.99,-38.30785,-40.53118,2
1561841759.4261,14,0,0,1561841758.999178,4.63470098097309,-74.15105852305344,2558.643,0.18,125.15625,3,10,-9999,1561841759.406529,-18.83010101318359,-19.21581649780273,14.49615478515625,136.5053253173828,143.99853515625,15,169575.7202515,-0.958160400390625,0.2402496337890625,-0.0916748046875,169575.7202515,0.1741030909994942,-0.1741819205677605,0.1418828365511705,169575.7094185,-92.90335083007812,-45.46922302246094,-548.27734375,169575.7151855,0.02673369757070466,-1.455325577764556,-0.2328046502123216,0.1549999713897705,-0.165248230099678,0.1533721834421158,0.01291477680206299,0.01341794431209564,0.02241498231887817,1,-0.07788710296154022,-0.6617254018783569,0.08715422451496124,0.7405788898468018,-0.9665433764457703,0.2307074218988419,-0.1121061816811562,0,0,0,-1,169573.259333875,1,2,1561841757.205832,1561841239.621676,42,1.91319,0,0,42.10339,0,0,1561841755.596066,169572.674332,0,-0.2695312,75.19551,0,182478453,3,1,0.99,-38.30785,-41.61136,2
1561841759.438965,15,0,0,1561841758.999178,4.63470098097309,-74.15105852305344,2558.643,0.18,125.15625,3,10,-9999,1561841759.43268,-18.68891906738281,-19.1294059753418,14.647216796875,136.2296752929688,143.7228851318359,15,169575.7405155,-0.970855712890625,0.2300262451171875,-0.095977783203125,169575.7405155,0.1830254795995866,-0.1307175336810133,0.1205655636056312,169575.7295295,-93.69476318359375,-45.7637939453125,-548.189697265625,169575.7354495,0.03074513107926186,-1.457982786758554,-0.2350250583100778,0.1902298629283905,-0.1574086844921112,0.1169268190860748,0.002230405807495117,0.0009888410568237305,0.01788103580474854,1,-0.07726549357175827,-0.6627897620201111,0.08947397768497467,0.7394146919250488,-0.9663264751434326,0.2328673601150513,-0.109479546546936,0,0,0,-1,169573.259333875,1,2,1561841757.205832,1561841239.621676,42,1.91319,0,0,42.10339,0,0,1561841755.596066,169572.674332,0,-0.2695312,75.19551,0,182478453,3,1,0.99,-38.30785,-41.61136,2
1561841759.458777,16,0,0,1561841758.999178,4.63470098097309,-74.15105852305344,2558.643,0.18,125.15625,3,10,-9999,1561841759.457106,-18.91477966308594,-19.20827484130859,14.54486083984375,135.9719543457031,143.4651641845703,15,169575.7607795,-0.9769134521484375,0.2288665771484375,-0.09698486328125,169575.7607795,0.11373402277736,-0.03650767748724223,0.1588149484457853,169575.7496405,-93.12091064453125,-45.37562561035156,-547.9693603515625,169575.7557135,0.03445302106780686,-1.45935351989662,-0.2371315753221469,0.1323540508747101,-0.05636196210980415,0.143361896276474,-0.01097315549850464,-0.005072295665740967,0.00951308012008667,1,-0.07675524055957794,-0.6633691191673279,0.09159228950738907,0.7386886477470398,-0.9659860730171204,0.2349154353141785,-0.1081000864505768,0,0,0,-1,169573.259333875,1,2,1561841757.205832,1561841239.621676,42,1.91319,0,0,42.10339,0,0,1561841755.596066,169572.674332,0,-0.2695312,75.19551,0,182478453,3,1,0.99,-38.30785,-42.05861,2
1561841759.479019,17,0,0,1561841758.999178,4.63470098097309,-74.15105852305344,2558.643,0.18,125.15625,3,10,-9999,1561841759.457106,-18.91477966308594,-19.20827484130859,14.54486083984375,135.9719543457031,143.4651641845703,15,169575.7810425,-0.9682769775390625,0.224273681640625,-0.1011505126953125,169575.7810425,0.07527105241778158,-0.04160896255528901,0.2176439106095266,169575.7697515,-93.25361633300781,-45.68450927734375,-547.7959594726562,169575.7759765,0.03689402659305031,-1.459661318819694,-0.2403886263273034,0.07638397812843323,-0.04102082550525665,0.2042334973812103,-0.005418777465820312,-0.01450832188129425,0.009527027606964111,1,-0.07713856548070908,-0.6634688973426819,0.0935807079076767,0.7383098006248474,-0.9652538299560547,0.2380800992250443,-0.107717327773571,0,0,0,-1,169573.259333875,1,2,1561841757.205832,1561841239.621676,42,1.91319,0,0,42.10339,0,0,1561841755.596066,169572.674332,0,-0.2695312,75.19551,0,182478453,3,1,0.99,-38.30785,-42.79121,2
1561841759.504306,18,0,0,1561841758.999178,4.63470098097309,-74.15105852305344,2558.643,0.18,125.15625,3,10,-9999,1561841759.484095,-19.05844116210938,-18.72285079956055,14.97430419921875,135.8113555908203,143.3045654296875,15,169575.8013065,-0.966583251953125,0.23272705078125,-0.099273681640625,169575.8013065,0.08494764823858449,-0.0566422405926773,0.2205946930973345,169575.7898625,-93.16035461425781,-45.28616333007812,-548.0355834960938,169575.7962405,0.03891349779035112,-1.460185267766398,-0.2446684623972452,0.07579142600297928,-0.0526103675365448,0.2249156087636948,-0.001485943794250488,-0.01440569758415222,0.007320880889892578,1,-0.07802971452474594,-0.6635980010032654,0.09575887769460678,0.7378206849098206,-0.964288592338562,0.2422346770763397,-0.1070981100201607,0,0,0,-1,169573.259333875,1,2,1561841757.205832,1561841239.621676,42,1.91319,0,0,42.10339,0,0,1561841755.596066,169572.674332,0,-0.2695312,75.19551,0,182478453,3,1,0.99,-38.30785,-43.19308,2
1561841759.519579,19,0,0,1561841758.999178,4.63470098097309,-74.15105852305344,2558.643,0.18,125.15625,3,10,-9999,1561841759.510192,-18.88980865478516,-18.57680892944336,14.99444580078125,135.6537933349609,143.1470031738281,15,169575.8215705,-0.9852294921875,0.2380523681640625,-0.101715087890625,169575.8215705,0.1532287017432351,-0.0969198889190357,0.1286815470276477,169575.8099735,-93.33274841308594,-45.13114929199219,-548.0950927734375,169575.8165045,0.04137487810296325,-1.461107110489758,-0.2483930768359977,0.132511705160141,-0.08912070840597153,0.1500379145145416,-0.01112598180770874,-0.007168680429458618,0.0047149658203125,1,-0.07854780554771423,-0.6639091968536377,0.0979318767786026,0.7372002601623535,-0.9634833931922913,0.2458466738462448,-0.1061096414923668,0,0,0,-1,169573.259333875,1,2,1561841757.205832,1561841239.621676,42,1.91319,0,0,42.10339,0,0,1561841755.596066,169572.674332,0,-0.2695312,75.19551,0,182478453,3,1,0.99,-38.30785,-43.83348,2
1561841759.53985,20,0,0,1561841758.999178,4.63470098097309,-74.15105852305344,2558.643,0.18,125.15625,3,10,-9999,1561841759.533988,-19.08512115478516,-18.37944030761719,14.96575927734375,135.4032440185547,142.8964538574219,15,169575.8418335,-0.978302001953125,0.221893310546875,-0.1044464111328125,169575.8418335,0.204178968138086,-0.09984909980201385,0.05991473294016667,169575.8300845,-93.42672729492188,-45.22572326660156,-547.71630859375,169575.8367375,0.04509829315957389,-1.462350721805727,-0.250042476262296,0.1967380940914154,-0.1098425015807152,0.06612835079431534,-0.02169883251190186,-0.02106571197509766,0.003289580345153809,1,-0.07786042988300323,-0.6644577383995056,0.09989676624536514,0.7365150451660156,-0.9632102251052856,0.2474451214075089,-0.1048673316836357,0,0,0,-1,169573.259333875,1,2,1561841757.205832,1561841239.621676,42,1.91319,0,0,42.10339,0,0,1561841755.596066,169572.674332,0,-0.2695312,75.19551,0,182478453,3,1,0.99,-38.30785,-44.60165,2
1561841759.560579,21,0,0,1561841758.999178,4.63470098097309,-74.15105852305344,2558.643,0.18,125.15625,3,10,-9999,1561841759.558473,-18.8370361328125,-18.37712860107422,14.9752197265625,135.0909576416016,142.5841674804688,15,169575.8620665,-0.9701995849609375,0.2285919189453125,-0.1020050048828125,169575.8620665,0.2044628611102885,-0.05071484295448794,0.07049147720941637,169575.8501955,-93.34727478027344,-44.77890014648438,-547.8054809570312,169575.8570015,0.04944072339283268,-1.463202581669912,-0.2506747892751686,0.2023650854825974,-0.06839252263307571,0.06063185632228851,-0.01023000478744507,-0.02267013490200043,-0.001377761363983154,1,-0.0766083225607872,-0.6649181842803955,0.1017369776964188,0.7359786629676819,-0.9631434082984924,0.2480577081441879,-0.1040299460291862,0,0,0,-1,169573.259333875,1,2,1561841757.205832,1561841239.621676,42,1.91319,0,0,42.10339,0,0,1561841755.596066,169572.674332,0,-0.2695312,75.19551,0,182478453,3,1,0.99,-38.30785,-44.60165,2
1561841759.584649,22,0,0,1561841758.999178,4.63470098097309,-74.15105852305344,2558.643,0.18,125.15625,3,10,-9999,1561841759.558473,-18.8370361328125,-18.37712860107422,14.9752197265625,135.0909576416016,142.5841674804688,15,169575.8823305,-0.96258544921875,0.2404632568359375,-0.0968170166015625,169575.8823305,0.1910253491980757,-0.03628397195567557,0.1180637900776108,169575.8703065,-93.3907470703125,-44.50921630859375,-547.67041015625,169575.8772645,0.05377769708176219,-1.463158983389104,-0.2517617767033599,0.1954192966222763,-0.04114972054958344,0.1034112796187401,-0.00269085168838501,-0.01414048671722412,0.004937052726745605,1,-0.07557084411382675,-0.6650320291519165,0.1036897972226143,0.7357103824615479,-0.9628700613975525,0.2491105794906616,-0.1040428951382637,0,0,0,-1,169573.259333875,1,2,1561841757.205832,1561841239.621676,42,1.91319,0,0,42.10339,0,0,1561841755.596066,169572.674332,0,-0.2695312,75.19551,0,182478453,3,1,0.99,-38.30785,-45.367,2
1561841759.600605,23,0,0,1561841758.999178,4.63470098097309,-74.15105852305344,2558.643,0.18,125.15625,3,10,-9999,1561841759.584716,-19.08446502685547,-18.36922836303711,15.34881591796875,134.7832794189453,142.2764892578125,15,169575.9025945,-0.966705322265625,0.24517822265625,-0.0938873291015625,169575.9025945,0.1482400683892987,-0.06315073998072195,0.118809208866724,169575.8904175,-93.46434020996094,-44.9642333984375,-547.6611328125,169575.8975285,0.05777820405319894,-1.463175394251657,-0.2537326653577347,0.1597622334957123,-0.06310481578111649,0.1232848539948463,-0.001393795013427734,-0.00532183051109314,0.00952225923538208,1,-0.07496912777423859,-0.6651259660720825,0.1058119386434555,0.7353848218917847,-0.9623818397521973,0.2510188519954681,-0.1039741560816765,0,0,0,-1,169573.259333875,1,2,1561841757.205832,1561841239.621676,42,1.91319,0,0,42.10339,0,0,1561841755.596066,169572.674332,0,-0.2695312,75.19551,0,182478453,3,1,0.99,-37.0904,-38.82019,2
1561841759.620815,24,0,0,1561841758.999178,4.63470098097309,-74.15105852305344,2558.643,0.18,125.15625,3,10,-9999,1561841759.609892,-19.07157135009766,-18.15956115722656,15.25421142578125,134.5367279052734,142.0299377441406,15,169575.9228575,-0.975494384765625,0.2301788330078125,-0.1001434326171875,169575.9228575,0.06438591409430071,-0.06780621188228947,0.04887539758957021,169575.9105285,-93.6270751953125,-44.62295532226562,-547.5978393554688,169575.9177925,0.06061468305725263,-1.463958138920085,-0.2553809915972316,0.08095689117908478,-0.0778542086482048,0.06679707020521164,-0.008530795574188232,-0.01358515024185181,0.008175373077392578,1,-0.07459385693073273,-0.6654678583145142,0.1074275001883507,0.7348793148994446,-0.9620502591133118,0.2526140511035919,-0.1031765714287758,0,0,0,-1,169573.259333875,1,2,1561841757.205832,1561841239.621676,42,1.91319,0,0,42.10339,0,0,1561841755.596066,169572.674332,0,-0.2695312,75.19551,0,182478453,3,1,0.99,-37.0904,-39.38799,2
1561841759.64243,25,0,0,1561841758.999178,4.63470098097309,-74.15105852305344,2558.643,0.18,125.15625,3,10,-9999,1561841759.635291,-19.04087066650391,-18.10673522949219,15.3194580078125,134.4414978027344,141.9347076416016,15,169575.9431215,-0.9780120849609375,0.2193145751953125,-0.1094970703125,169575.9431215,0.02444675354249138,0.004820055256934413,-0.03127270173247347,169575.9306095,-93.67573547363281,-44.61834716796875,-546.9498291015625,169575.9380555,0.06163997930821816,-1.46491630890931,-0.2556332051036579,0.02392556704580784,-0.02811088413000107,-0.01807200908660889,-0.0143856406211853,-0.03101053833961487,-0.005738496780395508,1,-0.0742943286895752,-0.6658501029014587,0.1079230085015297,0.7344907522201538,-0.9620853662490845,0.2528580725193024,-0.1022479832172394,0,0,0,-1,169573.259333875,1,2,1561841757.205832,1561841239.621676,42,1.91319,0,0,42.10339,0,0,1561841755.596066,169572.674332,0,-0.2695312,75.19551,0,182478453,3,1,0.99,-37.0904,-39.74347,2
1561841759.665993,26,0,0,1561841758.999178,4.63470098097309,-74.15105852305344,2558.643,0.18,125.15625,3,10,-9999,1561841759.659802,-19.17522430419922,-18.03470230102539,15.731201171875,134.3942565917969,141.8874664306641,15,169575.9633855,-0.97076416015625,0.234344482421875,-0.101654052734375,169575.9633855,0.06409403163882801,0.0446470967268514,-0.03737213957708195,169575.9507205,-93.52351379394531,-44.64190673828125,-547.3709716796875,169575.9583195,0.06220413784888292,-1.46450108182293,-0.2546800153481422,0.05003439635038376,0.04013661295175552,-0.04511081799864769,-0.01441770792007446,-0.02667024731636047,-0.003268778324127197,1,-0.07377631217241287,-0.665748119354248,0.1078003123402596,0.7346534729003906,-0.962282121181488,0.251935750246048,-0.1026729941368103,0,0,0,-1,169573.259333875,1,2,1561841757.205832,1561841239.621676,42,1.91319,0,0,42.10339,0,0,1561841755.596066,169572.674332,0,-0.2695312,75.19551,0,182478453,3,1,0.99,-37.0904,-39.37495,2
1561841759.681607,27,0,0,1561841758.999178,4.63470098097309,-74.15105852305344,2558.643,0.18,125.15625,3,10,-9999,1561841759.659802,-19.17522430419922,-18.03470230102539,15.731201171875,134.3942565917969,141.8874664306641,15,169575.9836495,-0.9587554931640625,0.2447509765625,-0.0928192138671875,169575.9836495,0.09407376866206801,0.008251272005392503,-0.02348561870508178,169575.9708315,-93.47993469238281,-44.74540710449219,-547.2757568359375,169575.9785835,0.06364593164174925,-1.463510837212916,-0.2537705597732559,0.09307640790939331,0.01934931054711342,-0.02778295986354351,-0.003825128078460693,-0.009524166584014893,0.005353152751922607,1,-0.07301333546638489,-0.6654651761054993,0.1079937443137169,0.7349573969841003,-0.962407112121582,0.2510555386543274,-0.10365030169487,0,0,0,-1,169573.259333875,1,2,1561841757.205832,1561841239.621676,42,1.91319,0,0,42.10339,0,0,1561841755.596066,169572.674332,0,-0.2695312,75.19551,0,182478453,3,1,0.99,-37.0904,-39.75862,2
1561841759.70197,28,0,0,1561841758.999178,4.63470098097309,-74.15105852305344,2558.643,0.18,125.15625,3,10,-9999,1561841759.68588,-18.90389251708984,-18.14531707763672,15.4073486328125,134.2754821777344,141.7686920166016,15,169576.0039125,-0.953643798828125,0.2402801513671875,-0.1004180908203125,169576.0039125,0.04406226655147,-0.01102761744180011,0.003176618548246515,169575.9909425,-93.39483642578125,-44.59942626953125,-547.550537109375,169575.9988165,0.06527047115341975,-1.463283978174111,-0.2531333649883475,0.05752480402588844,-0.02186204120516777,-0.009650295600295067,0.00984489917755127,-0.006237030029296875,0.009540736675262451,1,-0.07224918156862259,-0.6654601097106934,0.1083723977208138,0.734981894493103,-0.9625426530838013,0.2504386901855469,-0.1038857996463776,0,0,0,-1,169573.259333875,1,2,1561841757.205832,1561841239.621676,42,1.91319,0,0,42.10339,0,0,1561841755.596066,169572.674332,0,-0.2695312,75.19551,0,182478453,3,1,0.99,-37.0904,-40.32716,2
1561841759.722183,29,0,0,1561841758.999178,4.63470098097309,-74.15105852305344,2558.643,0.18,125.15625,3,10,-9999,1561841759.710382,-19.00741577148438,-18.07453536987305,15.40472412109375,134.1999969482422,141.6932067871094,15,169576.0241455,-0.9622802734375,0.24285888671875,-0.1049346923828125,169576.0241455,-0.003970506869199137,0.05503821866812258,0.01423406339425551,169576.0110535,-93.37190246582031,-44.34800720214844,-547.2039794921875,169576.0190795,0.06585485975104494,-1.463112352046893,-0.2530650502920412,0.004543345421552658,0.03719062358140945,0.01040943339467049,0.003999769687652588,-0.01058068871498108,-4.26173210144043e-05,1,-0.07203875482082367,-0.6654201745986938,0.1085584610700607,0.7350111603736877,-0.9625416994094849,0.2503725588321686,-0.1040528193116188,0,0,0,-1,169573.259333875,1,2,1561841757.205832,1561841239.621676,42,1.91319,0,0,42.10339,0,0,1561841755.596066,169572.674332,0,-0.2695312,75.19551,0,182478453,3,1,0.99,-37.0904,-40.32716,2
1561841759.746089,30,0,0,1561841758.999178,4.63470098097309,-74.15105852305344,2558.643,0.18,125.15625,3,10,-9999,1561841759.736747,-18.81322479248047,-18.00115203857422,15.46722412109375,134.2028656005859,141.6960754394531,15,169576.0444095,-0.974151611328125,0.24932861328125,-0.1023712158203125,169576.0444095,-0.001520398666326237,0.06598141390336718,-0.01939367169017503,169576.0311345,-93.34579467773438,-44.59063720703125,-547.1807861328125,169576.0393435,0.06571005238377081,-1.462059697131336,-0.2530797634786958,-0.008508540689945221,0.05762931704521179,-0.009751229546964169,-0.006108343601226807,-0.004613488912582397,0.001260042190551758,1,-0.07214948534965515,-0.6650275588035583,0.1084721237421036,0.7353683710098267,-0.9624280333518982,0.2503868043422699,-0.1050655990839005,0,0,0,-1,169573.259333875,1,2,1561841757.205832,1561841239.621676,42,1.91319,0,0,42.10339,0,0,1561841755.596066,169573.618546,0,-0.3037109,75.19583,0,182478453,3,1,0.99,-37.0904,-40.6685,2
1561841759.762653,31,0,0,1561841758.999178,4.63470098097309,-74.15105852305344,2558.643,0.18,125.15625,3,10,-9999,1561841759.76102,-19.12831115722656,-18.09872055053711,15.5645751953125,134.1941833496094,141.6873931884766,15,169576.06468425,-0.9775390625,0.2346649169921875,-0.0851593017578125,169576.06468425,0.03556358688080914,0.09199570406347919,-0.06330733385281861,169576.0512455,-93.62864685058594,-44.6124267578125,-547.2651977539062,169576.0596075,0.0657541804893351,-1.460740281285497,-0.2522838374115253,0.02685051597654819,0.07747839391231537,-0.06191323697566986,-0.01618188619613647,-0.004666805267333984,0.01132547855377197,1,-0.07191133499145508,-0.6645676493644714,0.1081787273287773,0.7358505129814148,-0.9624863266944885,0.2496161460876465,-0.1063572019338608,0,0,0,-1,169573.259333875,1,2,1561841757.205832,1561841239.621676,42,1.91319,0,0,42.10339,0,0,1561841755.596066,169573.618546,0,-0.3037109,75.19583,0,182478453,3,1,0.99,-37.0904,-38.89431,2
1561841759.783018,32,0,0,1561841758.999178,4.63470098097309,-74.15105852305344,2558.643,0.18,125.15625,3,10,-9999,1561841759.76102,-19.12831115722656,-18.09872055053711,15.5645751953125,134.1941833496094,141.6873931884766,15,169576.08494725,-0.9709625244140625,0.2266082763671875,-0.066009521484375,169576.08494725,-0.01327798856291707,0.118742629839472,-0.07624390516398752,169576.07136725,-93.27731323242188,-44.78800964355469,-547.3939208984375,169576.07988125,0.06622634966199395,-1.458713846418181,-0.2508257281408286,0.01379410270601511,0.1128193363547325,-0.07499228417873383,-0.01100337505340576,-0.02032917737960815,0.03448021411895752,1,-0.07132317125797272,-0.663881778717041,0.1078002229332924,0.7365819811820984,-0.9626293778419495,0.2482039332389832,-0.108347974717617,0,0,0,-1,169573.259333875,1,2,1561841757.205832,1561841239.621676,42,1.91319,0,0,42.10339,0,0,1561841755.596066,169573.618546,0,-0.3037109,75.19583,0,182478453,3,1,0.99,-37.0904,-39.49484,2
1561841759.803194,33,0,0,1561841758.999178,4.63470098097309,-74.15105852305344,2558.643,0.18,125.15625,3,10,-9999,1561841759.787681,-19.20280456542969,-18.13333892822266,15.44061279296875,134.1842651367188,141.6774749755859,15,169576.10521125,-0.9639892578125,0.221588134765625,-0.058990478515625,169576.10521125,-0.1789287388947177,0.1262170577548884,-0.1045168222445957,169576.09144825,-93.68557739257812,-44.85090637207031,-547.5098876953125,169576.10014525,0.06492091899221288,-1.456777335042174,-0.249216746595142,-0.1340773701667786,0.1135407909750938,-0.09822490066289902,-0.004166603088378906,-0.02218818664550781,0.04848963022232056,1,-0.07126284390687943,-0.6631689071655273,0.1067212522029877,0.7373867034912109,-0.9628133773803711,0.2466449737548828,-0.1102572157979012,0,0,0,-1,169573.259333875,1,2,1561841757.205832,1561841239.621676,42,1.91319,0,0,42.10339,0,0,1561841755.596066,169573.618546,0,-0.3037109,75.19583,0,182478453,3,1,0.99,-37.0904,-40.07632,2
1561841759.825473,34,0,0,1561841758.999178,4.63470098097309,-74.15105852305344,2558.643,0.18,125.15625,3,10,-9999,1561841759.811719,-19.04625701904297,-18.13325119018555,15.44537353515625,134.4226684570312,141.9158782958984,15,169576.12547525,-0.966766357421875,0.2407073974609375,-0.0617218017578125,169576.12547525,-0.3131270241204646,0.1146163280465032,-0.1349546229753294,169576.11155925,-93.65037536621094,-44.81077575683594,-547.451416015625,169576.12040925,0.06001353076096732,-1.45556624641799,-0.2473741922776833,-0.2980631291866302,0.1195622012019157,-0.1330244243144989,0.0002839565277099609,-0.01590079069137573,0.05373597145080566,1,-0.07226880639791489,-0.6626006364822388,0.1042621657252312,0.738150954246521,-0.9631288051605225,0.2448589354753494,-0.1114752292633057,0,0,0,-1,169573.259333875,1,2,1561841757.205832,1561841239.621676,42,1.91319,0,0,42.10339,0,0,1561841755.596066,169573.618546,0,-0.3037109,75.19583,0,182478453,3,1,0.99,-37.0904,-40.82305,2
1561841759.843838,35,0,0,1561841758.999178,4.63470098097309,-74.15105852305344,2558.643,0.18,125.15625,3,10,-9999,1561841759.837871,-19.20018768310547,-18.18341827392578,15.2508544921875,134.8966979980469,142.3899078369141,15,169576.14573825,-0.9667205810546875,0.2526702880859375,-0.0746917724609375,169576.14573825,-0.2700173702909159,0.0716624691407242,-0.1266855077906333,169576.13167025,-93.56150817871094,-44.82359313964844,-547.4310302734375,169576.14067225,0.05324481054704454,-1.455247091736391,-0.2453339278319198,-0.2937511801719666,0.07770156115293503,-0.1335836797952652,-0.004796326160430908,0.004541009664535522,0.04340434074401855,1,-0.07376913726329803,-0.6622976064682007,0.1010808870196342,0.7387168407440186,-0.9635874629020691,0.2428802698850632,-0.1118399873375893,0,0,0,-1,169573.259333875,1,2,1561841757.205832,1561841239.621676,42,1.91319,0,0,42.10339,0,0,1561841755.596066,169573.618546,0,-0.3037109,75.19583,0,182478453,3,1,0.99,-37.0904,-41.08408,2
1561841759.863941,36,0,0,1561841758.999178,4.63470098097309,-74.15105852305344,2558.643,0.18,125.15625,3,10,-9999,1561841759.837871,-19.20018768310547,-18.18341827392578,15.2508544921875,134.8966979980469,142.3899078369141,15,169576.16600225,-0.9698486328125,0.260894775390625,-0.094207763671875,169576.16600225,-0.1660944329694079,0.002694852707051181,-0.09696409739313101,169576.15178125,-93.47212219238281,-45.05140686035156,-548.025634765625,169576.16090625,0.04779719053323536,-1.455703442628347,-0.243428524232875,-0.1986305415630341,0.01689786836504936,-0.1072199940681458,-0.002380013465881348,0.01789490878582001,0.02701109647750854,1,-0.07484259456396103,-0.6623231768608093,0.09845880419015884,0.7389400601387024,-0.9640964269638062,0.2410314828157425,-0.1114531904459,0,0,0,-1,169573.259333875,1,2,1561841757.205832,1561841239.621676,42,1.91319,0,0,42.10339,0,0,1561841755.596066,169573.618546,0,-0.3037109,75.19583,0,182478453,3,1,0.99,-37.0904,-41.08408,2
1561841759.884243,37,0,0,1561841758.999178,4.63470098097309,-74.15105852305344,2558.643,0.18,125.15625,3,10,-9999,1561841759.862964,-19.21856689453125,-18.39633941650391,14.9771728515625,135.2733154296875,142.7665252685547,15,169576.18623525,-0.969573974609375,0.25665283203125,-0.1089019775390625,169576.18623525,-0.03546931097822034,-0.02615623664621324,-0.06975884159353557,169576.17189225,-93.10548400878906,-45.185302734375,-547.703125,169576.18116925,0.04475080246686264,-1.456861066598532,-0.2417825469326722,-0.06948640942573547,-0.03034394606947899,-0.08179692924022675,-0.005520939826965332,0.02027088403701782,0.008682191371917725,1,-0.07518405467271805,-0.6626887321472168,0.09683499485254288,0.7387921810150146,-0.9646176099777222,0.2394337058067322,-0.110382005572319,0,0,0,-1,169576.17668325,1,2,1561841760.123182,1561841239.621676,42,1.91319,0,0,42.10339,0,0,1561841755.596066,169573.618546,0,-0.3037109,75.19583,0,182478453,3,1,0.99,-37.0904,-40.91537,2
1561841759.904513,38,0,0,1561841758.999178,4.63470098097309,-74.15105852305344,2558.643,0.18,125.15625,3,10,-9999,1561841759.888478,-18.86142730712891,-18.43770599365234,15.04150390625,135.4260406494141,142.9192504882812,15,169576.20649925,-0.9711151123046875,0.25341796875,-0.1161651611328125,169576.20649925,0.06860569284153126,-0.03284902678169137,-0.0347087121708937,169576.19200325,-93.38923645019531,-45.01850891113281,-547.9473266601562,169576.20143325,0.0443199435133798,-1.457828925769035,-0.2404798202477416,0.04138604924082756,-0.03571980074048042,-0.04550177231431007,-0.004586577415466309,0.01578336954116821,-0.003095924854278564,1,-0.07479666173458099,-0.6630714535713196,0.09628297388553619,0.7385602593421936,-0.9650331735610962,0.2381686717271805,-0.1094834133982658,0,0,0,-1,169576.17668325,1,2,1561841760.123182,1561841239.621676,42,1.91319,0,0,42.10339,0,0,1561841755.596066,169573.618546,0,-0.3037109,75.19583,0,182478453,3,1,0.99,-37.0904,-41.28279,2
1561841759.925507,39,0,0,1561841758.999178,4.63470098097309,-74.15105852305344,2558.643,0.18,125.15625,3,10,-9999,1561841759.913011,-18.95587158203125,-18.49317932128906,14.968505859375,135.3665924072266,142.8598022460938,15,169576.22676325,-0.9637298583984375,0.244873046875,-0.115631103515625,169576.22676325,0.1442887362799481,-0.0569178777655005,-0.03560539850992338,169576.21208425,-93.45669555664062,-45.36976623535156,-547.7903442382812,169576.22169725,0.04597898058894506,-1.458486139847196,-0.239550418796719,0.1245709434151649,-0.05591881275177002,-0.03752773627638817,-0.002708494663238525,0.01148286461830139,-0.008283078670501709,1,-0.0738699734210968,-0.6634050607681274,0.09661362320184708,0.7383106350898743,-0.965324342250824,0.2372658997774124,-0.1088739037513733,0,0,0,-1,169576.17668325,1,2,1561841760.123182,1561841239.621676,42,1.91319,0,0,42.10339,0,0,1561841755.596066,169573.618546,0,-0.3037109,75.19583,0,182478453,3,1,0.99,-37.0904,-41.91226,2
1561841759.945156,40,0,0,1561841758.999178,4.63470098097309,-74.15105852305344,2558.643,0.18,125.15625,3,10,-9999,1561841759.939863,-18.84401702880859,-18.70125579833984,15.0003662109375,135.1557769775391,142.6489868164062,15,169576.24702625,-0.9653167724609375,0.2476348876953125,-0.111572265625,169576.24702625,0.2087646652190935,-0.08078965482864377,-0.05075771984803822,169576.23219525,-93.38720703125,-45.18704223632812,-547.6722412109375,169576.24196025,0.04916473256872078,-1.459268121643387,-0.2384120019846764,0.1938621401786804,-0.08437149226665497,-0.04894044622778893,0.003396868705749512,0.007645085453987122,-0.003636837005615234,1,-0.07235266268253326,-0.6638453006744385,0.09744261205196381,0.7379562854766846,-0.9656771421432495,0.2361598461866379,-0.1081490144133568,0,0,0,-1,169576.17668325,1,2,1561841760.123182,1561841239.621676,42,1.91319,0,0,42.10339,0,0,1561841755.596066,169573.618546,0,-0.3037109,75.19583,0,182478453,3,1,0.99,-37.0904,-42.14717,2
1561841759.965277,41,0,0,1561841758.999178,4.63470098097309,-74.15105852305344,2558.643,0.18,125.15625,3,10,-9999,1561841759.963626,-18.85457611083984,-18.55540084838867,15.3016357421875,134.8558807373047,142.3490905761719,15,169576.26729025,-0.9655303955078125,0.247039794921875,-0.1046905517578125,169576.26729025,0.2123269094931834,-0.07888549464923711,-0.07427396490565591,169576.25230625,-93.11398315429688,-45.0059814453125,-547.950439453125,169576.26222425,0.05335773151031514,-1.46005358773169,-0.236790150166227,0.2145455926656723,-0.08641546964645386,-0.07496485859155655,-0.002227306365966797,0.01590472459793091,1.07884407043457e-05,1,-0.07032036781311035,-0.6643332839012146,0.09848249703645706,0.7375754714012146,-0.9661412239074707,0.2345835566520691,-0.1074326708912849,0,0,0,-1,169576.17668325,1,2,1561841760.123182,1561841239.621676,42,1.91319,0,0,42.10339,0,0,1561841755.596066,169573.618546,0,-0.3037109,75.19583,0,182478453,3,1,0.99,-37.0904,-42.40562,2
1561841759.985579,42,0,0,1561841758.999178,4.63470098097309,-74.15105852305344,2558.643,0.18,125.15625,3,10,-9999,1561841759.963626,-18.85457611083984,-18.55540084838867,15.3016357421875,134.8558807373047,142.3490905761719,15,169576.28755425,-0.9603118896484375,0.247406005859375,-0.11065673828125,169576.28755425,0.1737390368784803,-0.0446974304714539,-0.06860622547374927,169576.27241725,-93.16561889648438,-45.32566833496094,-547.6297607421875,169576.28248825,0.05736081348541391,-1.460760209167269,-0.2348578785595776,0.1830747425556183,-0.06813686341047287,-0.07459227740764618,0.00496518611907959,0.012778639793396,-0.002026200294494629,1,-0.06823863834142685,-0.6647884845733643,0.09934556484222412,0.7372450232505798,-0.9666655659675598,0.2327047735452652,-0.1067995205521584,0,0,0,-1,169576.17668325,1,2,1561841760.123182,1561841239.621676,42,1.91319,0,0,42.10339,0,0,1561841755.596066,169573.618546,0,-0.3037109,75.19583,0,182478453,3,1,0.99,-37.0904,-42.96888,2
1561841760.005835,43,0,0,1561841758.999178,4.63470098097309,-74.15105852305344,2558.643,0.18,125.15625,3,10,-9999,1561841759.989769,-18.74120330810547,-18.69977188110352,15.37335205078125,134.5860290527344,142.0792388916016,15,169576.30781725,-0.94708251953125,0.2449798583984375,-0.1137237548828125,169576.30781725,0.1252505965952986,-0.005259743152906496,-0.04679253930101924,169576.29252825,-93.08049011230469,-45.00968933105469,-547.7308959960938,169576.30275125,0.06050499981731451,-1.460752444275483,-0.2332206667337608,0.1348669975996017,-0.01354845240712166,-0.05840638279914856,0.01159775257110596,0.01585130393505096,-0.005242347717285156,1,-0.06658655405044556,-0.6649374961853027,0.0999642089009285,0.7371780276298523,-0.967042088508606,0.2311121970415115,-0.1068487167358398,0,0,0,-1,169576.17668325,1,2,1561841760.123182,1561841239.621676,42,1.91319,0,0,42.10339,0,0,1561841755.596066,169573.618546,0,-0.3037109,75.19583,0,182478453,3,1,0.99,-37.0904,-43.42288,2
1561841760.026272,44,0,0,1561841758.999178,4.63470098097309,-74.15105852305344,2558.643,0.18,125.15625,3,10,-9999,1561841760.01474,-18.65310668945312,-18.54741287231445,15.17156982421875,134.3974914550781,141.8907012939453,15,169576.32808125,-0.9416961669921875,0.2471466064453125,-0.10992431640625,169576.32808125,0.1275409151327668,-0.01712599002197256,-0.0182096302695258,169576.31263925,-93.33796691894531,-45.13694763183594,-547.2821044921875,169576.32298425,0.06291814892207459,-1.460441742692101,-0.2321316299759678,0.1185330301523209,-0.01843881607055664,-0.02961388230323792,0.02269351482391357,0.01573607325553894,-0.006318032741546631,1,-0.06539580971002579,-0.6649323105812073,0.1004842817783356,0.7372185587882996,-0.9672583937644958,0.2300525009632111,-0.1071768179535866,0,0,0,-1,169576.17668325,1,2,1561841760.123182,1561841239.621676,42,1.91319,0,0,42.10339,0,0,1561841755.596066,169573.618546,0,-0.3037109,75.19583,0,182478453,3,1,0.99,-37.0904,-43.42288,2
1561841760.046264,45,0,0,1561841758.999178,4.63470098097309,-74.15105852305344,2558.643,0.18,125.15625,3,10,-9999,1561841760.040425,-18.614501953125,-18.47350311279297,15.4688720703125,134.2130889892578,141.706298828125,15,169576.34831425,-0.9404296875,0.2484588623046875,-0.1008453369140625,169576.34831425,0.1394950463178055,-0.01070164652437441,0.01554194180559343,169576.33275025,-93.15611267089844,-45.01161193847656,-547.1922607421875,169576.34324825,0.06556654766412451,-1.460339121593358,-0.2316478847425266,0.1360084414482117,-0.02408738061785698,0.005413076374679804,0.02868300676345825,0.01725971698760986,0.001895904541015625,1,-0.06434094160795212,-0.6649932861328125,0.1012976244091988,0.7371451258659363,-0.9673579335212708,0.2295816987752914,-0.1072883456945419,0,0,0,-1,169576.17668325,1,2,1561841760.123182,1561841239.621676,42,1.91319,0,0,42.10339,0,0,1561841755.596066,169573.618546,0,-0.3037109,75.19583,0,182478453,3,1,0.99,-37.0904,-43.25914,2
1561841760.066836,46,0,0,1561841759.999169,4.63470098097309,-74.15105852305344,2558.593,0,119.53125,3,10,-9999,1561841760.064927,-18.822509765625,-18.31076431274414,15.57476806640625,134.0183868408203,141.5115966796875,15,169576.36857825,-0.9503936767578125,0.25994873046875,-0.0809173583984375,169576.36857825,0.1102282375183797,0.01168222243774159,0.01073866446352651,169576.35283125,-93.14410400390625,-44.74435424804688,-547.1306762695312,169576.36351225,0.06833339486003739,-1.45989765243233,-0.2316664111701232,0.118314117193222,0.00184355303645134,0.01029757969081402,0.02396214008331299,0.02523729205131531,0.0160706639289856,1,-0.06345037370920181,-0.6649184823036194,0.102309413254261,0.7371500730514526,-0.9673062562942505,0.229599729180336,-0.1077149212360382,0,0,0,-1,169576.17668325,1,2,1561841760.123182,1561841239.621676,42,1.91319,0,0,42.10339,0,0,1561841755.596066,169573.618546,0,-0.3037109,75.19583,0,182478453,3,1,0.99,-37.0904,-43.87842,2
1561841760.086809,47,0,0,1561841759.999169,4.63470098097309,-74.15105852305344,2558.593,0,119.53125,3,10,-9999,1561841760.064927,-18.822509765625,-18.31076431274414,15.57476806640625,134.0183868408203,141.5115966796875,15,169576.38884125,-0.9541473388671875,0.2577972412109375,-0.0646514892578125,169576.38884125,0.04747377590786151,0.0425764889793148,0.01156983703974024,169576.37294225,-92.87959289550781,-45.00045776367188,-547.4012451171875,169576.38377525,0.07028058862229351,-1.459157405811908,-0.2316350986209935,0.06449722498655319,0.03173353895545006,0.00637873774394393,0.01561892032623291,0.03218001127243042,0.03528106212615967,1,-0.06282947957515717,-0.6647078990936279,0.1029934957623482,0.7372978329658508,-0.9672333598136902,0.2295692563056946,-0.1084317341446877,0,0,0,-1,169576.17668325,1,2,1561841760.123182,1561841239.621676,42,1.91319,0,0,42.10339,0,0,1561841755.596066,169573.618546,0,-0.3037109,75.19583,0,182478453,3,1,0.99,-37.0904,-44.54097,2
1561841760.107057,48,0,0,1561841759.999169,4.63470098097309,-74.15105852305344,2558.593,0,119.53125,3,10,-9999,1561841760.091115,-18.71173095703125,-18.4737434387207,15.38031005859375,133.9080657958984,141.4012756347656,15,169576.40910525,-0.957763671875,0.252777099609375,-0.050811767578125,169576.40910525,-0.01091523204379877,0.06570258093723588,0.01301486824721724,169576.39305325,-92.99012756347656,-44.98924255371094,-547.3060913085938,169576.40403925,0.07091063024639088,-1.458106507258577,-0.2318194883624459,-0.0008367721457034349,0.05489478632807732,0.01080810837447643,0.01030504703521729,0.02614116668701172,0.05309271812438965,1,-0.06274282187223434,-0.6643354892730713,0.1032535061240196,0.737604558467865,-0.9670769572257996,0.2297487258911133,-0.1094433888792992,0,0,0,-1,169576.17668325,1,2,1561841760.123182,1561841239.621676,42,1.91319,0,0,42.10339,0,0,1561841755.596066,169573.618546,0,-0.3037109,75.19583,0,182478453,3,1,0.99,-37.0904,-44.82778,2
1561841760.127218,49,0,0,1561841759.999169,4.63470098097309,-74.15105852305344,2558.593,0,119.53125,3,10,-9999,1561841760.115558,-18.71907043457031,-18.47089385986328,15.44000244140625,133.9097595214844,141.4029693603516,15,169576.42936925,-0.9591522216796875,0.2451019287109375,-0.044677734375,169576.42936925,-0.02792244508115379,0.02430454074028114,0.0009499495608312643,169576.41316425,-93.34281921386719,-44.81231689453125,-547.2041015625,169576.42430325,0.07050438737052657,-1.457085314545509,-0.2321118490718319,-0.03447436168789864,0.03878026455640793,0.002339788246899843,0.008340656757354736,0.01526704430580139,0.06484526395797729,1,-0.06303906440734863,-0.663938581943512,0.1031677350401878,0.7379485368728638,-0.9668977856636047,0.2300332486629486,-0.1104232743382454,0,0,0,-1,169576.17668325,1,2,1561841760.123182,1561841239.621676,42,1.91319,0,0,42.10339,0,0,1561841755.596066,169573.618546,0,-0.3037109,75.19583,0,182478453,3,1,0.99,-37.0904,-44.33735,2
1561841760.14777,50,0,0,1561841759.999169,4.63470098097309,-74.15105852305344,2558.593,0,119.53125,3,10,-9999,1561841760.141919,-18.86550903320312,-18.38436508178711,15.586181640625,133.9422149658203,141.4354248046875,15,169576.44963225,-0.9580078125,0.2425689697265625,-0.0498504638671875,169576.44963225,0.03252518639313774,-0.09272088282830776,0.02573119613623659,169576.43327525,-93.34956359863281,-44.93269348144531,-547.1546020507812,169576.44456625,0.07012017541149689,-1.457364086869835,-0.2322338153234431,0.01067580655217171,-0.06561564654111862,0.008352939039468765,0.006680309772491455,0.0147058367729187,0.06400799751281738,1,-0.06319757550954819,-0.6640262007713318,0.1030749008059502,0.7378690838813782,-0.966900646686554,0.2301519364118576,-0.110150545835495,0,0,0,-1,169576.17668325,1,2,1561841760.123182,1561841239.621676,42,1.91319,0,0,42.10339,0,0,1561841755.596066,169573.618546,0,-0.3037109,75.19583,0,182478453,3,1,0.99,-37.0904,-44.04093,2
1561841760.167906,51,0,0,1561841759.999169,4.63470098097309,-74.15105852305344,2558.593,0,119.53125,3,10,-9999,1561841760.166167,-19.10016632080078,-18.1996955871582,15.647705078125,133.8510894775391,141.3442993164062,15,169576.46989625,-0.95855712890625,0.248199462890625,-0.06591796875,169576.46989625,0.1071775864896939,-0.1756589097083185,0.08667683873437293,169576.45338625,-93.19279479980469,-44.83857727050781,-547.23486328125,169576.46483025,0.07126510817428118,-1.459711638835586,-0.2330031233068501,0.09108036756515503,-0.1732028275728226,0.0709683820605278,0.009872913360595703,0.01472020149230957,0.0499231219291687,1,-0.06298152357339859,-0.664908230304718,0.1038243323564529,0.7369877696037292,-0.9669804573059082,0.2309005260467529,-0.1078607439994812,0,0,0,-1,169576.17668325,1,2,1561841760.123182,1561841239.621676,42,1.91319,0,0,42.10339,0,0,1561841755.596066,169573.618546,0,-0.3037109,75.19583,0,182478453,3,1,0.99,-37.0904,-44.66245,2
1561841760.188114,52,0,0,1561841759.999169,4.63470098097309,-74.15105852305344,2558.593,0,119.53125,3,10,-9999,1561841760.166167,-19.10016632080078,-18.1996955871582,15.647705078125,133.8510894775391,141.3442993164062,15,169576.49016025,-0.974700927734375,0.2485504150390625,-0.0829925537109375,169576.49016025,0.1303505500828004,-0.1655311743988561,0.1003540351446929,169576.47349725,-93.1826171875,-44.99502563476562,-547.1838989257812,169576.48506325,0.07374581348696256,-1.463016767982913,-0.2346667453257119,0.1256514042615891,-0.184508204460144,0.1006144285202026,0.001433372497558594,0.01658084988594055,0.03095328807830811,1,-0.06260033696889877,-0.666160523891449,0.1053897589445114,0.735666036605835,-0.9669484496116638,0.2325188815593719,-0.1046227067708969,0,0,0,-1,169576.17668325,1,2,1561841760.123182,1561841239.621676,42,1.91319,0,0,42.10339,0,0,1561841755.596066,169573.618546,0,-0.3037109,75.19583,0,182478453,3,1,0.99,-37.0904,-44.66245,2
1561841760.208889,53,0,0,1561841759.999169,4.63470098097309,-74.15105852305344,2558.593,0,119.53125,3,10,-9999,1561841760.194049,-18.69609069824219,-18.29031753540039,15.850341796875,133.6595153808594,141.1527252197266,15,169576.51039325,-0.978240966796875,0.2440338134765625,-0.088134765625,169576.51039325,0.1395030358010757,-0.1464584136200356,0.05754212272501508,169576.49360825,-93.19253540039062,-44.73481750488281,-547.2466430664062,169576.50532725,0.07662967254116269,-1.465844161981265,-0.2362242840837095,0.1355658173561096,-0.1500114798545837,0.0673813670873642,-0.01383399963378906,0.01105323433876038,0.01514983177185059,1,-0.06206587702035904,-0.6672500967979431,0.1070519164204597,0.7344828248023987,-0.9668789505958557,0.2340334504842758,-0.1018502712249756,0,0,0,-1,169576.17668325,1,2,1561841760.123182,1561841239.621676,42,1.91319,0,0,42.10339,0,0,1561841755.596066,169573.618546,0,-0.3037109,75.19583,0,182478453,3,1,0.99,-37.0904,-45.04243,2
1561841760.228619,54,0,0,1561841759.999169,4.63470098097309,-74.15105852305344,2558.593,0,119.53125,3,10,-9999,1561841760.216913,-18.48307037353516,-18.32245254516602,15.80291748046875,133.4501953125,140.9434051513672,15,169576.53065725,-0.9735260009765625,0.234771728515625,-0.0966033935546875,169576.53065725,0.1407398078113085,-0.1552835968403402,0.03814924998316707,169576.51368925,-93.08523559570312,-44.75485229492188,-546.783447265625,169576.52559125,0.07955595784215928,-1.468488005169407,-0.2369409195265348,0.1397706866264343,-0.1650341153144836,0.03702186793088913,-0.008974373340606689,0.007182717323303223,0.008059442043304443,1,-0.06121159344911575,-0.6682925224304199,0.1084440797567368,0.7334017753601074,-0.9669777750968933,0.2347301244735718,-0.09927649050951004,0,0,0,-1,169576.17668325,1,2,1561841760.123182,1561841239.621676,42,1.91319,0,0,42.10339,0,0,1561841755.596066,169573.618546,0,-0.3037109,75.19583,0,182478453,3,1,0.99,-37.0904,-45.59039,2
1561841760.248928,55,0,0,1561841759.999169,4.63470098097309,-74.15105852305344,2558.593,0,119.53125,3,10,-9999,1561841760.24428,-18.41170501708984,-18.3330078125,16.0185546875,133.2451934814453,140.7384033203125,15,169576.55092025,-0.968475341796875,0.234375,-0.10931396484375,169576.55092025,0.1132024558237802,-0.1339362301744831,0.02250770595280468,169576.53380025,-92.92475891113281,-44.8011474609375,-546.7035522460938,169576.54585425,0.08235501932066044,-1.471231902960866,-0.2373477062452665,0.122962661087513,-0.1533763855695724,0.02436466328799725,-0.002391934394836426,-0.0005063712596893311,-0.00520855188369751,1,-0.06027627363801003,-0.6693729162216187,0.1096876561641693,0.7323082685470581,-0.9671515226364136,0.2351255267858505,-0.09661334007978439,0,0,0,-1,169576.17668325,1,2,1561841760.123182,1561841239.621676,42,1.91319,0,0,42.10339,0,0,1561841755.596066,169573.618546,0,-0.3037109,75.19583,0,182478453,3,1,0.99,-37.0904,-42.65452,2
1561841760.269162,56,0,0,1561841759.999169,4.63470098097309,-74.15105852305344,2558.593,0,119.53125,3,10,-9999,1561841760.267463,-18.75783538818359,-18.25223159790039,15.9967041015625,133.1008911132812,140.5941009521484,15,169576.57118425,-0.97161865234375,0.2288360595703125,-0.1240692138671875,169576.57118425,0.07492297726330821,-0.09826904632726985,0.01372992699990351,169576.55391125,-92.80924987792969,-44.60252380371094,-546.8539428710938,169576.56611825,0.08444116503614341,-1.473432688226509,-0.2375060342019091,0.07714085280895233,-0.1080419346690178,0.009573200717568398,-0.003317415714263916,-0.00319322943687439,-0.02238607406616211,1,-0.05951489508152008,-0.6702368855476379,0.1105694174766541,0.731447160243988,-0.9673246741294861,0.2352794110774994,-0.09448099136352539,0,0,0,-1,169576.17668325,1,2,1561841760.123182,1561841239.621676,42,1.91319,0,0,42.10339,0,0,1561841755.596066,169573.618546,0,-0.3037109,75.19583,0,182478453,3,1,0.99,-37.0904,-43.4915,2
1561841760.289406,57,0,0,1561841759.999169,4.63470098097309,-74.15105852305344,2558.593,0,119.53125,3,10,-9999,1561841760.267463,-18.75783538818359,-18.25223159790039,15.9967041015625,133.1008911132812,140.5941009521484,15,169576.59144825,-0.9656524658203125,0.2227325439453125,-0.1389617919921875,169576.59144825,0.07847882995078201,-0.08097847294993039,0.01690068659375185,169576.57402225,-92.94358825683594,-44.61578369140625,-546.8250122070312,169576.58638225,0.08594934715911373,-1.475140376894919,-0.2376366063043008,0.07179215550422668,-0.09280865639448166,0.01429045759141445,0.0009621381759643555,-0.0102323591709137,-0.03926932811737061,1,-0.05896271020174026,-0.6709026694297791,0.1112146303057671,0.7307832837104797,-0.9674538969993591,0.2354063093662262,-0.09282601624727249,0,0,0,-1,169576.17668325,1,2,1561841760.123182,1561841239.621676,42,1.91319,0,0,42.10339,0,0,1561841755.596066,169573.618546,0,-0.3037109,75.19583,0,182478453,3,1,0.99,-37.0904,-43.16304,2
1561841760.309775,58,0,0,1561841759.999169,4.63470098097309,-74.15105852305344,2558.593,0,119.53125,3,10,-9999,1561841760.293701,-18.75846862792969,-17.95017623901367,16.0247802734375,132.9918975830078,140.485107421875,15,169576.61171125,-0.9783172607421875,0.222808837890625,-0.1461639404296875,169576.61171125,0.1064899582962354,-0.04136475068332875,0.0342213536914092,169576.59413325,-92.98593139648438,-44.55950927734375,-546.6273193359375,169576.60664525,0.08770295058492725,-1.47633836398251,-0.2378597447159754,0.09284178167581558,-0.06393545866012573,0.02650424651801586,-0.004106521606445312,-0.01221923530101776,-0.05065673589706421,1,-0.05838968604803085,-0.6713863611221313,0.1119643300771713,0.7302704453468323,-0.9675121307373047,0.2356231659650803,-0.09166199713945389,0,0,0,-1,169576.17668325,1,2,1561841760.123182,1561841239.621676,42,1.91319,0,0,42.10339,0,0,1561841755.596066,169573.618546,0,-0.3037109,75.19583,0,182478453,3,1,0.99,-37.0904,-42.14882,2
1561841760.330462,59,0,0,1561841759.999169,4.63470098097309,-74.15105852305344,2558.593,0,119.53125,3,10,-9999,1561841760.31811,-18.61470031738281,-18.03054809570312,16.2760009765625,132.838623046875,140.3318328857422,15,169576.63197525,-0.9661102294921875,0.2270355224609375,-0.140899658203125,169576.63197525,0.1566689732393994,0.006363090792526324,0.02325072789693679,169576.61424425,-92.9361572265625,-44.381103515625,-546.2680053710938,169576.62690925,0.09022282651821818,-1.476365388098093,-0.2381810550677627,0.1450061947107315,-0.007063655648380518,0.02506747096776962,-0.006102144718170166,-0.01114293932914734,-0.05450469255447388,1,-0.05766066163778305,-0.6714617609977722,0.1129917204380035,0.7301007509231567,-0.9674391150474548,0.2359354197978973,-0.09162870049476624,0,0,0,-1,169576.17668325,1,2,1561841760.123182,1561841239.621676,42,1.91319,0,0,42.10339,0,0,1561841755.596066,169573.618546,0,-0.3037109,75.19583,0,182478453,3,1,0.99,-37.0904,-42.60703,2
1561841760.350214,60,0,0,1561841759.999169,4.63470098097309,-74.15105852305344,2558.593,0,119.53125,3,10,-9999,1561841760.345037,-18.60268402099609,-17.80818176269531,16.213623046875,132.6032257080078,140.096435546875,15,169576.65223925,-0.9546051025390625,0.2211456298828125,-0.136962890625,169576.65223925,0.18824847112945,-0.01845277687705003,0.01463460282220343,169576.63435525,-93.17037963867188,-44.58450317382812,-546.587158203125,169576.64714225,0.09363549907830321,-1.475590243237488,-0.2382237639407729,0.1781644076108932,-0.01567072607576847,0.01247524656355381,0.004451930522918701,-0.0106656551361084,-0.04772853851318359,1,-0.05657486245036125,-0.67127525806427,0.1142295971512794,0.7301645874977112,-0.9673578143119812,0.2359769195318222,-0.09237762540578842,0,0,0,-1,169576.17668325,1,2,1561841760.123182,1561841239.621676,42,1.91319,0,0,42.10339,0,0,1561841755.596066,169573.618546,0,-0.3037109,75.19583,0,182478453,3,1,0.99,-37.0904,-42.60703,2
1561841760.370408,61,0,0,1561841759.999169,4.63470098097309,-74.15105852305344,2558.593,0,119.53125,3,10,-9999,1561841760.368777,-18.46780395507812,-17.81192398071289,16.37750244140625,132.3166046142578,139.809814453125,15,169576.67247225,-0.951141357421875,0.219970703125,-0.1279296875,169576.67247225,0.1907531741346696,-0.03089959286375337,0.0439075368921364,169576.65443625,-92.99476623535156,-44.27903747558594,-546.4537353515625,169576.66740625,0.09762148778816901,-1.475145783900404,-0.2381245404258013,0.193220853805542,-0.03633472695946693,0.02626056782901287,0.01781618595123291,-0.01844276487827301,-0.03801900148391724,1,-0.05522600933909416,-0.6712266206741333,0.1156394109129906,0.7300907969474792,-0.9673401713371277,0.235880509018898,-0.09280982613563538,0,0,0,-1,169576.17668325,1,2,1561841760.123182,1561841239.621676,42,1.91319,0,0,42.10339,0,0,1561841755.596066,169573.618546,0,-0.3037109,75.19583,0,182478453,3,1,0.99,-37.0904,-43.36134,2
1561841760.392095,62,0,0,1561841759.999169,4.63470098097309,-74.15105852305344,2558.593,0,119.53125,3,10,-9999,1561841760.368777,-18.46780395507812,-17.81192398071289,16.37750244140625,132.3166046142578,139.809814453125,15,169576.69273525,-0.968902587890625,0.2251434326171875,-0.1348114013671875,169576.69273525,0.1463550829697406,0.01799551211788343,0.07117990435120185,169576.67454725,-92.89768981933594,-44.35694885253906,-546.23046875,169576.68767025,0.1014434027929205,-1.474626433841241,-0.2387402880932622,0.1565315574407578,-0.002953332848846912,0.06725460290908813,0.008284568786621094,-0.01327326893806458,-0.03666090965270996,1,-0.05420085787773132,-0.6711282730102539,0.1172242537140846,0.730005145072937,-0.9671468734741211,0.2364788353443146,-0.09329821914434433,0,0,0,-1,169576.17668325,1,2,1561841760.123182,1561841239.621676,42,1.91319,0,0,42.10339,0,0,1561841755.596066,169573.618546,0,-0.3037109,75.19583,0,182478453,3,1,0.99,-37.0904,-43.5602,2
1561841760.411018,63,0,0,1561841759.999169,4.63470098097309,-74.15105852305344,2558.593,0,119.53125,3,10,-9999,1561841760.395045,-18.56011199951172,-17.60610198974609,16.51666259765625,132.0622711181641,139.5554809570312,15,169576.71299925,-0.9958343505859375,0.21649169921875,-0.1497650146484375,169576.71299925,0.04351285641858665,0.1675844715993072,0.04584525290127806,169576.69465825,-93.06910705566406,-44.18505859375,-546.2293090820312,169576.70793325,0.1042089802706831,-1.472916622681991,-0.2396984175749667,0.08003038167953491,0.1135040372610092,0.04999412596225739,-0.01300674676895142,-0.01685914397239685,-0.04716032743453979,1,-0.05372774228453636,-0.6705583930015564,0.1185048222541809,0.7303570508956909,-0.9667600989341736,0.2374096810817719,-0.09492954611778259,0,0,0,-1,169576.17668325,1,2,1561841760.123182,1561841239.621676,42,1.91319,0,0,42.10339,0,0,1561841755.596066,169573.618546,0,-0.3037109,75.19583,0,182478453,3,1,0.99,-37.0904,-42.81905,2
1561841760.431314,64,0,0,1561841759.999169,4.63470098097309,-74.15105852305344,2558.593,0,119.53125,3,10,-9999,1561841760.419411,-18.52926635742188,-17.67021560668945,16.66241455078125,131.9619598388672,139.4551696777344,15,169576.73326325,-1.017974853515625,0.20159912109375,-0.1605072021484375,169576.73326325,-0.1488709712515384,0.3591597635624842,0.01979527638255898,169576.71476925,-92.77667236328125,-44.27244567871094,-546.3681640625,169576.72819725,0.1041666254976964,-1.468353574694194,-0.2403929939621519,-0.1048834919929504,0.32286536693573,0.02128713019192219,-0.04472684860229492,-0.025758296251297,-0.05558419227600098,1,-0.0542692095041275,-0.6688746809959412,0.1185955107212067,0.7318447232246399,-0.9661526679992676,0.2380843311548233,-0.09932302683591843,0,0,0,-1,169576.17668325,1,2,1561841760.123182,1561841239.621676,42,1.91319,0,0,42.10339,0,0,1561841755.596066,169573.618546,0,-0.3037109,75.19583,0,182478453,3,1,0.99,-37.0904,-43.31116,2
1561841760.451553,65,0,0,1561841759.999169,4.63470098097309,-74.15105852305344,2558.593,0,119.53125,3,10,-9999,1561841760.446389,-18.78621673583984,-17.5611572265625,16.48284912109375,132.1816558837891,139.6748657226562,15,169576.75352625,-1.030517578125,0.187042236328125,-0.1704559326171875,169576.75352625,-0.2238376243567239,0.3975779928157493,-0.02128877712187541,169576.73488025,-93.03074645996094,-44.11836242675781,-546.6024169921875,169576.74846125,0.1005171807510645,-1.461689212689264,-0.2408632030546607,-0.2256719619035721,0.3902910053730011,-0.01145270839333534,-0.05681312084197998,-0.04605136811733246,-0.06124484539031982,1,-0.05605457350611687,-0.6663213968276978,0.1172288954257965,0.7342554926872253,-0.9653578400611877,0.2385410070419312,-0.105747364461422,0,0,0,-1,169576.17668325,1,2,1561841760.123182,1561841239.621676,42,1.91319,0,0,42.10339,0,0,1561841755.596066,169573.618546,0,-0.3037109,75.19583,0,182478453,3,1,0.99,-37.0904,-43.83443,2
1561841760.471758,66,0,0,1561841759.999169,4.63470098097309,-74.15105852305344,2558.593,0,119.53125,3,10,-9999,1561841760.470093,-19.02391815185547,-17.81285858154297,15.97509765625,132.4887847900391,139.9819946289062,15,169576.77379025,-1.068740844726562,0.1920013427734375,-0.1672210693359375,169576.77379025,-0.1256801644791284,0.3863804656964022,-0.155680674158871,169576.75496125,-93.2437744140625,-44.34207153320312,-546.8897705078125,169576.76872425,0.09606431234977447,-1.454840258830244,-0.2403221293544384,-0.1689580827951431,0.3808059096336365,-0.1059147641062737,-0.07761937379837036,-0.05193457007408142,-0.05625349283218384,1,-0.05773205682635307,-0.6636876463890076,0.1152189001441002,0.7368245124816895,-0.9647390246391296,0.2380155175924301,-0.1123714372515678,0,0,0,-1,169576.17668325,1,2,1561841760.123182,1561841239.621676,42,1.91319,0,0,42.10339,0,0,1561841755.596066,169573.618546,0,-0.3037109,75.19583,0,182478453,3,1,0.99,-37.0904,-43.22713,2
1561841760.492239,67,0,0,1561841759.999169,4.63470098097309,-74.15105852305344,2558.593,0,119.53125,3,10,-9999,1561841760.470093,-19.02391815185547,-17.81285858154297,15.97509765625,132.4887847900391,139.9819946289062,15,169576.79405425,-1.11212158203125,0.1940460205078125,-0.1514129638671875,169576.79405425,0.1363445267482417,0.3246103084247773,-0.3882145847391397,169576.77507225,-93.25953674316406,-44.23406982421875,-547.1364135742188,169576.78898825,0.09411724441769238,-1.447694082277879,-0.2360187324831055,0.06002822890877724,0.3512035310268402,-0.3395642638206482,-0.1377728581428528,-0.03525571525096893,-0.04049426317214966,1,-0.05717993527650833,-0.6610875725746155,0.1128878742456436,0.739560604095459,-0.9649187922477722,0.2338335961103439,-0.1193873509764671,0,0,0,-1,169576.17668325,1,2,1561841760.123182,1561841239.621676,42,1.91319,0,0,42.10339,0,0,1561841755.596066,169573.618546,0,-0.3037109,75.19583,0,182478453,3,1,0.99,-37.0904,-43.75056,2
1561841760.512382,68,0,0,1561841759.999169,4.63470098097309,-74.15105852305344,2558.593,0,119.53125,3,10,-9999,1561841760.496766,-18.89942169189453,-17.85602188110352,15.66046142578125,132.5196838378906,140.0128936767578,15,169576.81431725,-1.117401123046875,0.201019287109375,-0.145904541015625,169576.81431725,0.3522232941872638,0.1124668907307003,-0.4774741570986715,169576.79518325,-93.25509643554688,-44.38067626953125,-546.7943725585938,169576.80922125,0.0971303388379995,-1.44147967153511,-0.227006985738549,0.3178035616874695,0.1677751243114471,-0.4740248620510101,-0.146004319190979,-0.02895635366439819,-0.02213329076766968,1,-0.05316247791051865,-0.6590521335601807,0.1108955517411232,0.7419745326042175,-0.966208815574646,0.2250623106956482,-0.1256480664014816,0,0,0,-1,169576.17668325,1,2,1561841760.123182,1561841239.621676,42,1.91319,0,0,42.10339,0,0,1561841755.596066,169573.618546,0,-0.3037109,75.19583,0,182478453,3,1,0.99,-37.0904,-43.75056,2
1561841760.532576,69,0,0,1561841759.999169,4.63470098097309,-74.15105852305344,2558.593,0,119.53125,3,10,-9999,1561841760.52071,-18.75048065185547,-17.98511123657227,15.8939208984375,132.1464080810547,139.6396179199219,15,169576.83455125,-1.154708862304688,0.1996612548828125,-0.1561737060546875,169576.83455125,0.3304319785676905,0.01932922319179511,-0.4195099233408789,169576.81529425,-93.33306884765625,-44.72367858886719,-546.8455810546875,169576.82948525,0.1032831707615355,-1.438745950192727,-0.2166187979253939,0.3651780188083649,0.01175329647958279,-0.4410549402236938,-0.1605806946754456,-0.01056770980358124,-0.02079367637634277,1,-0.04739189520478249,-0.6583760976791382,0.1097330823540688,0.7431375980377197,-0.9681271314620972,0.2149286717176437,-0.1285898387432098,0,0,0,-1,169576.83238425,2,0,1561841760.778883,1561841239.621676,42,1.91319,0,0,42.10339,0,0,1561841755.596066,169573.618546,0,-0.3037109,75.19583,0,182478453,3,1,0.99,-37.64768,-42.12141,2
1561841760.55289,70,0,0,1561841759.999169,4.63470098097309,-74.15105852305344,2558.593,0,119.53125,3,10,-9999,1561841760.547488,-18.71061706542969,-17.90740203857422,16.08270263671875,131.8038482666016,139.2970581054688,15,169576.85481425,-1.210891723632812,0.1920166015625,-0.20465087890625,169576.85481425,-0.009055280338487426,0.2062447821956605,-0.3859674094113308,169576.83540525,-93.07254028320312,-44.55694580078125,-546.8618774414062,169576.84974825,0.10738389978565,-1.43692558389968,-0.2077763721548969,0.09231851994991302,0.124635636806488,-0.3824057281017303,-0.212544322013855,-0.01136884093284607,-0.04754585027694702,1,-0.04282171279191971,-0.657925546169281,0.1083438768982887,0.7440174221992493,-0.96973717212677,0.2062846124172211,-0.1306005567312241,0,0,0,-1,169576.83238425,2,0,1561841760.778883,1561841239.621676,42,1.91319,0,0,42.10339,0,0,1561841755.596066,169573.618546,0,-0.3037109,75.19583,0,182478453,3,1,0.99,-38.20496,-42.57914,2
1561841760.573082,71,0,0,1561841759.999169,4.63470098097309,-74.15105852305344,2558.593,0,119.53125,3,10,-9999,1561841760.572246,-18.73349761962891,-17.91698455810547,15.929443359375,132.0852966308594,139.5785064697266,15,169576.87507825,-1.301589965820312,0.2057952880859375,-0.2091217041015625,169576.87507825,-0.3297901567449814,0.5652588708465174,-0.5622012955989975,169576.85548625,-92.84652709960938,-44.48439025878906,-546.97265625,169576.87001225,0.1039765716398521,-1.431584525979235,-0.1995811422931009,-0.2858181297779083,0.4851099252700806,-0.5030107498168945,-0.2797141075134277,-0.001756131649017334,-0.07817947864532471,1,-0.04114234447479248,-0.6559750437736511,0.1043034046888351,0.7464079260826111,-0.9706673622131348,0.1982588022947311,-0.1360080987215042,0,0,0,-1,169576.83238425,2,0,1561841760.778883,1561841239.621676,42,1.91319,0,0,42.10339,0,0,1561841755.596066,169573.618546,0,-0.3037109,75.19583,0,182478453,3,1,0.99,-37.53691,-42.99134,2
1561841760.593435,72,0,0,1561841759.999169,4.63470098097309,-74.15105852305344,2558.593,0,119.53125,3,10,-9999,1561841760.572246,-18.73349761962891,-17.91698455810547,15.929443359375,132.0852966308594,139.5785064697266,15,169576.89534225,-1.327117919921875,0.2001190185546875,-0.1827850341796875,169576.89534225,-0.2182734818912214,0.6405147432460855,-0.7868056440335551,169576.87559725,-92.91889953613281,-44.96383666992188,-547.009765625,169576.89027625,0.0954950688452389,-1.421135824206407,-0.1879344773789404,-0.2875185608863831,0.6506075859069824,-0.7469671964645386,-0.3585299253463745,0.01870574057102203,-0.0527874231338501,1,-0.04004570841789246,-0.6520412564277649,0.09715043753385544,0.7508664131164551,-0.971410870552063,0.186830148100853,-0.1464770883321762,0,0,0,-1,169576.83238425,2,0,1561841760.778883,1561841239.621676,42,1.91319,0,0,42.10339,0,0,1561841755.596066,169573.618546,0,-0.3037109,75.19583,0,182478453,3,1,0.99,-37.53691,-41.74907,2
1561841760.613619,73,0,0,1561841759.999169,4.63470098097309,-74.15105852305344,2558.593,0,119.53125,3,10,-9999,1561841760.597575,-18.54212188720703,-18.39657592773438,15.5194091796875,132.6622772216797,140.1554870605469,15,169576.91560525,-1.306549072265625,0.205963134765625,-0.156707763671875,169576.91560525,0.1995173709660113,0.4344140380653983,-0.8370275358702695,169576.89570825,-92.75888061523438,-45.11563110351562,-547.6280517578125,169576.91053925,0.09048513942234307,-1.410135385610716,-0.1720444724940112,0.08731497824192047,0.4894295930862427,-0.846599817276001,-0.3436439037322998,0.02950185537338257,-0.008162498474121094,1,-0.03616137057542801,-0.6479875445365906,0.08994021266698837,0.7554569840431213,-0.9725487232208252,0.1711969971656799,-0.1576090008020401,0,0,0,-1,169576.83238425,2,0,1561841760.778883,1561841239.621676,42,1.91319,0,0,42.10339,0,0,1561841755.596066,169573.618546,0,-0.3037109,75.19583,0,182478453,3,1,0.99,-37.53691,-42.16579,2
1561841760.633875,74,0,0,1561841759.999169,4.63470098097309,-74.15105852305344,2558.593,0,119.53125,3,10,-9999,1561841760.62226,-18.05679321289062,-18.85607528686523,15.209228515625,132.6906433105469,140.1838531494141,15,169576.93586925,-1.282516479492188,0.2094573974609375,-0.1654510498046875,169576.93586925,0.5313863912579085,0.2140875252898349,-0.7679999983120697,169576.91581925,-92.6361083984375,-45.52137756347656,-547.62646484375,169576.93080325,0.09363337200108444,-1.402119714708605,-0.1546086663419998,0.4717963337898254,0.2565513253211975,-0.7893644571304321,-0.3180196285247803,0.05547921359539032,0.008419930934906006,1,-0.028852429240942,-0.6451587677001953,0.08541475236415863,0.7587106823921204,-0.9740488529205322,0.1539934426546097,-0.1658754050731659,0,0,0,-1,169576.83238425,2,0,1561841760.778883,1561841239.621676,42,1.91319,0,0,42.10339,0,0,1561841755.596066,169573.618546,0,-0.3037109,75.19583,0,182478453,3,1,0.99,-37.53691,-42.77105,2
1561841760.654262,75,0,0,1561841759.999169,4.63470098097309,-74.15105852305344,2558.593,0,119.53125,3,10,-9999,1561841760.648347,-17.98220825195312,-19.19450759887695,15.3909912109375,132.1213989257812,139.6146087646484,15,169576.95613325,-1.270477294921875,0.1990814208984375,-0.18212890625,169576.95613325,0.6013247299089155,0.04643221360553152,-0.7285356793826214,169576.93593025,-92.41328430175781,-45.89323425292969,-547.6591186523438,169576.95106725,0.1022902978312242,-1.397507650514173,-0.1376515285279357,0.6069379448890686,0.09053678810596466,-0.7209625244140625,-0.301638126373291,0.06557206809520721,-0.005554080009460449,1,-0.01977797597646713,-0.6435937881469727,0.08322960883378983,0.7605712413787842,-0.975705623626709,0.1372172385454178,-0.1707917302846909,0,0,0,-1,169576.83238425,2,0,1561841760.778883,1561841239.621676,42,1.91319,0,0,42.10339,0,0,1561841755.596066,169573.618546,0,-0.3037109,75.19583,0,182478453,3,1,0.99,-37.53691,-43.23784,2
1561841760.675609,76,0,0,1561841759.999169,4.63470098097309,-74.15105852305344,2558.593,0,119.53125,3,10,-9999,1561841760.672666,-17.8214111328125,-19.22608947753906,15.53497314453125,131.4866638183594,138.9798736572266,15,169576.97639625,-1.214141845703125,0.203094482421875,-0.20697021484375,169576.97639625,0.5147136712534675,-0.05775064823836828,-0.660226662686525,169576.95601125,-91.99188232421875,-45.81358337402344,-547.5130615234375,169576.97130025,0.1112833198518576,-1.396619191295037,-0.1210728079648743,0.537645697593689,-0.09328923374414444,-0.7006319165229797,-0.2883314490318298,0.08753575384616852,-0.02081137895584106,1,-0.01057722233235836,-0.6433300375938416,0.08135394752025604,0.7611806988716125,-0.9776598215103149,0.1207772344350815,-0.1720291674137115,0,0,0,-1,169576.83238425,2,0,1561841760.778883,1561841239.621676,42,1.91319,0,0,42.10339,0,0,1561841755.596066,169574.562466,0,-0.3037109,75.19583,0,182478453,3,1,0.99,-37.53691,-43.23784,2
1561841760.694683,77,0,0,1561841759.999169,4.63470098097309,-74.15105852305344,2558.593,0,119.53125,3,10,-9999,1561841760.672666,-17.8214111328125,-19.22608947753906,15.53497314453125,131.4866638183594,138.9798736572266,15,169576.99662925,-1.24169921875,0.210113525390625,-0.21527099609375,169576.99662925,0.2451634194177515,0.1957487317074402,-0.5730323717523497,169576.97612225,-92.00564575195312,-46.10888671875,-547.2623901367188,169576.99156425,0.1182718847019079,-1.395637179973249,-0.1067336274480256,0.3348845541477203,0.1324424296617508,-0.5906308889389038,-0.2313386797904968,0.09947782009840012,-0.02489268779754639,1,-0.002879780484363437,-0.6429269909858704,0.07943631708621979,0.7617916464805603,-0.9790952801704407,0.1065310910344124,-0.1732731759548187,0,0,0,-1,169576.83238425,2,0,1561841760.778883,1561841239.621676,42,1.91319,0,0,42.10339,0,0,1561841755.596066,169574.562466,0,-0.3037109,75.19583,0,182478453,3,1,0.99,-37.53691,-43.66189,2
1561841760.71493,78,0,0,1561841759.999169,4.63470098097309,-74.15105852305344,2558.593,0,119.53125,3,10,-9999,1561841760.699031,-17.37896728515625,-19.54571151733398,15.60455322265625,131.1065063476562,138.5997161865234,15,169577.01689325,-1.217605590820312,0.1955718994140625,-0.2523040771484375,169577.01689325,-0.2185816096293436,0.5908180267763349,-0.504144650151379,169576.99623325,-91.77713012695312,-45.9666748046875,-547.0275268554688,169577.01182725,0.1188547684641509,-1.389778385519315,-0.0949871398006103,-0.09782212227582932,0.4840670526027679,-0.534593939781189,-0.2504028677940369,0.1051220595836639,-0.07123833894729614,1,0.00158320739865303,-0.6406151652336121,0.07591439038515091,0.764098584651947,-0.9792266488075256,0.09484436362981796,-0.1792194098234177,0,0,0,-1,169576.83238425,2,0,1561841760.778883,1561841239.621676,42,1.91319,0,0,42.10339,0,0,1561841755.596066,169574.562466,0,-0.3037109,75.19583,0,182478453,3,1,0.99,-37.53691,-43.95184,2
1561841760.73514,79,0,0,1561841759.999169,4.63470098097309,-74.15105852305344,2558.593,0,119.53125,3,10,-9999,1561841760.724107,-17.21723175048828,-19.5579948425293,15.7904052734375,131.4343109130859,138.9275207519531,15,169577.03715725,-1.161590576171875,0.2043609619140625,-0.2934417724609375,169577.03715725,-0.5232938436534847,0.9285068529983823,-0.3776330467799279,169577.01634425,-91.56072998046875,-46.06878662109375,-547.4783325195312,169577.03209125,0.1106685533312237,-1.377008331686564,-0.08669530861697551,-0.4921976625919342,0.8343573808670044,-0.4177669286727905,-0.2254675030708313,0.1137001216411591,-0.08442157506942749,1,0.001696252729743719,-0.6356650590896606,0.07015864551067352,0.7687684297561646,-0.9775964617729187,0.08658675104379654,-0.1918541043996811,0,0,0,-1,169576.83238425,2,0,1561841760.778883,1561841239.621676,42,1.91319,0,0,42.10339,0,0,1561841755.596066,169574.562466,0,-0.3037109,75.19583,0,182478453,3,1,0.99,-37.53691,-44.87486,2
1561841760.755422,80,0,0,1561841759.999169,4.63470098097309,-74.15105852305344,2558.593,0,119.53125,3,10,-9999,1561841760.749623,-17.3675537109375,-19.8671989440918,14.9652099609375,132.2770538330078,139.770263671875,15,169577.05742025,-1.113265991210938,0.206329345703125,-0.29669189453125,169577.05742025,-0.6069205639913899,1.30095632303258,-0.1528247002058701,169577.03645525,-91.55979919433594,-46.35174560546875,-547.80517578125,169577.05235525,0.09854184751540239,-1.357355567514168,-0.08243709934011365,-0.5817986130714417,1.215776920318604,-0.2136638611555099,-0.1518809199333191,0.1176684498786926,-0.07460111379623413,1,-0.001144890440627933,-0.6280497312545776,0.0641414001584053,0.7755243182182312,-0.9739888310432434,0.08234375715255737,-0.2111044526100159,0,0,0,-1,169576.83238425,2,0,1561841760.778883,1561841239.621676,42,1.91319,0,0,42.10339,0,0,1561841755.596066,169574.562466,0,-0.3037109,75.19583,0,182478453,3,1,0.99,-37.53691,-45.3827,2
1561841760.783601,81,0,0,1561841759.999169,4.63470098097309,-74.15105852305344,2558.593,0,119.53125,3,10,-9999,1561841760.774199,-17.68938446044922,-20.19770050048828,14.21527099609375,133.2020568847656,140.6952667236328,15,169577.077703,-1.050628662109375,0.2455596923828125,-0.31243896484375,169577.077703,-0.6318008801593462,1.325616395778387,0.0005874933364714799,169577.056585,-91.90069580078125,-46.70364379882812,-548.3236083984375,169577.072637,0.08556528947450581,-1.331704418207107,-0.08307408649149617,-0.6528067588806152,1.347682237625122,-0.03265892714262009,-0.121472954750061,0.1426531374454498,-0.0774574875831604,1,-0.006227819714695215,-0.6180285811424255,0.05923240259289742,0.7838963866233826,-0.9682029485702515,0.08297856897115707,-0.2360037714242935,0,0,0,-1,169576.83238425,2,0,1561841760.778883,1561841239.621676,42,1.91319,0,0,42.10339,0,0,1561841755.596066,169574.562466,0,-0.3037109,75.19583,0,182478453,3,1,0.99,-37.53691,-45.82243,2
1561841760.795983,82,0,0,1561841759.999169,4.63470098097309,-74.15105852305344,2558.593,0,119.53125,3,10,-9999,1561841760.774199,-17.68938446044922,-20.19770050048828,14.21527099609375,133.2020568847656,140.6952667236328,15,169577.097967,-0.9825439453125,0.27386474609375,-0.307586669921875,169577.097967,-0.2763594221108306,1.143301980189851,0.07153064266676529,169577.076696,-92.12420654296875,-46.74659729003906,-549.3167114257812,169577.092901,0.07460874317597732,-1.306754734667219,-0.08630420262039731,-0.4032150506973267,1.194881319999695,0.06354989856481552,-0.05500394105911255,0.1751249134540558,-0.04934382438659668,1,-0.01157992519438267,-0.6081607341766357,0.05579110234975815,0.7917662858963013,-0.9617502093315125,0.08619710057973862,-0.2600128650665283,0,0,0,-1,169576.83238425,2,0,1561841760.778883,1561841239.621676,42,1.91319,0,0,42.10339,0,0,1561841755.596066,169574.562466,0,-0.3037109,75.19583,0,182478453,3,1,0.99,-37.53691,-45.90009,2
1561841760.816193,83,0,0,1561841759.999169,4.63470098097309,-74.15105852305344,2558.593,0,119.53125,3,10,-9999,1561841760.800177,-18.00763702392578,-20.30747985839844,13.5733642578125,133.8188781738281,141.3120880126953,15,169577.118231,-0.901519775390625,0.2589263916015625,-0.2815399169921875,169577.118231,0.1771811725874078,0.7384551554948395,0.1178656508925089,169577.096807,-92.66845703125,-46.6011962890625,-549.5433959960938,169577.113165,0.0720659358899956,-1.285838511828178,-0.08846449404566281,0.0905081033706665,0.847470760345459,0.08493401110172272,0.02399027347564697,0.1826011687517166,-0.01556026935577393,1,-0.01378951594233513,-0.599834144115448,0.05529740452766418,0.7980921864509583,-0.9559208154678345,0.08834915608167648,-0.2800177037715912,0,0,0,-1,169576.83238425,2,0,1561841760.778883,1561841239.621676,42,1.91319,0,0,42.10339,0,0,1561841755.596066,169574.562466,0,-0.3037109,75.19583,0,182478453,3,1,0.99,-37.53691,-40.27196,2
1561841760.836398,84,0,0,1561841759.999169,4.63470098097309,-74.15105852305344,2558.593,0,119.53125,3,10,-9999,1561841760.824719,-18.62992858886719,-20.15464782714844,12.6431884765625,133.6468963623047,141.1401062011719,15,169577.138494,-0.880950927734375,0.2850799560546875,-0.3040924072265625,169577.138494,0.3266084781906637,0.543368751950502,0.2157621209832767,169577.116918,-93.01127624511719,-46.74636840820312,-550.3782958984375,169577.133398,0.07712751688655491,-1.272148801737624,-0.09002959013477607,0.2980437278747559,0.5312683582305908,0.199412927031517,0.04302060604095459,0.1790433973073959,0.004767179489135742,1,-0.01329266466200352,-0.5943948030471802,0.05769467353820801,0.8019908666610718,-0.9518646001815796,0.08990801870822906,-0.2930362522602081,0,0,0,-1,169576.83238425,2,0,1561841760.778883,1561841239.621676,42,1.91319,0,0,42.10339,0,0,1561841755.596066,169574.562466,0,-0.3037109,75.19583,0,182478453,3,1,0.99,-37.53691,-40.27196,2
1561841760.866339,85,0,0,1561841759.999169,4.63470098097309,-74.15105852305344,2558.593,0,119.53125,3,10,-9999,1561841760.851087,-18.79369354248047,-20.10683822631836,12.674072265625,133.0909118652344,140.5841217041016,15,169577.158727,-0.7863311767578125,0.2386932373046875,-0.3185577392578125,169577.158727,0.4032950007278224,0.5832285503018271,0.2806859936177734,169577.137029,-93.03108215332031,-46.74681091308594,-550.3565063476562,169577.153661,0.08528482930819267,-1.259867314599856,-0.09233516027427056,0.3880982398986816,0.6017441749572754,0.2611308991909027,0.1264761686325073,0.1766711175441742,-0.002550005912780762,1,-0.01217342633754015,-0.5895183086395264,0.06157330423593521,0.8053127527236938,-0.9479941129684448,0.0922040119767189,-0.3046399354934692,0,0,0,-1,169577.14945,1,2,1561841761.095949,1561841239.621676,42,1.91319,0,0,42.10339,0,0,1561841755.596066,169574.562466,0,-0.3037109,75.19583,0,182478453,3,1,0.99,-37.53691,-41.63955,2
1561841760.877063,86,0,0,1561841759.999169,4.63470098097309,-74.15105852305344,2558.593,0,119.53125,3,10,-9999,1561841760.875328,-19.02243041992188,-19.8583984375,12.43603515625,132.3738403320312,139.8670501708984,15,169577.178991,-0.777008056640625,0.2320709228515625,-0.2879486083984375,169577.178991,0.4458938602602939,0.4768033068200805,0.4006219859417099,169577.15714,-93.32749938964844,-46.49082946777344,-550.4266357421875,169577.173925,0.09514739345394302,-1.247968005800114,-0.09564290600448157,0.4286169111728668,0.4820595383644104,0.3671819567680359,0.1706313490867615,0.1293105781078339,0.001072347164154053,1,-0.01099738292396069,-0.5847896933555603,0.06644862145185471,0.8083840608596802,-0.9440078139305115,0.09549715369939804,-0.3158001303672791,0,0,0,-1,169577.14945,1,2,1561841761.095949,1561841239.621676,42,1.91319,0,0,42.10339,0,0,1561841755.596066,169574.562466,0,-0.3037109,75.19583,0,182478453,3,1,0.99,-37.53691,-41.63955,2
1561841760.89724,87,0,0,1561841759.999169,4.63470098097309,-74.15105852305344,2558.593,0,119.53125,3,10,-9999,1561841760.875328,-19.02243041992188,-19.8583984375,12.43603515625,132.3738403320312,139.8670501708984,15,169577.199255,-0.713836669921875,0.213775634765625,-0.26007080078125,169577.199255,0.611694280245357,0.3268321837222304,0.4152826877425961,169577.177252,-93.6942138671875,-46.35775756835938,-550.4987182617188,169577.194189,0.107015033237003,-1.237493073819022,-0.1003300408807681,0.5522246360778809,0.4122873842716217,0.418537825345993,0.1811356544494629,0.133892759680748,0.05647802352905273,1,-0.009807825088500977,-0.580640435218811,0.0725545659661293,0.8108614087104797,-0.9402146339416504,0.1001618057489395,-0.3255209922790527,0,0,0,-1,169577.14945,1,2,1561841761.095949,1561841239.621676,42,1.91319,0,0,42.10339,0,0,1561841755.596066,169574.562466,0,-0.3037109,75.19583,0,182478453,3,1,0.99,-37.53691,-41.8969,2
1561841760.917428,88,0,0,1561841759.999169,4.63470098097309,-74.15105852305344,2558.593,0,119.53125,3,10,-9999,1561841760.901583,-19.19709014892578,-19.45514297485352,12.3094482421875,131.4459686279297,138.9391784667969,15,169577.219518,-0.67071533203125,0.1794891357421875,-0.2365875244140625,169577.219518,0.8968940655947056,-0.2510647180772581,0.4853603097186142,169577.197363,-93.84809875488281,-45.7825927734375,-550.2667236328125,169577.214452,0.1228152458286533,-1.23227372192272,-0.103882018052552,0.8114170432090759,-0.1052857115864754,0.4528465270996094,0.260381281375885,0.08430825918912888,0.0771450400352478,1,-0.006874500773847103,-0.5786198377609253,0.07996273785829544,0.8116390109062195,-0.9381614327430725,0.1036952808499336,-0.3303036391735077,0,0,0,-1,169577.14945,1,2,1561841761.095949,1561841239.621676,42,1.91319,0,0,42.10339,0,0,1561841755.596066,169574.562466,0,-0.3037109,75.19583,0,182478453,3,1,0.99,-37.53691,-42.44342,2
1561841760.945137,89,0,0,1561841759.999169,4.63470098097309,-74.15105852305344,2558.593,0,119.53125,3,10,-9999,1561841760.926034,-19.55523681640625,-18.76535034179688,12.8326416015625,130.0609893798828,137.55419921875,15,169577.239782,-0.6637115478515625,0.163665771484375,-0.187713623046875,169577.239782,1.114906824015208,-0.6089163369122954,0.6242835753503796,169577.217443,-93.85092163085938,-45.40788269042969,-550.0612182617188,169577.234716,0.1449192298012315,-1.237437002352267,-0.1071816973737873,1.101968169212341,-0.5728880167007446,0.5777764320373535,0.277004599571228,0.07332125306129456,0.1113064885139465,1,-0.001591984648257494,-0.580798327922821,0.08987676352262497,0.8090692162513733,-0.9395259022712708,0.1069765985012054,-0.325341522693634,0,0,0,-1,169577.14945,1,2,1561841761.095949,1561841239.621676,42,1.91319,0,0,42.10339,0,0,1561841755.596066,169574.562466,0,-0.3037109,75.19583,0,182478453,3,1,0.99,-37.53691,-42.61419,2
1561841760.958948,90,0,0,1561841759.999169,4.63470098097309,-74.15105852305344,2558.593,0,119.53125,3,10,-9999,1561841760.952443,-19.67440032958984,-18.26881408691406,13.45068359375,128.2874603271484,135.7806701660156,15,169577.260046,-0.70831298828125,0.125823974609375,-0.2103118896484375,169577.260046,0.7700130817800606,-0.6432394233573456,0.8018104262472796,169577.237554,-93.93084716796875,-45.25144958496094,-549.5645751953125,169577.25498,0.1696715765441698,-1.24741297306754,-0.1130954204175008,0.9077712893486023,-0.6454461812973022,0.7584575414657593,0.2483675479888916,0.0247797966003418,0.1330985426902771,1,0.00369821977801621,-0.5849044322967529,0.1015605852007866,0.8047102689743042,-0.9421083927154541,0.1128544807434082,-0.3157462477684021,0,0,0,-1,169577.14945,1,2,1561841761.095949,1561841239.621676,42,1.91319,0,0,42.10339,0,0,1561841755.596066,169574.562466,0,-0.3037109,75.19583,0,182478453,3,1,0.99,-37.53691,-43.0055,2
1561841760.978276,91,0,0,1561841759.999169,4.63470098097309,-74.15105852305344,2558.593,0,119.53125,3,10,-9999,1561841760.976783,-19.62743377685547,-17.84768676757812,13.95794677734375,127.0852127075195,134.5784149169922,15,169577.280309,-0.7261810302734375,0.132110595703125,-0.2560577392578125,169577.280309,0.2421401989482935,-0.7510143568795442,1.01467236480346,169577.257665,-93.75706481933594,-44.64698791503906,-548.9024658203125,169577.275243,0.1871329824124564,-1.258855783357084,-0.1254899205192876,0.3453933894634247,-0.7122033834457397,0.9541823267936707,0.2318533658981323,0.002601012587547302,0.06526541709899902,1,0.004426581785082817,-0.5896897912025452,0.1121280565857887,0.799795925617218,-0.9442556500434875,0.125160813331604,-0.304492712020874,0,0,0,-1,169577.14945,1,2,1561841761.095949,1561841239.621676,42,1.91319,0,0,42.10339,0,0,1561841755.596066,169574.562466,0,-0.3037109,75.19583,0,182478453,3,1,0.99,-37.53691,-43.0055,2
1561841760.998564,92,0,0,1561841759.999169,4.63470098097309,-74.15105852305344,2558.593,0,119.53125,3,10,-9999,1561841760.976783,-19.62743377685547,-17.84768676757812,13.95794677734375,127.0852127075195,134.5784149169922,15,169577.300573,-0.746307373046875,0.126739501953125,-0.2166290283203125,169577.300573,0.1664576881420947,-0.5467349875683623,1.115687130214601,169577.277776,-94.14041137695312,-43.99362182617188,-548.4703979492188,169577.295477,0.1972676666111541,-1.272257656015045,-0.1445410182965158,0.1332419961690903,-0.6244021654129028,1.106019258499146,0.2007903456687927,-0.00855545699596405,0.04171288013458252,1,0.0005476807709783316,-0.5953749418258667,0.121694877743721,0.7941780686378479,-0.9458007216453552,0.1440382450819016,-0.291056752204895,0,0,0,-1,169577.14945,1,2,1561841761.095949,1561841239.621676,42,1.91319,0,0,42.10339,0,0,1561841755.596066,169574.562466,0,-0.3037109,75.19583,0,182478453,3,1,0.99,-37.53691,-43.36845,2
1561841761.026679,93,0,0,1561841759.999169,4.63470098097309,-74.15105852305344,2558.593,0,119.53125,3,10,-9999,1561841761.002813,-19.58963775634766,-17.2583122253418,14.40032958984375,126.3844833374023,133.877685546875,15,169577.320806,-0.6859893798828125,0.0816650390625,-0.1840667724609375,169577.320806,0.3726827629456886,-0.4918062248210419,1.102362536332608,169577.297887,-94.60116577148438,-43.46205139160156,-548.5479736328125,169577.31574,0.2079628792600099,-1.281184198861313,-0.1648943090672863,0.3077357411384583,-0.4747231304645538,1.110902905464172,0.233929455280304,-0.06951305270195007,0.08177089691162109,1,-0.0038458954077214,-0.599276065826416,0.1318880319595337,0.7895941138267517,-0.945355236530304,0.1641480773687363,-0.2817068099975586,0,0,0,-1,169577.14945,1,2,1561841761.095949,1561841239.621676,42,1.91319,0,0,42.10339,0,0,1561841755.596066,169574.562466,0,-0.3037109,75.19583,0,182478453,3,1,0.99,-37.53691,-40.68414,2
1561841761.039063,94,0,0,1561841759.999169,4.63470098097309,-74.15105852305344,2558.593,0,119.53125,3,10,-9999,1561841761.028754,-20.40814971923828,-16.16499710083008,14.90655517578125,125.4583511352539,132.9515533447266,15,169577.34107,-0.6978912353515625,0.0924835205078125,-0.1196136474609375,169577.34107,0.5284915351529924,-0.4598411012051479,0.9444919448093649,169577.317999,-94.51762390136719,-42.91769409179688,-548.1038818359375,169577.336004,0.2224483429133512,-1.289015383467094,-0.1832902070009906,0.5056952238082886,-0.5112028121948242,0.9982964992523193,0.2586652636528015,-0.08770693838596344,0.1160145401954651,1,-0.006299639586359262,-0.6027070879936218,0.1430006176233292,0.7850192189216614,-0.9444715976715088,0.1822656542062759,-0.2734089493751526,0,0,0,-1,169577.14945,1,2,1561841761.095949,1561841239.621676,42,1.91319,0,0,42.10339,0,0,1561841755.596066,169574.562466,0,-0.3037109,75.19583,0,182478453,3,1,0.99,-37.53691,-40.68414,2
1561841761.059411,95,0,0,1561841760.999158,4.63470098097309,-74.15105852305344,2558.57,0,112.1484375,3,10,-9999,1561841761.053548,-20.52621459960938,-15.61264038085938,15.2244873046875,124.3532485961914,131.8464508056641,15,169577.361334,-0.719146728515625,0.0385284423828125,-0.0648345947265625,169577.361334,0.4882887216532653,-0.261650783410323,0.6887645642955961,169577.33811,-94.85867309570312,-42.37913513183594,-547.895263671875,169577.356268,0.2377646745575664,-1.294404217155825,-0.1974769562884156,0.5071972012519836,-0.3057455718517303,0.7494619488716125,0.2318923473358154,-0.1308272927999496,0.1844376921653748,1,-0.006924119777977467,-0.6051120758056641,0.1531759351491928,0.7812353372573853,-0.9433486461639404,0.1961959451436996,-0.2675828635692596,0,0,0,-1,169577.14945,1,2,1561841761.095949,1561841239.621676,42,1.91319,0,0,42.10339,0,0,1561841755.596066,169574.562466,0,-0.3037109,75.19583,0,182478453,3,1,0.99,-37.53691,-41.17243,2
1561841761.079594,96,0,0,1561841760.999158,4.63470098097309,-74.15105852305344,2558.57,0,112.1484375,3,10,-9999,1561841761.077947,-20.75257873535156,-15.23934555053711,15.4288330078125,123.4461441040039,130.9393463134766,15,169577.381597,-0.683441162109375,0.00469970703125,-0.0543365478515625,169577.381597,0.419446540106935,-0.2394823641803944,0.4892953965453152,169577.358221,-95.09236145019531,-41.78660583496094,-547.5550537109375,169577.376531,0.2505993309781154,-1.296972307478752,-0.2071914331443675,0.4317767322063446,-0.2381068766117096,0.5244975090026855,0.2315666675567627,-0.1823205053806305,0.205915629863739,1,-0.006695919670164585,-0.6063327789306641,0.1610369086265564,0.7787058353424072,-0.9421531558036804,0.2057122141122818,-0.264631450176239,0,0,0,-1,169577.14945,1,2,1561841761.095949,1561841239.621676,42,1.91319,0,0,42.10339,0,0,1561841755.596066,169574.562466,0,-0.3037109,75.19583,0,182478453,3,1,0.99,-37.53691,-41.79642,2
1561841761.104389,97,0,0,1561841760.999158,4.63470098097309,-74.15105852305344,2558.57,0,112.1484375,3,10,-9999,1561841761.077947,-20.75257873535156,-15.23934555053711,15.4288330078125,123.4461441040039,130.9393463134766,15,169577.401861,-0.683868408203125,0.0021209716796875,-0.0407562255859375,169577.401861,0.3368818884117534,-0.2934007236101387,0.4588671831945059,169577.378332,-95.57383728027344,-41.62799072265625,-547.2586669921875,169577.396795,0.2612070843187909,-1.300091163848367,-0.2141895466001147,0.3635428249835968,-0.2955307364463806,0.4468027651309967,0.2710314989089966,-0.2164770811796188,0.213860809803009,1,-0.005997776985168457,-0.6077119708061218,0.1672198921442032,0.7763296365737915,-0.9415637254714966,0.2125555574893951,-0.2613003849983215,0,0,0,-1,169577.14945,1,2,1561841761.095949,1561841239.621676,42,1.91319,0,0,42.10339,0,0,1561841755.596066,169574.562466,0,-0.3037109,75.19583,0,182478453,3,1,0.99,-37.53691,-42.62106,2
1561841761.120111,98,0,0,1561841760.999158,4.63470098097309,-74.15105852305344,2558.57,0,112.1484375,3,10,-9999,1561841761.104162,-20.91178894042969,-14.90283203125,15.7657470703125,122.7287826538086,130.2219848632812,15,169577.422125,-0.761932373046875,0.0207672119140625,-0.02667236328125,169577.422125,0.09404527283840416,-0.204549413845716,0.5484745643924021,169577.398443,-95.22843933105469,-41.3406982421875,-547.03271484375,169577.417059,0.2695839105753403,-1.304096964306424,-0.2219967374526856,0.176560178399086,-0.2480228841304779,0.5242533087730408,0.2271671891212463,-0.2092067301273346,0.2272961735725403,1,-0.006201914977282286,-0.6094430685043335,0.1727645397186279,0.7737525701522827,-0.9409733414649963,0.2201777994632721,-0.2570813596248627,0,0,0,-1,169577.14945,1,2,1561841761.095949,1561841239.621676,42,1.91319,0,0,42.10339,0,0,1561841755.596066,169574.562466,0,-0.3037109,75.19583,0,182478453,3,1,0.99,-36.30307,-38.32024,2
1561841761.140324,99,0,0,1561841760.999158,4.63470098097309,-74.15105852305344,2558.57,0,112.1484375,3,10,-9999,1561841761.129048,-20.90634918212891,-14.29718780517578,16.23114013671875,122.3224105834961,129.8156127929688,15,169577.442388,-0.811920166015625,0.042999267578125,-0.0693206787109375,169577.442388,-0.2604675409380008,-0.08348583911624,0.4780813578272096,169577.418554,-95.07199096679688,-41.11714172363281,-547.0077514648438,169577.437322,0.2725556306747468,-1.307027863407393,-0.2325807901514277,-0.1773081570863724,-0.1129601374268532,0.5176817178726196,0.1335120797157288,-0.1967676728963852,0.2103503346443176,1,-0.009226866066455841,-0.6107901334762573,0.1770239323377609,0.7716947197914124,-0.9394202828407288,0.2304895967245102,-0.2537005543708801,0,0,0,-1,169577.14945,1,2,1561841761.095949,1561841239.621676,42,1.91319,0,0,42.10339,0,0,1561841755.596066,169574.562466,0,-0.3037109,75.19583,0,182478453,3,1,0.99,-36.30307,-38.32024,2
1561841761.160582,100,0,0,1561841760.999158,4.63470098097309,-74.15105852305344,2558.57,0,112.1484375,3,10,-9999,1561841761.154819,-20.96499633789062,-14.16530609130859,16.1055908203125,122.5376205444336,130.0308227539062,15,169577.462652,-0.8058319091796875,0.0607452392578125,-0.102996826171875,169577.462652,-0.4199400238569266,-0.01407107793554266,0.244947437053346,169577.438665,-95.36534118652344,-40.85415649414062,-546.8424682617188,169577.457555,0.2683458116487201,-1.309551861605825,-0.2424129041617761,-0.4191836416721344,-0.04573742672801018,0.3003174364566803,0.131258487701416,-0.1897984892129898,0.1605364680290222,1,-0.01417565159499645,-0.6119096875190735,0.1782965213060379,0.7704386711120605,-0.9378228187561035,0.2400456815958023,-0.2507311701774597,0,0,0,-1,169577.14945,1,2,1561841761.095949,1561841239.621676,42,1.91319,0,0,42.10339,0,0,1561841755.596066,169574.562466,0,-0.3037109,75.19583,0,182478453,3,1,0.99,-36.30307,-38.79907,2
1561841761.184193,101,0,0,1561841760.999158,4.63470098097309,-74.15105852305344,2558.57,0,112.1484375,3,10,-9999,1561841761.179256,-21.06316375732422,-14.21721649169922,15.93212890625,123.0458450317383,130.5390472412109,15,169577.482885,-0.870574951171875,0.087646484375,-0.09912109375,169577.482885,-0.3713621013611183,0.2621000586862194,0.1154677406470016,169577.458776,-95.50927734375,-40.72720336914062,-546.8798217773438,169577.477819,0.2612069552075687,-1.310642830895633,-0.2484255467401721,-0.3787858784198761,0.1588077247142792,0.1228963136672974,0.1120077967643738,-0.1760539412498474,0.1449925303459167,1,-0.01863868348300457,-0.6123614311218262,0.1773190796375275,0.7702103853225708,-0.936684250831604,0.2458781450986862,-0.2493321597576141,0,0,0,-1,169577.14945,1,2,1561841761.095949,1561841239.621676,42,1.91319,0,0,42.10339,0,0,1561841755.596066,169574.562466,0,-0.3037109,75.19583,0,182478453,3,1,0.99,-36.30307,-38.16232,2
1561841761.20119,102,0,0,1561841760.999158,4.63470098097309,-74.15105852305344,2558.57,0,112.1484375,3,10,-9999,1561841761.179256,-21.06316375732422,-14.21721649169922,15.93212890625,123.0458450317383,130.5390472412109,15,169577.503149,-0.928802490234375,0.1644287109375,-0.1490478515625,169577.503149,-0.3800274949160181,0.6408044951726861,0.153057194169034,169577.478887,-95.95489501953125,-40.624755859375,-547.0732421875,169577.498083,0.2543074722027479,-1.304923657373036,-0.2527205900414164,-0.3771525621414185,0.5733652114868164,0.1338786482810974,0.02498996257781982,-0.1249169707298279,0.1348679065704346,1,-0.02295045368373394,-0.6101398468017578,0.1758570969104767,0.772189736366272,-0.9342154264450073,0.2500390410423279,-0.254405289888382,0,0,0,-1,169577.14945,1,2,1561841761.095949,1561841239.621676,42,1.91319,0,0,42.10339,0,0,1561841755.596066,169574.562466,0,-0.3037109,75.19583,0,182478453,3,1,0.99,-36.30307,-39.04456,2
1561841761.221439,103,0,0,1561841760.999158,4.63470098097309,-74.15105852305344,2558.57,0,112.1484375,3,10,-9999,1561841761.205946,-21.29036712646484,-14.13030624389648,15.749267578125,123.5376510620117,131.0308532714844,15,169577.523412,-0.9201507568359375,0.2142791748046875,-0.171661376953125,169577.523412,-0.3519652338776352,0.6915459697380749,0.1471931797647885,169577.498998,-95.54161071777344,-40.82856750488281,-547.3441772460938,169577.518346,0.2475575900093493,-1.293310624214989,-0.2578008031302176,-0.3651699423789978,0.6928859949111938,0.1546643525362015,-0.001065850257873535,-0.06357890367507935,0.0951467752456665,1,-0.02803449891507626,-0.6056164503097534,0.1745764166116714,0.7758646011352539,-0.9299644231796265,0.2549546360969543,-0.2648855745792389,0,0,0,-1,169577.14945,1,2,1561841761.095949,1561841239.621676,42,1.91319,0,0,42.10339,0,0,1561841755.596066,169574.562466,0,-0.3037109,75.19583,0,182478453,3,1,0.99,-36.30307,-39.70946,2
1561841761.241649,104,0,0,1561841760.999158,4.63470098097309,-74.15105852305344,2558.57,0,112.1484375,3,10,-9999,1561841761.229802,-21.58419036865234,-14.31476593017578,14.94073486328125,124.0008163452148,131.4940185546875,15,169577.543676,-0.9102325439453125,0.2596893310546875,-0.2235107421875,169577.543676,-0.3586132829068,0.5619727963774687,0.07257087338855023,169577.519109,-95.7032470703125,-40.72183227539062,-547.6600341796875,169577.53861,0.2411880449140841,-1.281665283687794,-0.2622773460770965,-0.3551583290100098,0.5903098583221436,0.09151388704776764,0.01522159576416016,-0.01968717575073242,0.08912014961242676,1,-0.03275170177221298,-0.6010348200798035,0.1732164621353149,0.7795386910438538,-0.9257135391235352,0.2592806816101074,-0.2753689289093018,0,0,0,-1,169577.14945,1,2,1561841761.095949,1561841239.621676,42,1.91319,0,0,42.10339,0,0,1561841755.596066,169574.562466,0,-0.3037109,75.19583,0,182478453,3,1,0.99,-36.30307,-40.67884,2
1561841761.264959,105,0,0,1561841760.999158,4.63470098097309,-74.15105852305344,2558.57,0,112.1484375,3,10,-9999,1561841761.25616,-21.69253540039062,-14.55479431152344,14.67425537109375,124.5009231567383,131.9941253662109,15,169577.56394,-0.9080963134765625,0.273590087890625,-0.2868194580078125,169577.56394,-0.4031397384362708,0.5025358345368621,0.02592880268912047,169577.539221,-96.2303466796875,-40.89051818847656,-548.1812744140625,169577.558874,0.2340269747774397,-1.272665244901788,-0.2654424502597913,-0.39496910572052,0.5011149644851685,0.02032998949289322,0.01647919416427612,0.001747608184814453,0.02925056219100952,1,-0.0369376465678215,-0.5974213480949402,0.1711717247962952,0.7825750708580017,-0.9224087595939636,0.262336254119873,-0.2834466993808746,0,0,0,-1,169577.14945,1,2,1561841761.095949,1561841239.621676,42,1.91319,0,0,42.10339,0,0,1561841755.596066,169574.562466,0,-0.3037109,75.19583,0,182478453,3,1,0.99,-36.30307,-41.6165,2
1561841761.282126,106,0,0,1561841760.999158,4.63470098097309,-74.15105852305344,2558.57,0,112.1484375,3,10,-9999,1561841761.25616,-21.69253540039062,-14.55479431152344,14.67425537109375,124.5009231567383,131.9941253662109,15,169577.584203,-0.9041900634765625,0.2951812744140625,-0.334686279296875,169577.584203,-0.3799111147763817,0.493285344490472,0.1237051642147257,169577.559332,-96.47572326660156,-40.95953369140625,-548.486083984375,169577.579137,0.2262086150762114,-1.264725343715887,-0.2687005326004038,-0.3977742195129395,0.4908706247806549,0.08836603164672852,0.01159435510635376,0.01876190304756165,-0.02659046649932861,1,-0.04124834388494492,-0.5941779017448425,0.1688824146986008,0.7853215336799622,-0.919309139251709,0.2654788196086884,-0.2905023992061615,0,0,0,-1,169577.14945,1,2,1561841761.095949,1561841239.621676,42,1.91319,0,0,42.10339,0,0,1561841755.596066,169574.562466,0,-0.3037109,75.19583,0,182478453,3,1,0.99,-36.30307,-42.43168,2
1561841761.302463,107,0,0,1561841760.999158,4.63470098097309,-74.15105852305344,2558.57,0,112.1484375,3,10,-9999,1561841761.280938,-22.11318206787109,-14.36611557006836,14.42999267578125,125.0523452758789,132.5455474853516,15,169577.604467,-0.9047393798828125,0.317596435546875,-0.357696533203125,169577.604467,-0.2663757638163416,0.4846247446255342,0.2446691367194327,169577.579443,-96.62075805664062,-41.02218627929688,-548.8256225585938,169577.599401,0.2201096882573171,-1.256589860111385,-0.2738441453137525,-0.2985722720623016,0.4729789793491364,0.2163823246955872,0.01100242137908936,0.03913599252700806,-0.04782170057296753,1,-0.04580847173929214,-0.5908711552619934,0.1677680760622025,0.7877985835075378,-0.9156045317649841,0.2704343199729919,-0.2975457310676575,0,0,0,-1,169577.14945,1,2,1561841761.095949,1561841239.621676,42,1.91319,0,0,42.10339,0,0,1561841755.596066,169574.562466,0,-0.3037109,75.19583,0,182478453,3,1,0.99,-36.30307,-42.43168,2
1561841761.322696,108,0,0,1561841760.999158,4.63470098097309,-74.15105852305344,2558.57,0,112.1484375,3,10,-9999,1561841761.306798,-22.12075805664062,-14.44435882568359,14.087890625,125.4177169799805,132.9109191894531,15,169577.624731,-0.9073638916015625,0.314697265625,-0.3567047119140625,169577.624731,-0.1781279263549309,0.4443974300437784,0.2686154822930982,169577.599554,-96.60513305664062,-41.17436218261719,-549.1475219726562,169577.619634,0.2169560356244525,-1.247929424791757,-0.2802162994504975,-0.1889269948005676,0.4582831263542175,0.2720668911933899,0.004922807216644287,0.04123127460479736,-0.05708849430084229,1,-0.05003449693322182,-0.5874019265174866,0.1681158542633057,0.7900585532188416,-0.9113406538963318,0.2765635251998901,-0.3049110472202301,0,0,0,-1,169577.14945,1,2,1561841761.095949,1561841239.621676,42,1.91319,0,0,42.10339,0,0,1561841755.596066,169574.562466,0,-0.3037109,75.19583,0,182478453,3,1,0.99,-36.30307,-42.91422,2
1561841761.344372,109,0,0,1561841760.999158,4.63470098097309,-74.15105852305344,2558.57,0,112.1484375,3,10,-9999,1561841761.331649,-22.7408447265625,-14.45668792724609,13.2982177734375,125.5754013061523,133.068603515625,15,169577.644964,-0.92718505859375,0.311309814453125,-0.3449554443359375,169577.644964,-0.1566937406375372,0.3357010427844123,0.1894940315712801,169577.619665,-96.75192260742188,-41.37799072265625,-549.4959106445312,169577.639898,0.2149941665082698,-1.240244057448379,-0.286120168368919,-0.1736771911382675,0.3562153279781342,0.2120565474033356,-0.0106348991394043,0.03586772084236145,-0.0424349308013916,1,-0.053643848747015,-0.5843261480331421,0.1687971949577332,0.7919549942016602,-0.9074101448059082,0.282232254743576,-0.3113705813884735,0,0,0,-1,169577.14945,1,2,1561841761.095949,1561841239.621676,42,1.91319,0,0,42.10339,0,0,1561841755.596066,169574.562466,0,-0.3037109,75.19583,0,182478453,3,1,0.99,-36.30307,-43.5162,2
1561841761.363252,110,0,0,1561841760.999158,4.63470098097309,-74.15105852305344,2558.57,0,112.1484375,3,10,-9999,1561841761.357666,-22.73686981201172,-14.36489868164062,13.2015380859375,125.7031326293945,133.1963348388672,15,169577.665228,-0.923980712890625,0.2820281982421875,-0.3131256103515625,169577.665228,-0.04296877260788347,0.2476111307756433,0.0196852878295387,169577.639776,-96.87925720214844,-40.92680358886719,-549.6875,169577.660162,0.2133005188166721,-1.234420698526241,-0.289758520349373,-0.0814008042216301,0.2688713669776917,0.05933330953121185,-0.02396732568740845,0.0092315673828125,-0.01251846551895142,1,-0.05610387399792671,-0.5819777846336365,0.1689815372228622,0.7934730052947998,-0.9046062827110291,0.2857208251953125,-0.3163084387779236,0,0,0,-1,169577.14945,1,2,1561841761.095949,1561841239.621676,42,1.91319,0,0,42.10339,0,0,1561841755.596066,169574.562466,0,-0.3037109,75.19583,0,182478453,3,1,0.99,-36.30307,-41.80841,2
1561841761.383454,111,0,0,1561841760.999158,4.63470098097309,-74.15105852305344,2558.57,0,112.1484375,3,10,-9999,1561841761.381805,-22.90871429443359,-14.53518676757812,13.06121826171875,125.7269973754883,133.2201995849609,15,169577.685491,-0.917510986328125,0.264678955078125,-0.3097381591796875,169577.685491,0.05796742955110073,0.1627785310961502,-0.07208830859902787,169577.659887,-97.42201232910156,-41.00523376464844,-549.9251708984375,169577.680425,0.212860467612954,-1.230130791235001,-0.289618763656221,0.03738363459706306,0.1628645211458206,-0.0692712664604187,-0.01496469974517822,-0.0156741738319397,0.01325374841690063,1,-0.05653710663318634,-0.5802618265151978,0.1686471402645111,0.7947691082954407,-0.9032787084579468,0.2855868935585022,-0.3201995491981506,0,0,0,-1,169577.14945,1,2,1561841761.095949,1561841239.621676,42,1.91319,0,0,42.10339,0,0,1561841755.596066,169574.562466,0,-0.3037109,75.19583,0,182478453,3,1,0.99,-36.30307,-42.41254,2
1561841761.403777,112,0,0,1561841760.999158,4.63470098097309,-74.15105852305344,2558.57,0,112.1484375,3,10,-9999,1561841761.381805,-22.90871429443359,-14.53518676757812,13.06121826171875,125.7269973754883,133.2201995849609,15,169577.705755,-0.91400146484375,0.2557525634765625,-0.307830810546875,169577.705755,0.1333394157741963,0.2386216305160808,0.001124652928340462,169577.679998,-97.20986938476562,-40.92039489746094,-549.8966064453125,169577.700689,0.2139579118485748,-1.22609490016042,-0.2879811699633906,0.1141971871256828,0.2169112414121628,-0.03327172249555588,-0.01758021116256714,-0.02060464024543762,0.01230871677398682,1,-0.05589359998703003,-0.5786846280097961,0.1685162037611008,0.7959913015365601,-0.9024178981781006,0.2840171158313751,-0.3240000009536743,0,0,0,-1,169577.14945,1,2,1561841761.095949,1561841239.621676,42,1.91319,0,0,42.10339,0,0,1561841755.596066,169574.562466,0,-0.3037109,75.19583,0,182478453,3,1,0.99,-36.30307,-42.98943,2
1561841761.455801,113,0,0,1561841760.999158,4.63470098097309,-74.15105852305344,2558.57,0,112.1484375,3,10,-9999,1561841761.436059,-23.23024749755859,-14.35113525390625,12.64898681640625,125.4071273803711,132.9003295898438,15,169577.726019,-0.90936279296875,0.2505035400390625,-0.30621337890625,169577.726019,0.09722641876050382,0.3080001727059531,0.1118061604642516,169577.700079,-97.49821472167969,-40.91494750976562,-550.0287475585938,169577.720953,0.2168011961184614,-1.220185513879483,-0.2877237456290593,0.1191115751862526,0.2838144600391388,0.08793085068464279,-0.007097542285919189,-0.03598278760910034,0.02210122346878052,1,-0.05546695366501808,-0.5764089822769165,0.1694132536649704,0.797480583190918,-0.9005562663078308,0.2837702929973602,-0.3293522000312805,0,0,0,-1,169577.14945,1,2,1561841761.095949,1561841239.621676,42,1.91319,0,0,42.10339,0,0,1561841755.596066,169574.562466,0,-0.3037109,75.19583,0,182478453,3,1,0.99,-36.30307,-43.47473,2
1561841761.46014,114,0,0,1561841760.999158,4.63470098097309,-74.15105852305344,2558.57,0,112.1484375,3,10,-9999,1561841761.436059,-23.23024749755859,-14.35113525390625,12.64898681640625,125.4071273803711,132.9003295898438,15,169577.746282,-0.920501708984375,0.2596893310546875,-0.3037567138671875,169577.746282,-0.04554964202027926,0.311391974670278,0.11504669487866,169577.72019,-97.28997802734375,-40.90957641601562,-549.9990234375,169577.741216,0.2189301742826114,-1.213347675507737,-0.289552569014062,-0.004952048882842064,0.3131542205810547,0.127281442284584,-0.01391720771789551,-0.03209021687507629,0.030861496925354,1,-0.05618229135870934,-0.5737451314926147,0.1705745756626129,0.7991021871566772,-0.8977954387664795,0.2855234444141388,-0.3353201448917389,0,0,0,-1,169577.14945,1,2,1561841761.095949,1561841239.621676,42,1.91319,0,0,42.10339,0,0,1561841755.596066,169574.562466,0,-0.3037109,75.19583,0,182478453,3,1,0.99,-36.30307,-43.47473,2
1561841761.464447,115,0,0,1561841760.999158,4.63470098097309,-74.15105852305344,2558.57,0,112.1484375,3,10,-9999,1561841761.436059,-23.23024749755859,-14.35113525390625,12.64898681640625,125.4071273803711,132.9003295898438,15,169577.766546,-0.91754150390625,0.2718658447265625,-0.291839599609375,169577.766546,-0.1662939037350548,0.2339184880310009,-0.0159949455070159,169577.740301,-97.813720703125,-40.73065185546875,-550.1429443359375,169577.76148,0.2178259199092885,-1.207813562633602,-0.2916792696339415,-0.1499459892511368,0.263182669878006,0.01951024495065212,-0.03192031383514404,-0.01897576451301575,0.04297852516174316,1,-0.05784003064036369,-0.5715076327323914,0.170556515455246,0.8005897402763367,-0.895356297492981,0.2875609695911407,-0.3400671184062958,0,0,0,-1,169577.14945,1,2,1561841761.095949,1561841239.621676,42,1.91319,0,0,42.10339,0,0,1561841755.596066,169574.562466,0,-0.3037109,75.19583,0,182478453,3,1,0.99,-36.30307,-43.47473,2
1561841761.485044,116,0,0,1561841760.999158,4.63470098097309,-74.15105852305344,2558.57,0,112.1484375,3,10,-9999,1561841761.466225,-23.32709503173828,-14.07737350463867,12.607421875,125.4397048950195,132.9329071044922,15,169577.78681,-0.909027099609375,0.2985076904296875,-0.3157958984375,169577.78681,-0.2056498320081368,0.1734194575476708,-0.1107930939855855,169577.760412,-97.73077392578125,-40.79634094238281,-550.4236450195312,169577.781713,0.2137363563187936,-1.204926055525677,-0.2919367042926148,-0.2089123725891113,0.1768469959497452,-0.1077036336064339,-0.01544272899627686,-0.00507742166519165,0.04072940349578857,1,-0.05935779958963394,-0.5702318549156189,0.1689038574695587,0.8017379641532898,-0.8943015336990356,0.2878075242042542,-0.3426245748996735,0,0,0,-1,169577.14945,1,2,1561841761.095949,1561841239.621676,42,1.91319,0,0,42.10339,0,0,1561841755.596066,169574.562466,0,-0.3037109,75.19583,0,182478453,3,1,0.99,-36.30307,-43.0059,2
1561841761.524744,117,0,0,1561841760.999158,4.63470098097309,-74.15105852305344,2558.57,0,112.1484375,3,10,-9999,1561841761.509863,-23.22555541992188,-14.3517951965332,12.12738037109375,126.0460739135742,133.5392761230469,15,169577.807043,-0.8915252685546875,0.3203277587890625,-0.346435546875,169577.807043,-0.1389786593824391,0.1857158049327847,-0.081234136414578,169577.780523,-97.56636047363281,-40.85963439941406,-550.4130859375,169577.801977,0.2089208329879003,-1.202942173808178,-0.2911233124051736,-0.169995591044426,0.1791554242372513,-0.1032761260867119,-0.009390652179718018,0.02554783225059509,0.01031464338302612,1,-0.06056275963783264,-0.5692899823188782,0.1666912883520126,0.8027795553207397,-0.8938381671905518,0.2870284616947174,-0.3444821238517761,0,0,0,-1,169577.14945,1,2,1561841761.095949,1561841239.621676,42,1.91319,0,0,42.10339,0,0,1561841755.596066,169574.562466,0,-0.3037109,75.19583,0,182478453,3,1,0.99,-36.30307,-43.52874,2
1561841761.527965,118,0,0,1561841760.999158,4.63470098097309,-74.15105852305344,2558.57,0,112.1484375,3,10,-9999,1561841761.509863,-23.22555541992188,-14.3517951965332,12.12738037109375,126.0460739135742,133.5392761230469,15,169577.827306,-0.859283447265625,0.3201751708984375,-0.3521728515625,169577.827306,0.04474696526772937,0.170129920969205,0.005926066057644321,169577.800634,-97.50869750976562,-40.69647216796875,-550.5570068359375,169577.822241,0.2064802585709735,-1.200251628169102,-0.2905116657425226,-0.006873252801597118,0.1701922863721848,-0.02117965929210186,0.01793420314788818,0.03289344906806946,-0.004597961902618408,1,-0.06122931092977524,-0.568134069442749,0.1654627770185471,0.8038013577461243,-0.8930715322494507,0.2864424884319305,-0.3469493091106415,0,0,0,-1,169577.14945,1,2,1561841761.095949,1561841239.621676,42,1.91319,0,0,42.10339,0,0,1561841755.596066,169574.562466,0,-0.3037109,75.19583,0,182478453,3,1,0.99,-36.30307,-43.52874,2
1561841761.545694,119,0,0,1561841760.999158,4.63470098097309,-74.15105852305344,2558.57,0,112.1484375,3,10,-9999,1561841761.534095,-23.22723388671875,-14.60968017578125,11.9864501953125,126.0488052368164,133.5420074462891,15,169577.84757,-0.8554534912109375,0.3133697509765625,-0.346710205078125,169577.84757,0.1444123069545278,0.1604290903824823,0.09390545688117501,169577.820745,-97.520751953125,-41.18116760253906,-550.9695434570312,169577.842504,0.2081713808214711,-1.196793752172634,-0.2903853385464297,0.1384120434522629,0.1439713388681412,0.07490852475166321,0.04154318571090698,0.03035944700241089,0.001461565494537354,1,-0.06098416820168495,-0.5667950510978699,0.1660028547048569,0.8046535849571228,-0.8919002413749695,0.2863214612007141,-0.3500486016273499,0,0,0,-1,169577.14945,1,2,1561841761.095949,1561841239.621676,42,1.91319,0,0,42.10339,0,0,1561841755.596066,169574.562466,0,-0.3037109,75.19583,0,182478453,3,1,0.99,-36.30307,-44.33979,2
1561841761.566131,120,0,0,1561841760.999158,4.63470098097309,-74.15105852305344,2558.57,0,112.1484375,3,10,-9999,1561841761.560788,-23.34449768066406,-14.58211135864258,11.94012451171875,125.8272323608398,133.3204345703125,15,169577.867834,-0.8912353515625,0.3157196044921875,-0.3345947265625,169577.867834,0.03504054204271757,0.1838878111605543,0.07380871066321906,169577.840856,-97.53125,-41.19955444335938,-550.7784423828125,169577.862768,0.2112488111689432,-1.192742733300717,-0.2911481102110198,0.07718756049871445,0.1847161054611206,0.08537101745605469,0.01859802007675171,0.0289573073387146,0.01384115219116211,1,-0.06076433137059212,-0.5652598142623901,0.1673246473073959,0.8054758906364441,-0.8902715444564819,0.2870522141456604,-0.3535780906677246,0,0,0,-1,169577.14945,1,2,1561841761.095949,1561841239.621676,42,1.91319,0,0,42.10339,0,0,1561841755.596066,169574.562466,0,-0.3037109,75.19583,0,182478453,3,1,0.99,-36.30307,-45.17618,2
1561841761.607909,121,0,0,1561841760.999158,4.63470098097309,-74.15105852305344,2558.57,0,112.1484375,3,10,-9999,1561841761.560788,-23.34449768066406,-14.58211135864258,11.94012451171875,125.8272323608398,133.3204345703125,15,169577.888097,-0.90771484375,0.3126068115234375,-0.337493896484375,169577.888097,-0.1224018131772409,0.09121593049630398,0.01079405821420016,169577.860967,-97.341064453125,-40.93696594238281,-550.7454833984375,169577.883032,0.2113588485286153,-1.189593223599948,-0.2922874867533416,-0.09858985990285873,0.1162046939134598,0.01977123506367207,-0.01518809795379639,0.02572983503341675,0.0228537917137146,1,-0.06146585196256638,-0.5639971494674683,0.1675799489021301,0.8062543272972107,-0.8888493776321411,0.2881434559822083,-0.3562583327293396,0,0,0,-1,169577.14945,1,2,1561841761.095949,1561841239.621676,42,1.91319,0,0,42.10339,0,0,1561841755.596066,169574.562466,0,-0.3037109,75.19583,0,182478453,3,1,0.99,-36.30307,-46.56139,2
1561841761.611945,122,0,0,1561841760.999158,4.63470098097309,-74.15105852305344,2558.57,0,112.1484375,3,10,-9999,1561841761.560788,-23.34449768066406,-14.58211135864258,11.94012451171875,125.8272323608398,133.3204345703125,15,169577.908361,-0.894500732421875,0.3007965087890625,-0.36346435546875,169577.908361,-0.0911560093717772,0.02897173055064501,0.0005030711299159681,169577.881078,-97.82929992675781,-41.00875854492188,-550.9892578125,169577.903295,0.2088754044411417,-1.189034458036844,-0.2933783468662861,-0.1196996718645096,0.02429020963609219,-0.005455025471746922,-0.01192593574523926,0.01893284916877747,0.00965273380279541,1,-0.06266188621520996,-0.563697338104248,0.1668550223112106,0.8065221905708313,-0.888357937335968,0.289187878370285,-0.3566375970840454,0,0,0,-1,169577.14945,1,2,1561841761.095949,1561841239.621676,42,1.91319,0,0,42.10339,0,0,1561841755.596066,169574.562466,0,-0.3037109,75.19583,0,182478453,3,1,0.99,-36.30307,-46.56139,2
1561841761.626777,123,0,0,1561841760.999158,4.63470098097309,-74.15105852305344,2558.57,0,112.1484375,3,10,-9999,1561841761.617895,-23.14964294433594,-14.56473159790039,12.03076171875,125.8387985229492,133.3320007324219,15,169577.928625,-0.874298095703125,0.2967529296875,-0.378082275390625,169577.928625,0.06804722796094163,0.08225306184764231,0.03266926340811102,169577.901189,-97.8167724609375,-40.84707641601562,-550.9121704101562,169577.923559,0.2078486498691109,-1.188610711482766,-0.2939748797668481,0.02482182532548904,0.05889559164643288,0.01791847497224808,0.003738701343536377,0.008580982685089111,-0.01743996143341064,1,-0.06323222070932388,-0.5634952187538147,0.16658815741539,0.8066741824150085,-0.8880466222763062,0.2897588610649109,-0.356949657201767,0,0,0,-1,169577.14945,1,2,1561841761.095949,1561841239.621676,42,1.91319,0,0,42.10339,0,0,1561841755.596066,169575.506302,0,-0.3037109,75.19582,0,182478453,3,1,0.99,-36.30307,-46.56139,2
