loggingTime,loggingSample,identifierForVendor,deviceID,locationTimestamp_since1970,locationLatitude,locationLongitude,locationAltitude,locationSpeed,locationCourse,locationVerticalAccuracy,locationHorizontalAccuracy,locationFloor,locationHeadingTimestamp_since1970,locationHeadingX,locationHeadingY,locationHeadingZ,locationTrueHeading,locationMagneticHeading,locationHeadingAccuracy,accelerometerTimestamp_sinceReboot,accelerometerAccelerationX,accelerometerAccelerationY,accelerometerAccelerationZ,gyroTimestamp_sinceReboot,gyroRotationX,gyroRotationY,gyroRotationZ,magnetometerTimestamp_sinceReboot,magnetometerX,magnetometerY,magnetometerZ,motionTimestamp_sinceReboot,motionYaw,motionRoll,motionPitch,motionRotationRateX,motionRotationRateY,motionRotationRateZ,motionUserAccelerationX,motionUserAccelerationY,motionUserAccelerationZ,motionAttitudeReferenceFrame,motionQuaternionX,motionQuaternionY,motionQuaternionZ,motionQuaternionW,motionGravityX,motionGravityY,motionGravityZ,motionMagneticFieldX,motionMagneticFieldY,motionMagneticFieldZ,motionMagneticFieldCalibrationAccuracy,activityTimestamp_sinceReboot,activity,activityActivityConfidence,activityActivityStartDate,pedometerStartDate,pedometerNumberofSteps,pedometerAverageActivePace,pedometerCurrentPace,pedometerCurrentCadence,pedometerDistance,pedometerFloorAscended,pedometerFloorDescended,pedometerEndDate,altimeterTimestamp_sinceReboot,altimeterReset,altimeterRelativeAltitude,altimeterPressure,IP_en0,IP_pdp_ip0,deviceOrientation,batteryState,batteryLevel,avAudioRecorderPeakPower,avAudioRecorderAveragePower,label
1561824439.371706,1,0,0,1561824438.994464,4.634769838307644,-74.15106506093791,2553.835,0,118.125,3,10,-9999,1561824439.359713,-21.73029327392578,9.356340408325195,18.3697509765625,46.96393966674805,54.45713424682617,15,156182.059731375,-0.909393310546875,-0.4028472900390625,-0.1763458251953125,156182.057716375,0.09627061024527438,-0.1461966248848809,0.07752222248722555,156182.045052375,-100.7176666259766,-18.32290649414062,-544.8060913085938,156182.052650375,1.091962660249845,-1.351783464865357,0.4043103758337552,0.08930764347314835,-0.1284737884998322,0.07675722241401672,-0.006609916687011719,-0.005769819021224976,0.01769626140594482,1,0.4520953297615051,-0.4424199163913727,0.2895024120807648,0.7183751463890076,-0.8974123001098633,-0.3933848440647125,-0.1997488588094711,0,0,0,-1,156174.1753152917,3,2,1561824431.480536,1561824121.559794,12,3.602502,0,0,10.50458,0,0,1561824170.876706,156178.774019,0,0.6262207,75.371,0,182478453,3,1,0.31,-26.44663,-32.04635,4
1561824439.392882,2,0,0,1561824438.994464,4.634769838307644,-74.15106506093791,2553.835,0,118.125,3,10,-9999,1561824439.359713,-21.73029327392578,9.356340408325195,18.3697509765625,46.96393966674805,54.45713424682617,15,156182.079994375,-0.9304351806640625,-0.4136962890625,-0.1665191650390625,156182.077980375,0.0668227064917232,-0.224511404112514,0.05704837265891439,156182.065163375,-100.5604400634766,-17.9652099609375,-544.7196044921875,156182.072884375,1.094257995465645,-1.356193945298734,0.4033556920306169,0.07957112789154053,-0.2102211117744446,0.05649402737617493,-0.01722723245620728,-0.01957190036773682,0.02333766222000122,1,0.4529621601104736,-0.4437238872051239,0.2896171808242798,0.7169771790504456,-0.8986510634422302,-0.3925069272518158,-0.1958687901496887,0,0,0,-1,156174.1753152917,3,2,1561824431.480536,1561824121.559794,12,3.602502,0,0,10.50458,0,0,1561824170.876706,156178.774019,0,0.6262207,75.371,0,182478453,3,1,0.31,-26.44663,-32.27882,4
1561824439.396048,3,0,0,1561824438.994464,4.634769838307644,-74.15106506093791,2553.835,0,118.125,3,10,-9999,1561824439.359713,-21.73029327392578,9.356340408325195,18.3697509765625,46.96393966674805,54.45713424682617,15,156182.100258375,-0.949127197265625,-0.3947906494140625,-0.1514739990234375,156182.098213375,0.003926831027321837,-0.1890918942466781,0.008244614102667306,156182.085243375,-100.6170654296875,-18.1932373046875,-544.5897216796875,156182.093147375,1.095591063904419,-1.36132728278483,0.4026801666299753,0.02147799544036388,-0.2162385284900665,0.02244151756167412,-0.04287588596343994,-0.009878367185592651,0.03334921598434448,1,0.453803539276123,-0.4454303979873657,0.2891358137130737,0.7155798077583313,-0.8999037146568298,-0.3918855488300323,-0.1913082152605057,0,0,0,-1,156174.1753152917,3,2,1561824431.480536,1561824121.559794,12,3.602502,0,0,10.50458,0,0,1561824170.876706,156178.774019,0,0.6262207,75.371,0,182478453,3,1,0.31,-26.44663,-32.27882,4
1561824439.411476,4,0,0,1561824438.994464,4.634769838307644,-74.15106506093791,2553.835,0,118.125,3,10,-9999,1561824439.399929,-21.63531494140625,9.634632110595703,18.48724365234375,46.82515716552734,54.31835174560547,15,156182.120522375,-0.9423370361328125,-0.404144287109375,-0.160064697265625,156182.118477375,-0.09202579778379709,-0.07799253673573354,-0.06610711510681891,156182.105354375,-100.4208831787109,-18.1943359375,-544.5562744140625,156182.113411375,1.095019854601251,-1.364532875673187,0.4028288465850239,-0.07232412695884705,-0.1179782673716545,-0.05199117213487625,-0.0465051531791687,-0.00679662823677063,0.03330498933792114,1,0.4541822075843811,-0.4466690421104431,0.2881586849689484,0.7149613499641418,-0.9004552960395813,-0.3920223116874695,-0.1884105801582336,0,0,0,-1,156174.1753152917,3,2,1561824431.480536,1561824121.559794,12,3.602502,0,0,10.50458,0,0,1561824170.876706,156178.774019,0,0.6262207,75.371,0,182478453,3,1,0.31,-26.44663,-32.95056,4
1561824439.433881,5,0,0,1561824438.994464,4.634769838307644,-74.15106506093791,2553.835,0,118.125,3,10,-9999,1561824439.426151,-21.50596618652344,9.494625091552734,18.47613525390625,47.00939178466797,54.50258636474609,15,156182.140785375,-0.9289093017578125,-0.392822265625,-0.169586181640625,156182.138741375,-0.1292203045161708,0.01371208382059998,-0.08518360431116551,156182.125465375,-100.4462890625,-18.18051147460938,-544.6710205078125,156182.133675375,1.092350019192749,-1.364606263547735,0.4039399854409252,-0.1306492239236832,-0.004625878296792507,-0.09073483943939209,-0.03725934028625488,-0.00792616605758667,0.0241163969039917,1,0.4539205729961395,-0.4470218122005463,0.2868492305278778,0.7154335379600525,-0.9000423550605774,-0.3930442631244659,-0.1882552206516266,0,0,0,-1,156174.1753152917,3,2,1561824431.480536,1561824121.559794,12,3.602502,0,0,10.50458,0,0,1561824170.876706,156179.71762,0,0.8295898,75.36908,0,182478453,3,1,0.31,-26.44663,-33.75681,4
1561824439.451878,6,0,0,1561824438.994464,4.634769838307644,-74.15106506093791,2553.835,0,118.125,3,10,-9999,1561824439.426151,-21.50596618652344,9.494625091552734,18.47613525390625,47.00939178466797,54.50258636474609,15,156182.161018375,-0.906707763671875,-0.392242431640625,-0.1856689453125,156182.159004375,-0.09529749118295942,0.04269872807334944,-0.07358340723499836,156182.145546375,-100.2384948730469,-18.53025817871094,-544.4080810546875,156182.153938375,1.089299942862928,-1.363104449040859,0.4051233857399898,-0.1074355095624924,0.03342802822589874,-0.07999031245708466,-0.01729261875152588,0.001737117767333984,0.01079976558685303,1,0.4533698260784149,-0.446878582239151,0.285737931728363,0.7163164019584656,-0.8993028402328491,-0.3941321671009064,-0.1895106732845306,0,0,0,-1,156174.1753152917,3,2,1561824431.480536,1561824121.559794,12,3.602502,0,0,10.50458,0,0,1561824170.876706,156179.71762,0,0.8295898,75.36908,0,182478453,3,1,0.31,-26.44663,-33.46784,4
1561824439.471892,7,0,0,1561824438.994464,4.634769838307644,-74.15106506093791,2553.835,0,118.125,3,10,-9999,1561824439.452091,-21.34610748291016,9.267021179199219,18.703125,47.21651840209961,54.70971298217773,15,156182.181282375,-0.89617919921875,-0.38568115234375,-0.1929473876953125,156182.179268375,-0.04258288056593099,0.05974801905592771,-0.07591766793045281,156182.165657375,-100.4607849121094,-18.45039367675781,-544.6278076171875,156182.174202375,1.087147991651182,-1.361424510546376,0.4063093584625187,-0.05869673192501068,0.05198759958148003,-0.07854848355054855,-0.003116488456726074,0.005130916833877563,2.115964889526367e-05,1,0.4529966413974762,-0.4464662373065948,0.2849864661693573,0.7171085476875305,-0.8985253572463989,-0.3952218592166901,-0.190923884510994,0,0,0,-1,156174.1753152917,3,2,1561824431.480536,1561824121.559794,12,3.602502,0,0,10.50458,0,0,1561824170.876706,156179.71762,0,0.8295898,75.36908,0,182478453,3,1,0.31,-26.44663,-33.46784,4
1561824439.492212,8,0,0,1561824438.994464,4.634769838307644,-74.15106506093791,2553.835,0,118.125,3,10,-9999,1561824439.47663,-21.49163055419922,9.152917861938477,18.55413818359375,47.33509826660156,54.82829284667969,15,156182.201546375,-0.888397216796875,-0.3835296630859375,-0.188690185546875,156182.199532375,-0.01644022604127715,0.04441060802205237,-0.07309018980111569,156182.185768375,-100.4631195068359,-18.60505676269531,-544.6690673828125,156182.194466375,1.086080291152247,-1.35993277428122,0.4076910552380191,-0.01932775601744652,0.05157187953591347,-0.07773595303297043,0.007033944129943848,0.0118471086025238,0.002498090267181396,1,0.4529508948326111,-0.4458258748054504,0.2845208942890167,0.7177204489707947,-0.8977046608924866,-0.3964906930923462,-0.1921495497226715,0,0,0,-1,156174.1753152917,3,2,1561824431.480536,1561824121.559794,12,3.602502,0,0,10.50458,0,0,1561824170.876706,156179.71762,0,0.8295898,75.36908,0,182478453,3,1,0.31,-26.44663,-33.74209,4
1561824439.524746,9,0,0,1561824438.994464,4.634769838307644,-74.15106506093791,2553.835,0,118.125,3,10,-9999,1561824439.503005,-21.74275207519531,9.116497039794922,18.54559326171875,47.38764190673828,54.88083648681641,15,156182.221809375,-0.877197265625,-0.377166748046875,-0.184539794921875,156182.219795375,-0.01219115252205573,0.0047255130382366,-0.05362141696820042,156182.205849375,-100.7701721191406,-18.68388366699219,-544.6395263671875,156182.214699375,1.085446333107815,-1.359171110568691,0.4089779240674767,-0.01570239663124084,0.00660973135381937,-0.05754652619361877,0.01192677021026611,0.01687341928482056,0.004936039447784424,1,0.4530785381793976,-0.4453727304935455,0.2840743362903595,0.7180981040000916,-0.8970586061477661,-0.3976717591285706,-0.1927259415388107,0,0,0,-1,156174.1753152917,3,2,1561824431.480536,1561824121.559794,12,3.602502,0,0,10.50458,0,0,1561824170.876706,156179.71762,0,0.8295898,75.36908,0,182478453,3,1,0.31,-26.44663,-32.62379,4
1561824439.5327,10,0,0,1561824438.994464,4.634769838307644,-74.15106506093791,2553.835,0,118.125,3,10,-9999,1561824439.527304,-21.75688934326172,9.297023773193359,18.50482177734375,47.4311637878418,54.92435836791992,15,156182.242073375,-0.8723907470703125,-0.385040283203125,-0.1853179931640625,156182.240028375,-0.03216486069765002,0.04445321859949364,-0.01358691524936626,156182.225960375,-100.7741546630859,-18.34014892578125,-544.6871337890625,156182.234963375,1.084851799492894,-1.358928319467624,0.4098286017029674,-0.02732674404978752,0.01461124513298273,-0.02916868589818478,0.02564793825149536,0.01869142055511475,0.009309291839599609,1,0.4531610906124115,-0.4452064335346222,0.2836569845676422,0.7183140516281128,-0.8966807126998901,-0.3984521329402924,-0.1928725093603134,0,0,0,-1,156174.1753152917,3,2,1561824431.480536,1561824121.559794,12,3.602502,0,0,10.50458,0,0,1561824170.876706,156179.71762,0,0.8295898,75.36908,0,182478453,3,1,0.31,-26.44663,-32.62379,4
1561824439.553156,11,0,0,1561824438.994464,4.634769838307644,-74.15106506093791,2553.835,0,118.125,3,10,-9999,1561824439.527304,-21.75688934326172,9.297023773193359,18.50482177734375,47.4311637878418,54.92435836791992,15,156182.262337375,-0.879058837890625,-0.3884429931640625,-0.1885833740234375,156182.260292375,-0.04949751202021272,0.1197743384457687,0.01430543611146964,156182.246071375,-100.4448394775391,-18.49465942382812,-544.6578369140625,156182.255226375,1.083975599760913,-1.357326748653261,0.4098172400270808,-0.05006720870733261,0.09962920099496841,0.00646041426807642,0.02406048774719238,0.01198235154151917,0.0092659592628479,1,0.4527356624603271,-0.4448322951793671,0.2837083339691162,0.7187935709953308,-0.8963749408721924,-0.3984417021274567,-0.1943092942237854,0,0,0,-1,156174.1753152917,3,2,1561824431.480536,1561824121.559794,12,3.602502,0,0,10.50458,0,0,1561824170.876706,156179.71762,0,0.8295898,75.36908,0,182478453,3,1,0.31,-26.44663,-32.62331,4
1561824439.574321,12,0,0,1561824438.994464,4.634769838307644,-74.15106506093791,2553.835,0,118.125,3,10,-9999,1561824439.553433,-21.52180480957031,9.176429748535156,18.54290771484375,47.49991226196289,54.99310684204102,15,156182.282600375,-0.890869140625,-0.3951568603515625,-0.1870574951171875,156182.280556375,-0.04298634947107799,0.1260498112384314,0.004856007931650483,156182.266151375,-100.7332916259766,-18.72776794433594,-544.7188720703125,156182.275490375,1.082981427091268,-1.35451326477713,0.4093652436148343,-0.04467430710792542,0.1258735954761505,0.007929413579404354,0.009373366832733154,0.004777610301971436,0.01058977842330933,1,0.4519824981689453,-0.444159060716629,0.2841245830059052,0.7195191383361816,-0.8960005640983582,-0.398027092218399,-0.1968691051006317,0,0,0,-1,156174.1753152917,3,2,1561824431.480536,1561824121.559794,12,3.602502,0,0,10.50458,0,0,1561824170.876706,156179.71762,0,0.8295898,75.36908,0,182478453,3,1,0.31,-26.44663,-33.09494,4
1561824439.598626,13,0,0,1561824438.994464,4.634769838307644,-74.15106506093791,2553.835,0,118.125,3,10,-9999,1561824439.579179,-21.69812774658203,9.062255859375,18.46258544921875,47.56915664672852,55.06235122680664,15,156182.302834375,-0.8871612548828125,-0.3975982666015625,-0.185455322265625,156182.300819375,0.003084739490638782,0.07072184064370822,-0.04133012958915772,156182.286263375,-100.6660461425781,-18.68490600585938,-544.7288818359375,156182.295754375,1.082185241730771,-1.352016277438939,0.4094100288313894,-0.01174272410571575,0.07900062203407288,-0.0335991233587265,0.003963589668273926,0.003369063138961792,0.01178503036499023,1,0.4514641165733337,-0.4434289038181305,0.284388393163681,0.7201904058456421,-0.8954887986183167,-0.3980681896209717,-0.199101909995079,0,0,0,-1,156174.1753152917,3,2,1561824431.480536,1561824121.559794,12,3.602502,0,0,10.50458,0,0,1561824170.876706,156179.71762,0,0.8295898,75.36908,0,182478453,3,1,0.31,-26.44663,-33.27261,4
1561824439.613832,14,0,0,1561824438.994464,4.634769838307644,-74.15106506093791,2553.835,0,118.125,3,10,-9999,1561824439.603973,-21.68090057373047,9.04566764831543,18.40228271484375,47.5846061706543,55.07780075073242,15,156182.323097375,-0.874298095703125,-0.3954620361328125,-0.181060791015625,156182.321083375,0.03811888994674017,0.04399355699534596,-0.05684330925497828,156182.306374375,-100.7009124755859,-18.67597961425781,-544.74462890625,156182.316017375,1.082243552437898,-1.3508566999575,0.41045932570319,0.0341227687895298,0.0452628955245018,-0.06219561398029327,0.01366937160491943,0.002271503210067749,0.01767587661743164,1,0.4516212940216064,-0.4427343904972076,0.2843528985977173,0.7205330729484558,-0.8948491811752319,-0.3990305364131927,-0.2000489383935928,0,0,0,-1,156174.1753152917,3,2,1561824431.480536,1561824121.559794,12,3.602502,0,0,10.50458,0,0,1561824170.876706,156179.71762,0,0.8295898,75.36908,0,182478453,3,1,0.31,-26.44663,-33.27261,4
1561824439.633972,15,0,0,1561824438.994464,4.634769838307644,-74.15106506093791,2553.835,0,118.125,3,10,-9999,1561824439.628783,-21.55381011962891,9.248289108276367,18.37603759765625,47.5549430847168,55.04813766479492,15,156182.343361375,-0.86395263671875,-0.3958587646484375,-0.1798095703125,156182.341347375,0.01379943550435458,0.05015850860277039,-0.01558215553805362,156182.326454375,-100.4684448242188,-18.40130615234375,-544.7634887695312,156182.336281375,1.082691392070205,-1.350177676571413,0.4116142811898792,0.01932597905397415,0.0486307293176651,-0.03279431164264679,0.02382516860961914,0.001514464616775513,0.01920485496520996,1,0.4519640803337097,-0.442098081111908,0.2843173742294312,0.7207227945327759,-0.8942627906799316,-0.400089293718338,-0.2005555182695389,0,0,0,-1,156174.1753152917,3,2,1561824431.480536,1561824121.559794,12,3.602502,0,0,10.50458,0,0,1561824170.876706,156179.71762,0,0.8295898,75.36908,0,182478453,3,1,0.31,-26.44663,-27.91835,4
1561824439.6551,16,0,0,1561824438.994464,4.634769838307644,-74.15106506093791,2553.835,0,118.125,3,10,-9999,1561824439.628783,-21.55381011962891,9.248289108276367,18.37603759765625,47.5549430847168,55.04813766479492,15,156182.363625375,-0.8681640625,-0.388946533203125,-0.17303466796875,156182.361610375,0.02017211367680519,0.03307965653209223,0.02278760418337201,156182.346565375,-100.7200164794922,-18.6815185546875,-544.6630249023438,156182.356545375,1.08294314612901,-1.349506985035523,0.4117562558748463,0.01555174682289362,0.02869643643498421,0.01818444766104221,0.0277245044708252,0.01028105616569519,0.02075338363647461,1,0.4519661366939545,-0.4417637586593628,0.2845166325569153,0.7208479046821594,-0.8940727114677429,-0.4002194106578827,-0.2011427879333496,0,0,0,-1,156174.1753152917,3,2,1561824431.480536,1561824121.559794,12,3.602502,0,0,10.50458,0,0,1561824170.876706,156179.71762,0,0.8295898,75.36908,0,182478453,3,1,0.31,-26.44663,-27.97256,4
1561824439.68309,17,0,0,1561824438.994464,4.634769838307644,-74.15106506093791,2553.835,0,118.125,3,10,-9999,1561824439.679416,-21.90133666992188,9.124727249145508,18.35382080078125,47.53059387207031,55.02378845214844,15,156182.383888375,-0.8801727294921875,-0.391693115234375,-0.169036865234375,156182.381874375,-0.003081277381221679,0.0288404367089041,-0.004746285694739219,156182.366646375,-100.9613189697266,-18.77877807617188,-544.7900390625,156182.376778375,1.083295935254603,-1.349107589063728,0.4115400997424145,0.0003895723493769765,0.02598533779382706,0.0001990562304854393,0.02060264348983765,0.009167402982711792,0.03292453289031982,1,0.4519234895706177,-0.4415945112705231,0.2847995758056641,0.7208666801452637,-0.8940767645835876,-0.4000213146209717,-0.2015188932418823,0,0,0,-1,156174.1753152917,3,2,1561824431.480536,1561824121.559794,12,3.602502,0,0,10.50458,0,0,1561824170.876706,156179.71762,0,0.8295898,75.36908,0,182478453,3,1,0.31,-26.44663,-28.25127,4
1561824439.694811,18,0,0,1561824438.994464,4.634769838307644,-74.15106506093791,2553.835,0,118.125,3,10,-9999,1561824439.679416,-21.90133666992188,9.124727249145508,18.35382080078125,47.53059387207031,55.02378845214844,15,156182.404152375,-0.8824310302734375,-0.3868560791015625,-0.165618896484375,156182.402107375,-0.02230503939384965,0.05086983892993055,-0.02396951507514918,156182.386757375,-100.9071502685547,-18.60920715332031,-544.8193359375,156182.397041375,1.083026089311252,-1.348463003665075,0.4117829063117812,-0.01713296212255955,0.03886039182543755,-0.02516276016831398,0.01195478439331055,0.01001554727554321,0.03419649600982666,1,0.4518437385559082,-0.4413619637489319,0.2847743332386017,0.7210689187049866,-0.8938517570495605,-0.4002438485622406,-0.2020737081766129,0,0,0,-1,156174.1753152917,3,2,1561824431.480536,1561824121.559794,12,3.602502,0,0,10.50458,0,0,1561824170.876706,156179.71762,0,0.8295898,75.36908,0,182478453,3,1,0.31,-26.44663,-29.14088,4
1561824439.71497,19,0,0,1561824438.994464,4.634769838307644,-74.15106506093791,2553.835,0,118.125,3,10,-9999,1561824439.705708,-21.78540802001953,9.076995849609375,18.29351806640625,47.57617568969727,55.06937026977539,15,156182.424416375,-0.87445068359375,-0.3792266845703125,-0.16949462890625,156182.422371375,-0.04597042147251178,0.09520374791258863,-0.0269011228031084,156182.406868375,-100.6710968017578,-18.64886474609375,-544.9694213867188,156182.417305375,1.08227618758055,-1.347082455051789,0.4122075518338942,-0.04110460728406906,0.07413209974765778,-0.03071118891239166,0.01393532752990723,0.01894959807395935,0.0349348783493042,1,0.4516069889068604,-0.4409265518188477,0.2846870720386505,0.7215179800987244,-0.8934062123298645,-0.4006329476833344,-0.2032698094844818,0,0,0,-1,156174.1753152917,3,2,1561824431.480536,1561824121.559794,12,3.602502,0,0,10.50458,0,0,1561824170.876706,156179.71762,0,0.8295898,75.36908,0,182478453,3,1,0.31,-26.44663,-29.34505,4
1561824439.748103,20,0,0,1561824438.994464,4.634769838307644,-74.15106506093791,2553.835,0,118.125,3,10,-9999,1561824439.729915,-21.72417449951172,9.061294555664062,18.4266357421875,47.67353439331055,55.16672897338867,15,156182.444679375,-0.8603363037109375,-0.385009765625,-0.181488037109375,156182.442635375,-0.08754130082421266,0.1140432157799182,0.004188353446367618,156182.426949375,-100.7003784179688,-18.6199951171875,-544.7767333984375,156182.437569375,1.080914215107252,-1.344549377887942,0.412452016489435,-0.07889991998672485,0.114312008023262,-0.01194682251662016,0.02589535713195801,0.01827329397201538,0.03177368640899658,1,0.4510185718536377,-0.4402580261230469,0.2846930623054504,0.7222914695739746,-0.8927929401397705,-0.4008569121360779,-0.2055102437734604,0,0,0,-1,156174.1753152917,3,2,1561824431.480536,1561824121.559794,12,3.602502,0,0,10.50458,0,0,1561824170.876706,156179.71762,0,0.8295898,75.36908,0,182478453,3,1,0.31,-26.44663,-29.4488,4
1561824439.755651,21,0,0,1561824438.994464,4.634769838307644,-74.15106506093791,2553.835,0,118.125,3,10,-9999,1561824439.729915,-21.72417449951172,9.061294555664062,18.4266357421875,47.67353439331055,55.16672897338867,15,156182.464912375,-0.8599395751953125,-0.3779449462890625,-0.192718505859375,156182.462898375,-0.08610425910000589,0.02636502847567545,0.05962524732967506,156182.447060375,-100.7331390380859,-18.86738586425781,-544.9269409179688,156182.457832375,1.079004879522581,-1.34199468139125,0.4117451731954492,-0.09587863832712173,0.04823072254657745,0.04144183546304703,0.03417283296585083,0.01867848634719849,0.02163636684417725,1,0.4500255584716797,-0.4399428367614746,0.2847923636436462,0.7230633497238159,-0.8925407528877258,-0.4002092480659485,-0.2078545987606049,0,0,0,-1,156174.1753152917,3,2,1561824431.480536,1561824121.559794,12,3.602502,0,0,10.50458,0,0,1561824170.876706,156179.71762,0,0.8295898,75.36908,0,182478453,3,1,0.31,-27.00391,-30.38117,4
1561824439.775702,22,0,0,1561824438.994464,4.634769838307644,-74.15106506093791,2553.835,0,118.125,3,10,-9999,1561824439.755823,-21.75601196289062,8.834951400756836,18.25152587890625,47.80840301513672,55.30159759521484,15,156182.485176375,-0.8726043701171875,-0.39154052734375,-0.2066650390625,156182.483162375,-0.05274070959571122,-0.01462794491947823,0.09693054156339602,156182.467171375,-100.7701568603516,-18.6865234375,-544.8199462890625,156182.478096375,1.077635008587928,-1.341388309822607,0.4100418128543273,-0.06374547630548477,-0.02010013163089752,0.08901361376047134,0.02828526496887207,0.01502645015716553,0.009209632873535156,1,0.4491326808929443,-0.4404595196247101,0.2849480211734772,0.7232426404953003,-0.8930771350860596,-0.398647665977478,-0.2085504978895187,0,0,0,-1,156174.1753152917,3,2,1561824431.480536,1561824121.559794,12,3.602502,0,0,10.50458,0,0,1561824170.876706,156179.71762,0,0.8295898,75.36908,0,182478453,3,1,0.31,-27.00391,-30.38117,4
1561824439.796202,23,0,0,1561824438.994464,4.634769838307644,-74.15106506093791,2553.835,0,118.125,3,10,-9999,1561824439.780666,-21.72525024414062,8.714321136474609,18.4476318359375,47.87660980224609,55.36980438232422,15,156182.505440375,-0.8891143798828125,-0.39697265625,-0.214111328125,156182.503426375,-0.008717591512265378,0.0223066372905037,0.103886984646792,156182.487282375,-100.6676025390625,-19.08439636230469,-544.6529541015625,156182.498360375,1.077245097394425,-1.341490645074352,0.4079198110198333,-0.01844643242657185,0.008186900988221169,0.1008100882172585,0.0137169361114502,0.001467525959014893,-0.002729058265686035,1,0.4484314918518066,-0.4411164820194244,0.2854249179363251,0.7230892181396484,-0.8939201831817627,-0.3967006802558899,-0.2086508870124817,0,0,0,-1,156174.1753152917,3,2,1561824431.480536,1561824121.559794,12,3.602502,0,0,10.50458,0,0,1561824170.876706,156179.71762,0,0.8295898,75.36908,0,182478453,3,1,0.31,-27.56119,-27.82142,4
1561824439.83945,24,0,0,1561824438.994464,4.634769838307644,-74.15106506093791,2553.835,0,118.125,3,10,-9999,1561824439.833895,-21.85225677490234,9.057571411132812,18.40350341796875,47.85632705688477,55.34952163696289,15,156182.525703375,-0.90679931640625,-0.3965301513671875,-0.2194671630859375,156182.523689375,-0.01330568543825389,0.06827705876301547,0.0814426619279312,156182.507362375,-100.9576416015625,-18.7247314453125,-544.9380493164062,156182.518593375,1.077531895496684,-1.340986087743707,0.4059671786566445,-0.0111280670389533,0.05734192952513695,0.08578266948461533,-0.005472421646118164,-0.001698911190032959,-0.009395778179168701,1,0.4478425681591034,-0.4413593411445618,0.2862310111522675,0.7229872941970825,-0.8945672512054443,-0.3949075043201447,-0.2092779278755188,0,0,0,-1,156174.1753152917,3,2,1561824431.480536,1561824121.559794,12,3.602502,0,0,10.50458,0,0,1561824170.876706,156179.71762,0,0.8295898,75.36908,0,182478453,3,1,0.31,-28.45744,-29.13605,4
1561824439.841883,25,0,0,1561824438.994464,4.634769838307644,-74.15106506093791,2553.835,0,118.125,3,10,-9999,1561824439.833895,-21.85225677490234,9.057571411132812,18.40350341796875,47.85632705688477,55.34952163696289,15,156182.545967375,-0.9177093505859375,-0.3994903564453125,-0.2163543701171875,156182.543922375,0.002965962506021247,0.07779759334393975,0.04805700818658886,156182.527473375,-100.7816162109375,-18.61198425292969,-544.71337890625,156182.538857375,1.077643464164554,-1.339748099391893,0.4045359941882291,-0.006425457075238228,0.06685714423656464,0.05510145425796509,-0.01746618747711182,-0.005150407552719116,-0.006892800331115723,1,0.4472641348838806,-0.4412454664707184,0.286980003118515,0.723118007183075,-0.8948568105697632,-0.3935922384262085,-0.2105144709348679,0,0,0,-1,156174.1753152917,3,2,1561824431.480536,1561824121.559794,12,3.602502,0,0,10.50458,0,0,1561824170.876706,156179.71762,0,0.8295898,75.36908,0,182478453,3,1,0.31,-28.45744,-29.13605,4
1561824439.857043,26,0,0,1561824438.994464,4.634769838307644,-74.15106506093791,2553.835,0,118.125,3,10,-9999,1561824439.833895,-21.85225677490234,9.057571411132812,18.40350341796875,47.85632705688477,55.34952163696289,15,156182.566231375,-0.91522216796875,-0.4006805419921875,-0.2090606689453125,156182.564186375,0.02233593206249457,0.08767951888478777,0.01794997206324307,156182.547585375,-101.0608062744141,-18.67001342773438,-544.9619750976562,156182.559120375,1.077942802860471,-1.338377494981436,0.4038390795410856,0.01468408945947886,0.07786212116479874,0.0211461503058672,-0.02327185869216919,-0.007240772247314453,-0.0007662773132324219,1,0.4469257891178131,-0.4408575594425201,0.2876046299934387,0.7233156561851501,-0.8948342204093933,-0.392951488494873,-0.2118038982152939,0,0,0,-1,156174.1753152917,3,2,1561824431.480536,1561824121.559794,12,3.602502,0,0,10.50458,0,0,1561824170.876706,156179.71762,0,0.8295898,75.36908,0,182478453,3,1,0.31,-27.54213,-29.5867,4
1561824439.87706,27,0,0,1561824438.994464,4.634769838307644,-74.15106506093791,2553.835,0,118.125,3,10,-9999,1561824439.857528,-22.00815582275391,9.049674987792969,18.24090576171875,47.83065414428711,55.32384872436523,15,156182.586494375,-0.9122467041015625,-0.397857666015625,-0.205474853515625,156182.584450375,0.03807201831155477,0.04702929432192728,0.02901993376637544,156182.567665375,-100.9427947998047,-18.56402587890625,-544.86376953125,156182.579384375,1.078573295054917,-1.337142716336285,0.4036265606524813,0.03399360552430153,0.05263106524944305,0.02320290915668011,-0.01757830381393433,-0.006917387247085571,0.00646132230758667,1,0.4468236565589905,-0.4403233230113983,0.2881725430488586,0.7234780788421631,-0.8946531414985657,-0.3927560448646545,-0.212927982211113,0,0,0,-1,156174.1753152917,3,2,1561824431.480536,1561824121.559794,12,3.602502,0,0,10.50458,0,0,1561824170.876706,156179.71762,0,0.8295898,75.36908,0,182478453,3,1,0.31,-27.54213,-27.59713,4
1561824439.921698,28,0,0,1561824438.994464,4.634769838307644,-74.15106506093791,2553.835,0,118.125,3,10,-9999,1561824439.909636,-21.8861083984375,9.050601959228516,18.2086181640625,47.73697662353516,55.23017120361328,15,156182.606728375,-0.91534423828125,-0.395416259765625,-0.19970703125,156182.604713375,0.02194418106614391,0.04788123955464363,0.01795050469546109,156182.587776375,-100.9287719726562,-18.62290954589844,-545.139404296875,156182.599648375,1.079507249113443,-1.33664469403212,0.4033243248368406,0.03160634636878967,0.04014483466744423,0.01952534914016724,-0.01901853084564209,-0.002449870109558105,0.01351094245910645,1,0.4468673169612885,-0.4400103092193604,0.2887125909328461,0.7234262824058533,-0.8946624994277954,-0.3924780786037445,-0.2134010642766953,0,0,0,-1,156174.1753152917,3,2,1561824431.480536,1561824121.559794,12,3.602502,0,0,10.50458,0,0,1561824170.876706,156179.71762,0,0.8295898,75.36908,0,182478453,3,1,0.31,-27.1644,-28.6449,4
1561824439.925253,29,0,0,1561824438.994464,4.634769838307644,-74.15106506093791,2553.835,0,118.125,3,10,-9999,1561824439.909636,-21.8861083984375,9.050601959228516,18.2086181640625,47.73697662353516,55.23017120361328,15,156182.626991375,-0.915924072265625,-0.39630126953125,-0.2012176513671875,156182.624977375,0.00290284558818637,0.04735606418768001,0.000828509415123651,156182.607857375,-100.8887023925781,-18.67582702636719,-544.9805908203125,156182.619911375,1.079801755804193,-1.335875448887518,0.4031636608458403,-0.00307413493283093,0.04321439191699028,0.0009311591275036335,-0.02044910192489624,-0.005222141742706299,0.01282525062561035,1,0.4467730820178986,-0.439706563949585,0.2890393137931824,0.7235387563705444,-0.8945594429969788,-0.3923303186893463,-0.2141039073467255,0,0,0,-1,156174.1753152917,3,2,1561824431.480536,1561824121.559794,12,3.602502,0,0,10.50458,0,0,1561824170.876706,156179.71762,0,0.8295898,75.36908,0,182478453,3,1,0.31,-27.1644,-28.6449,4
1561824439.937817,30,0,0,1561824438.994464,4.634769838307644,-74.15106506093791,2553.835,0,118.125,3,10,-9999,1561824439.932478,-21.99610900878906,9.027971267700195,18.29534912109375,47.73490524291992,55.22809982299805,15,156182.647255375,-0.90704345703125,-0.3954620361328125,-0.194488525390625,156182.645241375,0.0006162554762443358,0.06378590390070585,-0.007398527824349132,156182.648048375,-100.7505798339844,-18.55340576171875,-545.0186767578125,156182.640175375,1.079867280895745,-1.334989686793237,0.4032572353560726,0.006420833058655262,0.05535361170768738,-0.009787531569600105,-0.01959145069122314,-0.002465814352035522,0.01676750183105469,1,0.4466873407363892,-0.4393479526042938,0.2892327308654785,0.7237321734428406,-0.8943337202072144,-0.392416387796402,-0.2148875892162323,0,0,0,-1,156174.1753152917,3,2,1561824431.480536,1561824121.559794,12,3.602502,0,0,10.50458,0,0,1561824170.876706,156179.71762,0,0.8295898,75.36908,0,182478453,3,1,0.31,-27.1644,-28.6449,4
1561824439.958044,31,0,0,1561824438.994464,4.634769838307644,-74.15106506093791,2553.835,0,118.125,3,10,-9999,1561824439.932478,-21.99610900878906,9.027971267700195,18.29534912109375,47.73490524291992,55.22809982299805,15,156182.667519375,-0.905609130859375,-0.400238037109375,-0.209686279296875,156182.665505375,-0.04193200399551562,0.07050639091152081,0.006034989346228562,156182.668160375,-100.7245635986328,-18.61683654785156,-545.2108764648438,156182.660439375,1.079564009296913,-1.33369569761121,0.4033566433547952,-0.03551729395985603,0.0635625422000885,-0.0005165352486073971,-0.01043242216110229,-0.006692588329315186,0.01193392276763916,1,0.4464631974697113,-0.4389223754405975,0.2893820405006409,0.7240689992904663,-0.8940170407295227,-0.3925078213214874,-0.2160355299711227,0,0,0,-1,156174.1753152917,3,2,1561824431.480536,1561824121.559794,12,3.602502,0,0,10.50458,0,0,1561824170.876706,156179.71762,0,0.8295898,75.36908,0,182478453,3,1,0.31,-27.1644,-28.87985,4
1561824440.000529,32,0,0,1561824438.994464,4.634769838307644,-74.15106506093791,2553.835,0,118.125,3,10,-9999,1561824439.983187,-21.75482177734375,9.160953521728516,18.03680419921875,47.80323028564453,55.29642486572266,15,156182.687782375,-0.90771484375,-0.3935394287109375,-0.2138519287109375,156182.685768375,-0.01024677861018888,0.04552487462214152,0.01440104359460348,156182.688240375,-100.7562866210938,-18.52554321289062,-545.1914672851562,156182.680672375,1.078788756841387,-1.332143775597015,0.4030696531076772,-0.02585055306553841,0.0549490787088871,0.0116397300735116,-0.01072037220001221,-0.003675997257232666,0.007457852363586426,1,0.4459828436374664,-0.4386053383350372,0.2895337045192719,0.7244963645935059,-0.893790066242218,-0.3922438323497772,-0.2174493223428726,0,0,0,-1,156174.1753152917,3,2,1561824431.480536,1561824121.559794,12,3.602502,0,0,10.50458,0,0,1561824170.876706,156179.71762,0,0.8295898,75.36908,0,182478453,3,1,0.31,-27.1644,-29.21903,4
1561824440.003053,33,0,0,1561824438.994464,4.634769838307644,-74.15106506093791,2553.835,0,118.125,3,10,-9999,1561824439.983187,-21.75482177734375,9.160953521728516,18.03680419921875,47.80323028564453,55.29642486572266,15,156182.708046375,-0.898529052734375,-0.3979949951171875,-0.20849609375,156182.706001375,0.03809811729023755,0.00720624759364541,-0.01475045032962188,156182.708351375,-100.9372711181641,-18.49285888671875,-545.0437622070312,156182.700935375,1.078909354241348,-1.331639360166947,0.4029967575632287,0.0302305594086647,0.009040444158017635,-0.009385660290718079,-0.01174861192703247,-0.002934306859970093,0.005290865898132324,1,0.4459145069122314,-0.4384139776229858,0.2897117137908936,0.7245829701423645,-0.8937079310417175,-0.3921767771244049,-0.2179068773984909,0,0,0,-1,156174.1753152917,3,2,1561824431.480536,1561824121.559794,12,3.602502,0,0,10.50458,0,0,1561824170.876706,156179.71762,0,0.8295898,75.36908,0,182478453,3,1,0.31,-27.1644,-29.21903,4
1561824440.018882,34,0,0,1561824438.994464,4.634769838307644,-74.15106506093791,2553.835,0,118.125,3,10,-9999,1561824440.009831,-21.98577880859375,9.211381912231445,18.14019775390625,47.75949859619141,55.25269317626953,15,156182.7283457917,-0.894775390625,-0.3931884765625,-0.208984375,156182.7263007917,0.05042162891847022,0.001305481566356843,-0.01781867822150217,156182.7284977917,-100.6466064453125,-18.40052795410156,-545.1273803710938,156182.7212347917,1.079645084350818,-1.332020089793587,0.4035536153628496,0.04432613775134087,-0.008453061804175377,-0.02223780937492847,-0.002661705017089844,-0.005336552858352661,0.006653726100921631,1,0.4462971985340118,-0.4382480382919312,0.2897262275218964,0.7244420051574707,-0.8935785889625549,-0.3926889598369598,-0.2175149321556091,0,0,0,-1,156174.1753152917,3,2,1561824431.480536,1561824121.559794,12,3.602502,0,0,10.50458,0,0,1561824170.876706,156179.71762,0,0.8295898,75.36908,0,182478453,3,1,0.31,-26.6411,-29.49229,4
1561824440.039729,35,0,0,1561824438.994464,4.634769838307644,-74.15106506093791,2553.835,0,118.125,3,10,-9999,1561824440.009831,-21.98577880859375,9.211381912231445,18.14019775390625,47.75949859619141,55.25269317626953,15,156182.7486087917,-0.8909759521484375,-0.3836822509765625,-0.1978607177734375,156182.7465647917,0.04535310073183141,0.03080798012225464,-0.004992628095571548,156182.7485787917,-101.1255950927734,-18.5091552734375,-544.911865234375,156182.7414987917,1.08063802015251,-1.33239267247048,0.4041575333723759,0.05102132633328438,0.01761875301599503,-0.01262566260993481,0.0008661746978759766,0.007578432559967041,0.01601517200469971,1,0.4467489123344421,-0.4380096197128296,0.2898214161396027,0.7242697477340698,-0.8934290409088135,-0.3932442963123322,-0.2171259671449661,0,0,0,-1,156174.1753152917,3,2,1561824431.480536,1561824121.559794,12,3.602502,0,0,10.50458,0,0,1561824170.876706,156179.71762,0,0.8295898,75.36908,0,182478453,3,1,0.31,-26.6411,-29.64908,4
1561824440.074724,36,0,0,1561824439.994448,4.634769838307644,-74.15106506093791,2553.885,0,124.8046875,3,10,-9999,1561824440.009831,-21.98577880859375,9.211381912231445,18.14019775390625,47.75949859619141,55.25269317626953,15,156182.7688427917,-0.8767242431640625,-0.3895721435546875,-0.19244384765625,156182.7668277917,-0.005778793249362939,0.05203550453905823,0.002118278331049026,156182.7686897917,-100.93505859375,-18.40898132324219,-545.1497802734375,156182.7617617917,1.081270857203071,-1.331955503739802,0.4044626832154961,0.00683069322258234,0.05102784186601639,-0.006152849644422531,0.008421123027801514,0.007538527250289917,0.02167201042175293,1,0.4469151496887207,-0.4376331865787506,0.2900566458702087,0.7243004441261292,-0.8932172656059265,-0.3935248553752899,-0.2174880802631378,0,0,0,-1,156174.1753152917,3,2,1561824431.480536,1561824121.559794,12,3.602502,0,0,10.50458,0,0,1561824170.876706,156179.71762,0,0.8295898,75.36908,0,182478453,3,1,0.31,-26.6411,-27.79306,4
1561824440.080131,37,0,0,1561824439.994448,4.634769838307644,-74.15106506093791,2553.885,0,124.8046875,3,10,-9999,1561824440.009831,-21.98577880859375,9.211381912231445,18.14019775390625,47.75949859619141,55.25269317626953,15,156182.7891057917,-0.8866729736328125,-0.3877410888671875,-0.1976165771484375,156182.7870917917,-0.007522098498928808,0.03945206838843383,0.03334464106055512,156182.7888007917,-100.6696929931641,-18.3482666015625,-545.1708374023438,156182.7820257917,1.081103574356673,-1.331076636894327,0.4042728404577662,-0.01401706412434578,0.035964734852314,0.02517497912049294,0.01327663660049438,0.003381460905075073,0.01968240737915039,1,0.4466943740844727,-0.4373999834060669,0.29024937748909,0.7245003581047058,-0.8930984139442444,-0.3933503329753876,-0.218290776014328,0,0,0,-1,156174.1753152917,3,2,1561824431.480536,1561824121.559794,12,3.602502,0,0,10.50458,0,0,1561824170.876706,156179.71762,0,0.8295898,75.36908,0,182478453,3,1,0.31,-26.6411,-28.52518,4
1561824440.099971,38,0,0,1561824439.994448,4.634769838307644,-74.15106506093791,2553.885,0,124.8046875,3,10,-9999,1561824440.086491,-21.99174499511719,9.260406494140625,18.0625,47.66424560546875,55.15744018554688,15,156182.8093697917,-0.8938751220703125,-0.38885498046875,-0.1965179443359375,156182.8073557917,-0.008399343762000909,0.03369058568615641,0.01875824145408212,156182.8088817917,-101.2030334472656,-18.27790832519531,-545.3277587890625,156182.8022897917,1.081108103978633,-1.330403572206265,0.4036713474286407,-0.005552206188440323,0.03339744731783867,0.022503562271595,0.00075531005859375,0.006215840578079224,0.0244901180267334,1,0.4464180767536163,-0.4373063445091248,0.2905816733837128,0.7245939373970032,-0.8931808471679688,-0.3927972316741943,-0.2189481258392334,0,0,0,-1,156174.1753152917,3,2,1561824431.480536,1561824121.559794,12,3.602502,0,0,10.50458,0,0,1561824170.876706,156179.71762,0,0.8295898,75.36908,0,182478453,3,1,0.31,-26.6411,-28.52518,4
1561824440.120193,39,0,0,1561824439.994448,4.634769838307644,-74.15106506093791,2553.885,0,124.8046875,3,10,-9999,1561824440.1104,-22.21711730957031,9.365762710571289,17.91253662109375,47.68414688110352,55.17734146118164,15,156182.8296337917,-0.881561279296875,-0.3861541748046875,-0.197601318359375,156182.8276187917,-0.02283660634742947,0.01972763209087097,-0.009758354866268344,156182.8289927917,-100.8375701904297,-18.61537170410156,-544.9293212890625,156182.8225227917,1.080869230513805,-1.32978890407036,0.4035118064556097,-0.0212576650083065,0.01781848818063736,-0.01097530126571655,0.004953861236572266,0.003551393747329712,0.02285677194595337,1,0.4462288916110992,-0.4371770322322845,0.2906801104545593,0.724748969078064,-0.8931069374084473,-0.3926505148410797,-0.2195120304822922,0,0,0,-1,156174.1753152917,3,2,1561824431.480536,1561824121.559794,12,3.602502,0,0,10.50458,0,0,1561824170.876706,156179.71762,0,0.8295898,75.36908,0,182478453,3,1,0.31,-26.6411,-27.30848,4
1561824440.15334,40,0,0,1561824439.994448,4.634769838307644,-74.15106506093791,2553.885,0,124.8046875,3,10,-9999,1561824440.135105,-21.91484832763672,9.161891937255859,18.21551513671875,47.72385406494141,55.21704864501953,15,156182.8498967917,-0.8856353759765625,-0.3837432861328125,-0.200439453125,156182.8478527917,-0.03012807509595741,0.02510695117672202,0.01838033889539988,156182.8490727917,-100.7838439941406,-18.49078369140625,-544.9856567382812,156182.8427867917,1.080313759295152,-1.329278027562844,0.4035037412822344,-0.02710729837417603,0.02119138464331627,0.007374677807092667,0.01070404052734375,0.006763577461242676,0.01902604103088379,1,0.4460308253765106,-0.4371178150177002,0.2905951738357544,0.7249406576156616,-0.8929977416992188,-0.3926430940628052,-0.2199690341949463,0,0,0,-1,156174.1753152917,3,2,1561824431.480536,1561824121.559794,12,3.602502,0,0,10.50458,0,0,1561824170.876706,156179.71762,0,0.8295898,75.36908,0,182478453,3,1,0.31,-26.6411,-27.65373,4
1561824440.161529,41,0,0,1561824439.994448,4.634769838307644,-74.15106506093791,2553.885,0,124.8046875,3,10,-9999,1561824440.135105,-21.91484832763672,9.161891937255859,18.21551513671875,47.72385406494141,55.21704864501953,15,156182.8701607917,-0.8848114013671875,-0.3825225830078125,-0.2021636962890625,156182.8681157917,-0.02134124139534998,-0.01509932443242226,0.03004285394107488,156182.8691837917,-101.1156921386719,-18.65177917480469,-545.1593627929688,156182.8630497917,1.079784693214408,-1.328881392172455,0.4030108865693324,-0.02734511904418468,-0.008723905310034752,0.02424553595483303,0.009751677513122559,0.01186442375183105,0.01980805397033691,1,0.4457101821899414,-0.4372158050537109,0.2906394898891449,0.7250609993934631,-0.8930982351303101,-0.3921897709369659,-0.2203695476055145,0,0,0,-1,156174.1753152917,3,2,1561824431.480536,1561824121.559794,12,3.602502,0,0,10.50458,0,0,1561824170.876706,156179.71762,0,0.8295898,75.36908,0,182478453,3,1,0.31,-26.6411,-27.65373,4
1561824440.180991,42,0,0,1561824439.994448,4.634769838307644,-74.15106506093791,2553.885,0,124.8046875,3,10,-9999,1561824440.165477,-22.12244415283203,9.098108291625977,18.047607421875,47.76201629638672,55.25521087646484,15,156182.8904247917,-0.8904571533203125,-0.386383056640625,-0.207366943359375,156182.8883797917,-0.009505887194928833,-0.01948794759276383,0.02265045138723293,156182.8892647917,-100.8195495605469,-18.59397888183594,-545.1219482421875,156182.8833137917,1.079518485089756,-1.329364950766901,0.4023852956258168,-0.01374116074293852,-0.03638190031051636,0.023593595251441,0.005335450172424316,0.004147768020629883,0.01545220613479614,1,0.4455351233482361,-0.4376074969768524,0.2906226813793182,0.7249389886856079,-0.893442690372467,-0.3916142284870148,-0.2199962586164474,0,0,0,-1,156174.1753152917,3,2,1561824431.480536,1561824121.559794,12,3.602502,0,0,10.50458,0,0,1561824170.876706,156179.71762,0,0.8295898,75.36908,0,182478453,3,1,0.31,-25.66888,-28.18042,4
1561824440.201291,43,0,0,1561824439.994448,4.634769838307644,-74.15106506093791,2553.885,0,124.8046875,3,10,-9999,1561824440.185568,-21.89178466796875,9.134944915771484,18.05255126953125,47.77665710449219,55.26985168457031,15,156182.9106577917,-0.8878173828125,-0.385162353515625,-0.209320068359375,156182.9086437917,-0.04316025389026017,0.04829962216189508,0.01017460694464773,156182.9093757917,-100.8979187011719,-18.45582580566406,-544.940673828125,156182.9035777917,1.079225481478468,-1.329417981428181,0.4019878120954971,-0.03576470166444778,0.02534111961722374,0.00899041723459959,0.004247009754180908,0.005460500717163086,0.01351940631866455,1,0.4453597664833069,-0.4377917647361755,0.2906237840652466,0.7249351143836975,-0.8936055302619934,-0.3912484645843506,-0.2199860960245132,0,0,0,-1,156174.1753152917,3,2,1561824431.480536,1561824121.559794,12,3.602502,0,0,10.50458,0,0,1561824170.876706,156179.71762,0,0.8295898,75.36908,0,182478453,3,1,0.31,-25.66888,-25.89859,4
1561824440.242126,44,0,0,1561824439.994448,4.634769838307644,-74.15106506093791,2553.885,0,124.8046875,3,10,-9999,1561824440.236963,-22.14506530761719,9.15704345703125,18.07891845703125,47.86745071411133,55.36064529418945,15,156182.9309207917,-0.8873291015625,-0.3828125,-0.2074127197265625,156182.9289067917,-0.03541791196918181,0.06999000397615444,0.02761964366521178,156182.9294867917,-101.1363067626953,-18.55201721191406,-545.08984375,156182.9238407917,1.078326647189155,-1.328033380868534,0.40159269332206,-0.04382529109716415,0.06859352439641953,0.01610398665070534,0.009264349937438965,0.00881996750831604,0.01371026039123535,1,0.4448435306549072,-0.4375889301300049,0.2907243967056274,0.725334107875824,-0.8934500813484192,-0.3908848166465759,-0.2212603241205215,0,0,0,-1,156174.1753152917,3,2,1561824431.480536,1561824121.559794,12,3.602502,0,0,10.50458,0,0,1561824170.876706,156179.71762,0,0.8295898,75.36908,0,182478453,3,1,0.31,-25.66888,-26.10748,4
1561824440.245508,45,0,0,1561824439.994448,4.634769838307644,-74.15106506093791,2553.885,0,124.8046875,3,10,-9999,1561824440.236963,-22.14506530761719,9.15704345703125,18.07891845703125,47.86745071411133,55.36064529418945,15,156182.9511847917,-0.8822021484375,-0.3801727294921875,-0.1978607177734375,156182.9491707917,-0.01118900500385891,0.08140058398270794,0.00272840853678618,156182.9495677917,-100.9392242431641,-18.62399291992188,-545.1552734375,156182.9441047917,1.077896996358935,-1.32669096180922,0.4009725588817776,-0.00959568377584219,0.05910893902182579,0.01773410849273205,0.002304434776306152,0.003732502460479736,0.01690590381622314,1,0.444368451833725,-0.4373530149459839,0.2910525798797607,0.7256358861923218,-0.8933872580528259,-0.3903139531612396,-0.2225180417299271,0,0,0,-1,156174.1753152917,3,2,1561824431.480536,1561824121.559794,12,3.602502,0,0,10.50458,0,0,1561824170.876706,156179.71762,0,0.8295898,75.36908,0,182478453,3,1,0.31,-25.66888,-26.10748,4
1561824440.262202,46,0,0,1561824439.994448,4.634769838307644,-74.15106506093791,2553.885,0,124.8046875,3,10,-9999,1561824440.236963,-22.14506530761719,9.15704345703125,18.07891845703125,47.86745071411133,55.36064529418945,15,156182.9714487917,-0.879241943359375,-0.3808746337890625,-0.2007293701171875,156182.9694347917,-0.09960488793005359,0.1321758806939407,-0.01081003718074064,156182.9696787917,-100.9803466796875,-18.64146423339844,-545.2927856445312,156182.9643377917,1.077158976732663,-1.324601283383192,0.4010878574051047,-0.07443220168352127,0.1170177832245827,-0.02785228565335274,0.02115726470947266,0.01799884438514709,0.034004807472229,1,0.4439375996589661,-0.4367295205593109,0.2912142872810364,0.7262099981307983,-0.8928766250610352,-0.3904201090335846,-0.224373459815979,0,0,0,-1,156174.1753152917,3,2,1561824431.480536,1561824121.559794,12,3.602502,0,0,10.50458,0,0,1561824170.876706,156179.71762,0,0.8295898,75.36908,0,182478453,3,1,0.31,-25.66888,-26.10748,4
1561824440.282302,47,0,0,1561824439.994448,4.634769838307644,-74.15106506093791,2553.885,0,124.8046875,3,10,-9999,1561824440.262455,-21.99720764160156,9.096616744995117,17.93560791015625,47.95280456542969,55.44599914550781,15,156182.9917117917,-0.8791351318359375,-0.378082275390625,-0.2044219970703125,156182.9896977917,-0.1389323203794717,0.1508257314916566,0.03023726470065066,156182.9897587917,-101.1827392578125,-18.62994384765625,-545.1603393554688,156182.9846017917,1.074689017477673,-1.320948143377397,0.4005657391188958,-0.1371302157640457,0.1461660712957382,0.01885130442678928,0.01091611385345459,0.006363898515701294,0.0230942964553833,1,0.4427096247673035,-0.4360803961753845,0.2912824749946594,0.7273215651512146,-0.8922484517097473,-0.3899393677711487,-0.2276841551065445,0,0,0,-1,156174.1753152917,3,2,1561824431.480536,1561824121.559794,12,3.602502,0,0,10.50458,0,0,1561824170.876706,156179.71762,0,0.8295898,75.36908,0,182478453,3,1,0.31,-25.4664,-26.64909,4
1561824440.318495,48,0,0,1561824439.994448,4.634769838307644,-74.15106506093791,2553.885,0,124.8046875,3,10,-9999,1561824440.313181,-22.11925506591797,9.099052429199219,17.9495849609375,48.28351211547852,55.77670669555664,15,156183.0119757917,-0.8759613037109375,-0.3838043212890625,-0.2070770263671875,156183.0099307917,-0.1005079658556995,0.08549972153255792,0.05935866490455812,156183.0098697917,-101.1067199707031,-18.61602783203125,-545.25439453125,156183.0048647917,1.072062139075768,-1.317207047453937,0.3992361539805502,-0.1153711155056953,0.1068990975618362,0.04616255313158035,0.01615917682647705,0.008191019296646118,0.02668261528015137,1,0.4411908984184265,-0.4356321692466736,0.2915496230125427,0.7284051775932312,-0.8918915390968323,-0.3887146711349487,-0.2311504036188126,0,0,0,-1,156174.1753152917,3,2,1561824431.480536,1561824121.559794,12,3.602502,0,0,10.50458,0,0,1561824170.876706,156179.71762,0,0.8295898,75.36908,0,182478453,3,1,0.31,-24.49172,-27.31186,4
1561824440.322812,49,0,0,1561824439.994448,4.634769838307644,-74.15106506093791,2553.885,0,124.8046875,3,10,-9999,1561824440.313181,-22.11925506591797,9.099052429199219,17.9495849609375,48.28351211547852,55.77670669555664,15,156183.0322397917,-0.89227294921875,-0.3879547119140625,-0.21649169921875,156183.0301947917,-0.04671157920388083,-0.006575611047514647,0.1008102346394235,156183.0299807917,-100.8744506835938,-18.71453857421875,-545.3001708984375,156183.0251287917,1.070581032511634,-1.315579290018172,0.3974297369790787,-0.06133025139570236,0.002024346496909857,0.09303685277700424,0.007166862487792969,0.0001020431518554688,0.02036112546920776,1,0.4400843381881714,-0.4358169436454773,0.2919065058231354,0.7288208603858948,-0.8921919465065002,-0.387049674987793,-0.2327787280082703,0,0,0,-1,156174.1753152917,3,2,1561824431.480536,1561824121.559794,12,3.602502,0,0,10.50458,0,0,1561824170.876706,156179.71762,0,0.8295898,75.36908,0,182478453,3,1,0.31,-24.49172,-27.31186,4
1561824440.34307,50,0,0,1561824439.994448,4.634769838307644,-74.15106506093791,2553.885,0,124.8046875,3,10,-9999,1561824440.337683,-22.00576019287109,9.028955459594727,17.89776611328125,48.30507278442383,55.79826736450195,15,156183.0525027917,-0.9005584716796875,-0.38934326171875,-0.2182159423828125,156183.0504587917,-0.01606179085037689,-0.03218589967026164,0.1080103569625617,156183.0500617917,-100.96923828125,-18.46476745605469,-545.2984008789062,156183.0453927917,1.070316616459694,-1.31589214544574,0.3952847079664921,-0.02301934733986855,-0.03449824452400208,0.103141687810421,-0.0007632970809936523,-0.0005339086055755615,0.0179867148399353,1,0.4394225180149078,-0.436524510383606,0.29237961769104,0.7286070585250854,-0.8930660486221313,-0.3850709497928619,-0.2327084094285965,0,0,0,-1,156174.1753152917,3,2,1561824431.480536,1561824121.559794,12,3.602502,0,0,10.50458,0,0,1561824170.876706,156179.71762,0,0.8295898,75.36908,0,182478453,3,1,0.31,-20.45706,-25.19658,4
1561824440.363593,51,0,0,1561824439.994448,4.634769838307644,-74.15106506093791,2553.885,0,124.8046875,3,10,-9999,1561824440.337683,-22.00576019287109,9.028955459594727,17.89776611328125,48.30507278442383,55.79826736450195,15,156183.0727367917,-0.9088897705078125,-0.390533447265625,-0.213409423828125,156183.0707217917,0.006603041606742463,-0.01815210598998009,0.07816857168378778,156183.0701727917,-101.0889587402344,-18.65385437011719,-545.1453247070312,156183.0656557917,1.070664257922699,-1.316642331604143,0.3933274899475134,0.003387759206816554,-0.01783591136336327,0.08332270383834839,-0.01153409481048584,-0.007773071527481079,0.01370632648468018,1,0.4390149712562561,-0.4372094869613647,0.2929237186908722,0.728223443031311,-0.8939681649208069,-0.3832639157772064,-0.2322274446487427,0,0,0,-1,156174.1753152917,3,2,1561824431.480536,1561824121.559794,12,3.602502,0,0,10.50458,0,0,1561824170.876706,156180.661259,0,0.9907227,75.36757,0,182478453,3,1,0.31,-20.45706,-25.61688,4
1561824440.403488,52,0,0,1561824439.994448,4.634769838307644,-74.15106506093791,2553.885,0,124.8046875,3,10,-9999,1561824440.388049,-22.08405303955078,9.301729202270508,17.90521240234375,48.2475700378418,55.74076461791992,15,156183.0929997917,-0.9185638427734375,-0.3984832763671875,-0.2127227783203125,156183.0909857917,0.005734851091376632,-0.04663434753226853,0.04690865312454669,156183.0902837917,-101.0831756591797,-18.427490234375,-545.2883911132812,156183.0859197917,1.071169217654415,-1.317527733608704,0.392015416512882,0.002937951358035207,-0.04544383659958839,0.05395123362541199,-0.02001327276229858,-0.01501250267028809,0.01546669006347656,1,0.4388574659824371,-0.437747985124588,0.293303519487381,0.7278419733047485,-0.8946595788002014,-0.3820517063140869,-0.2315616458654404,0,0,0,-1,156174.1753152917,3,2,1561824431.480536,1561824121.559794,12,3.602502,0,0,10.50458,0,0,1561824170.876706,156180.661259,0,0.9907227,75.36757,0,182478453,3,1,0.31,-20.45706,-26.25148,4
1561824440.407102,53,0,0,1561824439.994448,4.634769838307644,-74.15106506093791,2553.885,0,124.8046875,3,10,-9999,1561824440.388049,-22.08405303955078,9.301729202270508,17.90521240234375,48.2475700378418,55.74076461791992,15,156183.1132637917,-0.9217987060546875,-0.3946380615234375,-0.2097320556640625,156183.1112497917,-0.006743922828407655,-0.006917028299262805,0.0006146575795902882,156183.1103647917,-101.1256866455078,-18.44427490234375,-545.1708984375,156183.1061837917,1.071394322592577,-1.318582468050922,0.3914603119815365,-0.001054659951478243,-0.03059431537985802,0.005449212156236172,-0.02601873874664307,-0.01453372836112976,0.01819217205047607,1,0.4388932287693024,-0.4382206499576569,0.2933191359043121,0.7275296449661255,-0.8951085805892944,-0.3815386593341827,-0.2306707948446274,0,0,0,-1,156174.1753152917,3,2,1561824431.480536,1561824121.559794,12,3.602502,0,0,10.50458,0,0,1561824170.876706,156180.661259,0,0.9907227,75.36757,0,182478453,3,1,0.31,-20.45706,-26.25148,4
1561824440.424152,54,0,0,1561824439.994448,4.634769838307644,-74.15106506093791,2553.885,0,124.8046875,3,10,-9999,1561824440.415469,-22.13623809814453,9.210844039916992,17.99322509765625,48.26189041137695,55.75508499145508,15,156183.1335277917,-0.91949462890625,-0.38616943359375,-0.20794677734375,156183.1315127917,-0.02967560402675295,0.06562188715620648,-0.02534770093926518,156183.1304757917,-101.2432556152344,-18.38796997070312,-545.1870727539062,156183.1264167917,1.071025108302221,-1.31830912860203,0.3916101398870573,-0.02807003073394299,0.04684268310666084,-0.02476088888943195,-0.02725118398666382,-0.008978366851806641,0.02272546291351318,1,0.4388176798820496,-0.4381648898124695,0.2932001948356628,0.7276566624641418,-0.894990086555481,-0.3816771507263184,-0.2309011518955231,0,0,0,-1,156174.1753152917,3,2,1561824431.480536,1561824121.559794,12,3.602502,0,0,10.50458,0,0,1561824170.876706,156180.661259,0,0.9907227,75.36757,0,182478453,3,1,0.31,-20.45706,-26.25148,4
1561824440.444485,55,0,0,1561824439.994448,4.634769838307644,-74.15106506093791,2553.885,0,124.8046875,3,10,-9999,1561824440.438863,-22.24845123291016,9.306055068969727,18.033203125,48.32827758789062,55.82147216796875,15,156183.1537907917,-0.9173126220703125,-0.3796539306640625,-0.2125244140625,156183.1517467917,-0.04271816914930701,0.04656510534392647,-0.01459492172196125,156183.1505867917,-100.9107055664062,-18.42277526855469,-545.2423095703125,156183.1466807917,1.070112148235968,-1.316707126202341,0.3919411574041057,-0.04514781758189201,0.05890200659632683,-0.01953203789889812,-0.02267849445343018,-0.002004325389862061,0.02502751350402832,1,0.4384832680225372,-0.4376996457576752,0.2931208312511444,0.7281701564788818,-0.8944967985153198,-0.3819831013679504,-0.2323028892278671,0,0,0,-1,156174.1753152917,3,2,1561824431.480536,1561824121.559794,12,3.602502,0,0,10.50458,0,0,1561824170.876706,156180.661259,0,0.9907227,75.36757,0,182478453,3,1,0.31,-20.45706,-26.54514,4
1561824440.483645,56,0,0,1561824439.994448,4.634769838307644,-74.15106506093791,2553.885,0,124.8046875,3,10,-9999,1561824440.46515,-22.02681732177734,9.063596725463867,17.980224609375,48.38509750366211,55.87829208374023,15,156183.1740547917,-0.911102294921875,-0.38055419921875,-0.2219085693359375,156183.1720097917,-0.01323324745660373,-0.06369136168200804,-0.009087770903786393,156183.1706667917,-101.0223083496094,-18.68365478515625,-545.178466796875,156183.1669437917,1.069214491509234,-1.316066198014423,0.3920661968930587,-0.02726202830672264,-0.04151780530810356,-0.0117343021556735,-0.01762485504150391,0.003741681575775146,0.01837128400802612,1,0.4382309019565582,-0.4376318454742432,0.2928972244262695,0.7284526824951172,-0.8943014144897461,-0.3820986449718475,-0.2328640818595886,0,0,0,-1,156174.1753152917,3,2,1561824431.480536,1561824121.559794,12,3.602502,0,0,10.50458,0,0,1561824170.876706,156180.661259,0,0.9907227,75.36757,0,182478453,3,1,0.31,-20.45706,-26.83137,4
1561824440.487554,57,0,0,1561824439.994448,4.634769838307644,-74.15106506093791,2553.885,0,124.8046875,3,10,-9999,1561824440.46515,-22.02681732177734,9.063596725463867,17.980224609375,48.38509750366211,55.87829208374023,15,156183.1943187917,-0.9067230224609375,-0.3816986083984375,-0.22393798828125,156183.1922737917,0.05217026049021625,-0.08512235160609369,-0.01933668004284733,156183.1907787917,-101.1850128173828,-18.48153686523438,-544.9346313476562,156183.1872077917,1.069214598437844,-1.317727141153055,0.3923311235542588,0.03648765757679939,-0.09629316627979279,-0.0164124108850956,-0.01477384567260742,0.0009652972221374512,0.004241228103637695,1,0.4385543465614319,-0.4381707012653351,0.2924543917179108,0.7281119823455811,-0.8945889472961426,-0.3823434710502625,-0.2313530445098877,0,0,0,-1,156174.1753152917,3,2,1561824431.480536,1561824121.559794,12,3.602502,0,0,10.50458,0,0,1561824170.876706,156180.661259,0,0.9907227,75.36757,0,182478453,3,1,0.31,-20.45706,-26.83137,4
1561824440.505022,58,0,0,1561824439.994448,4.634769838307644,-74.15106506093791,2553.885,0,124.8046875,3,10,-9999,1561824440.489501,-22.20249938964844,9.233556747436523,18.1798095703125,48.34367370605469,55.83686828613281,15,156183.2145517917,-0.9028472900390625,-0.3774871826171875,-0.224761962890625,156183.2125377917,0.03802994036633152,-0.008060855987451838,-0.03465571526520113,156183.2108897917,-101.2981262207031,-18.74967956542969,-545.1728515625,156183.2074717917,1.070211340099377,-1.319640658266448,0.3931191277722412,0.04966551065444946,-0.03411128744482994,-0.03584443032741547,-0.01225990056991577,0.002013742923736572,0.005185365676879883,1,0.4392912685871124,-0.4384521245956421,0.2921625375747681,0.7276152372360229,-0.8947377800941467,-0.3830714821815491,-0.22956582903862,0,0,0,-1,156174.1753152917,3,2,1561824431.480536,1561824121.559794,12,3.602502,0,0,10.50458,0,0,1561824170.876706,156180.661259,0,0.9907227,75.36757,0,182478453,3,1,0.31,-20.45706,-27.55267,4
1561824440.525411,59,0,0,1561824439.994448,4.634769838307644,-74.15106506093791,2553.885,0,124.8046875,3,10,-9999,1561824440.515659,-22.29244995117188,9.024391174316406,17.99029541015625,48.30315017700195,55.79634475708008,15,156183.2348147917,-0.889373779296875,-0.3716278076171875,-0.2296600341796875,156183.2328007917,-0.009754626440742233,0.0185425254057857,-0.02388695708135672,156183.2309697917,-101.3354797363281,-18.5272216796875,-545.0554809570312,156183.2277347917,1.07049187423273,-1.319821147752862,0.3939430707274778,-0.006445696577429771,0.018882155418396,-0.03288353234529495,-0.00118708610534668,0.009122371673583984,0.0006271600723266602,1,0.4396284818649292,-0.4382508993148804,0.2919794619083405,0.7276063561439514,-0.8944732546806335,-0.3838324248790741,-0.2293258905410767,0,0,0,-1,156174.1753152917,3,2,1561824431.480536,1561824121.559794,12,3.602502,0,0,10.50458,0,0,1561824170.876706,156180.661259,0,0.9907227,75.36757,0,182478453,3,1,0.31,-20.45706,-27.86489,4
1561824440.568192,60,0,0,1561824439.994448,4.634769838307644,-74.15106506093791,2553.885,0,124.8046875,3,10,-9999,1561824440.547574,-22.33618927001953,9.157625198364258,18.04620361328125,48.31538009643555,55.80857467651367,15,156183.2550787917,-0.8744049072265625,-0.3712310791015625,-0.226531982421875,156183.2530647917,0.03452655195233229,-0.01375283018527819,-0.0009624664179546366,156183.2510807917,-101.1874542236328,-18.80126953125,-545.125732421875,156183.2479987917,1.070323517575936,-1.319695154347633,0.3943152085155017,0.01481514051556587,-0.01472971774637699,-0.009021712467074394,0.01218008995056152,0.01407414674758911,-7.385015487670898e-05,1,0.4396858215332031,-0.4381493330001831,0.2918350100517273,0.7276908159255981,-0.894305944442749,-0.3841760456562042,-0.2294030785560608,0,0,0,-1,156174.1753152917,3,2,1561824431.480536,1561824121.559794,12,3.602502,0,0,10.50458,0,0,1561824170.876706,156180.661259,0,0.9907227,75.36757,0,182478453,3,1,0.31,-20.45706,-29.69794,4
1561824440.570889,61,0,0,1561824439.994448,4.634769838307644,-74.15106506093791,2553.885,0,124.8046875,3,10,-9999,1561824440.547574,-22.33618927001953,9.157625198364258,18.04620361328125,48.31538009643555,55.80857467651367,15,156183.2753427917,-0.87274169921875,-0.3759307861328125,-0.2231597900390625,156183.2733287917,0.07220388979033732,-0.004452539026503478,0.00957033569330875,156183.2711617917,-100.9271850585938,-18.65409851074219,-545.2549438476562,156183.2682317917,1.071314345892429,-1.320506699698404,0.3945501185830637,0.06902831047773361,-0.01868504472076893,0.004564669914543629,0.02212029695510864,0.01035425066947937,0.005342483520507812,1,0.4400924146175385,-0.4381680488586426,0.2919469177722931,0.7273887395858765,-0.8944042325019836,-0.3843929171562195,-0.2286548614501953,0,0,0,-1,156183.2568187917,2,0,1561824440.56204,1561824121.559794,12,3.602502,0,0,10.50458,0,0,1561824170.876706,156180.661259,0,0.9907227,75.36757,0,182478453,3,1,0.31,-20.45706,-29.69794,4
1561824440.586099,62,0,0,1561824439.994448,4.634769838307644,-74.15106506093791,2553.885,0,124.8046875,3,10,-9999,1561824440.582008,-21.99801635742188,9.049320220947266,18.0050048828125,48.23347854614258,55.7266731262207,15,156183.2956057917,-0.87286376953125,-0.37396240234375,-0.2133026123046875,156183.2935917917,0.04090242591809098,0.05610508100080832,0.01750495784509083,156183.2912727917,-101.066650390625,-18.68365478515625,-545.04296875,156183.2884957917,1.072757380648813,-1.320940065903979,0.3947042424823338,0.05118300020694733,0.0390501581132412,0.01152963470667601,0.02303171157836914,0.00717008113861084,0.0100519061088562,1,0.4405183494091034,-0.4379695057868958,0.2923302948474884,0.7270964980125427,-0.8944458961486816,-0.3845351934432983,-0.2282525897026062,0,0,0,-1,156183.2568187917,2,0,1561824440.56204,1561824121.559794,12,3.602502,0,0,10.50458,0,0,1561824170.876706,156180.661259,0,0.9907227,75.36757,0,182478453,3,1,0.31,-20.45706,-29.69794,4
1561824440.606423,63,0,0,1561824439.994448,4.634769838307644,-74.15106506093791,2553.885,0,124.8046875,3,10,-9999,1561824440.582008,-21.99801635742188,9.049320220947266,18.0050048828125,48.23347854614258,55.7266731262207,15,156183.3158697917,-0.8694305419921875,-0.375152587890625,-0.208831787109375,156183.3138247917,0.0211337811464328,-0.004755340442445488,0.02887638938362017,156183.3113837917,-100.9311065673828,-18.56768798828125,-545.2615966796875,156183.3087587917,1.073505607383807,-1.320367531614365,0.3944999204967355,0.01675844937562943,0.01794433780014515,0.02411386929452419,0.02256500720977783,0.01209315657615662,0.01813650131225586,1,0.4405366778373718,-0.4376475512981415,0.2927893102169037,0.7270945310592651,-0.8943911194801331,-0.3843465745449066,-0.2287841141223907,0,0,0,-1,156183.2568187917,2,0,1561824440.56204,1561824121.559794,12,3.602502,0,0,10.50458,0,0,1561824170.876706,156180.661259,0,0.9907227,75.36757,0,182478453,3,1,0.31,-20.45706,-30.24319,4
1561824440.6314,64,0,0,1561824439.994448,4.634769838307644,-74.15106506093791,2553.885,0,124.8046875,3,10,-9999,1561824440.616936,-22.01976776123047,9.149869918823242,17.9364013671875,48.10890197753906,55.60209655761719,15,156183.3361337917,-0.8673553466796875,-0.3848724365234375,-0.2064208984375,156183.3340887917,0.05262566103661979,-0.1028329054873386,0.03587970410220154,156183.3314647917,-100.9606781005859,-18.50848388671875,-545.3658447265625,156183.3290227917,1.074231984834786,-1.321447218850649,0.3940606167920079,0.04271707683801651,-0.09676839411258698,0.03382828459143639,0.02982622385025024,0.003661423921585083,0.0197758674621582,1,0.4407211244106293,-0.4379896223545074,0.2929463684558868,0.7267134189605713,-0.8948011994361877,-0.3839409649372101,-0.2278599590063095,0,0,0,-1,156183.2568187917,2,0,1561824440.56204,1561824121.559794,12,3.602502,0,0,10.50458,0,0,1561824170.876706,156180.661259,0,0.9907227,75.36757,0,182478453,3,1,0.31,-20.45706,-30.67138,4
1561824440.646956,65,0,0,1561824439.994448,4.634769838307644,-74.15106506093791,2553.885,0,124.8046875,3,10,-9999,1561824440.641431,-21.98445892333984,9.196477890014648,17.83087158203125,48.01927185058594,55.51246643066406,15,156183.3563667917,-0.8724365234375,-0.3813018798828125,-0.19512939453125,156183.3543527917,0.04713475550109442,-0.06474197873204429,0.02187440624558384,156183.3515757917,-101.1895904541016,-18.66162109375,-545.25,156183.3492867917,1.075523883733471,-1.323920045915978,0.3937583326067681,0.05164399370551109,-0.07755715399980545,0.021708769723773,0.02441120147705078,0.001627534627914429,0.02613574266433716,1,0.4412752985954285,-0.4386782944202423,0.2929604351520538,0.7259556651115417,-0.895474374294281,-0.3836618363857269,-0.2256749272346497,0,0,0,-1,156183.2568187917,2,0,1561824440.56204,1561824121.559794,12,3.602502,0,0,10.50458,0,0,1561824170.876706,156180.661259,0,0.9907227,75.36757,0,182478453,3,1,0.31,-20.45706,-31.70002,4
1561824440.667399,66,0,0,1561824439.994448,4.634769838307644,-74.15106506093791,2553.885,0,124.8046875,3,10,-9999,1561824440.641431,-21.98445892333984,9.196477890014648,17.83087158203125,48.01927185058594,55.51246643066406,15,156183.3766307917,-0.8629150390625,-0.3976898193359375,-0.1963043212890625,156183.3746157917,0.0474095937255906,-0.19822919994674,0.07631660946174668,156183.3716557917,-101.2754974365234,-18.23347473144531,-545.1248779296875,156183.3695507917,1.076501783365296,-1.325983444535168,0.3934157439448482,0.03366552665829659,-0.1334843337535858,0.04842107370495796,0.02968680858612061,-0.006623417139053345,0.02817988395690918,1,0.4416890144348145,-0.4392966330051422,0.2929620146751404,0.7253292202949524,-0.8960655927658081,-0.3833454549312592,-0.2238585650920868,0,0,0,-1,156183.2568187917,2,0,1561824440.56204,1561824121.559794,12,3.602502,0,0,10.50458,0,0,1561824170.876706,156180.661259,0,0.9907227,75.36757,0,182478453,3,1,0.31,-20.45706,-32.52633,4
1561824440.687511,67,0,0,1561824439.994448,4.634769838307644,-74.15106506093791,2553.885,0,124.8046875,3,10,-9999,1561824440.667653,-22.24060821533203,9.457830429077148,18.03094482421875,47.94544219970703,55.43863677978516,15,156183.3968937917,-0.90643310546875,-0.4125518798828125,-0.199798583984375,156183.3948797917,0.1912125694227082,-0.5498247870650722,0.1501194611705676,156183.3917667917,-100.9346008300781,-18.24476623535156,-544.9567260742188,156183.3898137917,1.078648777183924,-1.332766750611112,0.3918768784527331,0.1424894779920578,-0.4750941395759583,0.1412277072668076,0.01924467086791992,-0.02113720774650574,0.01898515224456787,1,0.4426927268505096,-0.4416629374027252,0.2926999926567078,0.7233834266662598,-0.8981356024742126,-0.3819236755371094,-0.2179140001535416,0,0,0,-1,156183.2568187917,2,0,1561824440.56204,1561824121.559794,12,3.602502,0,0,10.50458,0,0,1561824170.876706,156180.661259,0,0.9907227,75.36757,0,182478453,3,1,0.31,-20.45706,-33.00914,4
1561824440.721785,68,0,0,1561824439.994448,4.634769838307644,-74.15106506093791,2553.885,0,124.8046875,3,10,-9999,1561824440.718375,-21.61058044433594,9.388887405395508,18.53399658203125,47.19732284545898,54.69051742553711,15,156183.4171577917,-0.962066650390625,-0.4150543212890625,-0.1786041259765625,156183.4151437917,0.3201782757386674,-0.6171966373735697,0.07484760980445897,156183.4118777917,-100.4744873046875,-18.31813049316406,-544.5338134765625,156183.4100777917,1.084252413377939,-1.346863741536632,0.3903355760257482,0.3051013052463531,-0.647501528263092,0.1013561934232712,-0.03091061115264893,-0.035837322473526,0.01670259237289429,1,0.4455367028713226,-0.4458877742290497,0.292053610086441,0.7192954421043396,-0.9016913175582886,-0.3804987668991089,-0.2053622752428055,0,0,0,-1,156183.2568187917,2,0,1561824440.56204,1561824121.559794,12,3.602502,0,0,10.50458,0,0,1561824170.876706,156180.661259,0,0.9907227,75.36757,0,182478453,3,1,0.31,-20.45706,-33.52645,4
1561824440.728103,69,0,0,1561824439.994448,4.634769838307644,-74.15106506093791,2553.885,0,124.8046875,3,10,-9999,1561824440.718375,-21.61058044433594,9.388887405395508,18.53399658203125,47.19732284545898,54.69051742553711,15,156183.4374217917,-0.994415283203125,-0.4081878662109375,-0.1439361572265625,156183.4354067917,0.1968275782650313,-0.2222767456418285,-0.04966076379503458,156183.4319587917,-100.2391204833984,-18.17315673828125,-544.726318359375,156183.4303107917,1.090835496348424,-1.360339680617369,0.390903506242339,0.2511754930019379,-0.3631049990653992,-0.02494928054511547,-0.07804310321807861,-0.03288596868515015,0.02868843078613281,1,0.4491427838802338,-0.4491068124771118,0.2912290394306183,0.7153736352920532,-0.9041652083396912,-0.3810239136219025,-0.1931476593017578,0,0,0,-1,156183.2568187917,2,0,1561824440.56204,1561824121.559794,12,3.602502,0,0,10.50458,0,0,1561824170.876706,156180.661259,0,0.9907227,75.36757,0,182478453,3,1,0.31,-20.45706,-34.43523,4
1561824440.748335,70,0,0,1561824439.994448,4.634769838307644,-74.15106506093791,2553.885,0,124.8046875,3,10,-9999,1561824440.74283,-21.28633880615234,9.596920013427734,18.47247314453125,47.04379272460938,54.5369873046875,15,156183.4576847917,-0.98614501953125,-0.378509521484375,-0.113525390625,156183.4556407917,-0.1382508174565204,0.433227599799768,-0.120256370603073,156183.4520697917,-100.2037658691406,-18.14320373535156,-544.7789916992188,156183.4505747917,1.092925306843506,-1.362269364176697,0.3929163089497746,-0.0538126565515995,0.2791469097137451,-0.1161646768450737,-0.09241652488708496,-0.01450052857398987,0.06589245796203613,1,0.4504843950271606,-0.4488230347633362,0.2909322679042816,0.7148286700248718,-0.9037840366363525,-0.3828841149806976,-0.1912433803081512,0,0,0,-1,156183.2568187917,2,0,1561824440.56204,1561824121.559794,12,3.602502,0,0,10.50458,0,0,1561824170.876706,156180.661259,0,0.9907227,75.36757,0,182478453,3,1,0.31,-20.45706,-34.43523,4
1561824440.768742,71,0,0,1561824439.994448,4.634769838307644,-74.15106506093791,2553.885,0,124.8046875,3,10,-9999,1561824440.74283,-21.28633880615234,9.596920013427734,18.47247314453125,47.04379272460938,54.5369873046875,15,156183.4779487917,-0.935455322265625,-0.373016357421875,-0.125091552734375,156183.4759037917,-0.3676121042301777,0.6325585494894738,-0.07419407007295353,156183.4721507917,-100.7188720703125,-17.98663330078125,-545.0338745117188,156183.4708377917,1.08786646159814,-1.349928812623516,0.3943260677221384,-0.3384662270545959,0.6444165110588074,-0.09361622482538223,-0.06006383895874023,0.01599150896072388,0.08864641189575195,1,0.4479723572731018,-0.4451843500137329,0.2914650440216064,0.7184566259384155,-0.9008278846740723,-0.3841860592365265,-0.2022633254528046,0,0,0,-1,156183.2568187917,2,0,1561824440.56204,1561824121.559794,12,3.602502,0,0,10.50458,0,0,1561824170.876706,156180.661259,0,0.9907227,75.36757,0,182478453,3,1,0.31,-20.45706,-35.17067,4
1561824440.801416,72,0,0,1561824439.994448,4.634769838307644,-74.15106506093791,2553.885,0,124.8046875,3,10,-9999,1561824440.793415,-21.95989227294922,9.465412139892578,18.04541015625,47.97599029541016,55.46918487548828,15,156183.4982127917,-0.9243927001953125,-0.3993377685546875,-0.182769775390625,156183.4961677917,-0.2922233400922146,0.203977366843567,0.06589805696124769,156183.4922617917,-100.9630889892578,-18.26486206054688,-545.18994140625,156183.4911017917,1.079825677738279,-1.336146595479108,0.393597481461115,-0.3407405614852905,0.3157102465629578,0.0206227321177721,-0.01855194568634033,0.002364009618759155,0.06625610589981079,1,0.4439619481563568,-0.4421942234039307,0.2918605804443359,0.7226198315620422,-0.8982266187667847,-0.3835133016109467,-0.2147241085767746,0,0,0,-1,156183.2568187917,2,0,1561824440.56204,1561824121.559794,12,3.602502,0,0,10.50458,0,0,1561824170.876706,156180.661259,0,0.9907227,75.36757,0,182478453,3,1,0.31,-20.45706,-33.03119,4
1561824440.809082,73,0,0,1561824439.994448,4.634769838307644,-74.15106506093791,2553.885,0,124.8046875,3,10,-9999,1561824440.793415,-21.95989227294922,9.465412139892578,18.04541015625,47.97599029541016,55.46918487548828,15,156183.5184457917,-0.9861907958984375,-0.3938751220703125,-0.2290802001953125,156183.5164317917,-0.1403336757450714,0.06806453850802716,0.2103444523777285,156183.5123727917,-100.9492950439453,-18.37376403808594,-545.1129760742188,156183.5113657917,1.075261431547871,-1.33175769354287,0.3905123196023793,-0.1516066044569016,0.04340549185872078,0.1694534868001938,-0.05728280544281006,-0.02470278739929199,0.01119494438171387,1,0.4413867890834808,-0.4423867166042328,0.2921058833599091,0.7239792346954346,-0.8984209299087524,-0.380662202835083,-0.2189433872699738,0,0,0,-1,156183.2568187917,2,0,1561824440.56204,1561824121.559794,12,3.602502,0,0,10.50458,0,0,1561824170.876706,156180.661259,0,0.9907227,75.36757,0,182478453,3,1,0.31,-20.45706,-33.03119,4
1561824440.829278,74,0,0,1561824439.994448,4.634769838307644,-74.15106506093791,2553.885,0,124.8046875,3,10,-9999,1561824440.819724,-21.96115875244141,9.336139678955078,18.05609130859375,48.16315841674805,55.65635299682617,15,156183.5387087917,-1.1011962890625,-0.42181396484375,-0.3118438720703125,156183.5366947917,-0.354041167947352,0.5644990709875178,0.3263315094372955,156183.5324527917,-101.0796508789062,-18.44688415527344,-545.18505859375,156183.5316287917,1.0726423153045,-1.327812559950218,0.3847940156836122,-0.2792777121067047,0.3678174018859863,0.3092340230941772,-0.1313881278038025,-0.02703654766082764,-0.04423630237579346,1,0.4385058879852295,-0.4429554343223572,0.2937341928482056,0.7247229218482971,-0.8996482491493225,-0.3753682374954224,-0.2230061441659927,0,0,0,-1,156183.2568187917,2,0,1561824440.56204,1561824121.559794,12,3.602502,0,0,10.50458,0,0,1561824170.876706,156180.661259,0,0.9907227,75.36757,0,182478453,3,1,0.31,-20.45706,-33.24735,4
1561824440.849661,75,0,0,1561824439.994448,4.634769838307644,-74.15106506093791,2553.885,0,124.8046875,3,10,-9999,1561824440.844022,-22.27445220947266,9.245298385620117,17.7542724609375,48.66775131225586,56.16094589233398,15,156183.5589727917,-1.281829833984375,-0.4420318603515625,-0.38751220703125,156183.5569587917,-0.6081093991020013,1.397677806450405,0.3086667619267999,156183.5525637917,-101.2870178222656,-18.54795837402344,-545.4769897460938,156183.5518927917,1.065436273883753,-1.30956198864818,0.376233613251117,-0.5577468872070312,1.181526303291321,0.3317486643791199,-0.2735580205917358,-0.06390002369880676,-0.09653788805007935,1,0.4316109418869019,-0.4400089085102081,0.2976267635822296,0.7290558815002441,-0.8985000848770142,-0.3674201369285583,-0.240208312869072,0,0,0,-1,156183.2568187917,2,0,1561824440.56204,1561824121.559794,12,3.602502,0,0,10.50458,0,0,1561824170.876706,156180.661259,0,0.9907227,75.36757,0,182478453,3,1,0.31,-20.45706,-33.38753,4
1561824440.888371,76,0,0,1561824439.994448,4.634769838307644,-74.15106506093791,2553.885,0,124.8046875,3,10,-9999,1561824440.874438,-22.62899780273438,9.216569900512695,17.25421142578125,49.56941604614258,57.0626106262207,15,156183.5792367917,-1.5052490234375,-0.46331787109375,-0.5013885498046875,156183.5772227917,-0.6253533671602645,1.97565620097925,-0.1304490870431333,156183.5726447917,-101.6690063476562,-18.56283569335938,-546.0191040039062,156183.5721257917,1.053527543784731,-1.273273963831208,0.3684748605709114,-0.6557757258415222,1.906232357025146,0.0174141563475132,-0.5137166976928711,-0.09444254636764526,-0.1680072546005249,1,0.4211564362049103,-0.4311491847038269,0.3032646775245667,0.738084077835083,-0.8918924331665039,-0.3601930737495422,-0.2734752595424652,0,0,0,-1,156183.2568187917,2,0,1561824440.56204,1561824121.559794,12,3.602502,0,0,10.50458,0,0,1561824170.876706,156180.661259,0,0.9907227,75.36757,0,182478453,3,1,0.31,-20.45706,-30.62299,4
1561824440.891026,77,0,0,1561824439.994448,4.634769838307644,-74.15106506093791,2553.885,0,124.8046875,3,10,-9999,1561824440.874438,-22.62899780273438,9.216569900512695,17.25421142578125,49.56941604614258,57.0626106262207,15,156183.5994997917,-1.711471557617188,-0.4442291259765625,-0.68890380859375,156183.5974557917,-0.3011683655615728,1.861608191509369,-1.006539337150467,156183.5927557917,-102.5941314697266,-18.88984680175781,-546.9913940429688,156183.5923897917,1.039582830817374,-1.228180445891893,0.3710696690301848,-0.4262447953224182,1.959141373634338,-0.737994372844696,-0.7377038598060608,-0.1001408100128174,-0.2793506383895874,1,0.4121493399143219,-0.4166405498981476,0.3067276775836945,0.7499743700027466,-0.877774715423584,-0.3626125156879425,-0.31308713555336,0,0,0,-1,156183.5759407917,3,2,1561824440.881162,1561824121.559794,12,3.602502,0,0,10.50458,0,0,1561824170.876706,156180.661259,0,0.9907227,75.36757,0,182478453,3,1,0.31,-20.45706,-30.62299,4
1561824440.910376,78,0,0,1561824439.994448,4.634769838307644,-74.15106506093791,2553.885,0,124.8046875,3,10,-9999,1561824440.895086,-23.42811584472656,8.950078964233398,16.36041259765625,50.55881881713867,58.0520133972168,15,156183.6197637917,-1.850967407226562,-0.3802947998046875,-0.8272247314453125,156183.6177187917,0.5097157168357158,1.258578505870585,-2.268218028846013,156183.6128667917,-103.2572479248047,-19.64418029785156,-547.41162109375,156183.6126537917,1.026981643544949,-1.189085162704518,0.3953235457054345,0.2829680442810059,1.389364957809448,-1.948538064956665,-0.9221281409263611,-0.03614258766174316,-0.4223198890686035,1,0.4114897549152374,-0.398481011390686,0.3031951487064362,0.7615521550178528,-0.8564515113830566,-0.3851068019866943,-0.343778133392334,0,0,0,-1,156183.5759407917,3,2,1561824440.881162,1561824121.559794,12,3.602502,0,0,10.50458,0,0,1561824170.876706,156180.661259,0,0.9907227,75.36757,0,182478453,3,1,0.31,-20.45706,-31.47881,4
1561824440.931485,79,0,0,1561824439.994448,4.634769838307644,-74.15106506093791,2553.885,0,124.8046875,3,10,-9999,1561824440.920963,-24.17355346679688,8.253839492797852,15.81585693359375,51.20514297485352,58.69833755493164,15,156183.6400277917,-1.955795288085938,-0.20477294921875,-0.882232666015625,156183.6379827917,1.327204438736401,0.9550100995346328,-3.521909367800194,156183.6329477917,-104.0694427490234,-20.43994140625,-548.2574462890625,156183.6329167917,1.019555142218081,-1.162654354486347,0.4494257398511649,1.141924023628235,0.980590283870697,-3.226209402084351,-1.081596493721008,0.1257477998733521,-0.5123517513275146,1,0.4237766563892365,-0.3763880729675293,0.2907673120498657,0.7708436250686646,-0.826713502407074,-0.4344483613967896,-0.3574907183647156,0,0,0,-1,156183.5759407917,3,2,1561824440.881162,1561824121.559794,12,3.602502,0,0,10.50458,0,0,1561824170.876706,156180.661259,0,0.9907227,75.36757,0,182478453,3,1,0.31,-20.45706,-32.1263,4
1561824440.975946,80,0,0,1561824439.994448,4.634769838307644,-74.15106506093791,2553.885,0,124.8046875,3,10,-9999,1561824440.945602,-25.68680572509766,5.764354705810547,14.1971435546875,51.61971664428711,59.11291122436523,15,156183.6602607917,-2.060897827148438,0.0111083984375,-0.810821533203125,156183.6582467917,1.752562397514985,1.240612022208583,-4.854090455665625,156183.6530587917,-104.8046264648438,-22.30677795410156,-549.1676635742188,156183.6531807917,1.014241257064608,-1.13976579480983,0.5324310293604079,1.697186231613159,1.128919243812561,-4.485401153564453,-1.231708526611328,0.408782958984375,-0.5030340552330017,1,0.4464290738105774,-0.3474403619766235,0.270427942276001,0.7790089845657349,-0.7827721238136292,-0.5076293349266052,-0.3599725663661957,0,0,0,-1,156183.5759407917,3,2,1561824440.881162,1561824121.559794,12,3.602502,0,0,10.50458,0,0,1561824170.876706,156180.661259,0,0.9907227,75.36757,0,182478453,3,1,0.31,-20.45706,-32.66426,4
1561824440.980608,81,0,0,1561824439.994448,4.634769838307644,-74.15106506093791,2553.885,0,124.8046875,3,10,-9999,1561824440.971928,-26.56363677978516,3.547172546386719,13.5118408203125,53.05604553222656,60.54924011230469,15,156183.6805247917,-2.06121826171875,0.1771697998046875,-0.72271728515625,156183.6785097917,1.941183444880937,1.550895056600953,-6.102053601431155,156183.6731387917,-105.6820220947266,-24.61439514160156,-549.8135986328125,156183.6734447917,0.9982561509241391,-1.103693148986188,0.6431092262406223,1.856723666191101,1.515451788902283,-5.854284286499023,-1.353222846984863,0.6993263363838196,-0.3997236490249634,1,0.4743750989437103,-0.307887464761734,0.2412406653165817,0.7886548042297363,-0.714510977268219,-0.5996864438056946,-0.3603471517562866,0,0,0,-1,156183.5759407917,3,2,1561824440.881162,1561824121.559794,12,3.602502,0,0,10.50458,0,0,1561824170.876706,156180.661259,0,0.9907227,75.36757,0,182478453,3,1,0.31,-20.45706,-32.66426,4
1561824440.991646,82,0,0,1561824439.994448,4.634769838307644,-74.15106506093791,2553.885,0,124.8046875,3,10,-9999,1561824440.971928,-26.56363677978516,3.547172546386719,13.5118408203125,53.05604553222656,60.54924011230469,15,156183.7007877917,-2.004470825195312,0.408111572265625,-0.59619140625,156183.6987737917,2.654558280809955,1.065678557581203,-7.227557143423788,156183.6932497917,-106.087890625,-27.22911071777344,-550.5675659179688,156183.6937077917,0.9670744678523548,-1.053009432414941,0.777042032108392,2.446289777755737,1.320671677589417,-6.935116291046143,-1.439842462539673,1.007173299789429,-0.3156173825263977,1,0.5061821341514587,-0.2594789266586304,0.2034540921449661,0.796904444694519,-0.6195294857025146,-0.7011734843254089,-0.3529006540775299,0,0,0,-1,156183.5759407917,3,2,1561824440.881162,1561824121.559794,12,3.602502,0,0,10.50458,0,0,1561824170.876706,156180.661259,0,0.9907227,75.36757,0,182478453,3,1,0.31,-20.45706,-32.91221,4
1561824441.011802,83,0,0,1561824439.994448,4.634769838307644,-74.15106506093791,2553.885,0,124.8046875,3,10,-9999,1561824440.995962,-27.02689361572266,1.056011199951172,12.755126953125,55.75658416748047,63.24977874755859,15,156183.72103925,-1.826339721679688,0.447296142578125,-0.499969482421875,156183.71902525,3.391522598726568,-0.2280776431282391,-8.349557563318532,156183.7133617917,-106.0880737304688,-30.72366333007812,-550.8594360351562,156183.7139717917,0.922223871935693,-1.004771185617925,0.9372121005095524,3.23180103302002,0.01699944958090782,-8.070556640625,-1.418952703475952,1.232607483863831,-0.239081084728241,1,0.5456467866897583,-0.2086152732372284,0.1531657576560974,0.7970505356788635,-0.4997026324272156,-0.8059107065200806,-0.317498505115509,0,0,0,-1,156183.5759407917,3,2,1561824440.881162,1561824121.559794,12,3.602502,0,0,10.50458,0,0,1561824170.876706,156180.661259,0,0.9907227,75.36757,0,182478453,3,1,0.31,-20.45706,-29.59885,4
1561824441.038983,84,0,0,1561824439.994448,4.634769838307644,-74.15106506093791,2553.885,0,124.8046875,3,10,-9999,1561824441.022283,-27.11907196044922,-2.36492919921875,12.33978271484375,118.3108596801758,125.8040542602539,15,156183.74130325,-1.473907470703125,0.433258056640625,-0.3358154296875,156183.73928825,3.66302840975073,-0.555197714564307,-9.018844033717398,156183.73342925,-104.9282989501953,-34.27381896972656,-550.2005615234375,156183.73419225,0.8470546693467673,-0.9473423204719358,1.120192754294927,3.637441396713257,-0.5654380917549133,-8.926630020141602,-1.32144296169281,1.351020574569702,-0.1506993770599365,1,0.5898287296295166,-0.1580115109682083,0.08891863375902176,0.7869104146957397,-0.3535753488540649,-0.9001843929290771,-0.2542688548564911,0,0,0,-1,156183.5759407917,3,2,1561824440.881162,1561824121.559794,12,3.602502,0,0,10.50458,0,0,1561824170.876706,156180.661259,0,0.9907227,75.36757,0,182478453,3,1,0.31,-20.45706,-29.24597,4
1561824441.051978,85,0,0,1561824440.994432,4.634774280716325,-74.15104427381804,2554.002,0.17,79.453125,3,10,-9999,1561824441.022283,-27.11907196044922,-2.36492919921875,12.33978271484375,118.3108596801758,125.8040542602539,15,156183.76156625,-0.9981231689453125,0.358245849609375,-0.143951416015625,156183.75952225,3.614277648100175,-0.3066262478995812,-9.353222018072259,156183.75354025,-103.3447570800781,-37.71755981445312,-549.4199829101562,156183.75445625,0.6679222058550107,-0.7885423496634438,1.30960239669188,3.651851415634155,-0.3561080992221832,-9.263723373413086,-1.048944711685181,1.373583555221558,-0.06637400388717651,1,0.6310839056968689,-0.1035432368516922,0.01902945339679718,0.7685373425483704,-0.1831720471382141,-0.9660823345184326,-0.1820238083600998,0,0,0,-1,156183.5759407917,3,2,1561824440.881162,1561824121.559794,12,3.602502,0,0,10.50458,0,0,1561824170.876706,156180.661259,0,0.9907227,75.36757,0,182478453,3,1,0.31,-20.45706,-29.24597,4
1561824441.072337,86,0,0,1561824440.994432,4.634774280716325,-74.15104427381804,2554.002,0.17,79.453125,3,10,-9999,1561824441.051203,-24.72238159179688,-9.308052062988281,13.58905029296875,117.4774780273438,124.9706726074219,15,156183.78183025,-0.6495513916015625,0.3999786376953125,-0.0075531005859375,156183.77978525,3.323493746577149,-0.2675728547263322,-9.625631439654283,156183.77362125,-101.3012390136719,-41.25495910644531,-548.29931640625,156183.77471925,-0.1748554045289491,0.03744986909028254,1.459627473467547,3.404281616210938,-0.2588997781276703,-9.604236602783203,-0.8336977362632751,1.343116044998169,0.03818386793136597,1,0.665286660194397,-0.04430482164025307,-0.05262928828597069,0.7434116005897522,0.004153690300881863,-0.9938271045684814,-0.1108614876866341,0,0,0,-1,156183.5759407917,3,2,1561824440.881162,1561824121.559794,12,3.602502,0,0,10.50458,0,0,1561824170.876706,156180.661259,0,0.9907227,75.36757,0,182478453,3,1,0.31,-20.45706,-29.4367,4
1561824441.095012,87,0,0,1561824440.994432,4.634774280716325,-74.15104427381804,2554.002,0.17,79.453125,3,10,-9999,1561824441.073409,-22.74188995361328,-12.82207107543945,14.6510009765625,117.6453628540039,125.138557434082,15,156183.80209425,-0.1860198974609375,0.4129486083984375,0.0662078857421875,156183.80004925,3.152976335669337,-0.3587720073077687,-9.305730398985094,156183.79373225,-97.97952270507812,-44.14079284667969,-547.1470336914062,156183.79498325,-1.494580125242196,1.339697880937827,1.368302129517973,3.171239137649536,-0.3953976929187775,-9.442804336547852,-0.606900155544281,1.396148204803467,0.07519352436065674,1,0.6904383897781372,0.01620415598154068,-0.1250527054071426,0.71231609582901,0.195767343044281,-0.9795680046081543,-0.04606451094150543,0,0,0,-1,156183.5759407917,3,2,1561824440.881162,1561824121.559794,12,3.602502,0,0,10.50458,0,0,1561824170.876706,156180.661259,0,0.9907227,75.36757,0,182478453,3,1,0.31,-20.45706,-27.80168,4
1561824441.118487,88,0,0,1561824440.994432,4.634774280716325,-74.15104427381804,2554.002,0.17,79.453125,3,10,-9999,1561824441.097311,-19.65630340576172,-15.85913467407227,15.78594970703125,119.0190811157227,126.5122756958008,15,156183.82232725,0.1688079833984375,0.468170166015625,0.166229248046875,156183.82031325,2.939423306810281,0.03618783184032371,-8.525661753561112,156183.81384325,-94.79246520996094,-46.10871887207031,-545.914306640625,156183.81524725,-1.776658773646188,1.60550302953081,1.188975197304999,3.034820318222046,-0.08237960189580917,-8.735398292541504,-0.3598903119564056,1.364572048187256,0.09531641006469727,1,0.7078196406364441,0.07386554777622223,-0.1925471574068069,0.6756190061569214,0.3723872601985931,-0.9279875755310059,0.0129295252263546,0,0,0,-1,156183.5759407917,3,2,1561824440.881162,1561824121.559794,12,3.602502,0,0,10.50458,0,0,1561824170.876706,156180.661259,0,0.9907227,75.36757,0,182478453,3,1,0.31,-20.11085,-20.11085,4
1561824441.134238,89,0,0,1561824440.994432,4.634774280716325,-74.15104427381804,2554.002,0.17,79.453125,3,10,-9999,1561824441.12354,-16.47785949707031,-17.9680290222168,17.0009765625,120.7298736572266,128.2230682373047,15,156183.84259025,0.522979736328125,0.506011962890625,0.262115478515625,156183.84057625,2.31350801266001,0.3386720652965047,-7.585704905772043,156183.83392325,-91.40153503417969,-47.80218505859375,-545.0833129882812,156183.83551025,-1.872556192005215,1.693831693733285,1.016659985478481,2.497050046920776,0.2714498341083527,-7.841440677642822,-0.171492874622345,1.347227215766907,0.1561697721481323,1,0.7181986570358276,0.1283754259347916,-0.2497711777687073,0.6366512775421143,0.52223140001297,-0.8503552079200745,0.06457912176847458,0,0,0,-1,156183.5759407917,3,2,1561824440.881162,1561824121.559794,12,3.602502,0,0,10.50458,0,0,1561824170.876706,156180.661259,0,0.9907227,75.36757,0,182478453,3,1,0.31,-16.42853,-16.42853,4
1561824441.153463,90,0,0,1561824440.994432,4.634774280716325,-74.15104427381804,2554.002,0.17,79.453125,3,10,-9999,1561824441.149592,-10.5882568359375,-20.85642623901367,18.67724609375,122.0747375488281,129.5679321289062,15,156183.86285425,0.878021240234375,0.493255615234375,0.2957611083984375,156183.86084025,1.646119044537826,0.5093894796021811,-6.51646437023286,156183.85403525,-89.03179931640625,-48.76380920410156,-544.4349365234375,156183.85577425,-1.909508843709571,1.732207015218633,0.8636590286581809,1.78807806968689,0.5302718281745911,-6.796121597290039,0.05412733554840088,1.259873867034912,0.1716240644454956,1,0.7213498950004578,0.1784881353378296,-0.2959503829479218,0.6001747846603394,0.6412156820297241,-0.7602247595787048,0.1044073700904846,0,0,0,-1,156183.5759407917,3,2,1561824440.881162,1561824121.559794,12,3.602502,0,0,10.50458,0,0,1561824170.876706,156180.661259,0,0.9907227,75.36757,0,182478453,3,1,0.31,-14.39471,-17.47414,4
1561824441.174093,91,0,0,1561824440.994432,4.634774280716325,-74.15104427381804,2554.002,0.17,79.453125,3,10,-9999,1561824441.149592,-10.5882568359375,-20.85642623901367,18.67724609375,122.0747375488281,129.5679321289062,15,156183.88311825,1.18890380859375,0.4707489013671875,0.284881591796875,156183.88110425,1.310831058038485,-0.03965127283797176,-5.420366920364662,156183.87411525,-86.47496032714844,-49.452392578125,-543.5829467773438,156183.87600725,-1.92296924468959,1.750094005276027,0.7340240040069024,1.363485217094421,0.153294175863266,-5.678722858428955,0.3093957901000977,1.15544319152832,0.1622335910797119,1,0.7191508412361145,0.2214247137308121,-0.3329831063747406,0.5682564377784729,0.7305821776390076,-0.6698628067970276,0.1324136704206467,0,0,0,-1,156183.5759407917,3,2,1561824440.881162,1561824121.559794,12,3.602502,0,0,10.50458,0,0,1561824170.876706,156180.661259,0,0.9907227,75.36757,0,182478453,3,1,0.31,-12.43179,-15.20557,4
1561824441.197666,92,0,0,1561824440.994432,4.634774280716325,-74.15104427381804,2554.002,0.17,79.453125,3,10,-9999,1561824441.174135,-8.055755615234375,-21.58964920043945,19.41644287109375,123.3005828857422,130.7937774658203,15,156183.90338225,1.383438110351562,0.477935791015625,0.2537841796875,156183.90133725,1.127440192737339,-0.314216257006307,-4.512749902956862,156183.89422625,-84.40974426269531,-49.38764953613281,-543.3101196289062,156183.89627125,-1.931251158471914,1.751746918435331,0.6260999166164704,1.180777430534363,-0.3706750571727753,-4.717742443084717,0.4914546012878418,1.038747668266296,0.1298516988754272,1,0.7131760716438293,0.25356325507164,-0.3664418458938599,0.5411155223846436,0.797089159488678,-0.5859889388084412,0.1458288729190826,0,0,0,-1,156183.5759407917,3,2,1561824440.881162,1561824121.559794,12,3.602502,0,0,10.50458,0,0,1561824170.876706,156180.661259,0,0.9907227,75.36757,0,182478453,3,1,0.31,-12.43179,-15.86896,4
1561824441.214768,93,0,0,1561824440.994432,4.634774280716325,-74.15104427381804,2554.002,0.17,79.453125,3,10,-9999,1561824441.200814,-5.791160583496094,-21.70982360839844,19.8321533203125,124.9381713867188,132.4313659667969,15,156183.92364525,1.598175048828125,0.578155517578125,0.2563934326171875,156183.92160025,1.054927376260553,0.2016404429870225,-3.743350413491956,156183.91433725,-82.31500244140625,-49.76728820800781,-542.9439697265625,156183.91653525,-1.938547442422062,1.751786834080483,0.5360045016454953,1.051059365272522,0.04966391995549202,-3.9352867603302,0.6454828977584839,1.031670570373535,0.08423888683319092,1,0.706637442111969,0.279362291097641,-0.3939699828624725,0.5171149969100952,0.8457127213478088,-0.5107049345970154,0.1547595262527466,0,0,0,-1,156183.5759407917,3,2,1561824440.881162,1561824121.559794,12,3.602502,0,0,10.50458,0,0,1561824170.876706,156180.661259,0,0.9907227,75.36757,0,182478453,3,1,0.31,-12.43179,-15.86896,4
1561824441.234425,94,0,0,1561824440.994432,4.634774280716325,-74.15104427381804,2554.002,0.17,79.453125,3,10,-9999,1561824441.224901,-2.158035278320312,-21.8513298034668,20.63153076171875,221.0401916503906,228.5333862304688,15,156183.94390925,1.829803466796875,0.680572509765625,0.316986083984375,156183.94186425,0.7505629510747758,0.3749009098176156,-2.790638621978061,156183.93441825,-80.87088012695312,-49.53932189941406,-542.4656372070312,156183.93679825,-1.946193883699493,1.761153792525096,0.4620707062907422,0.8522461652755737,0.4045442342758179,-3.065078735351562,0.8367513418197632,1.086137652397156,0.1244403123855591,1,0.7025309801101685,0.3018842041492462,-0.4129730761051178,0.494741678237915,0.8789621591567993,-0.445802628993988,0.1693677008152008,0,0,0,-1,156183.5759407917,3,2,1561824440.881162,1561824121.559794,12,3.602502,0,0,10.50458,0,0,1561824170.876706,156180.661259,0,0.9907227,75.36757,0,182478453,3,1,0.31,-12.43179,-16.85565,4
1561824441.272122,95,0,0,1561824440.994432,4.634774280716325,-74.15104427381804,2554.002,0.17,79.453125,3,10,-9999,1561824441.249218,-1.05267333984375,-21.57468414306641,21.01336669921875,221.4022827148438,228.8954772949219,15,156183.96414225,1.994766235351562,0.673248291015625,0.39276123046875,156183.96212825,0.6443339825653681,-0.0800812539786827,-1.63549835811059,156183.95452925,-79.79887390136719,-49.19000244140625,-542.0364379882812,156183.95706225,-1.950887987474678,1.768652246161852,0.4095994962926063,0.6443123817443848,0.06388147175312042,-1.920310378074646,1.024016261100769,1.084017753601074,0.1681116819381714,1,0.699313223361969,0.3179855346679688,-0.4255809187889099,0.4782543182373047,0.899384617805481,-0.3982419967651367,0.1803075671195984,0,0,0,-1,156183.5759407917,3,2,1561824440.881162,1561824121.559794,12,3.602502,0,0,10.50458,0,0,1561824170.876706,156180.661259,0,0.9907227,75.36757,0,182478453,3,1,0.31,-12.43179,-17.5113,4
1561824441.278407,96,0,0,1561824440.994432,4.634774280716325,-74.15104427381804,2554.002,0.17,79.453125,3,10,-9999,1561824441.249218,-1.05267333984375,-21.57468414306641,21.01336669921875,221.4022827148438,228.8954772949219,15,156183.98440625,2.092666625976562,0.7089996337890625,0.422149658203125,156183.98239225,0.5264456948035936,-0.5434507773120766,-0.6389959424764133,156183.97461025,-79.13082885742188,-49.12843322753906,-541.921630859375,156183.97732625,-1.958183439137132,1.767026296567314,0.3797373546186903,0.5628454685211182,-0.4607546031475067,-0.8729727268218994,1.13566255569458,1.062113285064697,0.2305680513381958,1,0.6968177556991577,0.324016660451889,-0.4357458353042603,0.4685976803302765,0.9109377861022949,-0.3706765472888947,0.1810835599899292,0,0,0,-1,156183.5759407917,3,2,1561824440.881162,1561824121.559794,12,3.602502,0,0,10.50458,0,0,1561824170.876706,156180.661259,0,0.9907227,75.36757,0,182478453,3,1,0.31,-12.43179,-17.5113,4
1561824441.296825,97,0,0,1561824440.994432,4.634774280716325,-74.15104427381804,2554.002,0.17,79.453125,3,10,-9999,1561824441.276264,-0.3012924194335938,-21.4609489440918,21.2713623046875,221.9586944580078,229.4518890380859,15,156184.00466925,2.135696411132812,0.670166015625,0.41326904296875,156184.00265525,0.1887129264235599,-0.6826238474540914,0.4824420177961053,156183.99472125,-78.60209655761719,-48.80470275878906,-541.7694091796875,156183.99758925,-1.966309028082836,1.757669672938745,0.3702638022984699,0.2985874712467194,-0.7008611559867859,0.1512395888566971,1.211256504058838,1.064955830574036,0.2581688165664673,1,0.6949929594993591,0.321843683719635,-0.443362832069397,0.4656510651111603,0.9160017967224121,-0.361861377954483,0.1731971353292465,0,0,0,-1,156183.5759407917,3,2,1561824440.881162,1561824121.559794,12,3.602502,0,0,10.50458,0,0,1561824170.876706,156180.661259,0,0.9907227,75.36757,0,182478453,3,1,0.31,-12.43179,-17.92818,4
1561824441.316084,98,0,0,1561824440.994432,4.634774280716325,-74.15104427381804,2554.002,0.17,79.453125,3,10,-9999,1561824441.300772,0.251251220703125,-21.16117477416992,21.42291259765625,222.4510192871094,229.9442138671875,15,156184.02493325,2.089645385742188,0.5373077392578125,0.3677215576171875,156184.02291925,-0.1214598530996799,-0.5794013214992741,1.867673274575916,156184.01483225,-78.82113647460938,-48.76268005371094,-541.6197509765625,156184.01785325,-1.971540390288952,1.746099603497756,0.3863781434972062,-0.06865286082029343,-0.616787314414978,1.512565732002258,1.211512684822083,0.9907734394073486,0.22169029712677,1,0.6950886845588684,0.3124523460865021,-0.4444370269775391,0.4708513021469116,0.9120835065841675,-0.3768360316753387,0.1615494936704636,0,0,0,-1,156183.5759407917,3,2,1561824440.881162,1561824121.559794,12,3.602502,0,0,10.50458,0,0,1561824170.876706,156181.60485,0,0.9907227,75.36757,0,182478453,3,1,0.31,-12.43179,-18.91664,4
1561824441.352214,99,0,0,1561824440.994432,4.634774280716325,-74.15104427381804,2554.002,0.17,79.453125,3,10,-9999,1561824441.350808,-1.434715270996094,-20.99593544006348,21.4371337890625,223.2222595214844,230.7154541015625,15,156184.04519725,1.95086669921875,0.3958587646484375,0.313323974609375,156184.04318325,-0.2937855503876551,-0.4425425383445382,3.25915816622745,156184.03491225,-79.28143310546875,-48.80877685546875,-541.5966796875,156184.03808625,-1.975998104538577,1.73680829636686,0.4312086657326081,-0.2721713483333588,-0.4758986830711365,2.921157836914062,1.13437831401825,0.8831638097763062,0.1956251859664917,1,0.6986106634140015,0.2949660420417786,-0.4370386302471161,0.483668714761734,0.895971417427063,-0.417969137430191,0.150123655796051,0,0,0,-1,156183.5759407917,3,2,1561824440.881162,1561824121.559794,12,3.602502,0,0,10.50458,0,0,1561824170.876706,156181.60485,0,0.9907227,75.36757,0,182478453,3,1,0.31,-12.43179,-19.88435,4
1561824441.356041,100,0,0,1561824440.994432,4.634774280716325,-74.15104427381804,2554.002,0.17,79.453125,3,10,-9999,1561824441.350808,-1.434715270996094,-20.99593544006348,21.4371337890625,223.2222595214844,230.7154541015625,15,156184.06546025,1.747848510742188,0.2436981201171875,0.278106689453125,156184.06341625,-0.2478534784348405,-0.5885213166522505,4.445895771164276,156184.05502325,-80.61003112792969,-48.66828918457031,-541.7413330078125,156184.05835025,-1.982595402407387,1.730529472276869,0.5035023255866076,-0.2748262584209442,-0.5105192065238953,4.177999019622803,0.9949475526809692,0.8000926375389099,0.1518677473068237,1,0.705353856086731,0.2685774266719818,-0.421626478433609,0.5025668144226074,0.864747941493988,-0.4824961721897125,0.1393157988786697,0,0,0,-1,156183.5759407917,3,2,1561824440.881162,1561824121.559794,12,3.602502,0,0,10.50458,0,0,1561824170.876706,156181.60485,0,0.9907227,75.36757,0,182478453,3,1,0.31,-12.43179,-20.87235,4
1561824441.376209,101,0,0,1561824440.994432,4.634774280716325,-74.15104427381804,2554.002,0.17,79.453125,3,10,-9999,1561824441.350808,-1.434715270996094,-20.99593544006348,21.4371337890625,223.2222595214844,230.7154541015625,15,156184.08572425,1.5091552734375,0.114410400390625,0.24420166015625,156184.08367925,-0.1698425658875854,-0.7618656730571811,5.228327439423484,156184.07513425,-82.28448486328125,-48.38240051269531,-541.9442749023438,156184.07861325,-1.994450747775713,1.72313903116437,0.5975316506768749,-0.1884498298168182,-0.7878733277320862,5.072421073913574,0.8088704347610474,0.7457547783851624,0.1405320167541504,1,0.7132027745246887,0.2325325906276703,-0.4015884101390839,0.5253543257713318,0.8171519637107849,-0.5626035332679749,0.1254592090845108,0,0,0,-1,156183.5759407917,3,2,1561824440.881162,1561824121.559794,12,3.602502,0,0,10.50458,0,0,1561824170.876706,156181.60485,0,0.9907227,75.36757,0,182478453,3,1,0.31,-12.43179,-20.87235,4
1561824441.396817,102,0,0,1561824440.994432,4.634774280716325,-74.15104427381804,2554.002,0.17,79.453125,3,10,-9999,1561824441.377397,-3.023841857910156,-20.71256065368652,21.296142578125,224.1310119628906,231.6242065429688,15,156184.10598825,1.300064086914062,0.01568603515625,0.208709716796875,156184.10394325,-0.1423669992373469,-0.4913697327183779,5.697808118510284,156184.09521525,-84.1180419921875,-47.96687316894531,-541.9683227539062,156184.09887725,-2.010805178169186,1.718938382005283,0.7052707181243353,-0.1390862762928009,-0.5643997192382812,5.598254203796387,0.6456619501113892,0.7023476362228394,0.1140824556350708,1,0.7210513949394226,0.1904709041118622,-0.37716144323349,0.5491401553153992,0.7530959844589233,-0.6482399702072144,0.1123885586857796,0,0,0,-1,156183.5759407917,3,2,1561824440.881162,1561824121.559794,12,3.602502,0,0,10.50458,0,0,1561824170.876706,156181.60485,0,0.9907227,75.36757,0,182478453,3,1,0.31,-12.43179,-16.87113,4
1561824441.429882,103,0,0,1561824440.994432,4.634774280716325,-74.15104427381804,2554.002,0.17,79.453125,3,10,-9999,1561824441.427267,-9.094985961914062,-18.71718788146973,21.4033203125,227.2028503417969,234.696044921875,15,156184.12622125,1.134353637695312,-0.071258544921875,0.1910858154296875,156184.12420725,-0.1468477677714052,-0.3392582270524311,6.204126707059494,156184.11532625,-86.19992065429688,-47.00885009765625,-541.96923828125,156184.11914125,-2.031062004658566,1.724092432490065,0.8220500863724711,-0.1524513512849808,-0.3446274697780609,6.049045085906982,0.5430209040641785,0.7057026624679565,0.09655678272247314,1,0.7284830212593079,0.1458914577960968,-0.347125232219696,0.5723044276237488,0.6727383136749268,-0.7325429320335388,0.1039436608552933,0,0,0,-1,156183.5759407917,3,2,1561824440.881162,1561824121.559794,12,3.602502,0,0,10.50458,0,0,1561824170.876706,156181.60485,0,0.9907227,75.36757,0,182478453,3,1,0.31,-12.43179,-18.14825,4
1561824441.43719,104,0,0,1561824440.994432,4.634774280716325,-74.15104427381804,2554.002,0.17,79.453125,3,10,-9999,1561824441.427267,-9.094985961914062,-18.71718788146973,21.4033203125,227.2028503417969,234.696044921875,15,156184.14648525,0.984283447265625,-0.1622314453125,0.147430419921875,156184.14447025,-0.03293637846544597,-0.6163068752533742,6.887440579552025,156184.13540725,-88.47686767578125,-46.26068115234375,-541.744140625,156184.13940425,-2.05957496340122,1.738049747391668,0.949775496516174,-0.07857979089021683,-0.5281594395637512,6.701498985290527,0.4918056130409241,0.6983251571655273,0.07134687900543213,1,0.7342143058776855,0.09675908088684082,-0.3123079538345337,0.5950048565864563,0.5737462043762207,-0.8132848739624023,0.0968659296631813,0,0,0,-1,156183.5759407917,3,2,1561824440.881162,1561824121.559794,12,3.602502,0,0,10.50458,0,0,1561824170.876706,156181.60485,0,0.9907227,75.36757,0,182478453,3,1,0.31,-12.43179,-18.14825,4
1561824441.457282,105,0,0,1561824440.994432,4.634774280716325,-74.15104427381804,2554.002,0.17,79.453125,3,10,-9999,1561824441.453011,-11.15436553955078,-17.10693550109863,21.47308349609375,130.6305999755859,138.1237945556641,15,156184.16674825,0.7599029541015625,-0.2068023681640625,0.126373291015625,156184.16473425,0.00572606265977937,-0.9563019989794302,7.561228857457561,156184.15551825,-90.55032348632812,-44.49613952636719,-541.7017822265625,156184.15966825,-2.108258635478339,1.764896614837438,1.090454754282515,0.01319780200719833,-0.9196819663047791,7.393447875976562,0.4336495995521545,0.6898461580276489,0.05639493465423584,1,0.7368751764297485,0.03973715379834175,-0.2744051814079285,0.6165530681610107,0.4534048736095428,-0.8868371248245239,0.08912813663482666,0,0,0,-1,156183.5759407917,3,2,1561824440.881162,1561824121.559794,12,3.602502,0,0,10.50458,0,0,1561824170.876706,156181.60485,0,0.9907227,75.36757,0,182478453,3,1,0.31,-12.43179,-18.70709,4
1561824441.481179,106,0,0,1561824440.994432,4.634774280716325,-74.15104427381804,2554.002,0.17,79.453125,3,10,-9999,1561824441.478735,-13.17855834960938,-15.11025428771973,21.6868896484375,131.7366333007812,139.2298278808594,15,156184.18701225,0.4459075927734375,-0.2056121826171875,0.07177734375,156184.18499825,0.2130803177655669,-0.5044293420719085,7.916609062801005,156184.17562925,-92.58047485351562,-42.39695739746094,-541.3989868164062,156184.17990125,-2.198165540851733,1.829839566657296,1.241885802936885,0.1141715496778488,-0.6928408145904541,7.886589527130127,0.291173905134201,0.744505763053894,0.005194902420043945,1,0.7354143261909485,-0.02316196821630001,-0.2323199063539505,0.6361263394355774,0.3122349083423615,-0.9463948011398315,0.08274141699075699,0,0,0,-1,156183.5759407917,3,2,1561824440.881162,1561824121.559794,12,3.602502,0,0,10.50458,0,0,1561824170.876706,156181.60485,0,0.9907227,75.36757,0,182478453,3,1,0.31,-12.43179,-19.50488,4
1561824441.510184,107,0,0,1561824440.994432,4.634774280716325,-74.15104427381804,2554.002,0.17,79.453125,3,10,-9999,1561824441.502427,-15.23520660400391,-12.51321220397949,21.8868408203125,131.5897979736328,139.0829925537109,15,156184.20727625,0.1548309326171875,-0.2525177001953125,0.063385009765625,156184.20523125,0.4986252487921898,0.4487791289852857,7.680621564919121,156184.19570925,-94.58308410644531,-39.66641235351562,-541.2364501953125,156184.20016525,-2.455071502774681,2.073537338038392,1.388918973515166,0.465829461812973,0.1915134638547897,7.762341022491455,0.1323830783367157,0.7572180032730103,-0.02607035636901855,1,0.7324588894844055,-0.08414040505886078,-0.182903528213501,0.6503618955612183,0.1584952026605606,-0.9835058450698853,0.08715126663446426,0,0,0,-1,156183.5759407917,3,2,1561824440.881162,1561824121.559794,12,3.602502,0,0,10.50458,0,0,1561824170.876706,156181.60485,0,0.9907227,75.36757,0,182478453,3,1,0.31,-12.43179,-20.13002,4
1561824441.51831,108,0,0,1561824440.994432,4.634774280716325,-74.15104427381804,2554.002,0.17,79.453125,3,10,-9999,1561824441.502427,-15.23520660400391,-12.51321220397949,21.8868408203125,131.5897979736328,139.0829925537109,15,156184.22753925,-0.12677001953125,-0.2712249755859375,0.065277099609375,156184.22549525,0.2390940752934609,1.368680243237186,7.400854361877425,156184.21582025,-96.33706665039062,-37.19331359863281,-541.3284912109375,156184.22042925,2.807357409816547,3.100381649986168,1.473151634987624,0.3759720027446747,1.133713722229004,7.50709342956543,0.02053496241569519,0.7361270189285278,-0.03759086132049561,1,0.7279950380325317,-0.1368424296379089,-0.1267667859792709,0.6597176790237427,0.004016442224383354,-0.9952365159988403,0.09740525484085083,0,0,0,-1,156183.5759407917,3,2,1561824440.881162,1561824121.559794,12,3.602502,0,0,10.50458,0,0,1561824170.876706,156181.60485,0,0.9907227,75.36757,0,182478453,3,1,0.31,-12.43179,-20.88424,4
1561824441.538339,109,0,0,1561824440.994432,4.634774280716325,-74.15104427381804,2554.002,0.17,79.453125,3,10,-9999,1561824441.529423,-18.84116363525391,-7.35133171081543,21.24090576171875,129.6799468994141,137.1731414794922,15,156184.24780325,-0.3594970703125,-0.38092041015625,0.076263427734375,156184.24575825,-0.848137444989753,1.939362907959759,6.643372518290623,156184.23590125,-98.14152526855469,-34.57252502441406,-542.068603515625,156184.24069225,1.800219552224874,-2.151699580966302,1.39723742179625,-0.5427785515785217,1.862644553184509,6.874829769134521,-0.09584154188632965,0.6721559762954712,-0.001140236854553223,1,0.7177524566650391,-0.1794866770505905,-0.06683948636054993,0.669438898563385,-0.1443623155355453,-0.9849764108657837,0.09476811438798904,0,0,0,-1,156183.5759407917,3,2,1561824440.881162,1561824121.559794,12,3.602502,0,0,10.50458,0,0,1561824170.876706,156181.60485,0,0.9907227,75.36757,0,182478453,3,1,0.31,-12.43179,-20.88424,4
1561824441.559056,110,0,0,1561824440.994432,4.634774280716325,-74.15104427381804,2554.002,0.17,79.453125,3,10,-9999,1561824441.557725,-20.42098999023438,-4.82603645324707,20.50335693359375,127.4806213378906,134.9738159179688,15,156184.26803625,-0.554962158203125,-0.3853302001953125,0.066497802734375,156184.26602225,-1.396228780501293,1.117505802923017,5.548797863933734,156184.25601225,-99.67971801757812,-32.040771484375,-542.7817993164062,156184.26095625,1.486550021235431,-1.80920600831211,1.285687895778888,-1.383355855941772,1.443912506103516,5.855164527893066,-0.1765842735767365,0.5498868823051453,0.0008234977722167969,1,0.698581337928772,-0.2125914394855499,-0.0122681325301528,0.6831094026565552,-0.2733058333396912,-0.9596311450004578,0.06642200797796249,0,0,0,-1,156183.5759407917,3,2,1561824440.881162,1561824121.559794,12,3.602502,0,0,10.50458,0,0,1561824170.876706,156181.60485,0,0.9907227,75.36757,0,182478453,3,1,0.31,-12.43179,-21.84698,4
1561824441.588571,111,0,0,1561824440.994432,4.634774280716325,-74.15104427381804,2554.002,0.17,79.453125,3,10,-9999,1561824441.579127,-21.52599334716797,-2.966300964355469,19.8680419921875,127.2431030273438,134.7362976074219,15,156184.28830025,-0.7418060302734375,-0.2494964599609375,0.06658935546875,156184.28628625,-1.014255047460645,0.1717057133862048,4.652356003092123,156184.27612325,-100.6280975341797,-30.31570434570312,-543.399169921875,156184.28122025,1.353446465851303,-1.666330647356541,1.184523196490855,-1.132781386375427,0.3415321111679077,4.781025409698486,-0.2950687408447266,0.6072887778282166,0.03227007389068604,1,0.6772235035896301,-0.2435912787914276,0.02734689600765705,0.6937462091445923,-0.3750209808349609,-0.9263195395469666,0.03593676909804344,0,0,0,-1,156183.5759407917,3,2,1561824440.881162,1561824121.559794,12,3.602502,0,0,10.50458,0,0,1561824170.876706,156181.60485,0,0.9907227,75.36757,0,182478453,3,1,0.31,-12.43179,-23.67841,4
1561824441.599205,112,0,0,1561824440.994432,4.634774280716325,-74.15104427381804,2554.002,0.17,79.453125,3,10,-9999,1561824441.579127,-21.52599334716797,-2.966300964355469,19.8680419921875,127.2431030273438,134.7362976074219,15,156184.30856325,-0.772430419921875,-0.091583251953125,-0.005096435546875,156184.30654925,-0.5757972655960699,-0.04990604093143088,4.489456830798593,156184.29623425,-100.6456298828125,-28.97589111328125,-543.2855224609375,156184.30148325,1.29469571947358,-1.611543010411612,1.092814114426552,-0.6863617897033691,-0.08525754511356354,4.497787952423096,-0.3010898232460022,0.70921391248703,0.0041961669921875,1,0.6587533354759216,-0.2746141850948334,0.05784668028354645,0.6980578899383545,-0.4596065878868103,-0.8879249095916748,0.01873781532049179,0,0,0,-1,156183.5759407917,3,2,1561824440.881162,1561824121.559794,12,3.602502,0,0,10.50458,0,0,1561824170.876706,156181.60485,0,0.9907227,75.36757,0,182478453,3,1,0.31,-12.43179,-23.67841,4
1561824441.619934,113,0,0,1561824440.994432,4.634774280716325,-74.15104427381804,2554.002,0.17,79.453125,3,10,-9999,1561824441.603995,-21.69348907470703,-1.539657592773438,19.84588623046875,127.7300872802734,135.2232818603516,15,156184.32882725,-0.8730621337890625,0.097320556640625,-0.0111541748046875,156184.32681325,-0.2434118583688063,0.4721382475385887,4.730144275372248,156184.31631525,-100.7947998046875,-27.1806640625,-543.2671508789062,156184.32174725,1.269777767181666,-1.588651127242242,1.0015759201651,-0.2940601110458374,0.3172805607318878,4.615494251251221,-0.2819875478744507,0.8458003997802734,-0.03067994117736816,1,0.6420367956161499,-0.3043027222156525,0.08881158381700516,0.6980695128440857,-0.5388895273208618,-0.8423213958740234,0.009622787125408649,0,0,0,-1,156183.5759407917,3,2,1561824440.881162,1561824121.559794,12,3.602502,0,0,10.50458,0,0,1561824170.876706,156181.60485,0,0.9907227,75.36757,0,182478453,3,1,0.31,-12.43179,-24.4554,4
1561824441.639585,114,0,0,1561824440.994432,4.634774280716325,-74.15104427381804,2554.002,0.17,79.453125,3,10,-9999,1561824441.629863,-22.07684326171875,2.095319747924805,19.5731201171875,127.4561462402344,134.9493408203125,15,156184.34909125,-0.9858245849609375,0.277862548828125,0.0394439697265625,156184.34707725,-0.3582846488282842,0.72321015615079,5.311494764473351,156184.33642625,-101.0948638916016,-25.2987060546875,-543.6514892578125,156184.34198025,1.259389301811047,-1.568948076549408,0.9033364932912712,-0.3003113269805908,0.6911718845367432,5.138225078582764,-0.3059958219528198,0.9886589050292969,0.01731836795806885,1,0.6239759922027588,-0.3317859768867493,0.1257964968681335,0.6962379813194275,-0.6189919710159302,-0.7853965163230896,-0.001144053414463997,0,0,0,-1,156183.5759407917,3,2,1561824440.881162,1561824121.559794,12,3.602502,0,0,10.50458,0,0,1561824170.876706,156181.60485,0,0.9907227,75.36757,0,182478453,3,1,0.31,-12.43179,-25.37431,4
1561824441.668498,115,0,0,1561824440.994432,4.634774280716325,-74.15104427381804,2554.002,0.17,79.453125,3,10,-9999,1561824441.654361,-21.82223510742188,4.148714065551758,19.22637939453125,127.0695648193359,134.5627593994141,15,156184.36935425,-1.20013427734375,0.3076171875,0.13336181640625,156184.36731025,-0.5015169091037979,0.5868320735728133,5.70253096838743,156184.35653725,-100.7236022949219,-23.20292663574219,-543.9348754882812,156184.36224425,1.249263601735094,-1.546962238859206,0.7928679424248698,-0.4779010415077209,0.6707411408424377,5.668802261352539,-0.3883903622627258,1.008618354797363,0.1064317226409912,1,0.6009763479232788,-0.3611990809440613,0.1671370267868042,0.6931291222572327,-0.7016059756278992,-0.7123689651489258,-0.01672530546784401,0,0,0,-1,156183.5759407917,3,2,1561824440.881162,1561824121.559794,12,3.602502,0,0,10.50458,0,0,1561824170.876706,156181.60485,0,0.9907227,75.36757,0,182478453,3,1,0.31,-12.43179,-26.19364,4
1561824441.68072,116,0,0,1561824440.994432,4.634774280716325,-74.15104427381804,2554.002,0.17,79.453125,3,10,-9999,1561824441.654361,-21.82223510742188,4.148714065551758,19.22637939453125,127.0695648193359,134.5627593994141,15,156184.38961825,-1.409225463867188,0.21026611328125,0.0928192138671875,156184.38757325,-0.1744096208409623,-0.335994523136539,5.501689207411323,156184.37661825,-100.4915161132812,-21.14639282226562,-543.8948364257812,156184.38250725,1.241647124610796,-1.534078569015995,0.6769892194944839,-0.3265362977981567,-0.06418049335479736,5.669233798980713,-0.5097593069076538,0.9141687750816345,0.1533390283584595,1,0.5752652883529663,-0.3933992981910706,0.2075907289981842,0.6864495277404785,-0.7789369821548462,-0.6264490485191345,-0.02861368097364902,0,0,0,-1,156183.5759407917,3,2,1561824440.881162,1561824121.559794,12,3.602502,0,0,10.50458,0,0,1561824170.876706,156181.60485,0,0.9907227,75.36757,0,182478453,3,1,0.31,-12.43179,-26.49993,4
1561824441.700378,117,0,0,1561824440.994432,4.634774280716325,-74.15104427381804,2554.002,0.17,79.453125,3,10,-9999,1561824441.681557,-21.61566925048828,6.210624694824219,19.25738525390625,127.3106994628906,134.8038940429688,15,156184.40988225,-1.668975830078125,-0.0808868408203125,0.0420074462890625,156184.40783725,0.1648166482783879,-1.036026389372042,4.240290680262452,156184.39672925,-99.26557922363281,-18.91079711914062,-543.876220703125,156184.40277125,1.244749168410973,-1.547045237474738,0.5716310779987125,0.1766041070222855,-0.9507622718811035,4.598656177520752,-0.697669506072998,0.6344035863876343,0.0926661491394043,1,0.554664671421051,-0.427036851644516,0.2401195168495178,0.6725543737411499,-0.840782642364502,-0.5410045385360718,-0.0199732594192028,0,0,0,-1,156183.5759407917,3,2,1561824440.881162,1561824121.559794,12,3.602502,0,0,10.50458,0,0,1561824170.876706,156181.60485,0,0.9907227,75.36757,0,182478453,3,1,0.31,-12.43179,-26.49993,4
1561824441.720587,118,0,0,1561824440.994432,4.634774280716325,-74.15104427381804,2554.002,0.17,79.453125,3,10,-9999,1561824441.70483,-20.57540130615234,8.415220260620117,19.26568603515625,38.21660995483398,45.70980453491211,15,156184.43011525,-1.76263427734375,-0.3057403564453125,-0.012664794921875,156184.42810125,-1.107870219783001,-0.244912017010848,2.551812727006371,156184.41680925,-98.26347351074219,-17.14927673339844,-543.3497924804688,156184.42303525,1.244488575673417,-1.56590042297957,0.4943807464533809,-0.6297736167907715,-0.6221873164176941,2.969870567321777,-0.8662688732147217,0.244368851184845,0.02196407318115234,1,0.5395686030387878,-0.4546546936035156,0.2603508830070496,0.6590692400932312,-0.8802521824836731,-0.4744866490364075,-0.004309664480388165,0,0,0,-1,156183.5759407917,3,2,1561824440.881162,1561824121.559794,12,3.602502,0,0,10.50458,0,0,1561824170.876706,156181.60485,0,0.9907227,75.36757,0,182478453,3,1,0.31,-12.43179,-27.42924,4
1561824441.748665,119,0,0,1561824440.994432,4.634774280716325,-74.15104427381804,2554.002,0.17,79.453125,3,10,-9999,1561824441.731338,-18.95029449462891,10.92842292785645,19.88800048828125,39.9902458190918,47.48344039916992,15,156184.45037925,-1.6707763671875,-0.450103759765625,-0.2702484130859375,156184.44836425,-3.080521309788205,1.040215009134519,1.35636312319557,156184.43692025,-97.88197326660156,-16.72669982910156,-543.2536010742188,156184.44329825,1.2079966049061,-1.547140117214691,0.4490546131611421,-2.631820678710938,0.8152051568031311,1.579265236854553,-0.8242171406745911,0.05121001601219177,-0.07543182373046875,1,0.5179575681686401,-0.4701760411262512,0.2680780291557312,0.6624112129211426,-0.9006058573722839,-0.4341140687465668,-0.02130889520049095,0,0,0,-1,156183.5759407917,3,2,1561824440.881162,1561824121.559794,12,3.602502,0,0,10.50458,0,0,1561824170.876706,156181.60485,0,0.9907227,75.36757,0,182478453,3,1,0.31,-12.43179,-28.1514,4
1561824441.763253,120,0,0,1561824440.994432,4.634774280716325,-74.15104427381804,2554.002,0.17,79.453125,3,10,-9999,1561824441.755596,-19.01982116699219,10.38127899169922,20.035400390625,45.21311187744141,52.70630645751953,15,156184.47064225,-1.625350952148438,-0.4202423095703125,-0.7952423095703125,156184.46862825,-3.640615512332732,1.882059138152306,0.3900005005661469,156184.45703125,-98.08828735351562,-17.49897766113281,-543.1319580078125,156184.46356225,1.133434460469615,-1.490786630981846,0.4224883666909189,-3.841860294342041,1.666014790534973,0.6770098209381104,-0.7567857503890991,-0.01468181610107422,-0.4811193943023682,1,0.4860283434391022,-0.4767893552780151,0.2657480239868164,0.6825146675109863,-0.9091535806655884,-0.4100312888622284,-0.07289671897888184,0,0,0,-1,156183.5759407917,3,2,1561824440.881162,1561824121.559794,12,3.602502,0,0,10.50458,0,0,1561824170.876706,156181.60485,0,0.9907227,75.36757,0,182478453,3,1,0.31,-12.43179,-28.91976,4
1561824441.782327,121,0,0,1561824440.994432,4.634774280716325,-74.15104427381804,2554.002,0.17,79.453125,3,10,-9999,1561824441.755596,-19.01982116699219,10.38127899169922,20.035400390625,45.21311187744141,52.70630645751953,15,156184.49090625,-1.297286987304688,-0.5432891845703125,-0.7481689453125,156184.48889225,-0.5166673662291497,1.899047975378139,-0.5548917173550569,156184.47711225,-98.644287109375,-18.84820556640625,-543.056884765625,156184.48379525,1.068110239829183,-1.42451249372437,0.4139664563574449,-1.50351345539093,2.053611993789673,-0.4284651875495911,-0.5692516565322876,-0.08971470594406128,-0.7164487838745117,1,0.4594581425189972,-0.4713522791862488,0.2614480257034302,0.7059534788131714,-0.9057543873786926,-0.4022439122200012,-0.1334504932165146,0,0,0,-1,156183.5759407917,3,2,1561824440.881162,1561824121.559794,12,3.602502,0,0,10.50458,0,0,1561824170.876706,156181.60485,0,0.9907227,75.36757,0,182478453,3,1,0.31,-12.43179,-29.56698,4
1561824441.801697,122,0,0,1561824440.994432,4.634774280716325,-74.15104427381804,2554.002,0.17,79.453125,3,10,-9999,1561824441.782899,-19.57018280029297,9.182783126831055,20.0989990234375,48.87914657592773,56.37234115600586,15,156184.51117025,-1.0506591796875,-0.354522705078125,-0.4761810302734375,156184.50912525,2.277087953172631,0.3490400177362921,-0.2379041749184135,156184.49722325,-99.61930847167969,-19.1322021484375,-543.7938232421875,156184.50405925,1.073299311890116,-1.395197400141061,0.4258979265644512,1.8534836769104,0.8191652297973633,-0.4293293952941895,-0.259265661239624,-0.06255406141281128,-0.4430352449417114,1,0.4602058827877045,-0.456798255443573,0.2662942409515381,0.7131853103637695,-0.8966639637947083,-0.4131386578083038,-0.1590918004512787,0,0,0,-1,156183.5759407917,3,2,1561824440.881162,1561824121.559794,12,3.602502,0,0,10.50458,0,0,1561824170.876706,156181.60485,0,0.9907227,75.36757,0,182478453,3,1,0.31,-12.43179,-29.86709,4
