loggingTime,loggingSample,identifierForVendor,deviceID,locationTimestamp_since1970,locationLatitude,locationLongitude,locationAltitude,locationSpeed,locationCourse,locationVerticalAccuracy,locationHorizontalAccuracy,locationFloor,locationHeadingTimestamp_since1970,locationHeadingX,locationHeadingY,locationHeadingZ,locationTrueHeading,locationMagneticHeading,locationHeadingAccuracy,accelerometerTimestamp_sinceReboot,accelerometerAccelerationX,accelerometerAccelerationY,accelerometerAccelerationZ,gyroTimestamp_sinceReboot,gyroRotationX,gyroRotationY,gyroRotationZ,magnetometerTimestamp_sinceReboot,magnetometerX,magnetometerY,magnetometerZ,motionTimestamp_sinceReboot,motionYaw,motionRoll,motionPitch,motionRotationRateX,motionRotationRateY,motionRotationRateZ,motionUserAccelerationX,motionUserAccelerationY,motionUserAccelerationZ,motionAttitudeReferenceFrame,motionQuaternionX,motionQuaternionY,motionQuaternionZ,motionQuaternionW,motionGravityX,motionGravityY,motionGravityZ,motionMagneticFieldX,motionMagneticFieldY,motionMagneticFieldZ,motionMagneticFieldCalibrationAccuracy,activityTimestamp_sinceReboot,activity,activityActivityConfidence,activityActivityStartDate,pedometerStartDate,pedometerNumberofSteps,pedometerAverageActivePace,pedometerCurrentPace,pedometerCurrentCadence,pedometerDistance,pedometerFloorAscended,pedometerFloorDescended,pedometerEndDate,altimeterTimestamp_sinceReboot,altimeterReset,altimeterRelativeAltitude,altimeterPressure,IP_en0,IP_pdp_ip0,deviceOrientation,batteryState,batteryLevel,avAudioRecorderPeakPower,avAudioRecorderAveragePower,label
1561841785.91345,1,0,0,1561841784.998919,4.634705591019834,-74.15082827217331,2555.738,0.39,303.046875,4,10,-9999,1561841785.901663,0.9276046752929688,-19.80178833007812,20.9940185546875,191.2406311035156,198.7337341308594,15,169602.20019975,-0.389923095703125,-0.891937255859375,-0.236602783203125,169602.20019975,0.04317197179905651,-0.005616340422868105,-0.0318149213304136,169602.17352775,-73.39006042480469,-46.4735107421875,-541.8746337890625,169602.19513375,0.161461371188232,-1.022945149132494,1.098824330766368,0.03526168316602707,-0.008264049887657166,-0.03815015777945518,-0.002597004175186157,-0.004590213298797607,0.0001389980316162109,1,0.487538754940033,-0.3793475329875946,-0.1947843879461288,0.7618794441223145,-0.3881042897701263,-0.8906734585762024,-0.2368028163909912,0,0,0,-1,169600.1746449167,1,2,1561841784.121144,1561841239.621676,42,1.91319,0,0,42.10339,0,0,1561841755.596066,169599.111103,0,0.9645996,75.18385,0,182478453,1,1,0.99,-40.14532,-43.79585,5
1561841785.918318,2,0,0,1561841784.998919,4.634705591019834,-74.15082827217331,2555.738,0.39,303.046875,4,10,-9999,1561841785.901663,0.9276046752929688,-19.80178833007812,20.9940185546875,191.2406311035156,198.7337341308594,15,169602.22046375,-0.382293701171875,-0.8842926025390625,-0.2369384765625,169602.22046375,0.04194345558820296,0.002619485248201939,-0.01307958306170616,169602.19363875,-73.39590454101562,-46.0302734375,-541.9095458984375,169602.21539775,0.1622522731690517,-1.023876911263582,1.099802061886197,0.04053420946002007,-0.008277099579572678,-0.02376295998692513,0.001670897006988525,0.003254413604736328,-0.002003133296966553,1,0.4879501163959503,-0.3793554902076721,-0.1949317753314972,0.7615744471549988,-0.387580931186676,-0.8911175727844238,-0.2359881848096848,0,0,0,-1,169600.1746449167,1,2,1561841784.121144,1561841239.621676,42,1.91319,0,0,42.10339,0,0,1561841755.596066,169599.111103,0,0.9645996,75.18385,0,182478453,1,1,0.99,-40.14532,-44.368,5
1561841785.938509,3,0,0,1561841784.998919,4.634705591019834,-74.15082827217331,2555.738,0.39,303.046875,4,10,-9999,1561841785.922508,1.072456359863281,-19.81678009033203,20.97662353515625,191.2315979003906,198.7247009277344,15,169602.24072675,-0.38592529296875,-0.8829193115234375,-0.235504150390625,169602.24072675,0.04255465105837615,0.01584660743429849,-0.007486412140321747,169602.21374975,-73.40315246582031,-46.38236999511719,-541.736083984375,169602.23566075,0.1634561681697878,-1.024941879252139,1.100401078813918,0.03899437189102173,0.008600151166319847,-0.007471605204045773,0.004105687141418457,0.007905364036560059,-0.001426577568054199,1,0.4882902204990387,-0.3793725371360779,-0.1948690414428711,0.7613641023635864,-0.3873759806156158,-0.8913891911506653,-0.2352982759475708,0,0,0,-1,169600.1746449167,1,2,1561841784.121144,1561841239.621676,42,1.91319,0,0,42.10339,0,0,1561841755.596066,169599.111103,0,0.9645996,75.18385,0,182478453,1,1,0.99,-40.14532,-44.368,5
1561841785.960748,4,0,0,1561841784.998919,4.634705591019834,-74.15082827217331,2555.738,0.39,303.046875,4,10,-9999,1561841785.947431,0.9329986572265625,-19.7115592956543,20.9498291015625,191.1999359130859,198.6930389404297,15,169602.26099075,-0.385284423828125,-0.8885040283203125,-0.230560302734375,169602.26099075,0.04797125439948831,0.001787513723661185,-0.007344199338111515,169602.23386075,-73.31597900390625,-46.53225708007812,-542.0440673828125,169602.25592475,0.1647504079261829,-1.025929455426501,1.101007126570463,0.04673884436488152,0.002433335408568382,-0.01431007031351328,0.001296758651733398,0.005082309246063232,0.002091407775878906,1,0.488657534122467,-0.3793364465236664,-0.1947553604841232,0.7611753344535828,-0.3871457576751709,-0.8916637301445007,-0.2346353530883789,0,0,0,-1,169600.1746449167,1,2,1561841784.121144,1561841239.621676,42,1.91319,0,0,42.10339,0,0,1561841755.596066,169599.111103,0,0.9645996,75.18385,0,182478453,1,1,0.99,-40.14532,-45.02181,5
1561841785.988505,5,0,0,1561841784.998919,4.634705591019834,-74.15082827217331,2555.738,0.39,303.046875,4,10,-9999,1561841785.973157,0.96661376953125,-19.71375274658203,21.08404541015625,191.1768493652344,198.6699523925781,15,169602.28125475,-0.3840484619140625,-0.8842620849609375,-0.2336883544921875,169602.28125475,0.03089479917379123,0.01734729870855814,-0.006059756744366299,169602.25397175,-73.44989013671875,-46.24359130859375,-542.0908203125,169602.27615775,0.1661177100630875,-1.027208522093763,1.101633457657841,0.03376765176653862,0.0004665907472372055,-0.01088710967451334,0.002018988132476807,0.005854010581970215,0.001246213912963867,1,0.4890173375606537,-0.3793895542621613,-0.1946899741888046,0.760934591293335,-0.3869677186012268,-0.8919470906257629,-0.2338512241840363,0,0,0,-1,169600.1746449167,1,2,1561841784.121144,1561841239.621676,42,1.91319,0,0,42.10339,0,0,1561841755.596066,169599.111103,0,0.9645996,75.18385,0,182478453,1,1,0.99,-40.14532,-43.39515,5
1561841785.999252,6,0,0,1561841784.998919,4.634705591019834,-74.15082827217331,2555.738,0.39,303.046875,4,10,-9999,1561841785.997644,1.155647277832031,-19.88214492797852,20.9774169921875,191.1356201171875,198.6287231445312,15,169602.30148775,-0.3779754638671875,-0.8812103271484375,-0.2358551025390625,169602.30148775,0.01597417285051329,0.03867362640180368,0.007358047775779928,169602.27408275,-73.41259765625,-46.29306030273438,-541.9096069335938,169602.29642175,0.1668346595976857,-1.027432439593555,1.101954457490715,0.01470873970538378,0.03278405219316483,0.002679565688595176,0.00767052173614502,0.009691715240478516,-0.0006821155548095703,1,0.4892467558383942,-0.3792483508586884,-0.1945449560880661,0.7608946561813354,-0.3867751061916351,-0.8920921683311462,-0.2336166054010391,0,0,0,-1,169600.1746449167,1,2,1561841784.121144,1561841239.621676,42,1.91319,0,0,42.10339,0,0,1561841755.596066,169599.111103,0,0.9645996,75.18385,0,182478453,1,1,0.99,-40.14532,-43.39515,5
1561841786.019546,7,0,0,1561841784.998919,4.634705591019834,-74.15082827217331,2555.738,0.39,303.046875,4,10,-9999,1561841785.997644,1.155647277832031,-19.88214492797852,20.9774169921875,191.1356201171875,198.6287231445312,15,169602.32175175,-0.382965087890625,-0.8791351318359375,-0.2310791015625,169602.32175175,0.02881700089131141,0.01101430163634971,-0.006491721473177151,169602.29419375,-73.24687194824219,-46.21516418457031,-542.003662109375,169602.31668575,0.1674631906168793,-1.027485920267821,1.102042981605502,0.02174587547779083,0.0102425217628479,-0.001630227779969573,0.006623625755310059,0.01304280757904053,0.0002787113189697266,1,0.48939248919487,-0.3791008293628693,-0.1943390518426895,0.7609270811080933,-0.3867200314998627,-0.8921321630477905,-0.2335551083087921,0,0,0,-1,169600.1746449167,1,2,1561841784.121144,1561841239.621676,42,1.91319,0,0,42.10339,0,0,1561841755.596066,169599.111103,0,0.9645996,75.18385,0,182478453,1,1,0.99,-40.14532,-43.8242,5
1561841786.039781,8,0,0,1561841784.998919,4.634705591019834,-74.15082827217331,2555.738,0.39,303.046875,4,10,-9999,1561841786.023904,1.007606506347656,-19.74924468994141,20.98785400390625,191.1048431396484,198.5979461669922,15,169602.34201475,-0.3875732421875,-0.878082275390625,-0.22991943359375,169602.34201475,0.0467475318785969,0.01327186329240988,-0.01941471066278665,169602.31430475,-73.40211486816406,-46.22328186035156,-541.779052734375,169602.33694875,0.1683605357944812,-1.028178525908326,1.102652360203654,0.04269909486174583,0.005490910261869431,-0.02493235468864441,-0.0005468130111694336,0.01209729909896851,0.004918098449707031,1,0.4897139370441437,-0.3790475428104401,-0.1943060159683228,0.7607552409172058,-0.3864160776138306,-0.8924072980880737,-0.2330064475536346,0,0,0,-1,169600.1746449167,1,2,1561841784.121144,1561841239.621676,42,1.91319,0,0,42.10339,0,0,1561841755.596066,169599.111103,0,0.9645996,75.18385,0,182478453,1,1,0.99,-40.14532,-43.92233,5
1561841786.0674,9,0,0,1561841785.998909,4.634690713141705,-74.15083967156163,2555.463,0.39,300.9375,4,10,-9999,1561841786.054526,1.013320922851562,-19.55433654785156,20.9014892578125,191.0718688964844,198.5649719238281,15,169602.36227875,-0.377349853515625,-0.8739166259765625,-0.2303619384765625,169602.36227875,0.04514377627015118,0.02860927432628523,0.003133475338587232,169602.33441575,-73.4415283203125,-46.24479675292969,-541.9317016601562,169602.35721275,0.1696470535172319,-1.029088698202891,1.10341996445863,0.0427081473171711,0.01912576332688332,-0.007492111995816231,0.00298386812210083,0.01709729433059692,0.001634001731872559,1,0.490144670009613,-0.3789559900760651,-0.1942148953676224,0.7605465054512024,-0.3860405087471008,-0.8927534222602844,-0.2323011159896851,0,0,0,-1,169600.1746449167,1,2,1561841784.121144,1561841239.621676,42,1.91319,0,0,42.10339,0,0,1561841755.596066,169599.111103,0,0.9645996,75.18385,0,182478453,1,1,0.99,-40.08032,-44.24952,5
1561841786.080263,10,0,0,1561841785.998909,4.634690713141705,-74.15083967156163,2555.463,0.39,300.9375,4,10,-9999,1561841786.054526,1.013320922851562,-19.55433654785156,20.9014892578125,191.0718688964844,198.5649719238281,15,169602.38254275,-0.372039794921875,-0.87384033203125,-0.2240753173828125,169602.38254275,0.06518992242739563,0.01457095327215054,0.0268404027302546,169602.35452675,-73.51652526855469,-46.06419372558594,-541.8180541992188,169602.37747675,0.1715999380025893,-1.030355284152085,1.103787404106917,0.05399356037378311,0.01729723624885082,0.02013126015663147,0.01257938146591187,0.02063500881195068,0.003432929515838623,1,0.4905233383178711,-0.3788999319076538,-0.1938665956258774,0.7604193091392517,-0.3860534727573395,-0.8929189443588257,-0.2316433936357498,0,0,0,-1,169600.1746449167,1,2,1561841784.121144,1561841239.621676,42,1.91319,0,0,42.10339,0,0,1561841755.596066,169599.111103,0,0.9645996,75.18385,0,182478453,1,1,0.99,-40.08032,-44.37436,5
1561841786.100549,11,0,0,1561841785.998909,4.634690713141705,-74.15083967156163,2555.463,0.39,300.9375,4,10,-9999,1561841786.098848,0.90985107421875,-19.53963470458984,21.1168212890625,190.9836120605469,198.4767150878906,15,169602.40280575,-0.3740692138671875,-0.87738037109375,-0.2128448486328125,169602.40280575,0.07573470876356436,-0.01649348926307874,0.01870817402558863,169602.37463875,-73.23680114746094,-46.16058349609375,-541.6477661132812,169602.39773975,0.1747269899490611,-1.033218249234998,1.104105931921002,0.07525064796209335,-0.02251702174544334,0.02009397745132446,0.01498007774353027,0.0177876353263855,0.01158034801483154,1,0.4909527599811554,-0.3791697323322296,-0.1934534162282944,0.7601127624511719,-0.3864705264568329,-0.8930622935295105,-0.2303913980722427,0,0,0,-1,169600.1746449167,1,2,1561841784.121144,1561841239.621676,42,1.91319,0,0,42.10339,0,0,1561841755.596066,169599.111103,0,0.9645996,75.18385,0,182478453,1,1,0.99,-40.08032,-44.37436,5
1561841786.120904,12,0,0,1561841785.998909,4.634690713141705,-74.15083967156163,2555.463,0.39,300.9375,4,10,-9999,1561841786.098848,0.90985107421875,-19.53963470458984,21.1168212890625,190.9836120605469,198.4767150878906,15,169602.42306975,-0.3799285888671875,-0.8852996826171875,-0.211822509765625,169602.42306975,0.007752195617111654,-0.001996305553123397,0.008031294899351959,169602.39474975,-73.39262390136719,-45.98019409179688,-541.9512329101562,169602.41800375,0.1772852357770404,-1.035926760609917,1.104497555503863,0.02725116163492203,-0.01519705727696419,0.006182420998811722,0.007779181003570557,0.01071584224700928,0.01844161748886108,1,0.491316020488739,-0.3795073330402374,-0.193236455321312,0.7597646713256836,-0.3867921829223633,-0.8932384252548218,-0.2291655093431473,0,0,0,-1,169600.1746449167,1,2,1561841784.121144,1561841239.621676,42,1.91319,0,0,42.10339,0,0,1561841755.596066,169599.111103,0,0.9645996,75.18385,0,182478453,1,1,0.99,-38.98682,-44.63848,5
1561841786.149641,13,0,0,1561841785.998909,4.634690713141705,-74.15083967156163,2555.463,0.39,300.9375,4,10,-9999,1561841786.125082,0.8252487182617188,-19.52147674560547,21.2327880859375,190.9857788085938,198.4788818359375,15,169602.44333375,-0.3779296875,-0.888671875,-0.2157745361328125,169602.44333375,-0.07390937815242406,0.02018463053392856,0.01600799499635729,169602.41486075,-73.55543518066406,-46.02323913574219,-541.6422729492188,169602.43823675,0.176690468479894,-1.035423643459419,1.104156114142667,-0.06266354769468307,0.01267638616263866,0.01067330967634916,0.008032917976379395,0.006198227405548096,0.0159841775894165,1,0.4911298751831055,-0.3795175850391388,-0.1932602673768997,0.7598738670349121,-0.3869391977787018,-0.8930848836898804,-0.2295157015323639,0,0,0,-1,169600.1746449167,1,2,1561841784.121144,1561841239.621676,42,1.91319,0,0,42.10339,0,0,1561841755.596066,169599.111103,0,0.9645996,75.18385,0,182478453,1,1,0.99,-38.98682,-45.5659,5
1561841786.162313,14,0,0,1561841785.998909,4.634690713141705,-74.15083967156163,2555.463,0.39,300.9375,4,10,-9999,1561841786.150817,1.040840148925781,-19.51486587524414,21.0474853515625,191.0095062255859,198.5026092529297,15,169602.46356675,-0.3818206787109375,-0.8843231201171875,-0.2230072021484375,169602.46356675,-0.05049646374510144,-0.002000566610867524,0.0217588250542744,169602.43497175,-73.34178161621094,-46.28775024414062,-541.8544311523438,169602.45850075,0.1741294512898,-1.032917449734205,1.103133275105003,-0.06685429811477661,0.001325992867350578,0.01786570996046066,0.007630586624145508,0.004654288291931152,0.01209580898284912,1,0.490520715713501,-0.3793587982654572,-0.19338358938694,0.7603151798248291,-0.3871471881866455,-0.8926241993904114,-0.2309526652097702,0,0,0,-1,169600.1746449167,1,2,1561841784.121144,1561841239.621676,42,1.91319,0,0,42.10339,0,0,1561841755.596066,169600.055342,0,0.9645996,75.18385,0,182478453,1,1,0.99,-38.98682,-45.5659,5
1561841786.181768,15,0,0,1561841785.998909,4.634690713141705,-74.15083967156163,2555.463,0.39,300.9375,4,10,-9999,1561841786.177421,0.7910537719726562,-19.78251647949219,21.07952880859375,191.0484619140625,198.5415649414062,15,169602.48382975,-0.3838043212890625,-0.87744140625,-0.23150634765625,169602.48382975,0.009529855644739547,-0.007658984978958881,0.02997654122993191,169602.45505175,-73.65931701660156,-46.30711364746094,-541.8759765625,169602.47876475,0.1731873181253533,-1.032333135762608,1.102434402698338,-0.006608533672988415,-0.01457254588603973,0.02217843197286129,0.003788858652114868,0.01112914085388184,0.004081547260284424,1,0.490148514509201,-0.3794801235198975,-0.1934384554624557,0.7604805827140808,-0.3875473737716675,-0.8923089504241943,-0.2314985394477844,0,0,0,-1,169600.1746449167,1,2,1561841784.121144,1561841239.621676,42,1.91319,0,0,42.10339,0,0,1561841755.596066,169600.055342,0,0.9645996,75.18385,0,182478453,1,1,0.99,-38.98682,-45.86603,5
1561841786.202004,16,0,0,1561841785.998909,4.634690713141705,-74.15083967156163,2555.463,0.39,300.9375,4,10,-9999,1561841786.200293,0.8137588500976562,-19.73027801513672,21.00274658203125,191.0473480224609,198.5404510498047,15,169602.50409375,-0.377899169921875,-0.876953125,-0.236297607421875,169602.50409375,0.04160070675590977,0.00821958038842056,0.06273262368957951,169602.47516275,-73.65513610839844,-46.17588806152344,-542.0410766601562,169602.49902775,0.1747100733098912,-1.033874154355668,1.102032593603459,0.03630005195736885,0.000365124549716711,0.0512862503528595,0.006452500820159912,0.01834821701049805,-0.004602551460266113,1,0.4901447594165802,-0.3797575235366821,-0.1931447684764862,0.7604193687438965,-0.3882121741771698,-0.892127513885498,-0.2310846745967865,0,0,0,-1,169600.1746449167,1,2,1561841784.121144,1561841239.621676,42,1.91319,0,0,42.10339,0,0,1561841755.596066,169600.055342,0,0.9645996,75.18385,0,182478453,1,1,0.99,-38.98682,-46.50239,5
1561841786.238124,17,0,0,1561841785.998909,4.634690713141705,-74.15083967156163,2555.463,0.39,300.9375,4,10,-9999,1561841786.229748,1.022941589355469,-19.66322708129883,20.98095703125,191.0247497558594,198.5178527832031,15,169602.52435775,-0.3860931396484375,-0.8879241943359375,-0.227294921875,169602.52435775,0.04309633802409826,0.004909271153452068,0.05573064055154318,169602.49527475,-73.53218078613281,-46.357666015625,-541.8759155273438,169602.51929175,0.1777481651536967,-1.036565342348394,1.101431508759392,0.04417528212070465,-0.000459656585007906,0.06012288108468056,0.01252388954162598,0.009516358375549316,-0.001301169395446777,1,0.4902476668357849,-0.380133181810379,-0.1925111711025238,0.7603259086608887,-0.389293909072876,-0.891855776309967,-0.2303119748830795,0,0,0,-1,169600.1746449167,1,2,1561841784.121144,1561841239.621676,42,1.91319,0,0,42.10339,0,0,1561841755.596066,169600.055342,0,0.9645996,75.18385,0,182478453,1,1,0.99,-38.98682,-46.77582,5
1561841786.245803,18,0,0,1561841785.998909,4.634690713141705,-74.15083967156163,2555.463,0.39,300.9375,4,10,-9999,1561841786.229748,1.022941589355469,-19.66322708129883,20.98095703125,191.0247497558594,198.5178527832031,15,169602.54462075,-0.398284912109375,-0.894287109375,-0.2266998291015625,169602.52435775,0.04309633802409826,0.004909271153452068,0.05573064055154318,169602.51538575,-73.40406799316406,-46.27531433105469,-541.8170776367188,169602.53955575,0.1799509223958737,-1.038536444160819,1.101098663933892,0.01517053041607141,0.002426411025226116,0.01614264398813248,-0.005261063575744629,-0.001391768455505371,0.004368185997009277,1,0.4903582036495209,-0.3803964853286743,-0.1920803487300873,0.7602317929267883,-0.3900026679039001,-0.8917051553726196,-0.2296946942806244,0,0,0,-1,169600.1746449167,1,2,1561841784.121144,1561841239.621676,42,1.91319,0,0,42.10339,0,0,1561841755.596066,169600.055342,0,0.9645996,75.18385,0,182478453,1,1,0.99,-38.98682,-43.09095,5
1561841786.263166,19,0,0,1561841785.998909,4.634690713141705,-74.15083967156163,2555.463,0.39,300.9375,4,10,-9999,1561841786.250933,0.8040390014648438,-19.73954391479492,20.82037353515625,191.0103759765625,198.5034790039062,15,169602.56488475,-0.397064208984375,-0.885833740234375,-0.2305755615234375,169602.56488475,-0.01337199814939686,0.04805407870938978,0.009485913486753239,169602.55560775,-73.693359375,-46.27102661132812,-541.785400390625,169602.55981875,0.1798327800128469,-1.038070157140632,1.100955779812882,-0.01625077426433563,0.03757614269852638,0.001601252006366849,-0.009668111801147461,0.0004203915596008301,0.000784754753112793,1,0.4903295040130615,-0.3802714049816132,-0.1919779032468796,0.7603387832641602,-0.3900053203105927,-0.8916404843330383,-0.2299412786960602,0,0,0,-1,169600.1746449167,1,2,1561841784.121144,1561841239.621676,42,1.91319,0,0,42.10339,0,0,1561841755.596066,169600.055342,0,0.9645996,75.18385,0,182478453,1,1,0.99,-38.98682,-43.09095,5
1561841786.283097,20,0,0,1561841785.998909,4.634690713141705,-74.15083967156163,2555.463,0.39,300.9375,4,10,-9999,1561841786.277857,0.70526123046875,-19.68069458007812,21.01776123046875,190.9723510742188,198.4654541015625,15,169602.58514875,-0.3926544189453125,-0.8791046142578125,-0.23406982421875,169602.58514875,-0.01147795798213251,0.02887239464198505,0.02820287594393913,169602.57571875,-73.42320251464844,-46.06851196289062,-541.8912963867188,169602.58008275,0.1794997268912062,-1.03703524092033,1.100586375760785,-0.01385659258812666,0.02396552450954914,0.024772884324193,-0.002115488052368164,0.009454131126403809,0.0003029704093933105,1,0.4902336299419403,-0.3800195157527924,-0.1917655915021896,0.7605800628662109,-0.3900506496429443,-0.8914731740951538,-0.2305123060941696,0,0,0,-1,169600.1746449167,1,2,1561841784.121144,1561841239.621676,42,1.91319,0,0,42.10339,0,0,1561841755.596066,169600.055342,0,0.9645996,75.18385,0,182478453,1,1,0.99,-38.98682,-41.34637,5
1561841786.31503,21,0,0,1561841785.998909,4.634690713141705,-74.15083967156163,2555.463,0.39,300.9375,4,10,-9999,1561841786.301867,0.7660980224609375,-19.84926986694336,21.04180908203125,190.9291229248047,198.4222259521484,15,169602.60541175,-0.3937835693359375,-0.880767822265625,-0.241058349609375,169602.60541175,0.03814578787374997,0.05887796432779882,0.02716903680877037,169602.59582975,-73.39300537109375,-46.0640869140625,-542.15185546875,169602.60031575,0.1798215846976828,-1.036704243599641,1.10015492870403,0.02095518261194229,0.04317091032862663,0.02164233848452568,-0.003050804138183594,0.01337850093841553,-0.007245659828186035,1,0.4901723861694336,-0.3798847198486328,-0.191462442278862,0.7607632875442505,-0.3903054893016815,-0.8912776112556458,-0.2308372557163239,0,0,0,-1,169600.1746449167,1,2,1561841784.121144,1561841239.621676,42,1.91319,0,0,42.10339,0,0,1561841755.596066,169600.055342,0,0.9645996,75.18385,0,182478453,1,1,0.99,-38.36198,-41.78551,5
1561841786.323391,22,0,0,1561841785.998909,4.634690713141705,-74.15083967156163,2555.463,0.39,300.9375,4,10,-9999,1561841786.301867,0.7660980224609375,-19.84926986694336,21.04180908203125,190.9291229248047,198.4222259521484,15,169602.62564575,-0.39984130859375,-0.8822021484375,-0.2408905029296875,169602.62564575,0.1129752881827964,0.04066380668441989,0.03908881321574702,169602.61594075,-73.79399108886719,-46.32327270507812,-541.6768798828125,169602.62057975,0.1825505165302563,-1.038056265061172,1.100235979314556,0.09221284836530685,0.04920883104205132,0.03395306318998337,-0.004113674163818359,0.01005822420120239,-0.01212853193283081,1,0.490590363740921,-0.3797167241573334,-0.19077467918396,0.7607504725456238,-0.3905549049377441,-0.8913143873214722,-0.2302726060152054,0,0,0,-1,169600.1746449167,1,2,1561841784.121144,1561841239.621676,42,1.91319,0,0,42.10339,0,0,1561841755.596066,169600.055342,0,0.9645996,75.18385,0,182478453,1,1,0.99,-38.36198,-41.78551,5
1561841786.345205,23,0,0,1561841785.998909,4.634690713141705,-74.15083967156163,2555.463,0.39,300.9375,4,10,-9999,1561841786.327948,0.7615509033203125,-19.49781036376953,20.9913330078125,190.8187561035156,198.3118591308594,15,169602.64590875,-0.41070556640625,-0.9005279541015625,-0.241241455078125,169602.64590875,0.1343801791281993,0.03747999760123016,0.005897836550089481,169602.63605175,-73.62480163574219,-46.30282592773438,-541.8070678710938,169602.64084275,0.1880239631743827,-1.042370390394783,1.100941360145374,0.1373776793479919,0.02243873476982117,0.01600309461355209,-0.01324936747550964,0.0002765655517578125,-0.01184368133544922,1,0.4914704561233521,-0.3798980116844177,-0.1899160295724869,0.7603066563606262,-0.3910017311573029,-0.8916339874267578,-0.2282685786485672,0,0,0,-1,169600.1746449167,1,2,1561841784.121144,1561841239.621676,42,1.91319,0,0,42.10339,0,0,1561841755.596066,169600.055342,0,0.9645996,75.18385,0,182478453,1,1,0.99,-38.36198,-42.18013,5
1561841786.363963,24,0,0,1561841785.998909,4.634690713141705,-74.15083967156163,2555.463,0.39,300.9375,4,10,-9999,1561841786.352785,0.750946044921875,-19.54258728027344,21.0780029296875,190.6966857910156,198.1897888183594,15,169602.66617275,-0.4217681884765625,-0.901153564453125,-0.243896484375,169602.66617275,0.06550923544209612,0.131582262086962,-0.05069034187245921,169602.65616275,-73.70010375976562,-46.25454711914062,-541.8038940429688,169602.66110675,0.1922712338226891,-1.045006275230824,1.102323441722603,0.08259138464927673,0.1019434109330177,-0.04148976132273674,-0.0278601348400116,-0.01183962821960449,-0.01476037502288818,1,0.4925180971622467,-0.3796270489692688,-0.1892721951007843,0.7599245309829712,-0.3905358612537384,-0.892258882522583,-0.2266184538602829,0,0,0,-1,169600.1746449167,1,2,1561841784.121144,1561841239.621676,42,1.91319,0,0,42.10339,0,0,1561841755.596066,169600.055342,0,0.9645996,75.18385,0,182478453,1,1,0.99,-38.36198,-39.62607,5
1561841786.395496,25,0,0,1561841785.998909,4.634690713141705,-74.15083967156163,2555.463,0.39,300.9375,4,10,-9999,1561841786.37848,0.5157623291015625,-19.57202529907227,21.1988525390625,190.4853668212891,197.9784698486328,15,169602.68643675,-0.406494140625,-0.886688232421875,-0.239044189453125,169602.68643675,0.08643555633961175,0.1648520683208859,-0.08055955771046093,169602.67627375,-73.60076904296875,-46.08738708496094,-541.706298828125,169602.68137075,0.193124995249456,-1.042965363201706,1.104040092163773,0.06486272066831589,0.1601894199848175,-0.08262387663125992,-0.02876222133636475,-9.477138519287109e-05,-0.01781779527664185,1,0.4934819638729095,-0.3783568739891052,-0.1888449937105179,0.7600389719009399,-0.3887487351894379,-0.8930326700210571,-0.2266432493925095,0,0,0,-1,169600.1746449167,1,2,1561841784.121144,1561841239.621676,42,1.91319,0,0,42.10339,0,0,1561841755.596066,169600.055342,0,0.9645996,75.18385,0,182478453,1,1,0.99,-38.36198,-40.18135,5
1561841786.40453,26,0,0,1561841785.998909,4.634690713141705,-74.15083967156163,2555.463,0.39,300.9375,4,10,-9999,1561841786.403005,0.651336669921875,-19.67908477783203,21.21673583984375,190.2247772216797,197.7178802490234,15,169602.70669975,-0.381072998046875,-0.8849639892578125,-0.22686767578125,169602.70669975,0.1885635230864064,0.1000301947561392,-0.04193519978882371,169602.69638475,-73.74163818359375,-46.24359130859375,-541.4512939453125,169602.70163375,0.1957035559144042,-1.042312602123654,1.106437368857903,0.1658143699169159,0.1147481575608253,-0.05662157386541367,-0.003431886434555054,0.008305668830871582,-0.003629684448242188,1,0.4948806464672089,-0.3770739734172821,-0.1882626265287399,0.7599114775657654,-0.3867506086826324,-0.8941088318824768,-0.2258167266845703,0,0,0,-1,169600.1746449167,1,2,1561841784.121144,1561841239.621676,42,1.91319,0,0,42.10339,0,0,1561841755.596066,169600.055342,0,0.9645996,75.18385,0,182478453,1,1,0.99,-38.36198,-40.82333,5
1561841786.424782,27,0,0,1561841785.998909,4.634690713141705,-74.15083967156163,2555.463,0.39,300.9375,4,10,-9999,1561841786.403005,0.651336669921875,-19.67908477783203,21.21673583984375,190.2247772216797,197.7178802490234,15,169602.72696375,-0.37823486328125,-0.9006805419921875,-0.2374420166015625,169602.72696375,0.2057771311082426,0.07086005870428333,-0.02505075847772134,169602.71649575,-73.81802368164062,-45.93403625488281,-541.6159057617188,169602.72189775,0.2025508806481875,-1.046745513727092,1.108988646843455,0.2066720575094223,0.06550444662570953,-0.02052082680165768,0.00706404447555542,0.003860592842102051,-0.008548259735107422,1,0.4966568946838379,-0.3766336143016815,-0.1873572021722794,0.7591946125030518,-0.3857719302177429,-0.8952485322952271,-0.2229581028223038,0,0,0,-1,169600.1746449167,1,2,1561841784.121144,1561841239.621676,42,1.91319,0,0,42.10339,0,0,1561841755.596066,169600.055342,0,0.9645996,75.18385,0,182478453,1,1,0.99,-38.36198,-40.82333,5
1561841786.446695,28,0,0,1561841785.998909,4.634690713141705,-74.15083967156163,2555.463,0.39,300.9375,4,10,-9999,1561841786.429097,0.6175308227539062,-19.328369140625,21.21466064453125,190.0084838867188,197.5015869140625,15,169602.74722775,-0.3857574462890625,-0.9077301025390625,-0.2349395751953125,169602.74722775,0.2247590780938914,0.06023457858708518,-0.05216466785192708,169602.73660775,-73.774658203125,-46.06381225585938,-541.7987670898438,169602.74216175,0.2097564399559474,-1.051861816697108,1.111600956123318,0.2095810323953629,0.06243621557950974,-0.04992292821407318,0.003359556198120117,-0.009855866432189941,-0.01690423488616943,1,0.4984553158283234,-0.3763402700424194,-0.1865108609199524,0.7583692073822021,-0.38487508893013,-0.8964093923568726,-0.2198206037282944,0,0,0,-1,169600.1746449167,1,2,1561841784.121144,1561841239.621676,42,1.91319,0,0,42.10339,0,0,1561841755.596066,169600.055342,0,0.9645996,75.18385,0,182478453,1,1,0.99,-38.36198,-41.00493,5
1561841786.479247,29,0,0,1561841785.998909,4.634690713141705,-74.15083967156163,2555.463,0.39,300.9375,4,10,-9999,1561841786.453694,0.6344680786132812,-19.35347366333008,21.1748046875,189.8073120117188,197.3004150390625,15,169602.76749075,-0.373199462890625,-0.9098358154296875,-0.228546142578125,169602.76749075,0.3221788423495349,-0.002069808799209584,-0.04827858318928346,169602.75668775,-73.84800720214844,-45.86106872558594,-541.4998779296875,169602.76239475,0.2181579904902484,-1.058598624250255,1.114900473358197,0.2878127098083496,0.0110918041318655,-0.05537361651659012,0.001442879438400269,-0.008764505386352539,-0.01971673965454102,1,0.5005654096603394,-0.376228928565979,-0.1857916563749313,0.7572103142738342,-0.3837670981884003,-0.89786696434021,-0.2157721221446991,0,0,0,-1,169600.1746449167,1,2,1561841784.121144,1561841239.621676,42,1.91319,0,0,42.10339,0,0,1561841755.596066,169600.055342,0,0.9645996,75.18385,0,182478453,1,1,0.99,-38.36198,-42.14378,5
1561841786.486033,30,0,0,1561841785.998909,4.634690713141705,-74.15083967156163,2555.463,0.39,300.9375,4,10,-9999,1561841786.479774,0.5880126953125,-19.39502716064453,21.4542236328125,189.6398773193359,197.1329803466797,15,169602.78772375,-0.3811798095703125,-0.9151611328125,-0.21466064453125,169602.78772375,0.4412221430760769,-0.0950210550618092,-0.07653605393556921,169602.77679875,-73.84310913085938,-45.76072692871094,-541.3606567382812,169602.78265875,0.2311671140539911,-1.070918653524848,1.11922448128396,0.4140462577342987,-0.08109138160943985,-0.06259850412607193,0.008778929710388184,-0.01336938142776489,-0.01008844375610352,1,0.5033771991729736,-0.3768671452999115,-0.1850002855062485,0.7552201747894287,-0.3829855024814606,-0.8997622728347778,-0.209165096282959,0,0,0,-1,169600.1746449167,1,2,1561841784.121144,1561841239.621676,42,1.91319,0,0,42.10339,0,0,1561841755.596066,169600.055342,0,0.9645996,75.18385,0,182478453,1,1,0.99,-38.36198,-42.14378,5
1561841786.505807,31,0,0,1561841785.998909,4.634690713141705,-74.15083967156163,2555.463,0.39,300.9375,4,10,-9999,1561841786.504167,0.5871429443359375,-19.2730598449707,21.57568359375,189.5396575927734,197.0327606201172,15,169602.80798775,-0.386199951171875,-0.9246978759765625,-0.2010345458984375,169602.80798775,0.4526926442071572,-0.1307462958207861,-0.1331556576589808,169602.79690975,-73.56915283203125,-45.37223815917969,-541.177978515625,169602.80292175,0.247341487505603,-1.0877655368555,1.125229899429332,0.4618719220161438,-0.13172847032547,-0.1310746669769287,-0.004064351320266724,-0.01610559225082397,-0.006952524185180664,1,0.5069405436515808,-0.3780557513237,-0.1846201419830322,0.7523301243782043,-0.3816625773906708,-0.9023666977882385,-0.2001702636480331,0,0,0,-1,169600.1746449167,1,2,1561841784.121144,1561841239.621676,42,1.91319,0,0,42.10339,0,0,1561841755.596066,169600.055342,0,0.9645996,75.18385,0,182478453,1,1,0.99,-38.36198,-42.82577,5
1561841786.528325,32,0,0,1561841785.998909,4.634690713141705,-74.15083967156163,2555.463,0.39,300.9375,4,10,-9999,1561841786.504167,0.5871429443359375,-19.2730598449707,21.57568359375,189.5396575927734,197.0327606201172,15,169602.82825175,-0.3776397705078125,-0.9354400634765625,-0.1912689208984375,169602.82825175,0.3661002276793398,-0.1275265340628804,-0.1216864881084456,169602.81702075,-73.3341064453125,-45.58837890625,-541.124755859375,169602.82318575,0.2623657531345736,-1.104073752083323,1.131606765682073,0.3900688588619232,-0.1371432095766068,-0.1316821277141571,-0.0006265938282012939,-0.02530807256698608,-0.007083594799041748,1,0.5104474425315857,-0.3791835904121399,-0.1847048848867416,0.7493645548820496,-0.3797292113304138,-0.9050965905189514,-0.1913264244794846,0,0,0,-1,169600.1746449167,1,2,1561841784.121144,1561841239.621676,42,1.91319,0,0,42.10339,0,0,1561841755.596066,169600.055342,0,0.9645996,75.18385,0,182478453,1,1,0.99,-37.64403,-43.51538,5
1561841786.555235,33,0,0,1561841785.998909,4.634690713141705,-74.15083967156163,2555.463,0.39,300.9375,4,10,-9999,1561841786.530505,1.118026733398438,-18.88064193725586,21.97900390625,189.4977569580078,196.9908599853516,15,169602.84851475,-0.3876190185546875,-0.9384613037109375,-0.1835174560546875,169602.84851475,0.2411303282629355,-0.08989606786006071,-0.1089544475689948,169602.83713175,-73.44189453125,-45.11808776855469,-540.89990234375,169602.84344975,0.2738674493451718,-1.116985123483304,1.136722201736402,0.2717219591140747,-0.1065211221575737,-0.1123792678117752,-0.004048049449920654,-0.03216278553009033,-0.0008355379104614258,1,0.5131574273109436,-0.3801074028015137,-0.1849894374608994,0.7469716668128967,-0.3780015110969543,-0.9072598218917847,-0.1843756288290024,0,0,0,-1,169600.1746449167,1,2,1561841784.121144,1561841239.621676,42,1.91319,0,0,42.10339,0,0,1561841755.596066,169600.055342,0,0.9645996,75.18385,0,182478453,1,1,0.99,-37.64403,-43.62621,5
1561841786.566547,34,0,0,1561841785.998909,4.634690713141705,-74.15083967156163,2555.463,0.39,300.9375,4,10,-9999,1561841786.558498,1.131698608398438,-18.80411529541016,22.05413818359375,189.4888916015625,196.9819946289062,15,169602.86877875,-0.38092041015625,-0.938690185546875,-0.17315673828125,169602.86877875,0.2301059066144434,-0.07560714334734957,-0.09561493998489687,169602.85724375,-73.43937683105469,-45.00874328613281,-540.7998046875,169602.86371275,0.2812843863837762,-1.12540130549688,1.140729535272642,0.2119606286287308,-0.07043502479791641,-0.1026611253619194,-0.008036792278289795,-0.03007268905639648,0.001672029495239258,1,0.5151246786117554,-0.380573958158493,-0.1854012161493301,0.7452760338783264,-0.3762558102607727,-0.908937931060791,-0.1796200573444366,0,0,0,-1,169600.1746449167,1,2,1561841784.121144,1561841239.621676,42,1.91319,0,0,42.10339,0,0,1561841755.596066,169600.055342,0,0.9645996,75.18385,0,182478453,1,1,0.99,-37.64403,-41.80698,5
1561841786.586783,35,0,0,1561841785.998909,4.634690713141705,-74.15083967156163,2555.463,0.39,300.9375,4,10,-9999,1561841786.581076,0.9578933715820312,-18.41521453857422,22.14501953125,189.4855041503906,196.9786071777344,15,169602.88904275,-0.3932647705078125,-0.9352874755859375,-0.1663665771484375,169602.88904275,0.3051362092696818,-0.1576210533291028,-0.07506226058831936,169602.87735475,-73.21241760253906,-45.12983703613281,-540.650146484375,169602.88397675,0.2901856675790295,-1.135568823193143,1.144492371356711,0.2887784540653229,-0.1445673108100891,-0.07853395491838455,-0.01191261410713196,-0.02303242683410645,0.004893183708190918,1,0.517122209072113,-0.3813313543796539,-0.1856735497713089,0.7434355020523071,-0.3749586939811707,-0.9105002880096436,-0.1743420362472534,0,0,0,-1,169600.1746449167,1,2,1561841784.121144,1561841239.621676,42,1.91319,0,0,42.10339,0,0,1561841755.596066,169600.055342,0,0.9645996,75.18385,0,182478453,1,1,0.99,-37.64403,-41.80698,5
1561841786.60764,36,0,0,1561841785.998909,4.634690713141705,-74.15083967156163,2555.463,0.39,300.9375,4,10,-9999,1561841786.605557,1.27587890625,-18.4050178527832,22.2613525390625,189.5567932128906,197.0498962402344,15,169602.90930675,-0.4151611328125,-0.9394683837890625,-0.1661376953125,169602.90930675,0.2904749748365776,-0.1811354341739574,-0.1318626929497474,169602.89746575,-73.12554931640625,-44.91836547851562,-540.563720703125,169602.90424075,0.3019428645972604,-1.149798994916852,1.148700929226867,0.3041765689849854,-0.1916224360466003,-0.1138653159141541,-0.02658116817474365,-0.02892959117889404,0.0008260011672973633,1,0.5194252729415894,-0.3827357888221741,-0.1860850006341934,0.7410014271736145,-0.3739010393619537,-0.912232518196106,-0.1674214005470276,0,0,0,-1,169600.1746449167,1,2,1561841784.121144,1561841239.621676,42,1.91319,0,0,42.10339,0,0,1561841755.596066,169600.055342,0,0.9645996,75.18385,0,182478453,1,1,0.99,-37.64403,-42.52294,5
1561841786.631968,37,0,0,1561841785.998909,4.634690713141705,-74.15083967156163,2555.463,0.39,300.9375,4,10,-9999,1561841786.605557,1.27587890625,-18.4050178527832,22.2613525390625,189.5567932128906,197.0498962402344,15,169602.92956975,-0.4317169189453125,-0.94537353515625,-0.1677398681640625,169602.92956975,0.182232123910852,-0.1256223738834737,-0.2168172654071661,169602.91757675,-72.98577880859375,-44.86941528320312,-540.51025390625,169602.92447375,0.3104541123340429,-1.16106511714079,1.153762483994211,0.205140009522438,-0.143582209944725,-0.2047113329172134,-0.05860650539398193,-0.02674561738967896,-0.00302588939666748,1,0.5216476321220398,-0.383673369884491,-0.1871905773878098,0.7386732697486877,-0.3715234696865082,-0.914294421672821,-0.1613569855690002,0,0,0,-1,169600.1746449167,1,2,1561841784.121144,1561841239.621676,42,1.91319,0,0,42.10339,0,0,1561841755.596066,169600.055342,0,0.9645996,75.18385,0,182478453,1,1,0.99,-37.64403,-43.08703,5
1561841786.647546,38,0,0,1561841785.998909,4.634690713141705,-74.15083967156163,2555.463,0.39,300.9375,4,10,-9999,1561841786.632062,1.486557006835938,-18.23786163330078,22.31427001953125,189.6452331542969,197.1383361816406,15,169602.94980275,-0.4273223876953125,-0.9297027587890625,-0.171142578125,169602.94980275,0.1757286845288785,-0.09491586019875108,-0.2429711052083982,169602.93768775,-72.94509887695312,-44.75941467285156,-540.25927734375,169602.94473675,0.3136567903312676,-1.166420938467829,1.159367294441503,0.1588220447301865,-0.1026638001203537,-0.2427681684494019,-0.05977907776832581,-0.02654969692230225,-0.01079034805297852,1,0.5235643982887268,-0.3836759328842163,-0.1888815611600876,0.7368832230567932,-0.3676653802394867,-0.9165502786636353,-0.1573462039232254,0,0,0,-1,169600.1746449167,1,2,1561841784.121144,1561841239.621676,42,1.91319,0,0,42.10339,0,0,1561841755.596066,169600.055342,0,0.9645996,75.18385,0,182478453,1,1,0.99,-37.64403,-43.51271,5
1561841786.667899,39,0,0,1561841785.998909,4.634690713141705,-74.15083967156163,2555.463,0.39,300.9375,4,10,-9999,1561841786.656385,1.541610717773438,-18.23812103271484,22.44000244140625,189.6988372802734,197.1919403076172,15,169602.97006675,-0.434326171875,-0.9191131591796875,-0.1827239990234375,169602.97006675,0.292773016541207,-0.1367354787962654,-0.285883685117281,169602.95779875,-72.64909362792969,-44.72895812988281,-540.29541015625,169602.96500075,0.3180827497072288,-1.172737026302953,1.165642571525268,0.2590716779232025,-0.1323950588703156,-0.2721923589706421,-0.06826749444007874,-0.001948177814483643,-0.02479350566864014,1,0.5258240103721619,-0.383555680513382,-0.1905656158924103,0.7349005937576294,-0.3633426427841187,-0.9190418124198914,-0.1527882963418961,0,0,0,-1,169600.1746449167,1,2,1561841784.121144,1561841239.621676,42,1.91319,0,0,42.10339,0,0,1561841755.596066,169600.055342,0,0.9645996,75.18385,0,182478453,1,1,0.99,-37.64403,-44.12597,5
1561841786.688125,40,0,0,1561841785.998909,4.634690713141705,-74.15083967156163,2555.463,0.39,300.9375,4,10,-9999,1561841786.682953,1.640731811523438,-18.25668716430664,22.4825439453125,189.7303009033203,197.2234039306641,15,169602.99033075,-0.4748687744140625,-0.912750244140625,-0.1951904296875,169602.99033075,0.4432733097476559,-0.1240274067066252,-0.3855578152356767,169602.97790975,-72.52963256835938,-44.32658386230469,-540.5567626953125,169602.98526475,0.3275359567822991,-1.184391590217847,1.173981558841321,0.3988519608974457,-0.1471409946680069,-0.3614642024040222,-0.09196406602859497,0.005945444107055664,-0.03992736339569092,1,0.5291681885719299,-0.3836091756820679,-0.1923872977495193,0.7319918870925903,-0.3579871356487274,-0.9222967028617859,-0.1456500589847565,0,0,0,-1,169600.1746449167,1,2,1561841784.121144,1561841239.621676,42,1.91319,0,0,42.10339,0,0,1561841755.596066,169600.055342,0,0.9645996,75.18385,0,182478453,1,1,0.99,-37.64403,-44.57441,5
1561841786.713163,41,0,0,1561841785.998909,4.634690713141705,-74.15083967156163,2555.463,0.39,300.9375,4,10,-9999,1561841786.70691,2.129447937011719,-17.71289443969727,22.6016845703125,189.6191558837891,197.1122589111328,15,169603.01059375,-0.531707763671875,-0.9201202392578125,-0.2293701171875,169603.01059375,0.5768452194850161,-0.04748895592607496,-0.509520773443922,169602.99802075,-72.43936157226562,-44.35150146484375,-540.1807250976562,169603.00552775,0.3430622174842257,-1.200933407506585,1.185322996134539,0.5513964891433716,-0.0686778724193573,-0.4761473536491394,-0.151396781206131,0.01376354694366455,-0.07607185840606689,1,0.5340948104858398,-0.3831233084201813,-0.1941616237163544,0.7281898856163025,-0.3505716025829315,-0.9266205430030823,-0.135918527841568,0,0,0,-1,169600.1746449167,1,2,1561841784.121144,1561841239.621676,42,1.91319,0,0,42.10339,0,0,1561841755.596066,169600.055342,0,0.9645996,75.18385,0,182478453,1,1,0.99,-37.64403,-45.05394,5
1561841786.728885,42,0,0,1561841785.998909,4.634690713141705,-74.15083967156163,2555.463,0.39,300.9375,4,10,-9999,1561841786.70691,2.129447937011719,-17.71289443969727,22.6016845703125,189.6191558837891,197.1122589111328,15,169603.03085775,-0.630828857421875,-0.914947509765625,-0.2667999267578125,169603.03085775,0.6205543508759416,0.048968874543832,-0.7069350460970978,169603.01810175,-72.28036499023438,-44.47299194335938,-540.04443359375,169603.02579175,0.3624771943277637,-1.219677183571845,1.199942461011729,0.6117405295372009,0.007352450396865606,-0.6471015214920044,-0.2322247922420502,0.0091971755027771,-0.1222971677780151,1,0.5404646992683411,-0.3815394937992096,-0.1961292177438736,0.7237809896469116,-0.3403002321720123,-0.9320182204246521,-0.1246510446071625,0,0,0,-1,169600.1746449167,1,2,1561841784.121144,1561841239.621676,42,1.91319,0,0,42.10339,0,0,1561841755.596066,169600.055342,0,0.9645996,75.18385,0,182478453,1,1,0.99,-37.64403,-45.18938,5
1561841786.748982,43,0,0,1561841785.998909,4.634690713141705,-74.15083967156163,2555.463,0.39,300.9375,4,10,-9999,1561841786.733032,2.332496643066406,-17.77096176147461,22.81488037109375,189.3217468261719,196.8148498535156,15,169603.05112175,-0.756256103515625,-0.8780059814453125,-0.314239501953125,169603.05112175,0.7407508003544879,0.1552383231018089,-1.070915930180952,169603.03821275,-72.09004211425781,-43.82052612304688,-539.8391723632812,169603.04605575,0.3816331627548422,-1.236087269355861,1.21934769989266,0.6883490085601807,0.1250678896903992,-0.9637361764907837,-0.3735761046409607,0.04088002443313599,-0.1779438257217407,1,0.5483041405677795,-0.3779140710830688,-0.1990393549203873,0.7189763784408569,-0.3251543641090393,-0.9388750195503235,-0.1130870506167412,0,0,0,-1,169600.1746449167,1,2,1561841784.121144,1561841239.621676,42,1.91319,0,0,42.10339,0,0,1561841755.596066,169600.055342,0,0.9645996,75.18385,0,182478453,1,1,0.99,-37.64403,-45.18938,5
1561841786.769177,44,0,0,1561841785.998909,4.634690713141705,-74.15083967156163,2555.463,0.39,300.9375,4,10,-9999,1561841786.757418,2.33648681640625,-17.27021026611328,23.08880615234375,188.7961273193359,196.2892303466797,15,169603.07138475,-0.840484619140625,-0.8219757080078125,-0.34295654296875,169603.07138475,1.022726030255969,0.2656780156107408,-1.495814759987607,169603.05832375,-71.62232971191406,-43.44300842285156,-539.768798828125,169603.06631875,0.4049864544931739,-1.254461072909349,1.247313707043674,0.9361287355422974,0.2389015257358551,-1.40152633190155,-0.50269615650177,0.09362673759460449,-0.2294079065322876,1,0.5589978098869324,-0.3715898096561432,-0.2035752981901169,0.7127408385276794,-0.3020981848239899,-0.9481341242790222,-0.09888492524623871,0,0,0,-1,169600.1746449167,1,2,1561841784.121144,1561841239.621676,42,1.91319,0,0,42.10339,0,0,1561841755.596066,169600.055342,0,0.9645996,75.18385,0,182478453,1,1,0.99,-37.64403,-42.27871,5
1561841786.795818,45,0,0,1561841785.998909,4.634690713141705,-74.15083967156163,2555.463,0.39,300.9375,4,10,-9999,1561841786.783749,2.7471923828125,-16.74792098999023,23.2742919921875,187.9888916015625,195.4819946289062,15,169603.09165675,-0.89739990234375,-0.7587890625,-0.3789215087890625,169603.09165675,1.614871376519599,0.262355455834758,-1.823102876888459,169603.07844275,-71.63548278808594,-42.91897583007812,-539.3684692382812,169603.08655275,0.4477664229916072,-1.290041048113806,1.284870163827236,1.434083700180054,0.2590177357196808,-1.753445982933044,-0.5973440408706665,0.1753432154655457,-0.2871303558349609,1,0.5736913681030273,-0.3630472719669342,-0.2091833204030991,0.7037878036499023,-0.2710031569004059,-0.9594008326530457,-0.07814978808164597,0,0,0,-1,169600.1746449167,1,2,1561841784.121144,1561841239.621676,42,1.91319,0,0,42.10339,0,0,1561841755.596066,169600.055342,0,0.9645996,75.18385,0,182478453,1,1,0.99,-37.64403,-43.04658,5
1561841786.811436,46,0,0,1561841785.998909,4.634690713141705,-74.15083967156163,2555.463,0.39,300.9375,4,10,-9999,1561841786.808101,3.462516784667969,-15.32898330688477,24.2093505859375,186.9233856201172,194.4164886474609,15,169603.11188975,-1.03472900390625,-0.7187652587890625,-0.381622314453125,169603.11188975,2.238605275420986,0.3890454909992445,-2.160244689822604,169603.09852275,-71.08892822265625,-42.23272705078125,-538.6383056640625,169603.10682375,0.54872187659659,-1.381966978492692,1.330939249723879,2.111992359161377,0.3288522064685822,-2.072635173797607,-0.717235803604126,0.2333347797393799,-0.3376398086547852,1,0.5938287377357483,-0.353653758764267,-0.2145313322544098,0.6901251673698425,-0.2333409786224365,-0.9713719487190247,-0.04459289833903313,0,0,0,-1,169600.1746449167,1,2,1561841784.121144,1561841239.621676,42,1.91319,0,0,42.10339,0,0,1561841755.596066,169600.055342,0,0.9645996,75.18385,0,182478453,1,1,0.99,-37.64403,-43.69703,5
1561841786.829976,47,0,0,1561841785.998909,4.634690713141705,-74.15083967156163,2555.463,0.39,300.9375,4,10,-9999,1561841786.808101,3.462516784667969,-15.32898330688477,24.2093505859375,186.9233856201172,194.4164886474609,15,169603.13215375,-1.16339111328125,-0.69122314453125,-0.350006103515625,169603.13215375,2.520580771638576,0.6221674275482026,-2.569953381403664,169603.11863475,-70.56398010253906,-40.91685485839844,-538.2485961914062,169603.12708775,0.7477395072683418,-1.567476780968984,1.38122216105176,2.467000484466553,0.5638455152511597,-2.454759836196899,-0.9220339059829712,0.2767317891120911,-0.3727265000343323,1,0.6187559366226196,-0.3418015837669373,-0.2192170172929764,0.6725003123283386,-0.1884396821260452,-0.9820845723152161,-0.0006255364860408008,0,0,0,-1,169600.1746449167,1,2,1561841784.121144,1561841239.621676,42,1.91319,0,0,42.10339,0,0,1561841755.596066,169600.055342,0,0.9645996,75.18385,0,182478453,1,1,0.99,-37.64403,-44.41986,5
1561841786.850027,48,0,0,1561841785.998909,4.634690713141705,-74.15083967156163,2555.463,0.39,300.9375,4,10,-9999,1561841786.834763,4.095802307128906,-13.82944107055664,24.83660888671875,185.4997100830078,192.9928131103516,15,169603.15241775,-1.134262084960938,-0.657928466796875,-0.2389373779296875,169603.15241775,2.805786149626214,0.6413709495365459,-3.03144857196186,169603.13874575,-70.28022766113281,-39.71110534667969,-537.3892211914062,169603.14735175,1.116562678652461,-1.918376320541397,1.426903669164927,2.714978694915771,0.6681381464004517,-2.938870668411255,-1.03564989566803,0.3120987415313721,-0.3468483686447144,1,0.6466449499130249,-0.3259944915771484,-0.2244794070720673,0.6520635485649109,-0.1348212957382202,-0.9896653294563293,0.04884419962763786,0,0,0,-1,169600.1746449167,1,2,1561841784.121144,1561841239.621676,42,1.91319,0,0,42.10339,0,0,1561841755.596066,169600.055342,0,0.9645996,75.18385,0,182478453,1,1,0.99,-37.64403,-45.28286,5
1561841786.870446,49,0,0,1561841785.998909,4.634690713141705,-74.15083967156163,2555.463,0.39,300.9375,4,10,-9999,1561841786.861326,4.328399658203125,-12.61477279663086,25.5955810546875,184.0630187988281,191.5561218261719,15,169603.17268075,-0.943145751953125,-0.6035003662109375,-0.109039306640625,169603.17268075,3.221110648997924,0.5288465345263,-3.229778439397805,169603.15885675,-69.76811218261719,-38.02668762207031,-536.7343139648438,169603.16761475,1.75157895782275,-2.535843349207052,1.441330410690154,3.132479190826416,0.5310375094413757,-3.20899510383606,-0.978706955909729,0.360405445098877,-0.2881852388381958,1,0.676861584186554,-0.3080985844135284,-0.2312244772911072,0.6272708773612976,-0.0735086053609848,-0.9916309714317322,0.1061326861381531,0,0,0,-1,169600.1746449167,1,2,1561841784.121144,1561841239.621676,42,1.91319,0,0,42.10339,0,0,1561841755.596066,169600.055342,0,0.9645996,75.18385,0,182478453,1,1,0.99,-37.64403,-45.99121,5
1561841786.89066,50,0,0,1561841785.998909,4.634690713141705,-74.15083967156163,2555.463,0.39,300.9375,4,10,-9999,1561841786.885056,4.886573791503906,-10.88190841674805,26.38568115234375,183.0447998046875,190.5379028320312,15,169603.19294475,-0.7283172607421875,-0.5670166015625,0.0306549072265625,169603.19294475,3.271869434110398,0.5329917447630084,-3.281444829809778,169603.17893675,-69.36798095703125,-36.00621032714844,-536.1845703125,169603.18787875,2.316219273973513,-3.083906300440486,1.39888217499782,3.285941123962402,0.5254765748977661,-3.279075384140015,-0.8322696685791016,0.4001150131225586,-0.2073289155960083,1,0.7081156969070435,-0.2897657752037048,-0.237883597612381,0.5983471870422363,-0.009862854145467281,-0.9852591156959534,0.1707840859889984,0,0,0,-1,169600.1746449167,1,2,1561841784.121144,1561841239.621676,42,1.91319,0,0,42.10339,0,0,1561841755.596066,169600.055342,0,0.9645996,75.18385,0,182478453,1,1,0.99,-37.64403,-45.99121,5
1561841786.911387,51,0,0,1561841785.998909,4.634690713141705,-74.15083967156163,2555.463,0.39,300.9375,4,10,-9999,1561841786.885056,4.886573791503906,-10.88190841674805,26.38568115234375,183.0447998046875,190.5379028320312,15,169603.21320875,-0.430389404296875,-0.5266265869140625,0.1421356201171875,169603.21320875,3.299755127568509,0.27428987962773,-3.217096199970739,169603.19904775,-68.90753173828125,-34.35255432128906,-535.4526977539062,169603.20814275,2.611353699779075,2.920119185939697,1.326941713904841,3.255342960357666,0.3764402270317078,-3.242220163345337,-0.6232432126998901,0.4234327077865601,-0.1398748159408569,1,0.7378424406051636,-0.2708546221256256,-0.2444055080413818,0.5678839683532715,0.05303751677274704,-0.9704145193099976,0.2355473935604095,0,0,0,-1,169600.1746449167,1,2,1561841784.121144,1561841239.621676,42,1.91319,0,0,42.10339,0,0,1561841755.596066,169600.055342,0,0.9645996,75.18385,0,182478453,1,1,0.99,-37.64403,-45.94734,5
1561841786.931328,52,0,0,1561841785.998909,4.634690713141705,-74.15083967156163,2555.463,0.39,300.9375,4,10,-9999,1561841786.910535,5.42376708984375,-7.358913421630859,27.68841552734375,182.4908294677734,189.9839324951172,15,169603.23347175,-0.2137908935546875,-0.483123779296875,0.271087646484375,169603.23347175,3.599205754226981,-0.05168396727516777,-3.175104807482914,169603.21915875,-68.49433898925781,-32.44700622558594,-534.98779296875,169603.22840575,2.762665312674462,2.77833808780688,1.242494857956116,3.529801368713379,0.01292458362877369,-3.192745208740234,-0.4430281817913055,0.4345521926879883,-0.1032298803329468,1,0.7656654715538025,-0.2538784742355347,-0.2520674765110016,0.5345692038536072,0.1145674958825111,-0.9465913772583008,0.3013957738876343,0,0,0,-1,169600.1746449167,1,2,1561841784.121144,1561841239.621676,42,1.91319,0,0,42.10339,0,0,1561841755.596066,169600.055342,0,0.9645996,75.18385,0,182478453,1,1,0.99,-37.64403,-46.27961,5
1561841786.951536,53,0,0,1561841785.998909,4.634690713141705,-74.15083967156163,2555.463,0.39,300.9375,4,10,-9999,1561841786.93561,5.984756469726562,-5.34539794921875,27.94580078125,182.9639434814453,190.4570465087891,15,169603.25373575,0.0411376953125,-0.501556396484375,0.3572845458984375,169603.25373575,3.610351083388962,-0.4399361025856776,-3.006327506031361,169603.23927075,-68.26583862304688,-30.19905090332031,-534.4691162109375,169603.24863875,2.844695597436624,2.698928938818229,1.150259036070497,3.619181632995605,-0.3373279571533203,-3.079227447509766,-0.2627333998680115,0.4280674457550049,-0.04655897617340088,1,0.7919870018959045,-0.2391799539327621,-0.2606744766235352,0.4975924491882324,0.1748733222484589,-0.9128697514533997,0.3689009249210358,0,0,0,-1,169600.1746449167,1,2,1561841784.121144,1561841239.621676,42,1.91319,0,0,42.10339,0,0,1561841755.596066,169600.055342,0,0.9645996,75.18385,0,182478453,1,1,0.99,-37.64403,-46.85311,5
1561841786.971697,54,0,0,1561841785.998909,4.634690713141705,-74.15083967156163,2555.463,0.39,300.9375,4,10,-9999,1561841786.961737,6.148597717285156,-3.016813278198242,28.3956298828125,184.6118927001953,192.1049957275391,15,169603.27396875,0.2541656494140625,-0.5189208984375,0.43255615234375,169603.27396875,3.587416206397309,-0.4888200222907361,-2.507588007628407,169603.25938175,-67.77146911621094,-27.79090881347656,-534.4647216796875,169603.26890275,2.887889691564468,2.650280666992064,1.058550067382106,3.609384536743164,-0.5384551882743835,-2.64894962310791,-0.07477459311485291,0.3611477017402649,-0.03323495388031006,1,0.8149976134300232,-0.2277262508869171,-0.2701897919178009,0.4592572450637817,0.2312382161617279,-0.8716457486152649,0.4321607053279877,0,0,0,-1,169600.1746449167,1,2,1561841784.121144,1561841239.621676,42,1.91319,0,0,42.10339,0,0,1561841755.596066,169600.055342,0,0.9645996,75.18385,0,182478453,1,1,0.99,-37.64403,-45.89563,5
1561841786.991995,55,0,0,1561841785.998909,4.634690713141705,-74.15083967156163,2555.463,0.39,300.9375,4,10,-9999,1561841786.986349,6.644760131835938,-0.6666164398193359,28.55902099609375,186.9549865722656,194.4480895996094,15,169603.29423275,0.4256134033203125,-0.524566650390625,0.4919891357421875,169603.29423275,3.358155587112857,-0.3501699969868128,-2.008919615626557,169603.27946175,-67.44337463378906,-25.4281005859375,-534.4609375,169603.28916675,2.902564955759127,2.628608047620535,0.9725460023733676,3.431225061416626,-0.3817843794822693,-2.121880769729614,0.06886985898017883,0.3126046657562256,-0.03197979927062988,1,0.8349230885505676,-0.2196720987558365,-0.2765790522098541,0.4220801293849945,0.2764060199260712,-0.8263223171234131,0.4907047748565674,0,0,0,-1,169600.1746449167,1,2,1561841784.121144,1561841239.621676,42,1.91319,0,0,42.10339,0,0,1561841755.596066,169600.055342,0,0.9645996,75.18385,0,182478453,1,1,0.99,-37.64403,-46.05051,5
1561841787.012282,56,0,0,1561841785.998909,4.634690713141705,-74.15083967156163,2555.463,0.39,300.9375,4,10,-9999,1561841787.010635,7.020301818847656,3.57720947265625,28.34649658203125,189.3605804443359,196.8536834716797,15,169603.31449575,0.63116455078125,-0.54248046875,0.5647125244140625,169603.31449575,2.852868440853834,-0.2516868325079005,-1.616850371525637,169603.29957275,-67.42694091796875,-23.6788330078125,-534.3822021484375,169603.30942975,2.904811364842348,2.620054280457089,0.8961602148722939,2.996091604232788,-0.2837017476558685,-1.732357740402222,0.2053186297416687,0.2389726638793945,-0.009804368019104004,1,0.8515211343765259,-0.2137717455625534,-0.2801863253116608,0.3882125914096832,0.3111913800239563,-0.7809342741966248,0.5415732264518738,0,0,0,-1,169600.1746449167,1,2,1561841784.121144,1561841239.621676,42,1.91319,0,0,42.10339,0,0,1561841755.596066,169600.055342,0,0.9645996,75.18385,0,182478453,1,1,0.99,-37.64403,-46.4775,5
1561841787.032619,57,0,0,1561841785.998909,4.634690713141705,-74.15083967156163,2555.463,0.39,300.9375,4,10,-9999,1561841787.010635,7.020301818847656,3.57720947265625,28.34649658203125,189.3605804443359,196.8536834716797,15,169603.33475975,0.82183837890625,-0.5609588623046875,0.6558380126953125,169603.33475975,2.542906850005037,-0.1895180000210908,-1.154136252136511,169603.31968375,-67.39666748046875,-21.468994140625,-534.5451049804688,169603.32969375,2.902337106668238,2.617231260944857,0.8326419100642014,2.587908744812012,-0.1893643438816071,-1.258665084838867,0.4028246998786926,0.1894493103027344,0.02535223960876465,1,0.8645069599151611,-0.2094846367835999,-0.2819668352603912,0.3594975769519806,0.3369061350822449,-0.7397117614746094,0.5825121998786926,0,0,0,-1,169600.1746449167,1,2,1561841784.121144,1561841239.621676,42,1.91319,0,0,42.10339,0,0,1561841755.596066,169600.055342,0,0.9645996,75.18385,0,182478453,1,1,0.99,-30.23601,-38.25836,5
1561841787.052867,58,0,0,1561841786.998899,4.634690713141705,-74.15083967156163,2555.623,0,298.4765625,4,10,-9999,1561841787.036903,6.936515808105469,5.52546501159668,28.0855712890625,191.6144561767578,199.1075592041016,15,169603.35502375,0.952728271484375,-0.4502105712890625,0.7293853759765625,169603.35502375,2.281047274765252,-0.3105243167871302,-0.8535495209570121,169603.33979475,-67.32626342773438,-20.00077819824219,-534.8558349609375,169603.34995775,2.89340372992026,2.618978270489416,0.7779300540228551,2.375411987304688,-0.2973235547542572,-0.9378830194473267,0.5382375717163086,0.1789029240608215,0.074859619140625,1,0.8748905062675476,-0.2078609615564346,-0.2825540006160736,0.3339517712593079,0.3555765450000763,-0.701806366443634,0.6172791719436646,0,0,0,-1,169600.1746449167,1,2,1561841784.121144,1561841239.621676,42,1.91319,0,0,42.10339,0,0,1561841755.596066,169600.055342,0,0.9645996,75.18385,0,182478453,1,1,0.99,-30.23601,-38.25836,5
1561841787.073148,59,0,0,1561841786.998899,4.634690713141705,-74.15083967156163,2555.623,0,298.4765625,4,10,-9999,1561841787.066924,6.982658386230469,6.97123908996582,27.8792724609375,194.0189208984375,201.5120239257812,15,169603.37528675,1.0406494140625,-0.22686767578125,0.723480224609375,169603.37528675,1.4937066016687,-0.1749606288704997,-0.3968797119779305,169603.35990675,-67.34988403320312,-18.57025146484375,-535.2586669921875,169603.37022075,2.882195236598934,2.620668798146489,0.7331999049260071,1.753247499465942,-0.2361116111278534,-0.5350772738456726,0.6310436129570007,0.3125765323638916,0.09808909893035889,1,0.882548451423645,-0.2082022577524185,-0.2831910848617554,0.3123503625392914,0.3697955906391144,-0.6692507266998291,0.6444798707962036,0,0,0,-1,169600.1746449167,1,2,1561841784.121144,1561841239.621676,42,1.91319,0,0,42.10339,0,0,1561841755.596066,169600.055342,0,0.9645996,75.18385,0,182478453,1,1,0.99,-27.36783,-32.42826,5
1561841787.094438,60,0,0,1561841786.998899,4.634690713141705,-74.15083967156163,2555.623,0,298.4765625,4,10,-9999,1561841787.08752,7.017250061035156,9.141668319702148,27.3944091796875,10.53902435302734,18.03213310241699,15,169603.39555075,1.039947509765625,0.11798095703125,0.6394500732421875,169603.39555075,0.4593673248472228,0.01636592384686394,0.3578489556739473,169603.37998675,-67.34095764160156,-17.68695068359375,-535.4920654296875,169603.39048475,2.871604339027646,2.62490959729347,0.7098066094996677,0.645805299282074,-0.04261297732591629,0.1252260953187943,0.6864649653434753,0.5852198004722595,0.02153825759887695,1,0.8863672018051147,-0.2099800258874893,-0.2825927734375,0.3006707727909088,0.3746922314167023,-0.6516870856285095,0.6594768762588501,0,0,0,-1,169600.1746449167,1,2,1561841784.121144,1561841239.621676,42,1.91319,0,0,42.10339,0,0,1561841755.596066,169600.055342,0,0.9645996,75.18385,0,182478453,1,1,0.99,-27.36783,-30.89161,5
1561841787.113524,61,0,0,1561841786.998899,4.634690713141705,-74.15083967156163,2555.623,0,298.4765625,4,10,-9999,1561841787.112163,7.112983703613281,9.442678451538086,27.26708984375,9.063865661621094,16.55697441101074,15,169603.41581475,0.9465789794921875,0.4771575927734375,0.6522674560546875,169603.41581475,0.2445122765312271,0.2127839079362411,1.311410295575577,169603.40009775,-67.32746887207031,-17.21342468261719,-535.4931640625,169603.41071775,2.852616445591137,2.638319879984873,0.7093758838580335,0.2116080224514008,0.1446668952703476,1.099163770675659,0.6288312077522278,0.9372795224189758,-0.02882349491119385,1,0.8863066434860229,-0.2163433581590652,-0.2794888317584991,0.2992357313632965,0.3659502863883972,-0.6513603329658508,0.6646878123283386,0,0,0,-1,169600.1746449167,1,2,1561841784.121144,1561841239.621676,42,1.91319,0,0,42.10339,0,0,1561841755.596066,169600.999594,0,0.7875977,75.18552,0,182478453,1,1,0.99,-25.82855,-29.59281,5
1561841787.133817,62,0,0,1561841786.998899,4.634690713141705,-74.15083967156163,2555.623,0,298.4765625,4,10,-9999,1561841787.112163,7.112983703613281,9.442678451538086,27.26708984375,9.063865661621094,16.55697441101074,15,169603.43604775,0.8888397216796875,0.9950103759765625,0.8217010498046875,169603.43604775,0.6011343138909748,0.2915082813395284,2.171778307871519,169603.42020875,-67.21246337890625,-17.13508605957031,-535.697509765625,169603.43098175,2.812813810271041,2.669886017396834,0.7175018097676726,0.5252059102058411,0.3474487960338593,1.910220742225647,0.5659974217414856,1.386905074119568,0.06256437301635742,1,0.8847137689590454,-0.2299268841743469,-0.2717142105102539,0.3009762465953827,0.3423735499382019,-0.6575044393539429,0.671169638633728,0,0,0,-1,169600.1746449167,1,2,1561841784.121144,1561841239.621676,42,1.91319,0,0,42.10339,0,0,1561841755.596066,169600.999594,0,0.7875977,75.18552,0,182478453,1,1,0.99,-25.82855,-30.07715,5
1561841787.154068,63,0,0,1561841786.998899,4.634690713141705,-74.15083967156163,2555.623,0,298.4765625,4,10,-9999,1561841787.138117,7.136131286621094,9.428497314453125,27.2127685546875,5.608168125152588,13.10127735137939,15,169603.45631175,0.841094970703125,1.487838745117188,0.89471435546875,169603.45631175,0.8579762273209417,-0.2962716112652441,3.91297566543459,169603.44031975,-67.12005615234375,-17.04537963867188,-535.7044677734375,169603.45124575,2.743376323063424,2.718528034320472,0.7279160098498806,0.7618240118026733,-0.1637266278266907,3.345714092254639,0.5610167980194092,1.927262902259827,0.1864911317825317,1,0.8808314800262451,-0.2539821565151215,-0.2611695826053619,0.3023566007614136,0.3065064251422882,-0.6653152704238892,0.680742084980011,0,0,0,-1,169600.1746449167,1,2,1561841784.121144,1561841239.621676,42,1.91319,0,0,42.10339,0,0,1561841755.596066,169600.999594,0,0.7875977,75.18552,0,182478453,1,1,0.99,-25.82855,-30.99773,5
1561841787.174352,64,0,0,1561841786.998899,4.634690713141705,-74.15083967156163,2555.623,0,298.4765625,4,10,-9999,1561841787.162591,7.426017761230469,9.390356063842773,27.16815185546875,358.5294799804688,6.022589683532715,15,169603.47657475,0.708282470703125,1.699676513671875,0.9277801513671875,169603.47657475,1.085295934802944,-0.6909334426873567,6.900431479349431,169603.46043075,-66.23931884765625,-17.05801391601562,-535.8893432617188,169603.47150875,2.616501833010692,2.795587892512108,0.745535042520531,1.064084529876709,-0.603201687335968,6.084686756134033,0.5433043241500854,2.308186769485474,0.2384907007217407,1,0.8697115778923035,-0.298651248216629,-0.2479366660118103,0.3048549890518188,0.2491761296987534,-0.6783649921417236,0.6911816000938416,0,0,0,-1,169600.1746449167,1,2,1561841784.121144,1561841239.621676,42,1.91319,0,0,42.10339,0,0,1561841755.596066,169600.999594,0,0.7875977,75.18552,0,182478453,1,1,0.99,-25.82855,-26.8026,5
1561841787.194831,65,0,0,1561841786.998899,4.634690713141705,-74.15083967156163,2555.623,0,298.4765625,4,10,-9999,1561841787.188878,10.46374130249023,8.737445831298828,26.7303466796875,344.285888671875,351.7789916992188,15,169603.49683875,0.342987060546875,1.678924560546875,0.8922119140625,169603.49683875,0.606920830307499,-0.9344539580286382,10.0798985446979,169603.48054275,-64.76725769042969,-17.78733825683594,-535.9132080078125,169603.49177275,2.401732361496108,2.92750733016397,0.7689511671636979,0.838269829750061,-0.9119177460670471,9.33066463470459,0.4214035868644714,2.407723188400269,0.2153526544570923,1,0.8448514938354492,-0.3705985248088837,-0.2271705567836761,0.3118913471698761,0.1526778191328049,-0.6953818798065186,0.7022346258163452,0,0,0,-1,169600.1746449167,1,2,1561841784.121144,1561841239.621676,42,1.91319,0,0,42.10339,0,0,1561841755.596066,169600.999594,0,0.7875977,75.18552,0,182478453,1,1,0.99,-22.82166,-24.36477,5
1561841787.21489,66,0,0,1561841786.998899,4.634690713141705,-74.15083967156163,2555.623,0,298.4765625,4,10,-9999,1561841787.213743,12.69514465332031,7.02520751953125,26.4249267578125,200.589111328125,208.0822143554688,15,169603.51710275,-0.260833740234375,1.476913452148438,0.8199615478515625,169603.51710275,-1.154011616197496,-0.5936524291245062,12.18578891562031,169603.50065375,-62.41690063476562,-18.7281494140625,-536.2905883789062,169603.51203675,2.098475531598887,3.122620457056834,0.7901210597290106,-0.6214141249656677,-0.7849840521812439,11.78596210479736,0.03262367844581604,2.318150281906128,0.1527059078216553,1,0.7984032034873962,-0.4629995822906494,-0.1993342041969299,0.3293167948722839,0.01335105765610933,-0.7104384899139404,0.7036325931549072,0,0,0,-1,169600.1746449167,1,2,1561841784.121144,1561841239.621676,42,1.91319,0,0,42.10339,0,0,1561841755.596066,169600.999594,0,0.7875977,75.18552,0,182478453,1,1,0.99,-22.82166,-24.36477,5
1561841787.235139,67,0,0,1561841786.998899,4.634690713141705,-74.15083967156163,2555.623,0,298.4765625,4,10,-9999,1561841787.213743,12.69514465332031,7.02520751953125,26.4249267578125,200.589111328125,208.0822143554688,15,169603.53736575,-0.88739013671875,1.148818969726562,0.70416259765625,169603.53736575,-3.437576110825091,0.5936950397019475,13.05170935247296,169603.52073375,-60.1109619140625,-21.3212890625,-536.3145751953125,169603.53229975,1.733676696761944,-2.905499598569119,0.7983407971131813,-2.889225482940674,0.3467441201210022,12.9746618270874,-0.4225887954235077,2.02905011177063,0.0924299955368042,1,0.7270962595939636,-0.5573139190673828,-0.1670832484960556,0.3644383251667023,-0.1632418930530548,-0.7161991000175476,0.678535521030426,0,0,0,-1,169600.1746449167,1,2,1561841784.121144,1561841239.621676,42,1.91319,0,0,42.10339,0,0,1561841755.596066,169600.999594,0,0.7875977,75.18552,0,182478453,1,1,0.99,-22.1098,-23.63677,5
1561841787.27038,68,0,0,1561841786.998899,4.634690713141705,-74.15083967156163,2555.623,0,298.4765625,4,10,-9999,1561841787.264145,14.4262580871582,-1.784099578857422,26.4580078125,204.1260833740234,211.6191864013672,15,169603.55762975,-1.435791015625,0.844818115234375,0.738250732421875,169603.55762975,-5.275368451654209,1.086009395658976,12.43216966597234,169603.54084475,-59.58351135253906,-26.53707885742188,-536.6803588867188,169603.55256375,1.345722663743289,-2.614992101939662,0.7744273299372972,-4.871494293212891,1.006444215774536,12.68711471557617,-0.8068549633026123,1.692119956016541,0.08388054370880127,1,0.634056031703949,-0.6379356980323792,-0.1349320560693741,0.4156973958015442,-0.3592674434185028,-0.699306845664978,0.617978036403656,0,0,0,-1,169600.1746449167,1,2,1561841784.121144,1561841239.621676,42,1.91319,0,0,42.10339,0,0,1561841755.596066,169600.999594,0,0.7875977,75.18552,0,182478453,1,1,0.99,-22.1098,-25.41324,5
1561841787.277962,69,0,0,1561841786.998899,4.634690713141705,-74.15083967156163,2555.623,0,298.4765625,4,10,-9999,1561841787.264145,14.4262580871582,-1.784099578857422,26.4580078125,204.1260833740234,211.6191864013672,15,169603.57789375,-1.678268432617188,0.4514007568359375,0.5684051513671875,169603.57789375,-6.863083840854379,1.762521554727445,11.48160225176817,169603.56095575,-60.58717346191406,-32.18571472167969,-536.4390869140625,169603.57279675,0.9856416724308266,-2.3454872707219,0.7130345153918416,-6.420884132385254,1.565778970718384,11.6489953994751,-1.051671147346497,1.314242482185364,0.1636643409729004,1,0.5278863906860352,-0.6970496773719788,-0.1115831136703491,0.472236156463623,-0.5405377149581909,-0.6541320085525513,0.5290845632553101,0,0,0,-1,169600.1746449167,1,2,1561841784.121144,1561841239.621676,42,1.91319,0,0,42.10339,0,0,1561841755.596066,169600.999594,0,0.7875977,75.18552,0,182478453,1,1,0.99,-22.1098,-25.41324,5
1561841787.295989,70,0,0,1561841786.998899,4.634690713141705,-74.15083967156163,2555.623,0,298.4765625,4,10,-9999,1561841787.29003,10.09484100341797,-13.2794075012207,24.90277099609375,210.2060699462891,217.6991729736328,15,169603.59812675,-1.934112548828125,0.0626373291015625,0.2849273681640625,169603.59812675,-8.95340483941197,0.8385607177098281,11.12467688036027,169603.58106675,-63.27983093261719,-38.06278991699219,-537.3883666992188,169603.59306075,0.6554617839625134,-2.106140030252408,0.6209534942617804,-8.493558883666992,1.38213050365448,11.11067390441895,-1.04564368724823,0.8257532119750977,-0.01782691478729248,1,0.4094889163970947,-0.7346917986869812,-0.09965327382087708,0.5316163897514343,-0.6995345950126648,-0.5818109512329102,0.4149064123630524,0,0,0,-1,169600.1746449167,1,2,1561841784.121144,1561841239.621676,42,1.91319,0,0,42.10339,0,0,1561841755.596066,169600.999594,0,0.7875977,75.18552,0,182478453,1,1,0.99,-22.1098,-26.00033,5
1561841787.316919,71,0,0,1561841786.998899,4.634690713141705,-74.15083967156163,2555.623,0,298.4765625,4,10,-9999,1561841787.314638,6.576416015625,-18.65372085571289,22.1661376953125,122.1392135620117,129.63232421875,15,169603.61838975,-3.000518798828125,-0.167144775390625,-0.12091064453125,169603.61838975,-7.397015148849967,-2.154148714087412,10.58791356686149,169603.60117875,-67.01116943359375,-44.01412963867188,-539.7609252929688,169603.61332475,0.3488194190913143,-1.942267898539171,0.4946493804059418,-8.371657371520996,-1.555878400802612,10.99399662017822,-1.537408351898193,0.4163124263286591,-0.1816145181655884,1,0.2749583125114441,-0.7642884254455566,-0.1040795519948006,0.5739588141441345,-0.8201050758361816,-0.4747231006622314,0.3194777369499207,0,0,0,-1,169600.1746449167,1,2,1561841784.121144,1561841239.621676,42,1.91319,0,0,42.10339,0,0,1561841755.596066,169600.999594,0,0.7875977,75.18552,0,182478453,1,1,0.99,-22.1098,-26.11245,5
1561841787.353799,72,0,0,1561841786.998899,4.634690713141705,-74.15083967156163,2555.623,0,298.4765625,4,10,-9999,1561841787.341082,3.215690612792969,-22.44134902954102,19.37591552734375,133.5790252685547,141.0721282958984,15,169603.63865375,-4.621261596679688,-0.908294677734375,-0.7628936767578125,169603.63865375,-3.050429187366964,-1.852130800138104,6.13351671918157,169603.62128975,-70.40354919433594,-48.42124938964844,-542.5721435546875,169603.63358775,0.1459054301823925,-1.902809927371722,0.3531255098708508,-3.931305170059204,-2.191552877426147,7.565884113311768,-2.949600458145142,-0.09769505262374878,-0.6859469413757324,1,0.160123810172081,-0.7920088171958923,-0.1009802967309952,0.5804182887077332,-0.8870540857315063,-0.3458321392536163,0.3058351874351501,0,0,0,-1,169600.1746449167,1,2,1561841784.121144,1561841239.621676,42,1.91319,0,0,42.10339,0,0,1561841755.596066,169600.999594,0,0.7875977,75.18552,0,182478453,1,1,0.99,-22.1098,-26.75261,5
1561841787.357982,73,0,0,1561841786.998899,4.634690713141705,-74.15083967156163,2555.623,0,298.4765625,4,10,-9999,1561841787.341082,3.215690612792969,-22.44134902954102,19.37591552734375,133.5790252685547,141.0721282958984,15,169603.65891775,-4.670211791992188,-1.79559326171875,-1.438278198242188,169603.65891775,-1.038333485824378,-0.3149052167803105,2.01902844249228,169603.64136975,-72.41104125976562,-50.10658264160156,-544.741943359375,169603.65385175,0.0618093753983378,-1.905520573976306,0.2761665548211611,-1.409595489501953,-0.5953056812286377,2.639239072799683,-3.940684080123901,-1.193913817405701,-1.521657705307007,1,0.1046624258160591,-0.804410457611084,-0.09439548850059509,0.5771127343177795,-0.9087117314338684,-0.2726694643497467,0.3160608112812042,0,0,0,-1,169600.1746449167,1,2,1561841784.121144,1561841239.621676,42,1.91319,0,0,42.10339,0,0,1561841755.596066,169600.999594,0,0.7875977,75.18552,0,182478453,1,1,0.99,-22.1098,-27.63175,5
1561841787.378098,74,0,0,1561841786.998899,4.634690713141705,-74.15083967156163,2555.623,0,298.4765625,4,10,-9999,1561841787.365271,1.282135009765625,-23.51644515991211,17.9222412109375,136.8463592529297,144.3394622802734,15,169603.67918075,-4.310806274414062,-1.620193481445312,-1.445693969726562,169603.67918075,0.3850235851210068,-0.3521567151600118,0.548003717511676,169603.66148075,-73.62200927734375,-50.70323181152344,-545.36083984375,169603.67411575,0.03664120392366031,-1.905072331623979,0.2490344351769133,0.03020547889173031,-0.3006367981433868,0.9263139963150024,-3.557683706283569,-1.514304399490356,-1.815583825111389,1,0.08678684383630753,-0.8071246147155762,-0.0906524658203125,0.5768882632255554,-0.9155065417289734,-0.2464682906866074,0.3179641962051392,0,0,0,-1,169600.1746449167,1,2,1561841784.121144,1561841239.621676,42,1.91319,0,0,42.10339,0,0,1561841755.596066,169600.999594,0,0.7875977,75.18552,0,182478453,1,1,0.99,-22.1098,-27.63175,5
1561841787.397381,75,0,0,1561841786.998899,4.634690713141705,-74.15083967156163,2555.623,0,298.4765625,4,10,-9999,1561841787.39145,0.5250701904296875,-23.94873809814453,17.80419921875,136.4307861328125,143.9238891601562,15,169603.69944475,-3.653106689453125,-1.479751586914062,-1.148361206054688,169603.69944475,1.205736063521233,0.03209402061265391,-1.564397283327654,169603.68159175,-74.27639770507812,-50.60989379882812,-545.2613525390625,169603.69437875,0.04867868535467227,-1.914493499043549,0.2443319440542883,1.057523846626282,-0.1964289098978043,-1.0176100730896,-3.142936706542969,-1.30864417552948,-1.627499103546143,1,0.08989409357309341,-0.8095678091049194,-0.08569815754890442,0.5737375020980835,-0.9135513305664062,-0.2419081628322601,0.3269619643688202,0,0,0,-1,169600.1746449167,1,2,1561841784.121144,1561841239.621676,42,1.91319,0,0,42.10339,0,0,1561841755.596066,169600.999594,0,0.7875977,75.18552,0,182478453,1,1,0.99,-18.62098,-18.62098,5
1561841787.425065,76,0,0,1561841786.998899,4.634690713141705,-74.15083967156163,2555.623,0,298.4765625,4,10,-9999,1561841787.416273,1.12335205078125,-23.53080368041992,18.20355224609375,133.3023071289062,140.79541015625,15,169603.71970875,-2.786346435546875,-1.165695190429688,-0.7502288818359375,169603.71970875,1.949370801020168,1.134814485795769,-3.340350757329023,169603.70170275,-73.31277465820312,-50.06056213378906,-544.8875732421875,169603.71464275,0.09036203577171807,-1.917799997624369,0.27470475874767,1.707150340080261,0.964755654335022,-3.040700674057007,-2.33306884765625,-1.075493216514587,-1.299605131149292,1,0.1151925623416901,-0.8064712285995483,-0.08626389503479004,0.5734922289848328,-0.9051360487937927,-0.2712627649307251,0.3273303508758545,0,0,0,-1,169600.1746449167,1,2,1561841784.121144,1561841239.621676,42,1.91319,0,0,42.10339,0,0,1561841755.596066,169600.999594,0,0.7875977,75.18552,0,182478453,1,1,0.99,-15.71729,-19.87414,5
1561841787.438304,77,0,0,1561841786.998899,4.634690713141705,-74.15083967156163,2555.623,0,298.4765625,4,10,-9999,1561841787.416273,1.12335205078125,-23.53080368041992,18.20355224609375,133.3023071289062,140.79541015625,15,169603.73997175,-2.197509765625,-0.834381103515625,-0.37017822265625,169603.73997175,2.940538372358697,0.9151132832441558,-3.952628269853107,169603.72181475,-72.46749877929688,-49.47865295410156,-543.8104248046875,169603.73487575,0.1597602784643015,-1.915805429044767,0.3264705844186909,2.738307952880859,1.051163554191589,-3.840797901153564,-1.541923522949219,-0.665656566619873,-0.8757458925247192,1,0.1575881838798523,-0.7970800399780273,-0.0872173085808754,0.5763874053955078,-0.8913649320602417,-0.3207020461559296,0.3203412592411041,0,0,0,-1,169600.1746449167,1,2,1561841784.121144,1561841239.621676,42,1.91319,0,0,42.10339,0,0,1561841755.596066,169600.999594,0,0.7875977,75.18552,0,182478453,1,1,0.99,-15.71729,-19.87414,5
1561841787.457893,78,0,0,1561841786.998899,4.634690713141705,-74.15083967156163,2555.623,0,298.4765625,4,10,-9999,1561841787.441982,2.127449035644531,-22.89399337768555,19.3248291015625,127.7372970581055,135.2304077148438,15,169603.76020575,-1.94427490234375,-0.6421051025390625,-0.1511688232421875,169603.76020575,3.003422796230411,0.6218960514331235,-4.46791771653425,169603.74189475,-71.34312438964844,-48.67958068847656,-542.734375,169603.75513975,0.2511904719930465,-1.931669342127102,0.3829443905118887,3.094445466995239,0.5958489775657654,-4.325428485870361,-1.189794421195984,-0.34955233335495,-0.5614640712738037,1,0.2085301876068115,-0.787574291229248,-0.08535671234130859,0.5735469460487366,-0.8678227663040161,-0.3736532032489777,0.3275161981582642,0,0,0,-1,169600.1746449167,1,2,1561841784.121144,1561841239.621676,42,1.91319,0,0,42.10339,0,0,1561841755.596066,169600.999594,0,0.7875977,75.18552,0,182478453,1,1,0.99,-15.71729,-20.74286,5
1561841787.478726,79,0,0,1561841786.998899,4.634690713141705,-74.15083967156163,2555.623,0,298.4765625,4,10,-9999,1561841787.466381,3.459373474121094,-21.82434844970703,20.63226318359375,120.8954544067383,128.3885650634766,15,169603.78046875,-1.687774658203125,-0.46331787109375,-0.0172882080078125,169603.78046875,2.403871465291379,1.125032695111908,-4.982488908669398,169603.76200575,-69.68077087402344,-47.05058288574219,-541.4336547851562,169603.77540275,0.3471001166665554,-1.955522120354071,0.448984783285938,2.535808563232422,0.9738873839378357,-4.879904747009277,-0.9760465621948242,-0.1274570226669312,-0.4143102169036865,1,0.2621458768844604,-0.774811863899231,-0.0877411961555481,0.5685485601425171,-0.8350343704223633,-0.4340511560440063,0.3381077647209167,0,0,0,-1,169600.1746449167,1,2,1561841784.121144,1561841239.621676,42,1.91319,0,0,42.10339,0,0,1561841755.596066,169600.999594,0,0.7875977,75.18552,0,182478453,1,1,0.99,-15.71729,-21.4654,5
1561841787.505452,80,0,0,1561841786.998899,4.634690713141705,-74.15083967156163,2555.623,0,298.4765625,4,10,-9999,1561841787.493749,6.38525390625,-18.45205307006836,22.61810302734375,114.1651306152344,121.6582412719727,15,169603.80073275,-1.450653076171875,-0.2480926513671875,0.069427490234375,169603.80073275,2.3112046446332,1.372820127151714,-5.210535925445101,169603.78211675,-68.3262939453125,-45.56869506835938,-540.4364624023438,169603.79566675,0.4411375606416701,-1.975121826261389,0.5250210390205324,2.262881517410278,1.341831564903259,-5.146046161651611,-0.7701173424720764,0.1506147384643555,-0.3136950731277466,1,0.315814733505249,-0.755293071269989,-0.09499519318342209,0.5663649439811707,-0.7955412864685059,-0.5012311935424805,0.3404131531715393,0,0,0,-1,169600.1746449167,1,2,1561841784.121144,1561841239.621676,42,1.91319,0,0,42.10339,0,0,1561841755.596066,169600.999594,0,0.7875977,75.18552,0,182478453,1,1,0.99,-12.2668,-14.97897,5
1561841787.518713,81,0,0,1561841786.998899,4.634690713141705,-74.15083967156163,2555.623,0,298.4765625,4,10,-9999,1561841787.517047,7.558113098144531,-16.86054611206055,23.6048583984375,106.4934234619141,113.9865341186523,15,169603.82099675,-1.207901000976562,-0.091522216796875,0.22027587890625,169603.82099675,2.840122551876715,1.302684448263932,-5.796903277407695,169603.80219775,-67.42457580566406,-43.93862915039062,-539.4180908203125,169603.81593075,0.5462600569349617,-2.003718987621499,0.6041395482660323,2.664737462997437,1.355761766433716,-5.628879547119141,-0.5919548273086548,0.4056853652000427,-0.2055717706680298,1,0.371296614408493,-0.7312809228897095,-0.1026001274585724,0.5628857016563416,-0.747065007686615,-0.5680541396141052,0.3452659249305725,0,0,0,-1,169600.1746449167,1,2,1561841784.121144,1561841239.621676,42,1.91319,0,0,42.10339,0,0,1561841755.596066,169600.999594,0,0.7875977,75.18552,0,182478453,1,1,0.99,-12.2668,-14.97897,5
1561841787.539058,82,0,0,1561841786.998899,4.634690713141705,-74.15083967156163,2555.623,0,298.4765625,4,10,-9999,1561841787.517047,7.558113098144531,-16.86054611206055,23.6048583984375,106.4934234619141,113.9865341186523,15,169603.84125975,-0.96002197265625,0.0913238525390625,0.33837890625,169603.84125975,3.639548916316155,0.8889216265554445,-6.343632672337769,169603.82230875,-66.05899047851562,-42.0811767578125,-538.46533203125,169603.83619375,0.6824725485542098,-2.061260533513276,0.6849841569389219,3.442376375198364,1.018306255340576,-6.247856140136719,-0.4052289724349976,0.6217201948165894,-0.08266365528106689,1,0.4330911636352539,-0.7034370899200439,-0.1093048378825188,0.5528658032417297,-0.6831346750259399,-0.6326607465744019,0.364783376455307,0,0,0,-1,169600.1746449167,1,2,1561841784.121144,1561841239.621676,42,1.91319,0,0,42.10339,0,0,1561841755.596066,169600.999594,0,0.7875977,75.18552,0,182478453,1,1,0.99,-12.2668,-15.86842,5
1561841787.562135,83,0,0,1561841786.998899,4.634690713141705,-74.15083967156163,2555.623,0,298.4765625,4,10,-9999,1561841787.54393,8.520126342773438,-14.78054428100586,24.6116943359375,95.81555938720703,103.3086700439453,15,169603.86152375,-0.7313079833984375,0.289703369140625,0.4262542724609375,169603.86152375,4.248840492626043,0.2752890976687278,-6.474797084449698,169603.84241975,-64.9095458984375,-39.43057250976562,-537.5067138671875,169603.85645775,0.8592723458402969,-2.163543664221113,0.7565946121767737,4.124480724334717,0.4191722273826599,-6.469273090362549,-0.2336487770080566,0.8900166153907776,-0.02361786365509033,1,0.4994525015354156,-0.673545241355896,-0.1145762354135513,0.5326878428459167,-0.6031279563903809,-0.6864491105079651,0.4062319993972778,0,0,0,-1,169600.1746449167,1,2,1561841784.121144,1561841239.621676,42,1.91319,0,0,42.10339,0,0,1561841755.596066,169600.999594,0,0.7875977,75.18552,0,182478453,1,1,0.99,-12.2668,-16.88077,5
1561841787.590957,84,0,0,1561841786.998899,4.634690713141705,-74.15083967156163,2555.623,0,298.4765625,4,10,-9999,1561841787.567665,9.933868408203125,-11.99921035766602,25.760498046875,81.68241882324219,89.17552947998047,15,169603.88178775,-0.5389251708984375,0.426727294921875,0.5265350341796875,169603.88178775,4.364082663528714,-0.3274039644082704,-6.301203189850627,169603.86253075,-63.60218811035156,-36.4453125,-536.4664306640625,169603.87672175,1.06993363080782,-2.309733990172303,0.8059800796102892,4.395351886749268,-0.1791915893554688,-6.392927646636963,-0.1226305365562439,1.082425713539124,0.01616168022155762,1,0.5653032064437866,-0.6431178450584412,-0.1191303730010986,0.5026327967643738,-0.5118146538734436,-0.721509575843811,0.4663365483283997,0,0,0,-1,169600.1746449167,1,2,1561841784.121144,1561841239.621676,42,1.91319,0,0,42.10339,0,0,1561841755.596066,169600.999594,0,0.7875977,75.18552,0,182478453,1,1,0.99,-12.2668,-18.44752,5
1561841787.599781,85,0,0,1561841786.998899,4.634690713141705,-74.15083967156163,2555.623,0,298.4765625,4,10,-9999,1561841787.594312,12.13531112670898,-5.255510330200195,27.7132568359375,65.91293334960938,73.40604400634766,15,169603.90205075,-0.3760986328125,0.485382080078125,0.5689239501953125,169603.90205075,3.846745778601519,-0.6444905764374648,-5.798636995277337,169603.88261175,-62.62165832519531,-32.73492431640625,-535.23828125,169603.89695475,1.289855272506348,-2.479307272512555,0.8280751388763129,4.0235595703125,-0.6252521276473999,-5.947989940643311,-0.04444414377212524,1.198300838470459,0.01674532890319824,1,0.6249752044677734,-0.6132416725158691,-0.1251049637794495,0.4665719568729401,-0.4158677458763123,-0.7366309762001038,0.5333186984062195,0,0,0,-1,169600.1746449167,1,2,1561841784.121144,1561841239.621676,42,1.91319,0,0,42.10339,0,0,1561841755.596066,169600.999594,0,0.7875977,75.18552,0,182478453,1,1,0.99,-12.2668,-18.44752,5
1561841787.620001,86,0,0,1561841786.998899,4.634690713141705,-74.15083967156163,2555.623,0,298.4765625,4,10,-9999,1561841787.618348,12.61842346191406,-2.092857360839844,28.01251220703125,51.6595573425293,59.15266799926758,15,169603.92228375,-0.2109527587890625,0.54119873046875,0.55267333984375,169603.92228375,2.992302767098785,-0.5662961720911033,-5.126935570401988,169603.90272275,-61.81242370605469,-29.68643188476562,-534.8165283203125,169603.91721875,1.491101141719406,-2.640785788248551,0.8292256229492219,3.21666693687439,-0.6151151061058044,-5.297239303588867,0.03733256459236145,1.253247141838074,-0.02696239948272705,1,0.6748745441436768,-0.5837754607200623,-0.1328830271959305,0.4313845038414001,-0.3243046402931213,-0.7374085187911987,0.5924988985061646,0,0,0,-1,169600.1746449167,1,2,1561841784.121144,1561841239.621676,42,1.91319,0,0,42.10339,0,0,1561841755.596066,169600.999594,0,0.7875977,75.18552,0,182478453,1,1,0.99,-12.2668,-18.90533,5
1561841787.640319,87,0,0,1561841786.998899,4.634690713141705,-74.15083967156163,2555.623,0,298.4765625,4,10,-9999,1561841787.618348,12.61842346191406,-2.092857360839844,28.01251220703125,51.6595573425293,59.15266799926758,15,169603.94254775,-0.050048828125,0.6110076904296875,0.5825347900390625,169603.94254775,2.04336281063677,-0.1786752059589422,-4.405447414212043,169603.92283375,-61.84829711914062,-26.47340393066406,-534.605712890625,169603.93748175,1.66001930511774,-2.774844441653869,0.820948218204023,2.258402347564697,-0.3123568594455719,-4.603684425354004,0.1080156266689301,1.300563812255859,-0.07579541206359863,1,0.7144009470939636,-0.5547375679016113,-0.1414034217596054,0.4023712575435638,-0.2443834245204926,-0.7317923903465271,0.6362049579620361,0,0,0,-1,169600.1746449167,1,2,1561841784.121144,1561841239.621676,42,1.91319,0,0,42.10339,0,0,1561841755.596066,169600.999594,0,0.7875977,75.18552,0,182478453,1,1,0.99,-12.2668,-19.7144,5
1561841787.668279,88,0,0,1561841786.998899,4.634690713141705,-74.15083967156163,2555.623,0,298.4765625,4,10,-9999,1561841787.645103,12.7314567565918,0.6313667297363281,28.122802734375,40.33254623413086,47.82565689086914,15,169603.96281175,0.1356964111328125,0.7606201171875,0.6590118408203125,169603.96281175,1.443010933474061,0.4352747717297119,-3.62007215399997,169603.94294475,-62.23289489746094,-24.4127197265625,-534.7337646484375,169603.95774575,1.795684448173707,-2.874226715671264,0.811347012292512,1.563466191291809,0.2857829928398132,-3.820828676223755,0.2157916575670242,1.401332139968872,-0.04873299598693848,1,0.7448897957801819,-0.52646803855896,-0.1480150818824768,0.3821806013584137,-0.1819019019603729,-0.7252152562141418,0.6640588045120239,0,0,0,-1,169600.1746449167,1,2,1561841784.121144,1561841239.621676,42,1.91319,0,0,42.10339,0,0,1561841755.596066,169600.999594,0,0.7875977,75.18552,0,182478453,1,1,0.99,-12.2668,-20.32663,5
1561841787.680928,89,0,0,1561841786.998899,4.634690713141705,-74.15083967156163,2555.623,0,298.4765625,4,10,-9999,1561841787.66922,12.45282745361328,2.534574508666992,28.0291748046875,31.83946418762207,39.33257293701172,15,169603.98307475,0.366485595703125,0.9751129150390625,0.7575531005859375,169603.98307475,1.040358020885056,0.6398633340434521,-2.624818494600931,169603.96302475,-62.41754150390625,-22.6527099609375,-534.5594482421875,169603.97800975,1.901276565700871,-2.939996572252056,0.8009682864875788,1.121406674385071,0.6433669924736023,-2.905122995376587,0.3971467614173889,1.571454405784607,0.02317702770233154,1,0.7683894634246826,-0.5005354881286621,-0.1500153541564941,0.3695094585418701,-0.1393647640943527,-0.7180303931236267,0.6819162964820862,0,0,0,-1,169600.1746449167,1,2,1561841784.121144,1561841239.621676,42,1.91319,0,0,42.10339,0,0,1561841755.596066,169600.999594,0,0.7875977,75.18552,0,182478453,1,1,0.99,-12.2668,-20.32663,5
1561841787.701186,90,0,0,1561841786.998899,4.634690713141705,-74.15083967156163,2555.623,0,298.4765625,4,10,-9999,1561841787.695476,11.16373825073242,5.178022384643555,28.0152587890625,26.28017616271973,33.77328491210938,15,169604.00333875,0.572052001953125,1.333053588867188,0.8850555419921875,169604.00333875,0.7103276470097497,0.3669889245350992,-1.256451705424048,169603.98313675,-62.98480224609375,-21.82676696777344,-534.8377075195312,169603.99827275,1.972453332352785,-2.978898274387375,0.7901222691569952,0.8217718601226807,0.4829389452934265,-1.676061630249023,0.581476628780365,1.844213128089905,0.1282583475112915,1,0.7844254970550537,-0.4815694689750671,-0.1491366177797318,0.361283540725708,-0.1139931157231331,-0.7104393243789673,0.6944650411605835,0,0,0,-1,169600.1746449167,1,2,1561841784.121144,1561841239.621676,42,1.91319,0,0,42.10339,0,0,1561841755.596066,169600.999594,0,0.7875977,75.18552,0,182478453,1,1,0.99,-12.2668,-13.22906,5
1561841787.721485,91,0,0,1561841786.998899,4.634690713141705,-74.15083967156163,2555.623,0,298.4765625,4,10,-9999,1561841787.695476,11.16373825073242,5.178022384643555,28.0152587890625,26.28017616271973,33.77328491210938,15,169604.02360275,0.7972259521484375,1.648574829101562,0.933380126953125,169604.02360275,0.1748277371321047,-0.2557486858024894,1.238835693761501,169604.00324775,-63.77363586425781,-20.93978881835938,-534.8936767578125,169604.01853675,1.994857298493093,-2.990517988182486,0.7809807964552117,0.2921485006809235,-0.100587859749794,0.4851316511631012,0.8000959157943726,2.227368116378784,0.2054585218429565,1,0.7902071475982666,-0.4760670363903046,-0.1472712010145187,0.3567130565643311,-0.1068891435861588,-0.7039763331413269,0.7021343111991882,0,0,0,-1,169600.1746449167,1,2,1561841784.121144,1561841239.621676,42,1.91319,0,0,42.10339,0,0,1561841755.596066,169600.999594,0,0.7875977,75.18552,0,182478453,1,1,0.99,-12.2668,-13.96222,5
1561841787.756818,92,0,0,1561841786.998899,4.634690713141705,-74.15083967156163,2555.623,0,298.4765625,4,10,-9999,1561841787.746336,10.84917068481445,6.092861175537109,27.92425537109375,313.4628601074219,320.9559631347656,15,169604.04386675,0.871429443359375,1.772216796875,0.938201904296875,169604.04386675,-0.306954615661988,-0.6676243915625472,4.747581588925651,169604.02332775,-63.9102783203125,-20.3209228515625,-535.0825805664062,169604.03880075,1.936612525503203,-2.957678930430878,0.7728405912777173,-0.182802602648735,-0.6256609559059143,3.817620515823364,0.9853748679161072,2.430807113647461,0.2426000833511353,1,0.7795615196228027,-0.4941783845424652,-0.1425909548997879,0.3574066758155823,-0.1309284716844559,-0.6981717348098755,0.703856885433197,0,0,0,-1,169600.1746449167,1,2,1561841784.121144,1561841239.621676,42,1.91319,0,0,42.10339,0,0,1561841755.596066,169600.999594,0,0.7875977,75.18552,0,182478453,1,1,0.99,-9.157502,-10.87579,5
1561841787.762156,93,0,0,1561841786.998899,4.634690713141705,-74.15083967156163,2555.623,0,298.4765625,4,10,-9999,1561841787.746336,10.84917068481445,6.092861175537109,27.92425537109375,313.4628601074219,320.9559631347656,15,169604.06412975,0.667724609375,1.718063354492188,0.88372802734375,169604.06412975,-0.7943399930734983,-0.8362853128744644,8.387835710298459,169604.04343875,-62.86898803710938,-20.55548095703125,-535.1640625,169604.05903375,1.77882041186901,-2.862487310632995,0.7549592470084885,-0.6744322180747986,-0.7677030563354492,7.532852172851562,1.005361437797546,2.456544876098633,0.2224152088165283,1,0.7472918033599854,-0.5400119423866272,-0.1294669955968857,0.3649387955665588,-0.2006433606147766,-0.6852589845657349,0.7001158595085144,0,0,0,-1,169600.1746449167,1,2,1561841784.121144,1561841239.621676,42,1.91319,0,0,42.10339,0,0,1561841755.596066,169600.999594,0,0.7875977,75.18552,0,182478453,1,1,0.99,-9.157502,-10.87579,5
1561841787.782248,94,0,0,1561841786.998899,4.634690713141705,-74.15083967156163,2555.623,0,298.4765625,4,10,-9999,1561841787.770359,12.06609344482422,5.275405883789062,27.63531494140625,298.3919982910156,305.8851013183594,15,169604.08436275,0.1212615966796875,1.48321533203125,0.85968017578125,169604.08436275,-1.372249145414001,-1.226630692801777,11.16024073355718,169604.06354975,-61.42393493652344,-22.48844909667969,-535.4203491210938,169604.07929675,1.536444790212895,-2.719233112806599,0.7089080963763531,-1.218971252441406,-1.145881772041321,10.55687999725342,0.7490208148956299,2.264118671417236,0.1690046787261963,1,0.689505398273468,-0.6089063286781311,-0.1074579134583473,0.37718465924263,-0.3111546337604523,-0.6510053277015686,0.6923692226409912,0,0,0,-1,169600.1746449167,1,2,1561841784.121144,1561841239.621676,42,1.91319,0,0,42.10339,0,0,1561841755.596066,169600.999594,0,0.7875977,75.18552,0,182478453,1,1,0.99,-9.157502,-11.71805,5
1561841787.80253,95,0,0,1561841786.998899,4.634690713141705,-74.15083967156163,2555.623,0,298.4765625,4,10,-9999,1561841787.796715,14.62339401245117,-0.5118370056152344,26.5628662109375,278.42822265625,285.9213256835938,15,169604.10463725,-0.5344085693359375,1.267471313476562,0.738983154296875,169604.10463725,-2.022596812036877,-0.588068046634719,13.13312751331886,169604.08367125,-60.10093688964844,-25.65765380859375,-536.0830688476562,169604.09957125,1.252559191030757,-2.56701399450831,0.6223169826429108,-1.846247673034668,-0.952580988407135,12.72317790985107,0.23172527551651,1.947451829910278,0.1538063287734985,1,0.6054068803787231,-0.6888468265533447,-0.07978200167417526,0.390649825334549,-0.4415946304798126,-0.5829193592071533,0.682054877281189,0,0,0,-1,169600.1746449167,1,2,1561841784.121144,1561841239.621676,42,1.91319,0,0,42.10339,0,0,1561841755.596066,169600.999594,0,0.7875977,75.18552,0,182478453,1,1,0.99,-9.157502,-12.00107,5
1561841787.832146,96,0,0,1561841786.998899,4.634690713141705,-74.15083967156163,2555.623,0,298.4765625,4,10,-9999,1561841787.821435,14.45322036743164,-4.916135787963867,26.0975341796875,257.7820129394531,265.2751159667969,15,169604.12490125,-1.276992797851562,1.12066650390625,0.5404205322265625,169604.12490125,-3.789387413991719,2.377704043368588,13.88645908666288,169604.10378325,-59.44667053222656,-30.24693298339844,-536.52294921875,169604.11983525,0.9636084173598372,-2.411785443120045,0.4948665393634832,-3.067433834075928,1.471704363822937,13.86388301849365,-0.2791808247566223,1.655379891395569,-0.03330135345458984,1,0.497136652469635,-0.7621026039123535,-0.04242025688290596,0.4126199781894684,-0.5867401957511902,-0.4749141931533813,0.6558904647827148,0,0,0,-1,169600.1746449167,1,2,1561841784.121144,1561841239.621676,42,1.91319,0,0,42.10339,0,0,1561841755.596066,169600.999594,0,0.7875977,75.18552,0,182478453,1,1,0.99,-9.157502,-12.95711,5
1561841787.845956,97,0,0,1561841786.998899,4.634690713141705,-74.15083967156163,2555.623,0,298.4765625,4,10,-9999,1561841787.821435,14.45322036743164,-4.916135787963867,26.0975341796875,257.7820129394531,265.2751159667969,15,169604.14516425,-2.381637573242188,0.7632293701171875,0.559356689453125,169604.14516425,-9.066796912305364,6.460074597311522,13.34897565440535,169604.12389425,-61.08636474609375,-34.83833312988281,-537.0240478515625,169604.14009825,0.6737860084137575,-2.221968075605453,0.3588037376809278,-7.427463531494141,5.645955562591553,13.49274253845215,-1.037046074867249,1.359607815742493,-0.0332179069519043,1,0.3662062585353851,-0.8060104250907898,-0.006578534841537476,0.4649697542190552,-0.7447227239608765,-0.3511544167995453,0.5675196647644043,0,0,0,-1,169600.1746449167,1,2,1561841784.121144,1561841239.621676,42,1.91319,0,0,42.10339,0,0,1561841755.596066,169600.999594,0,0.7875977,75.18552,0,182478453,1,1,0.99,-9.157502,-12.99429,5
1561841787.863513,98,0,0,1561841786.998899,4.634690713141705,-74.15083967156163,2555.623,0,298.4765625,4,10,-9999,1561841787.847825,11.72446441650391,-9.966350555419922,25.8863525390625,108.7953796386719,116.2884902954102,15,169604.16542825,-3.597366333007812,0.5333709716796875,0.109039306640625,169604.16542825,-13.54876493411865,3.592627480018376,12.24121036316929,169604.14400525,-66.37124633789062,-40.672119140625,-537.7255249023438,169604.16036225,0.3377351208515594,-1.995805285821436,0.2398867867957211,-13.29826068878174,5.490262031555176,12.46428775787354,-2.183106660842896,0.7577800750732422,-0.02465212345123291,1,0.2041561454534531,-0.8115301728248596,-0.008672572672367096,0.5474156737327576,-0.8849475383758545,-0.2375926524400711,0.4005219042301178,0,0,0,-1,169600.1746449167,1,2,1561841784.121144,1561841239.621676,42,1.91319,0,0,42.10339,0,0,1561841755.596066,169600.999594,0,0.7875977,75.18552,0,182478453,1,1,0.99,-9.157502,-12.99429,5
1561841787.883805,99,0,0,1561841786.998899,4.634690713141705,-74.15083967156163,2555.623,0,298.4765625,4,10,-9999,1561841787.87179,-0.7894515991210938,-21.73402404785156,19.59344482421875,133.5445861816406,141.0376892089844,15,169604.18569225,-4.606948852539062,0.4241180419921875,-1.308807373046875,169604.18569225,-7.186976959997597,-6.478924451507102,11.66757292121728,169604.16411625,-73.72940063476562,-47.02102661132812,-541.4368896484375,169604.18062625,0.01142063713586177,-1.93022863712056,0.09945684473902611,-9.298308372497559,-5.238416194915771,11.99941921234131,-3.051668167114258,0.6341745853424072,-0.8068833351135254,1,0.03298810496926308,-0.8209227323532104,-0.03761793673038483,0.5688432455062866,-0.9314708113670349,-0.09929296374320984,0.3500047028064728,0,0,0,-1,169600.1746449167,1,2,1561841784.121144,1561841239.621676,42,1.91319,0,0,42.10339,0,0,1561841755.596066,169600.999594,0,0.7875977,75.18552,0,182478453,1,1,0.99,-9.157502,-14.07817,5
1561841787.917285,100,0,0,1561841786.998899,4.634690713141705,-74.15083967156163,2555.623,0,298.4765625,4,10,-9999,1561841787.899156,-4.589927673339844,-23.75643920898438,16.64813232421875,148.0099029541016,155.5030059814453,15,169604.20595525,-5.608566284179688,0.365814208984375,-0.412078857421875,169604.20595525,1.876125881559718,0.119583656111719,3.486972156407771,169604.18422725,-78.20028686523438,-50.38227844238281,-545.884521484375,169604.20088925,-0.1579161567983948,-2.028722957398372,-0.05196503838698595,0.2164055109024048,-1.899900913238525,6.396820068359375,-4.565711498260498,0.2772514522075653,-1.672388553619385,1,-0.08063317835330963,-0.8451299071311951,-0.01965362206101418,0.5280790328979492,-0.8957602381706238,0.0519416555762291,0.4414925277233124,0,0,0,-1,169600.1746449167,1,2,1561841784.121144,1561841239.621676,42,1.91319,0,0,42.10339,0,0,1561841755.596066,169600.999594,0,0.7875977,75.18552,0,182478453,1,1,0.99,-9.157502,-15.58962,5
1561841787.924172,101,0,0,1561841786.998899,4.634690713141705,-74.15083967156163,2555.623,0,298.4765625,4,10,-9999,1561841787.922556,-6.064239501953125,-23.51865768432617,16.850341796875,146.8589324951172,154.3520355224609,15,169604.22621925,-3.665542602539062,-0.841644287109375,-1.91650390625,169604.22621925,0.899695977377578,3.213636487398617,-2.604047968627186,169604.20436825,-80.51319885253906,-50.22003173828125,-546.1077880859375,169604.22112325,-0.1422190381288749,-2.009532513988368,-0.09000031778122233,0.9625827670097351,2.524053812026978,-2.036676168441772,-3.495835781097412,-0.1530044674873352,-1.435710668563843,1,-0.08397158235311508,-0.8393372297286987,-0.0001912929583340883,0.5370863676071167,-0.9016252756118774,0.0898788645863533,0.4230764210224152,0,0,0,-1,169600.1746449167,1,2,1561841784.121144,1561841239.621676,42,1.91319,0,0,42.10339,0,0,1561841755.596066,169600.999594,0,0.7875977,75.18552,0,182478453,1,1,0.99,-9.157502,-15.58962,5
1561841787.945972,102,0,0,1561841786.998899,4.634690713141705,-74.15083967156163,2555.623,0,298.4765625,4,10,-9999,1561841787.922556,-6.064239501953125,-23.51865768432617,16.850341796875,146.8589324951172,154.3520355224609,15,169604.24645225,-2.669815063476562,0.209259033203125,-0.7005767822265625,169604.24645225,2.223173588484522,3.378444080929298,-2.970823573958969,169604.22448025,-80.72178649902344,-49.94207763671875,-546.19775390625,169604.24138625,-0.09473756066020737,-1.935593924892577,-0.04634884630459769,2.007615327835083,3.785914659500122,-3.251567125320435,-2.590458393096924,-0.4517277479171753,-1.491417288780212,1,-0.05211634188890457,-0.821871280670166,-0.007782080676406622,0.5672308206558228,-0.9331926107406616,0.04633225500583649,0.3563770353794098,0,0,0,-1,169600.1746449167,1,2,1561841784.121144,1561841239.621676,42,1.91319,0,0,42.10339,0,0,1561841755.596066,169600.999594,0,0.7875977,75.18552,0,182478453,1,1,0.99,-9.157502,-16.46139,5
1561841787.964655,103,0,0,1561841786.998899,4.634690713141705,-74.15083967156163,2555.623,0,298.4765625,4,10,-9999,1561841787.948581,-6.341728210449219,-23.19734573364258,16.6328125,142.9534149169922,150.4465179443359,15,169604.26671625,-1.596710205078125,-0.1529388427734375,-0.3036346435546875,169604.26671625,2.345814553527652,1.124559185070092,-1.538779271537746,169604.24459125,-80.77804565429688,-50.15376281738281,-546.0758056640625,169604.26165025,-0.03379659614840223,-1.87775577104173,-0.01198772957297928,2.398126602172852,1.617311120033264,-1.848629355430603,-1.087125539779663,0.05179429799318314,-0.8237615823745728,1,-0.01717428490519524,-0.8067062497138977,-0.005145360715687275,0.5906805396080017,-0.9531881213188171,0.01198744215071201,0.3021398484706879,0,0,0,-1,169600.1746449167,1,2,1561841784.121144,1561841239.621676,42,1.91319,0,0,42.10339,0,0,1561841755.596066,169600.999594,0,0.7875977,75.18552,0,182478453,1,1,0.99,-9.157502,-17.35261,5
1561841787.997808,104,0,0,1561841786.998899,4.634690713141705,-74.15083967156163,2555.623,0,298.4765625,4,10,-9999,1561841787.973277,-5.771728515625,-22.77294921875,17.77581787109375,138.9588775634766,146.4519805908203,15,169604.28698025,-1.397796630859375,-0.4014434814453125,-0.141693115234375,169604.28698025,1.335998196655843,1.104225683831227,-1.247238499632919,169604.26470225,-80.26918029785156,-49.13346862792969,-545.2096557617188,169604.28191425,0.01575222973177598,-1.858495633958719,0.00236661247981174,1.658530354499817,0.7883979678153992,-1.176458954811096,-0.4508780837059021,-0.2569260001182556,-0.4493954181671143,1,0.007018148899078369,-0.8011390566825867,0.003765305038541555,0.5984253287315369,-0.9588966369628906,-0.002366610337048769,0.2837460935115814,0,0,0,-1,169600.1746449167,1,2,1561841784.121144,1561841239.621676,42,1.91319,0,0,42.10339,0,0,1561841755.596066,169600.999594,0,0.7875977,75.18552,0,182478453,1,1,0.99,-9.157502,-18.17102,5
1561841788.005094,105,0,0,1561841786.998899,4.634690713141705,-74.15083967156163,2555.623,0,298.4765625,4,10,-9999,1561841787.999811,-5.7852783203125,-22.41226959228516,18.17010498046875,136.6571197509766,144.1502227783203,15,169604.30724325,-1.422683715820312,-0.6329803466796875,-0.0814361572265625,169604.30724325,0.4218481787779684,2.853776046153333,-2.059145235888798,169604.28481325,-80.30010986328125,-48.84245300292969,-544.715576171875,169604.30217725,0.04421847122991183,-1.827156673948431,0.0247073768758981,0.5556514859199524,2.462422609329224,-1.843017578125,-0.4597034454345703,-0.5229178071022034,-0.3678028583526611,1,0.02504604682326317,-0.7912741303443909,0.003727056784555316,0.6109369397163391,-0.9670239090919495,-0.02470486238598824,0.2534841001033783,0,0,0,-1,169600.1746449167,1,2,1561841784.121144,1561841239.621676,42,1.91319,0,0,42.10339,0,0,1561841755.596066,169600.999594,0,0.7875977,75.18552,0,182478453,1,1,0.99,-9.157502,-18.17102,5
1561841788.025221,106,0,0,1561841786.998899,4.634690713141705,-74.15083967156163,2555.623,0,298.4765625,4,10,-9999,1561841787.999811,-5.7852783203125,-22.41226959228516,18.17010498046875,136.6571197509766,144.1502227783203,15,169604.32750725,-1.262710571289062,-0.659088134765625,0.0178680419921875,169604.32750725,0.4978372194256354,3.153524946853893,-2.493519326537845,169604.30492425,-80.48930358886719,-48.978759765625,-544.5918579101562,169604.32244125,0.06220908000197653,-1.766735101145096,0.06663033830270725,0.4067368507385254,3.266703844070435,-2.472539663314819,-0.387323796749115,-0.5963065028190613,-0.2244830131530762,1,0.04514894261956215,-0.7714203000068665,-0.006008102558553219,0.6346937417984009,-0.9786887764930725,-0.06658104807138443,0.1942554116249084,0,0,0,-1,169600.1746449167,1,2,1561841784.121144,1561841239.621676,42,1.91319,0,0,42.10339,0,0,1561841755.596066,169600.999594,0,0.7875977,75.18552,0,182478453,1,1,0.99,-9.157502,-19.2575,5
1561841788.045642,107,0,0,1561841786.998899,4.634690713141705,-74.15083967156163,2555.623,0,298.4765625,4,10,-9999,1561841788.024207,-6.081565856933594,-22.32383728027344,18.16180419921875,135.3602905273438,142.8533935546875,15,169604.34777125,-1.193283081054688,-0.6095123291015625,0.0569915771484375,169604.34777125,1.007600873160973,2.10253052689117,-2.412226866895394,169604.32503525,-80.31462097167969,-49.07398986816406,-544.7069091796875,169604.34270525,0.0829499905212,-1.710099493261059,0.113913451346528,0.8694512248039246,2.36738920211792,-2.417205095291138,-0.2213056683540344,-0.5181381702423096,-0.09178006649017334,1,0.06855906546115875,-0.7511832118034363,-0.01575639471411705,0.6563345789909363,-0.9838945269584656,-0.1136672496795654,0.137953132390976,0,0,0,-1,169600.1746449167,1,2,1561841784.121144,1561841239.621676,42,1.91319,0,0,42.10339,0,0,1561841755.596066,169600.999594,0,0.7875977,75.18552,0,182478453,1,1,0.99,-9.157502,-20.06673,5
1561841788.06733,108,0,0,1561841787.998889,4.634654629048551,-74.15083967156163,2555.617,0.67,172.6171875,4,10,-9999,1561841788.052346,-5.992698669433594,-22.51885223388672,18.06939697265625,133.7014007568359,141.1945037841797,15,169604.36803425,-1.211944580078125,-0.6625518798828125,0.033538818359375,169604.36803425,1.423635637595407,1.475239710037872,-2.876301062653223,169604.34514625,-80.38362121582031,-49.2559814453125,-544.8159790039062,169604.36296825,0.1119366982358637,-1.675682919918791,0.1615218443727347,1.349376559257507,1.539483428001404,-2.704529285430908,-0.2237474322319031,-0.4540782570838928,-0.05287086963653564,1,0.09532985836267471,-0.7365989685058594,-0.0225573368370533,0.6691974997520447,-0.9815595746040344,-0.1608204245567322,0.1033316478133202,0,0,0,-1,169600.1746449167,1,2,1561841784.121144,1561841239.621676,42,1.91319,0,0,42.10339,0,0,1561841755.596066,169601.943758,0,0.7875977,75.18552,0,182478453,1,1,0.99,-9.157502,-20.83507,5
1561841788.086019,109,0,0,1561841787.998889,4.634654629048551,-74.15083967156163,2555.617,0.67,172.6171875,4,10,-9999,1561841788.074626,-5.209068298339844,-22.33049392700195,18.523681640625,131.3195190429688,138.8126220703125,15,169604.38829825,-1.337631225585938,-0.707122802734375,-0.025360107421875,169604.38829825,1.361937385673214,1.811952221404297,-3.784675483075042,169604.36525725,-79.83541870117188,-48.86874389648438,-544.483154296875,169604.38320125,0.1472678585665177,-1.651728757838276,0.2212330877651904,1.426965355873108,1.646848797798157,-3.543163537979126,-0.3085412383079529,-0.4858283996582031,-0.07743930816650391,1,0.1283851116895676,-0.723155677318573,-0.03136421740055084,0.6779228448867798,-0.9724341034889221,-0.2194328308105469,0.07887373864650726,0,0,0,-1,169600.1746449167,1,2,1561841784.121144,1561841239.621676,42,1.91319,0,0,42.10339,0,0,1561841755.596066,169601.943758,0,0.7875977,75.18552,0,182478453,1,1,0.99,-9.157502,-21.82811,5
1561841788.106249,110,0,0,1561841787.998889,4.634654629048551,-74.15083967156163,2555.617,0.67,172.6171875,4,10,-9999,1561841788.100435,-4.216194152832031,-22.13853454589844,18.69232177734375,128.9562683105469,136.4493713378906,15,169604.40853125,-1.28277587890625,-0.7061920166015625,-0.0324859619140625,169604.40853125,1.018313704961925,2.338969164261712,-4.407836269709844,169604.38536825,-78.71136474609375,-48.89749145507812,-544.2385864257812,169604.40346525,0.1792712405331421,-1.620078266608294,0.3000230478348452,1.091338038444519,2.247637271881104,-4.32463264465332,-0.3574451804161072,-0.4178824424743652,-0.07558012008666992,1,0.1667365878820419,-0.7040807008743286,-0.04678861424326897,0.6886799931526184,-0.9541698098182678,-0.2955422103404999,0.04706144705414772,0,0,0,-1,169600.1746449167,1,2,1561841784.121144,1561841239.621676,42,1.91319,0,0,42.10339,0,0,1561841755.596066,169601.943758,0,0.7875977,75.18552,0,182478453,1,1,0.99,-9.157502,-22.66596,5
1561841788.127997,111,0,0,1561841787.998889,4.634654629048551,-74.15083967156163,2555.617,0.67,172.6171875,4,10,-9999,1561841788.124878,-3.206077575683594,-22.1266975402832,18.9735107421875,127.2537307739258,134.7468414306641,15,169604.42879525,-1.22747802734375,-0.564666748046875,-0.02874755859375,169604.42879525,1.002637273521283,2.249654198151507,-4.415995928973738,169604.40547925,-77.69122314453125,-48.63951110839844,-543.9132080078125,169604.42372925,0.2033638884535427,-1.580554950356685,0.3891760970577267,0.958477258682251,2.339019298553467,-4.447501182556152,-0.3432241678237915,-0.2562091052532196,-0.04416978359222412,1,0.206120640039444,-0.6797268986701965,-0.06660658121109009,0.7007490396499634,-0.9251779317855835,-0.3794262409210205,0.009028750471770763,0,0,0,-1,169600.1746449167,1,2,1561841784.121144,1561841239.621676,42,1.91319,0,0,42.10339,0,0,1561841755.596066,169601.943758,0,0.7875977,75.18552,0,182478453,1,1,0.99,-9.157502,-23.59122,5
1561841788.149897,112,0,0,1561841787.998889,4.634654629048551,-74.15083967156163,2555.617,0.67,172.6171875,4,10,-9999,1561841788.124878,-3.206077575683594,-22.1266975402832,18.9735107421875,127.2537307739258,134.7468414306641,15,169604.44905825,-1.161331176757812,-0.55535888671875,-0.04425048828125,169604.44905825,1.318220264799019,1.794884820926306,-4.388025813309071,169604.42559025,-76.84843444824219,-48.83941650390625,-543.681640625,169604.44399225,0.2266893093999441,-1.547374269687374,0.4784305689288717,1.232866406440735,1.885879993438721,-4.367856502532959,-0.2961645126342773,-0.08210921287536621,-0.01694464683532715,1,0.2451877892017365,-0.6553531885147095,-0.08590370416641235,0.7092359662055969,-0.8874750137329102,-0.4603865444660187,-0.02079029195010662,0,0,0,-1,169600.1746449167,1,2,1561841784.121144,1561841239.621676,42,1.91319,0,0,42.10339,0,0,1561841755.596066,169601.943758,0,0.7875977,75.18552,0,182478453,1,1,0.99,-9.157502,-24.51996,5
1561841788.167029,113,0,0,1561841787.998889,4.634654629048551,-74.15083967156163,2555.617,0.67,172.6171875,4,10,-9999,1561841788.151624,-1.969268798828125,-22.20484161376953,19.04071044921875,125.4818801879883,132.9749908447266,15,169604.46932225,-1.141952514648438,-0.606964111328125,-0.03515625,169604.46932225,1.532039876083191,1.768908880285891,-4.818878139732599,169604.44573225,-75.77717590332031,-48.70948791503906,-543.4632568359375,169604.46425625,0.2552325876405889,-1.526106096104893,0.5701618059857899,1.490675806999207,1.721220135688782,-4.676791667938232,-0.3178250789642334,-0.0401114821434021,-0.01129609346389771,1,0.286014199256897,-0.631974458694458,-0.1045203432440758,0.7126567363739014,-0.8409730792045593,-0.5397682785987854,-0.0376083217561245,0,0,0,-1,169600.1746449167,1,2,1561841784.121144,1561841239.621676,42,1.91319,0,0,42.10339,0,0,1561841755.596066,169601.943758,0,0.7875977,75.18552,0,182478453,1,1,0.99,-9.157502,-24.51996,5
1561841788.187299,114,0,0,1561841787.998889,4.634654629048551,-74.15083967156163,2555.617,0.67,172.6171875,4,10,-9999,1561841788.177891,0.0366363525390625,-21.5504035949707,20.058349609375,123.2974472045898,130.7905578613281,15,169604.48958625,-1.104598999023438,-0.639495849609375,0.0075225830078125,169604.48958625,1.546174603568787,1.878451886455793,-5.391925425187052,169604.46584325,-74.66635131835938,-48.39710998535156,-542.771728515625,169604.48452025,0.286859591779389,-1.507808449977476,0.6726239844602082,1.550253987312317,1.876203656196594,-5.280256748199463,-0.354295015335083,-0.009375154972076416,0.03301584720611572,1,0.3304714858531952,-0.6051203608512878,-0.1252001225948334,0.7134023904800415,-0.7806384563446045,-0.6230405569076538,-0.04923589155077934,0,0,0,-1,169600.1746449167,1,2,1561841784.121144,1561841239.621676,42,1.91319,0,0,42.10339,0,0,1561841755.596066,169601.943758,0,0.7875977,75.18552,0,182478453,1,1,0.99,-9.157502,-24.04596,5
1561841788.207673,115,0,0,1561841787.998889,4.634654629048551,-74.15083967156163,2555.617,0.67,172.6171875,4,10,-9999,1561841788.201923,1.389640808105469,-20.82349014282227,20.664794921875,121.0751266479492,128.5682373046875,15,169604.50984925,-1.000167846679688,-0.6145477294921875,0.040130615234375,169604.50984925,1.543331146472909,1.530174331739591,-5.431626765453518,169604.48595425,-73.44451904296875,-47.63587951660156,-542.4290771484375,169604.50478325,0.3181069022394312,-1.491979808664891,0.7848003708397693,1.54313588142395,1.651830434799194,-5.490845680236816,-0.3378342390060425,0.0784948468208313,0.08932238817214966,1,0.3766258358955383,-0.5747167468070984,-0.1487849205732346,0.711137592792511,-0.70533287525177,-0.7066839337348938,-0.05570727959275246,0,0,0,-1,169600.1746449167,1,2,1561841784.121144,1561841239.621676,42,1.91319,0,0,42.10339,0,0,1561841755.596066,169601.943758,0,0.7875977,75.18552,0,182478453,1,1,0.99,-9.157502,-24.61443,5
1561841788.233267,116,0,0,1561841787.998889,4.634654629048551,-74.15083967156163,2555.617,0.67,172.6171875,4,10,-9999,1561841788.229262,2.754241943359375,-20.40811538696289,21.25238037109375,118.6609878540039,126.1540985107422,15,169604.53011325,-0.946197509765625,-0.6326141357421875,0.0326690673828125,169604.53011325,1.564404473862598,1.017435927066635,-4.927861083125257,169604.50606525,-72.04893493652344,-46.94636535644531,-541.6102905273438,169604.52504725,0.3517385845389789,-1.488826190140766,0.8948019687203188,1.553027629852295,1.128456234931946,-5.079508781433105,-0.3418814539909363,0.1646372079849243,0.08836901187896729,1,0.4201578199863434,-0.5457589626312256,-0.1725807338953018,0.7041523456573486,-0.6235725879669189,-0.7800852060317993,-0.05122912302613258,0,0,0,-1,169600.1746449167,1,2,1561841784.121144,1561841239.621676,42,1.91319,0,0,42.10339,0,0,1561841755.596066,169601.943758,0,0.7875977,75.18552,0,182478453,1,1,0.99,-9.157502,-25.4926,5
1561841788.248242,117,0,0,1561841787.998889,4.634654629048551,-74.15083967156163,2555.617,0.67,172.6171875,4,10,-9999,1561841788.229262,2.754241943359375,-20.40811538696289,21.25238037109375,118.6609878540039,126.1540985107422,15,169604.55037725,-0.88897705078125,-0.7047576904296875,0.0135955810546875,169604.55037725,1.666160130688999,0.7595961271762156,-4.462660636542434,169604.52617625,-70.5587158203125,-46.07003784179688,-541.3331298828125,169604.54528025,0.3939196509255414,-1.504088382579808,0.9940715950368453,1.634891867637634,0.799019992351532,-4.557877540588379,-0.3943778276443481,0.1761131882667542,0.05172842741012573,1,0.4589938819408417,-0.520721435546875,-0.193817138671875,0.6932593584060669,-0.5440682768821716,-0.8382530808448792,-0.03634760528802872,0,0,0,-1,169600.1746449167,1,2,1561841784.121144,1561841239.621676,42,1.91319,0,0,42.10339,0,0,1561841755.596066,169601.943758,0,0.7875977,75.18552,0,182478453,1,1,0.99,-9.157502,-26.03833,5
1561841788.268388,118,0,0,1561841787.998889,4.634654629048551,-74.15083967156163,2555.617,0.67,172.6171875,4,10,-9999,1561841788.252453,4.235244750976562,-19.40440368652344,21.7994384765625,115.3365325927734,122.8296432495117,15,169604.57061025,-0.73577880859375,-0.74163818359375,0.0531768798828125,169604.57061025,1.699281332534097,0.6652634992561919,-4.180247050325526,169604.54628725,-69.14949035644531,-45.59538269042969,-540.6727294921875,169604.56554425,0.4524182692387875,-1.53989307303335,1.084530222417639,1.704681396484375,0.670723021030426,-4.229353427886963,-0.3369720280170441,0.1425526142120361,0.04123413562774658,1,0.4948040246963501,-0.4979449212551117,-0.2121631950139999,0.6798578500747681,-0.4671051204204559,-0.8840839862823486,-0.0144396647810936,0,0,0,-1,169600.1746449167,1,2,1561841784.121144,1561841239.621676,42,1.91319,0,0,42.10339,0,0,1561841755.596066,169601.943758,0,0.7875977,75.18552,0,182478453,1,1,0.99,-9.157502,-26.95493,5
1561841788.28872,119,0,0,1561841787.998889,4.634654629048551,-74.15083967156163,2555.617,0.67,172.6171875,4,10,-9999,1561841788.277402,6.653976440429688,-17.36222457885742,22.84918212890625,200.5481872558594,208.0412902832031,15,169604.59087425,-0.6521148681640625,-0.6964569091796875,0.12115478515625,169604.59087425,1.448915960559093,0.730972471780044,-4.174628579373786,169604.56639825,-67.91592407226562,-44.32865905761719,-539.92431640625,169604.58580825,0.5300607426019002,-1.596311460267793,1.169338116417237,1.555367469787598,0.7104184627532959,-4.172234535217285,-0.2914645671844482,0.2074947357177734,0.07467126846313477,1,0.5282174348831177,-0.4753640294075012,-0.2289468348026276,0.6652809381484985,-0.3906338214874268,-0.9204921722412109,0.009969238191843033,0,0,0,-1,169600.1746449167,1,2,1561841784.121144,1561841239.621676,42,1.91319,0,0,42.10339,0,0,1561841755.596066,169601.943758,0,0.7875977,75.18552,0,182478453,1,1,0.99,-9.157502,-27.78543,5
1561841788.312762,120,0,0,1561841787.998889,4.634654629048551,-74.15083967156163,2555.617,0.67,172.6171875,4,10,-9999,1561841788.3033,7.545402526855469,-16.19256210327148,23.3759765625,198.8004608154297,206.2935638427734,15,169604.61113725,-0.6378021240234375,-0.65240478515625,0.1251373291015625,169604.61113725,0.8273498747850305,0.8771155671270142,-3.902594929821571,169604.58651025,-67.193359375,-42.9732666015625,-539.535888671875,169604.60607125,0.6187502963265878,-1.663775962017564,1.251645140077262,0.9933841228485107,0.8469486236572266,-4.03358793258667,-0.3324156701564789,0.2715235948562622,0.101163387298584,1,0.5581794381141663,-0.450556755065918,-0.246252566576004,0.6517622470855713,-0.312405526638031,-0.9495021104812622,0.02913134917616844,0,0,0,-1,169600.1746449167,1,2,1561841784.121144,1561841239.621676,42,1.91319,0,0,42.10339,0,0,1561841755.596066,169601.943758,0,0.7875977,75.18552,0,182478453,1,1,0.99,-9.157502,-28.71348,5
1561841788.32918,121,0,0,1561841787.998889,4.634654629048551,-74.15083967156163,2555.617,0.67,172.6171875,4,10,-9999,1561841788.327743,8.377006530761719,-15.03480529785156,23.67181396484375,197.2793579101562,204.7724609375,15,169604.63140125,-0.63824462890625,-0.6309356689453125,0.038116455078125,169604.63140125,0.3557530478960549,0.9826800769444471,-3.159044348213083,169604.60662125,-66.01548767089844,-41.94401550292969,-539.2861328125,169604.62633525,0.7013477781215215,-1.724962801957396,1.324835136723359,0.4219123423099518,0.9452733397483826,-3.351635694503784,-0.4048153758049011,0.339181661605835,0.04369592666625977,1,0.5814772844314575,-0.4249456524848938,-0.2624399662017822,0.6422076225280762,-0.2406009137630463,-0.9699037075042725,0.03738927841186523,0,0,0,-1,169600.1746449167,1,2,1561841784.121144,1561841239.621676,42,1.91319,0,0,42.10339,0,0,1561841755.596066,169601.943758,0,0.7875977,75.18552,0,182478453,1,1,0.99,-9.157502,-28.71348,5
1561841788.349557,122,0,0,1561841787.998889,4.634654629048551,-74.15083967156163,2555.617,0.67,172.6171875,4,10,-9999,1561841788.327743,8.377006530761719,-15.03480529785156,23.67181396484375,197.2793579101562,204.7724609375,15,169604.65166525,-0.5262603759765625,-0.6282196044921875,-0.0191192626953125,169604.65166525,0.426470627482019,1.014043858786201,-2.505330445972346,169604.62673225,-65.51264953613281,-41.06135559082031,-539.128662109375,169604.64659925,0.7853154381683815,-1.786952742074537,1.383159623415046,0.3554110825061798,1.008045315742493,-2.65448784828186,-0.4056174159049988,0.3472396731376648,-0.0331568717956543,1,0.5989360213279724,-0.4015964269638062,-0.2744432687759399,0.6361421942710876,-0.1821969449520111,-0.9824478030204773,0.04000809416174889,0,0,0,-1,169600.1746449167,1,2,1561841784.121144,1561841239.621676,42,1.91319,0,0,42.10339,0,0,1561841755.596066,169601.943758,0,0.7875977,75.18552,0,182478453,1,1,0.99,-9.157502,-29.62815,5
1561841788.369699,123,0,0,1561841787.998889,4.634654629048551,-74.15083967156163,2555.617,0.67,172.6171875,4,10,-9999,1561841788.353863,8.798698425292969,-14.59895706176758,23.913818359375,195.7552795410156,203.2483825683594,15,169604.67192825,-0.3993072509765625,-0.5848846435546875,-0.013885498046875,169604.67192825,0.8320964267958787,0.9495128024124913,-2.197734008487649,169604.64681225,-65.52508544921875,-40.7154541015625,-538.8171997070312,169604.66686225,0.9282761972098762,-1.907906299400331,1.427168393395639,0.7272200584411621,0.9590991139411926,-2.22008752822876,-0.3303454518318176,0.381106436252594,-0.07201683521270752,1,0.6146391630172729,-0.3819559812545776,-0.2816638350486755,0.6300744414329529,-0.1350781619548798,-0.9897032380104065,0.04734334349632263,0,0,0,-1,169600.1746449167,1,2,1561841784.121144,1561841239.621676,42,1.91319,0,0,42.10339,0,0,1561841755.596066,169601.943758,0,0.7875977,75.18552,0,182478453,1,1,0.99,-9.157502,-30.39268,5
