loggingTime,loggingSample,identifierForVendor,deviceID,locationTimestamp_since1970,locationLatitude,locationLongitude,locationAltitude,locationSpeed,locationCourse,locationVerticalAccuracy,locationHorizontalAccuracy,locationFloor,locationHeadingTimestamp_since1970,locationHeadingX,locationHeadingY,locationHeadingZ,locationTrueHeading,locationMagneticHeading,locationHeadingAccuracy,accelerometerTimestamp_sinceReboot,accelerometerAccelerationX,accelerometerAccelerationY,accelerometerAccelerationZ,gyroTimestamp_sinceReboot,gyroRotationX,gyroRotationY,gyroRotationZ,magnetometerTimestamp_sinceReboot,magnetometerX,magnetometerY,magnetometerZ,motionTimestamp_sinceReboot,motionYaw,motionRoll,motionPitch,motionRotationRateX,motionRotationRateY,motionRotationRateZ,motionUserAccelerationX,motionUserAccelerationY,motionUserAccelerationZ,motionAttitudeReferenceFrame,motionQuaternionX,motionQuaternionY,motionQuaternionZ,motionQuaternionW,motionGravityX,motionGravityY,motionGravityZ,motionMagneticFieldX,motionMagneticFieldY,motionMagneticFieldZ,motionMagneticFieldCalibrationAccuracy,activityTimestamp_sinceReboot,activity,activityActivityConfidence,activityActivityStartDate,pedometerStartDate,pedometerNumberofSteps,pedometerAverageActivePace,pedometerCurrentPace,pedometerCurrentCadence,pedometerDistance,pedometerFloorAscended,pedometerFloorDescended,pedometerEndDate,altimeterTimestamp_sinceReboot,altimeterReset,altimeterRelativeAltitude,altimeterPressure,IP_en0,IP_pdp_ip0,deviceOrientation,batteryState,batteryLevel,avAudioRecorderPeakPower,avAudioRecorderAveragePower,label
1561841582.643303,1,0,0,1561841581.995308,4.634697670121337,-74.15106313310018,2556.159,0.6,200.0390625,4,10,-9999,1561841582.617346,9.471809387207031,-27.15958404541016,6.7469482421875,189.7440643310547,197.2372741699219,15,169398.93077025,-0.0700225830078125,-0.65875244140625,-0.8738250732421875,169398.93077025,1.234292873574043,0.5221734517828884,-0.1449047254400834,169398.915399625,-64.95570373535156,-53.72152709960938,-555.785400390625,169398.925683625,-0.9847130782905168,-0.1293163546166496,0.7366404646680816,1.157308101654053,0.5239414572715759,-0.1420772671699524,0.01361250877380371,0.01671290397644043,-0.1540660262107849,1,0.2881252467632294,-0.2229606062173843,-0.4605803191661835,0.8094061017036438,-0.0955217108130455,-0.6718031764030457,-0.7345448136329651,0,0,0,-1,169397.89611225,3,1,1561841581.842611,1561841239.621676,19,2.442143,0,0,18.59878,0,0,1561841548.131042,169396.150241,0,0.4572754,75.18863,0,182478453,1,1,1,-30.09521,-42.46342,0
1561841582.653478,2,0,0,1561841581.995308,4.634697670121337,-74.15106313310018,2556.159,0.6,200.0390625,4,10,-9999,1561841582.645967,9.352096557617188,-27.06927871704102,7.3271484375,189.7140350341797,197.2072448730469,15,169398.95103425,-0.0458984375,-0.6726531982421875,-0.8373870849609375,169398.95103425,1.401113017940498,0.5131748967756197,-0.08012279929168793,169398.93553125,-65.26170349121094,-53.31468200683594,-555.0091552734375,169398.94593725,-0.9840857699241387,-0.1194364512365538,0.7627454729928026,1.369127750396729,0.4966485500335693,-0.1089078560471535,0.02559360861778259,0.02626651525497437,-0.1348694562911987,1,0.3012864887714386,-0.2243448942899704,-0.4572823941707611,0.806094765663147,-0.086140476167202,-0.6909088492393494,-0.7177916169166565,0,0,0,-1,169397.89611225,3,1,1561841581.842611,1561841239.621676,19,2.442143,0,0,18.59878,0,0,1561841548.131042,169396.150241,0,0.4572754,75.18863,0,182478453,1,1,1,-30.09521,-42.46342,0
1561841582.673728,3,0,0,1561841581.995308,4.634697670121337,-74.15106313310018,2556.159,0.6,200.0390625,4,10,-9999,1561841582.667946,9.270195007324219,-26.6838264465332,8.58489990234375,198.5200347900391,206.0132446289062,15,169398.97126725,-0.0058135986328125,-0.6743927001953125,-0.7822418212890625,169398.97126725,1.411840230811337,0.5885333008771559,0.08528347285204348,169398.95561125,-65.29196166992188,-53.23236083984375,-554.3763427734375,169398.96620125,-0.9807740657832678,-0.1110094066786997,0.7913257271134033,1.433367967605591,0.5727531909942627,0.03128040581941605,0.05787965655326843,0.03541290760040283,-0.1114821434020996,1,0.3153659403324127,-0.2263981401920319,-0.4527736008167267,0.8026731610298157,-0.07786867767572403,-0.7112857699394226,-0.6985763907432556,0,0,0,-1,169397.89611225,3,1,1561841581.842611,1561841239.621676,19,2.442143,0,0,18.59878,0,0,1561841548.131042,169396.150241,0,0.4572754,75.18863,0,182478453,1,1,1,-30.09521,-43.05392,0
1561841582.693901,4,0,0,1561841581.995308,4.634697670121337,-74.15106313310018,2556.159,0.6,200.0390625,4,10,-9999,1561841582.667946,9.270195007324219,-26.6838264465332,8.58489990234375,198.5200347900391,206.0132446289062,15,169398.99153125,-0.0052642822265625,-0.6758880615234375,-0.7750244140625,169398.99153125,1.245075746511665,0.6371330612939029,0.2580459285587918,169398.97572325,-65.04652404785156,-53.17535400390625,-553.5257568359375,169398.98646525,-0.9726849287139127,-0.1048534793551897,0.8186413529616859,1.286471247673035,0.6131286025047302,0.2196857333183289,0.06764566898345947,0.05681741237640381,-0.09661555290222168,1,0.3288861215114594,-0.2282609641551971,-0.4466328620910645,0.8001562356948853,-0.07150616496801376,-0.730218231678009,-0.6794617176055908,0,0,0,-1,169397.89611225,3,1,1561841581.842611,1561841239.621676,19,2.442143,0,0,18.59878,0,0,1561841548.131042,169396.150241,0,0.4572754,75.18863,0,182478453,1,1,1,-30.09521,-42.55347,0
1561841582.714695,5,0,0,1561841581.995308,4.634697670121337,-74.15106313310018,2556.159,0.6,200.0390625,4,10,-9999,1561841582.692219,8.868545532226562,-26.52498626708984,9.71893310546875,197.0546112060547,204.5478210449219,15,169399.01179425,-0.010833740234375,-0.69842529296875,-0.7804412841796875,169399.01179425,1.104985217374118,0.7122062408426916,0.3401418639021194,169398.99583425,-65.50419616699219,-53.04141235351562,-552.6993408203125,169399.00672825,-0.9606416447365991,-0.100631861508961,0.8424031669811602,1.137820243835449,0.6803110837936401,0.3232307732105255,0.05987095832824707,0.05808883905410767,-0.1112406253814697,1,0.3409266769886017,-0.2293842881917953,-0.4393814504146576,0.7988089919090271,-0.06687474995851517,-0.7462449669837952,-0.6623036861419678,0,0,0,-1,169397.89611225,3,1,1561841581.842611,1561841239.621676,19,2.442143,0,0,18.59878,0,0,1561841548.131042,169396.150241,0,0.4572754,75.18863,0,182478453,1,1,1,-30.09521,-43.2414,0
1561841582.735136,6,0,0,1561841581.995308,4.634697670121337,-74.15106313310018,2556.159,0.6,200.0390625,4,10,-9999,1561841582.718713,8.593910217285156,-26.36918258666992,10.26031494140625,195.5419311523438,203.0351409912109,15,169399.03205825,-0.0207672119140625,-0.704498291015625,-0.7901458740234375,169399.03205825,1.013812430087473,0.867630985220806,0.3899147467790463,169399.01591425,-65.67826843261719,-53.00128173828125,-552.2720947265625,169399.02699225,-0.946755766908555,-0.09590540329149007,0.8633997437977471,1.024285435676575,0.8312603831291199,0.367358535528183,0.04739779233932495,0.0571448802947998,-0.1392772197723389,1,0.3521274030208588,-0.229283407330513,-0.431444525718689,0.7983050346374512,-0.06222931668162346,-0.7600563168525696,-0.6468708515167236,0,0,0,-1,169397.89611225,3,1,1561841581.842611,1561841239.621676,19,2.442143,0,0,18.59878,0,0,1561841548.131042,169396.150241,0,0.4572754,75.18863,0,182478453,1,1,1,-30.09521,-43.40534,0
1561841582.754742,7,0,0,1561841581.995308,4.634697670121337,-74.15106313310018,2556.159,0.6,200.0390625,4,10,-9999,1561841582.742931,8.51458740234375,-26.26236343383789,10.7803955078125,193.8129272460938,201.3061370849609,15,169399.05232225,-0.05987548828125,-0.6882476806640625,-0.8201446533203125,169399.05232225,0.9171908152105266,0.7510905232867205,0.4214130182558495,169399.03602525,-66.53965759277344,-52.77082824707031,-551.5718994140625,169399.04725625,-0.9307436953990648,-0.09079792803797693,0.8826315988114519,0.9481571316719055,0.823621928691864,0.4739478528499603,0.02356132864952087,0.07465904951095581,-0.1664305329322815,1,0.3628983199596405,-0.2281504124403,-0.422665148973465,0.7985025644302368,-0.05758843570947647,-0.7724129557609558,-0.632504403591156,0,0,0,-1,169397.89611225,3,1,1561841581.842611,1561841239.621676,19,2.442143,0,0,18.59878,0,0,1561841548.131042,169396.150241,0,0.4572754,75.18863,0,182478453,1,1,1,-30.09521,-44.01292,0
1561841582.775523,8,0,0,1561841581.995308,4.634697670121337,-74.15106313310018,2556.159,0.6,200.0390625,4,10,-9999,1561841582.769628,7.798271179199219,-25.95451354980469,11.85833740234375,192.4681549072266,199.9613647460938,15,169399.07258525,-0.136932373046875,-0.694366455078125,-0.9171600341796875,169399.07258525,0.7211936105733819,-0.03453480775171153,0.4350843557117712,169399.05610625,-66.44041442871094,-52.325439453125,-551.2905883789062,169399.06751925,-0.9151617572110765,-0.09124417427290153,0.8987710920471019,0.7117496728897095,0.1803755611181259,0.4165894687175751,-0.04843628406524658,0.08618175983428955,-0.2344030141830444,1,0.3711684942245483,-0.2285667508840561,-0.415276437997818,0.798458993434906,-0.05672729387879372,-0.7825624346733093,-0.6199823617935181,0,0,0,-1,169397.89611225,3,1,1561841581.842611,1561841239.621676,19,2.442143,0,0,18.59878,0,0,1561841548.131042,169396.150241,0,0.4572754,75.18863,0,182478453,1,1,1,-30.09521,-40.83572,0
1561841582.795289,9,0,0,1561841581.995308,4.634697670121337,-74.15106313310018,2556.159,0.6,200.0390625,4,10,-9999,1561841582.793737,7.613739013671875,-25.87483596801758,12.1954345703125,192.7445983886719,200.2378082275391,15,169399.09284925,-0.1371307373046875,-0.6516876220703125,-0.913909912109375,169399.09284925,1.18769740819369,-0.5294332289144444,0.3496916932550345,169399.07621725,-66.77029418945312,-52.45025634765625,-550.7787475585938,169399.08778325,-0.8988050167350453,-0.1078749599145772,0.9141938653762305,1.01184868812561,-0.4570128917694092,0.3868550062179565,-0.06699857115745544,0.134508490562439,-0.3314125537872314,1,0.3759281635284424,-0.2350267618894577,-0.4106921255588531,0.7967259883880615,-0.06572238355875015,-0.792070746421814,-0.6068809032440186,0,0,0,-1,169397.89611225,3,1,1561841581.842611,1561841239.621676,19,2.442143,0,0,18.59878,0,0,1561841548.131042,169396.150241,0,0.4572754,75.18863,0,182478453,1,1,1,-30.09521,-41.78575,0
1561841582.815504,10,0,0,1561841581.995308,4.634697670121337,-74.15106313310018,2556.159,0.6,200.0390625,4,10,-9999,1561841582.793737,7.613739013671875,-25.87483596801758,12.1954345703125,192.7445983886719,200.2378082275391,15,169399.11311325,-0.1718902587890625,-0.70166015625,-0.7796783447265625,169399.11311325,2.126806838123896,-0.2448052242511358,0.0169089423931311,169399.09632825,-66.86318969726562,-52.55126953125,-550.313720703125,169399.10801625,-0.8839259801671278,-0.1302188736754567,0.9420132319324124,1.885348439216614,-0.4162065982818604,0.11360964179039,-0.0803496241569519,0.1275914907455444,-0.2901096343994141,1,0.3845136761665344,-0.246086448431015,-0.4070218503475189,0.7911535501480103,-0.0763733983039856,-0.8087438344955444,-0.5831813812255859,0,0,0,-1,169397.89611225,3,1,1561841581.842611,1561841239.621676,19,2.442143,0,0,18.59878,0,0,1561841548.131042,169396.150241,0,0.4572754,75.18863,0,182478453,1,1,1,-30.09521,-41.78575,0
1561841582.83595,11,0,0,1561841581.995308,4.634697670121337,-74.15106313310018,2556.159,0.6,200.0390625,4,10,-9999,1561841582.820252,7.594131469726562,-25.68056106567383,12.69580078125,193.2286682128906,200.7218780517578,15,169399.13334625,-0.1789398193359375,-0.7291259765625,-0.63446044921875,169399.13334625,2.726186661488726,0.5141133947437636,-0.2305242892216949,169399.11643925,-66.83583068847656,-51.91958618164062,-549.4349975585938,169399.12828025,-0.8751229692458248,-0.1384155437495102,0.9886385258828707,2.646101713180542,0.335536926984787,-0.2065020650625229,-0.09972098469734192,0.1142241358757019,-0.1337453126907349,1,0.4029119312763214,-0.2556902766227722,-0.4018321335315704,0.7815467715263367,-0.07586190104484558,-0.8352781534194946,-0.5445688962936401,0,0,0,-1,169397.89611225,3,1,1561841581.842611,1561841239.621676,19,2.442143,0,0,18.59878,0,0,1561841548.131042,169396.150241,0,0.4572754,75.18863,0,182478453,1,1,1,-30.09521,-41.90549,0
1561841582.856036,12,0,0,1561841581.995308,4.634697670121337,-74.15106313310018,2556.159,0.6,200.0390625,4,10,-9999,1561841582.844189,7.577033996582031,-25.12632751464844,13.66302490234375,192.1769866943359,199.6701965332031,15,169399.15360925,-0.1500396728515625,-0.761444091796875,-0.5178375244140625,169399.15360925,2.723627629997269,1.170872621691005,-0.1215719721815722,169399.13652025,-66.71099853515625,-50.95643615722656,-548.0035400390625,169399.14854425,-0.8690835547359175,-0.1297603489095912,1.044301001995396,2.762718439102173,1.017057657241821,-0.1686572134494781,-0.1037396192550659,0.123133659362793,-0.09766554832458496,1,0.4277836084365845,-0.2605001628398895,-0.3934597373008728,0.7709281444549561,-0.06502256542444229,-0.8645734786987305,-0.4982816874980927,0,0,0,-1,169397.89611225,3,1,1561841581.842611,1561841239.621676,19,2.442143,0,0,18.59878,0,0,1561841548.131042,169396.150241,0,0.4572754,75.18863,0,182478453,1,1,1,-30.09521,-42.30626,0
1561841582.876343,13,0,0,1561841581.995308,4.634697670121337,-74.15106313310018,2556.159,0.6,200.0390625,4,10,-9999,1561841582.87058,7.23529052734375,-23.524169921875,16.53289794921875,189.8885345458984,197.3817443847656,15,169399.17387325,-0.095855712890625,-0.7999267578125,-0.375518798828125,169399.17387325,2.402449337269277,1.625809778064881,0.02610430500495669,169399.15663125,-66.98190307617188,-50.26666259765625,-546.6883544921875,169399.16880725,-0.8589760385387768,-0.1123700148152915,1.097802011473343,2.495764017105103,1.545794486999512,-0.006335410289466381,-0.07152143120765686,0.114130973815918,0.006910562515258789,1,0.4536672532558441,-0.2604718804359436,-0.3813123404979706,0.7621951103210449,-0.05108294263482094,-0.8902081847190857,-0.4526808559894562,0,0,0,-1,169397.89611225,3,1,1561841581.842611,1561841239.621676,19,2.442143,0,0,18.59878,0,0,1561841548.131042,169396.150241,0,0.4572754,75.18863,0,182478453,1,1,1,-30.09521,-43.17406,0
1561841582.896537,14,0,0,1561841581.995308,4.634697670121337,-74.15106313310018,2556.159,0.6,200.0390625,4,10,-9999,1561841582.895462,6.632278442382812,-23.01358795166016,17.64617919921875,187.063720703125,194.5569305419922,15,169399.19413725,-0.042388916015625,-0.8464508056640625,-0.241363525390625,169399.19413725,2.001929084081208,1.67467212616511,0.04708335649205589,169399.17674225,-67.52091979980469,-49.60989379882812,-545.344970703125,169399.18907125,-0.8464822631624793,-0.09020941540707107,1.143971211286761,2.088080644607544,1.686490058898926,0.04930680990219116,-0.02754005789756775,0.07944363355636597,0.1086954474449158,1,0.4774662256240845,-0.2566636204719543,-0.367245078086853,0.755831241607666,-0.03729452192783356,-0.910284698009491,-0.4122995734214783,0,0,0,-1,169397.89611225,3,1,1561841581.842611,1561841239.621676,19,2.442143,0,0,18.59878,0,0,1561841548.131042,169396.150241,0,0.4572754,75.18863,0,182478453,1,1,1,-30.09521,-43.53089,0
1561841582.918268,15,0,0,1561841581.995308,4.634697670121337,-74.15106313310018,2556.159,0.6,200.0390625,4,10,-9999,1561841582.895462,6.632278442382812,-23.01358795166016,17.64617919921875,187.063720703125,194.5569305419922,15,169399.21440025,-0.0192108154296875,-0.852935791015625,-0.1424560546875,169399.21440025,1.787683367022623,1.477793681523258,0.01755635685412936,169399.19682225,-68.08230590820312,-49.12464904785156,-544.5654296875,169399.20933525,-0.8370208998192223,-0.06587818113945035,1.18301288037729,1.818575739860535,1.547776341438293,0.01927925273776054,-0.005334675312042236,0.07620114088058472,0.185239315032959,1,0.4981011748313904,-0.2514691352844238,-0.3539492785930634,0.7505853176116943,-0.02489297837018967,-0.9257494807243347,-0.3773169815540314,0,0,0,-1,169397.89611225,3,1,1561841581.842611,1561841239.621676,19,2.442143,0,0,18.59878,0,0,1561841548.131042,169396.150241,0,0.4572754,75.18863,0,182478453,1,1,1,-30.09521,-43.97435,0
1561841582.937235,16,0,0,1561841581.995308,4.634697670121337,-74.15106313310018,2556.159,0.6,200.0390625,4,10,-9999,1561841582.921087,6.165992736816406,-22.32027053833008,18.62567138671875,184.5159912109375,192.0092010498047,15,169399.23466425,-0.008209228515625,-0.890411376953125,-0.0657806396484375,169399.23466425,1.746927947596704,1.089962325664981,-0.02751098669273655,169399.21693325,-68.83769226074219,-48.54557800292969,-543.7431030273438,169399.22959825,-0.8314160818309374,-0.04335030953630963,1.218787485741306,1.740554213523865,1.172138810157776,-0.01992008090019226,0.00447431206703186,0.07247108221054077,0.2454156279563904,1,0.5163218975067139,-0.2473489046096802,-0.3424158990383148,0.7449709177017212,-0.01494182739406824,-0.9386820197105408,-0.3444604277610779,0,0,0,-1,169397.89611225,3,1,1561841581.842611,1561841239.621676,19,2.442143,0,0,18.59878,0,0,1561841548.131042,169396.150241,0,0.4572754,75.18863,0,182478453,1,1,1,-30.09521,-42.73256,0
1561841582.957358,17,0,0,1561841581.995308,4.634697670121337,-74.15106313310018,2556.159,0.6,200.0390625,4,10,-9999,1561841582.945775,5.597679138183594,-21.84592056274414,19.32843017578125,182.6864624023438,190.1796722412109,15,169399.25492825,0.0112152099609375,-0.9694671630859375,-0.03955078125,169399.25492825,1.707223145220822,0.8877197419554917,-0.04260525111908765,169399.23704525,-69.15678405761719,-48.01266479492188,-542.676025390625,169399.24986225,-0.8299838467250105,-0.02398444734493492,1.254142815769065,1.732469916343689,0.9102193117141724,-0.04334604740142822,0.004370242357254028,0.02321982383728027,0.2734264731407166,1,0.5330163240432739,-0.2454469203948975,-0.3328926265239716,0.7381273508071899,-0.007467762101441622,-0.9502828121185303,-0.3112988173961639,0,0,0,-1,169397.89611225,3,1,1561841581.842611,1561841239.621676,19,2.442143,0,0,18.59878,0,0,1561841548.131042,169396.150241,0,0.4572754,75.18863,0,182478453,1,1,1,-30.09521,-42.82195,0
1561841582.977442,18,0,0,1561841581.995308,4.634697670121337,-74.15106313310018,2556.159,0.6,200.0390625,4,10,-9999,1561841582.971794,4.877639770507812,-20.56752014160156,20.95458984375,181.3162536621094,188.8094635009766,15,169399.27519225,0.0298614501953125,-1.062469482421875,-0.051177978515625,169399.27519225,1.472384535033199,0.8875381143691483,-0.03244103050269123,169399.25715625,-69.57249450683594,-46.95198059082031,-542.0908203125,169399.27009525,-0.8311912301606936,-0.005059690582516379,1.287756735121731,1.556431531906128,0.8712588548660278,-0.037563256919384,0.0277649462223053,-0.05283528566360474,0.2245389223098755,1,0.5483829975128174,-0.2442129850387573,-0.3242848515510559,0.7310783267021179,-0.001413043006323278,-0.9602109789848328,-0.279272198677063,0,0,0,-1,169397.89611225,3,1,1561841581.842611,1561841239.621676,19,2.442143,0,0,18.59878,0,0,1561841548.131042,169396.150241,0,0.4572754,75.18863,0,182478453,1,1,1,-30.09521,-42.82195,0
1561841582.997816,19,0,0,1561841581.995308,4.634697670121337,-74.15106313310018,2556.159,0.6,200.0390625,4,10,-9999,1561841582.99618,4.505142211914062,-20.06859588623047,21.55194091796875,179.9678039550781,187.4610137939453,15,169399.29542525,0.0223236083984375,-1.158096313476562,-0.0598297119140625,169399.29542525,1.018968309957867,0.9143377707347247,0.0188112383597747,169399.27723625,-69.79855346679688,-46.55471801757812,-541.4115600585938,169399.29035925,-0.833830614253925,0.01569062894198695,1.315269668762385,1.130084991455078,0.914951503276825,-0.006435164250433445,0.02214208245277405,-0.1392812132835388,0.2090534567832947,1,0.5613858103752136,-0.2418345212936401,-0.3160927891731262,0.7255669832229614,0.003965725190937519,-0.9675303101539612,-0.2527240812778473,0,0,0,-1,169397.89611225,3,1,1561841581.842611,1561841239.621676,19,2.442143,0,0,18.59878,0,0,1561841548.131042,169396.150241,0,0.4572754,75.18863,0,182478453,1,1,1,-30.09521,-43.18378,0
1561841583.018232,20,0,0,1561841581.995308,4.634697670121337,-74.15106313310018,2556.159,0.6,200.0390625,4,10,-9999,1561841582.99618,4.505142211914062,-20.06859588623047,21.55194091796875,179.9678039550781,187.4610137939453,15,169399.31568825,-0.0179443359375,-1.221923828125,-0.10614013671875,169399.31568825,0.7587614924905848,0.8720976390010869,0.1050680965902421,169399.29734725,-70.24771118164062,-46.26690673828125,-540.948974609375,169399.31062225,-0.8319925836073412,0.03213891319411553,1.334266060997501,0.7932533621788025,0.8773162364959717,0.09258303046226501,-0.00139579176902771,-0.2248493432998657,0.1477380394935608,1,0.570995032787323,-0.2384530752897263,-0.3083262741565704,0.7225230932235718,0.007529834751039743,-0.9721568822860718,-0.2342096120119095,0,0,0,-1,169397.89611225,3,1,1561841581.842611,1561841239.621676,19,2.442143,0,0,18.59878,0,0,1561841548.131042,169396.150241,0,0.4572754,75.18863,0,182478453,1,1,1,-30.09521,-43.9187,0
1561841583.038479,21,0,0,1561841581.995308,4.634697670121337,-74.15106313310018,2556.159,0.6,200.0390625,4,10,-9999,1561841583.022464,4.08416748046875,-19.57917404174805,21.910400390625,178.6551513671875,186.1483612060547,15,169399.33595225,-0.0616302490234375,-1.293365478515625,-0.1584320068359375,169399.33595225,0.7070114788203831,0.9031306562354532,-0.03087455914950663,169399.31745825,-70.84506225585938,-46.14027404785156,-540.6891479492188,169399.33088625,-0.8272781358814643,0.0449989248878295,1.349388805355337,0.7181170582771301,0.8634473085403442,0.02650893665850163,-0.05284732580184937,-0.2768979072570801,0.09038263559341431,1,0.5788943767547607,-0.2349278032779694,-0.3009298145771027,0.7205077409744263,0.009878553450107574,-0.9755893349647522,-0.2193804532289505,0,0,0,-1,169397.89611225,3,1,1561841581.842611,1561841239.621676,19,2.442143,0,0,18.59878,0,0,1561841548.131042,169396.150241,0,0.4572754,75.18863,0,182478453,1,1,1,-30.09521,-42.72869,0
1561841583.058591,22,0,0,1561841582.995294,4.634689623494292,-74.1510658153092,2556.191,0.61,188.4375,4,10,-9999,1561841583.053908,3.588554382324219,-19.19786834716797,22.336181640625,177.3477630615234,184.8409729003906,15,169399.35621625,-0.0898284912109375,-1.3477783203125,-0.250152587890625,169399.35621625,0.6374217479560675,1.113462858072167,-0.3691918913888128,169399.33753925,-71.12083435058594,-45.82133483886719,-540.34423828125,169399.35115025,-0.842302588291227,0.07870828405598142,1.36300576741245,0.6435341835021973,1.031859993934631,-0.2826329171657562,-0.09408625960350037,-0.3501699566841125,0.01072901487350464,1,0.58696049451828,-0.2294500917196274,-0.2946286499500275,0.7183481454849243,0.01622066088020802,-0.978489100933075,-0.2056600600481033,0,0,0,-1,169397.89611225,3,1,1561841581.842611,1561841239.621676,19,2.442143,0,0,18.59878,0,0,1561841548.131042,169396.150241,0,0.4572754,75.18863,0,182478453,1,1,1,-30.09521,-43.12963,0
1561841583.078885,23,0,0,1561841582.995294,4.634689623494292,-74.1510658153092,2556.191,0.61,188.4375,4,10,-9999,1561841583.053908,3.588554382324219,-19.19786834716797,22.336181640625,177.3477630615234,184.8409729003906,15,169399.37647925,-0.1053466796875,-1.335922241210938,-0.3578643798828125,169399.37647925,0.7064753844929501,1.441047384802345,-0.6485265970694799,169399.35765025,-71.35777282714844,-45.28581237792969,-540.1052856445312,169399.37141325,-0.8951927481396277,0.1548431891869907,1.37485242935126,0.6671348214149475,1.373280167579651,-0.5986683964729309,-0.1302004754543304,-0.3673564791679382,-0.1091806292533875,1,0.5961987376213074,-0.2199211120605469,-0.2892570793628693,0.7158995866775513,0.03002654388546944,-0.9808643460273743,-0.1923635452985764,0,0,0,-1,169397.89611225,3,1,1561841581.842611,1561841239.621676,19,2.442143,0,0,18.59878,0,0,1561841548.131042,169396.150241,0,0.4572754,75.18863,0,182478453,1,1,1,-30.09521,-43.76492,0
1561841583.099153,24,0,0,1561841582.995294,4.634689623494292,-74.1510658153092,2556.191,0.61,188.4375,4,10,-9999,1561841583.09742,2.651573181152344,-18.48327255249023,22.96075439453125,173.5667266845703,181.0599365234375,15,169399.39674325,-0.0605316162109375,-1.252685546875,-0.4750823974609375,169399.39674325,1.050651671130431,1.543368164412062,-0.7760560606095593,169399.37776125,-71.76803588867188,-45.01129150390625,-540.0423583984375,169399.39167725,-0.9854042208215096,0.2730217775550677,1.387140085056222,0.9234321117401123,1.512431144714355,-0.7616455554962158,-0.1438940167427063,-0.3196738958358765,-0.2460743188858032,1,0.6075071692466736,-0.2073744833469391,-0.283693790435791,0.7123544216156006,0.04924376308917999,-0.9831825494766235,-0.175861731171608,0,0,0,-1,169397.89611225,3,1,1561841581.842611,1561841239.621676,19,2.442143,0,0,18.59878,0,0,1561841548.131042,169396.150241,0,0.4572754,75.18863,0,182478453,1,1,1,-30.09521,-44.35666,0
1561841583.119592,25,0,0,1561841582.995294,4.634689623494292,-74.1510658153092,2556.191,0.61,188.4375,4,10,-9999,1561841583.09742,2.651573181152344,-18.48327255249023,22.96075439453125,173.5667266845703,181.0599365234375,15,169399.41700725,-0.001251220703125,-1.13299560546875,-0.5223846435546875,169399.41700725,1.660866831706358,1.789762763201757,-0.7687619286999413,169399.39787225,-72.05036926269531,-44.90916442871094,-539.6841430664062,169399.41194125,-1.12016084704114,0.4378115368019637,1.40443839703029,1.507386207580566,1.691695213317871,-0.7920951247215271,-0.0941600501537323,-0.211925745010376,-0.3575955033302307,1,0.6222400069236755,-0.1945017874240875,-0.2770501673221588,0.7058537602424622,0.0702037587761879,-0.9861944317817688,-0.1499728560447693,0,0,0,-1,169397.89611225,3,1,1561841581.842611,1561841239.621676,19,2.442143,0,0,18.59878,0,0,1561841548.131042,169396.150241,0,0.4572754,75.18863,0,182478453,1,1,1,-30.65249,-44.76607,0
1561841583.139729,26,0,0,1561841582.995294,4.634689623494292,-74.1510658153092,2556.191,0.61,188.4375,4,10,-9999,1561841583.123667,2.052604675292969,-17.89080810546875,23.35601806640625,171.2689819335938,178.7621917724609,15,169399.43727025,0.0235748291015625,-1.006118774414062,-0.51220703125,169399.43727025,2.175302202625912,2.315668102620173,-0.6204097412287504,169399.41798325,-72.84553527832031,-44.24693298339844,-538.9834594726562,169399.43217425,-1.327439876337566,0.6812528212599273,1.427527284090617,2.066756248474121,2.163114309310913,-0.6569119691848755,-0.07778733968734741,-0.07730782032012939,-0.4138709902763367,1,0.6416404247283936,-0.1812262237071991,-0.2666370570659637,0.6959593296051025,0.08991806954145432,-0.9897545576095581,-0.1109092459082603,0,0,0,-1,169397.89611225,3,1,1561841581.842611,1561841239.621676,19,2.442143,0,0,18.59878,0,0,1561841548.131042,169396.150241,0,0.4572754,75.18863,0,182478453,1,1,1,-30.65249,-44.76607,0
1561841583.159909,27,0,0,1561841582.995294,4.634689623494292,-74.1510658153092,2556.191,0.61,188.4375,4,10,-9999,1561841583.148072,1.359344482421875,-17.39099502563477,23.89849853515625,168.3316802978516,175.8248901367188,15,169399.45750425,0.061431884765625,-0.9103546142578125,-0.4276885986328125,169399.45750425,2.429827432223619,2.89774243890556,-0.5414073338076587,169399.43806425,-73.67329406738281,-43.09663391113281,-538.4412841796875,169399.45243825,-1.650782470554427,1.05171532797844,1.447979671906524,2.391881227493286,2.756890058517456,-0.5638353228569031,-0.06326419115066528,0.03850328922271729,-0.4156360626220703,1,0.6648979783058167,-0.1659028828144073,-0.2506090700626373,0.6837996244430542,0.1063702702522278,-0.9924675226211548,-0.0607738234102726,0,0,0,-1,169397.89611225,3,1,1561841581.842611,1561841239.621676,19,2.442143,0,0,18.59878,0,0,1561841548.131042,169396.150241,0,0.4572754,75.18863,0,182478453,1,1,1,-31.20977,-45.00535,0
1561841583.18875,28,0,0,1561841582.995294,4.634689623494292,-74.1510658153092,2556.191,0.61,188.4375,4,10,-9999,1561841583.174414,-0.7812118530273438,-15.22311401367188,25.42852783203125,164.5097045898438,172.0029144287109,15,169399.47776725,0.054840087890625,-0.842376708984375,-0.2896270751953125,169399.47776725,2.555968856203549,3.412281939423736,-0.4888141633363379,169399.45817525,-74.54057312011719,-41.99862670898438,-537.7294311523438,169399.47270125,-2.07522279813527,1.534246735091821,1.45120088188217,2.532585859298706,3.273135423660278,-0.5399576425552368,-0.05924823880195618,0.1299419403076172,-0.3604016304016113,1,0.6899747848510742,-0.1474954634904861,-0.2297094464302063,0.6703830361366272,0.1192305386066437,-0.9928569793701172,-0.00435976916924119,0,0,0,-1,169397.89611225,3,1,1561841581.842611,1561841239.621676,19,2.442143,0,0,18.59878,0,0,1561841548.131042,169396.150241,0,0.4572754,75.18863,0,182478453,1,1,1,-32.32433,-40.84705,0
1561841583.201589,29,0,0,1561841582.995294,4.634689623494292,-74.1510658153092,2556.191,0.61,188.4375,4,10,-9999,1561841583.19883,-2.43115234375,-13.89688873291016,25.992919921875,159.9812164306641,167.4744262695312,15,169399.49803125,0.0764312744140625,-0.731201171875,-0.150909423828125,169399.49803125,2.576507687162458,3.482203500159875,-0.2073428035131002,169399.47828625,-76.09712219238281,-40.908935546875,-537.4022216796875,169399.49296525,-2.461696672112822,1.987840241091172,1.432969717682524,2.562931537628174,3.527671337127686,-0.2589888572692871,-0.05481411516666412,0.1737139225006104,-0.2673518657684326,1,0.7153418064117432,-0.126932218670845,-0.2042209357023239,0.6561006903648376,0.1256149113178253,-0.9905169606208801,0.05565137788653374,0,0,0,-1,169397.89611225,3,1,1561841581.842611,1561841239.621676,19,2.442143,0,0,18.59878,0,0,1561841548.131042,169396.150241,0,0.4572754,75.18863,0,182478453,1,1,1,-32.32433,-40.84705,0
1561841583.220771,30,0,0,1561841582.995294,4.634689623494292,-74.1510658153092,2556.191,0.61,188.4375,4,10,-9999,1561841583.19883,-2.43115234375,-13.89688873291016,25.992919921875,159.9812164306641,167.4744262695312,15,169399.51829525,0.053497314453125,-0.695556640625,-0.0226287841796875,169399.51829525,2.76245252394899,3.242991446830124,-0.1487162415922048,169399.49836725,-77.82342529296875,-39.67448425292969,-536.5602416992188,169399.51322925,-2.735823921679034,2.327998146689037,1.400146172198218,2.699493646621704,3.294413328170776,-0.1499859392642975,-0.06504033505916595,0.3014841079711914,-0.2117424011230469,1,0.7393410801887512,-0.108164444565773,-0.1771756559610367,0.6405341029167175,0.1234204471111298,-0.9854745864868164,0.1166495606303215,0,0,0,-1,169397.89611225,3,1,1561841581.842611,1561841239.621676,19,2.442143,0,0,18.59878,0,0,1561841548.131042,169397.093805,0,0.4572754,75.18863,0,182478453,1,1,1,-32.8816,-41.36823,0
1561841583.241519,31,0,0,1561841582.995294,4.634689623494292,-74.1510658153092,2556.191,0.61,188.4375,4,10,-9999,1561841583.225093,-4.0660400390625,-12.74940490722656,26.20733642578125,155.6378479003906,163.1310577392578,15,169399.53855825,-0.0071563720703125,-0.6352386474609375,0.0957183837890625,169399.53855825,2.869084428731326,2.974381024543097,-0.07202545799730201,169399.51847825,-79.44886779785156,-38.28851318359375,-536.4075927734375,169399.53349225,-2.913856632555718,2.567193925208744,1.354460018829905,2.87328028678894,3.05027437210083,-0.1013233214616776,-0.07803800702095032,0.291875958442688,-0.1367026567459106,1,0.7627202272415161,-0.09143602848052979,-0.1510405242443085,0.6221608519554138,0.1166274920105934,-0.976690411567688,0.1802053898572922,0,0,0,-1,169397.89611225,3,1,1561841581.842611,1561841239.621676,19,2.442143,0,0,18.59878,0,0,1561841548.131042,169397.093805,0,0.4572754,75.18863,0,182478453,1,1,1,-33.43888,-42.27671,0
1561841583.269856,32,0,0,1561841582.995294,4.634689623494292,-74.1510658153092,2556.191,0.61,188.4375,4,10,-9999,1561841583.24939,-5.539680480957031,-11.30479049682617,26.43707275390625,151.7169799804688,159.2101898193359,15,169399.55882225,0.026123046875,-0.587615966796875,0.1547088623046875,169399.55882225,2.711594402927855,2.593667233014166,-0.008036354905423109,169399.53858925,-81.15493774414062,-36.97035217285156,-536.3888549804688,169399.55375625,-3.022833662669356,2.731326166232046,1.303342883826101,2.751915216445923,2.687920570373535,-0.01910648494958878,-0.1145019233226776,0.3725738525390625,-0.1187950372695923,1,0.7843615412712097,-0.07713421434164047,-0.1264298856258392,0.6023643612861633,0.105407677590847,-0.964447021484375,0.2423454225063324,0,0,0,-1,169397.89611225,3,1,1561841581.842611,1561841239.621676,19,2.442143,0,0,18.59878,0,0,1561841548.131042,169397.093805,0,0.4572754,75.18863,0,182478453,1,1,1,-33.99616,-42.93109,0
1561841583.281487,33,0,0,1561841582.995294,4.634689623494292,-74.1510658153092,2556.191,0.61,188.4375,4,10,-9999,1561841583.275686,-8.628944396972656,-8.708999633789062,26.7947998046875,148.3404693603516,155.8336791992188,15,169399.57908625,0.0137176513671875,-0.5152130126953125,0.2279510498046875,169399.57908625,2.454410006981704,2.134301772379706,0.01512462446277801,169399.55866925,-82.59529113769531,-35.50935363769531,-536.2081909179688,169399.57402025,-3.087145081130976,2.843097028225341,1.252819750301482,2.531404972076416,2.245091199874878,0.01087058894336224,-0.0572601780295372,0.3844403028488159,-0.1021491289138794,1,0.8032070994377136,-0.06533114612102509,-0.1046378538012505,0.5827872753143311,0.0919434130191803,-0.9498699903488159,0.2988196015357971,0,0,0,-1,169397.89611225,3,1,1561841581.842611,1561841239.621676,19,2.442143,0,0,18.59878,0,0,1561841548.131042,169397.093805,0,0.4572754,75.18863,0,182478453,1,1,1,-34.55344,-43.26835,0
1561841583.302342,34,0,0,1561841582.995294,4.634689623494292,-74.1510658153092,2556.191,0.61,188.4375,4,10,-9999,1561841583.30022,-9.943290710449219,-7.324203491210938,26.586669921875,145.6827545166016,153.1759643554688,15,169399.59934925,-0.11700439453125,-0.499359130859375,0.31390380859375,169399.59934925,2.011489033446266,1.499436925386223,-0.3320477184010416,169399.57878025,-84.03082275390625,-34.43296813964844,-536.0266723632812,169399.59425325,-3.121841174206699,2.916412901885476,1.206472239903499,2.157393455505371,1.709264039993286,-0.1768290102481842,-0.09805294871330261,0.4477620720863342,-0.08987629413604736,1,0.8188796639442444,-0.05565435439348221,-0.08695093542337418,0.5646045804023743,0.07955929636955261,-0.9343647956848145,0.3473226130008698,0,0,0,-1,169397.89611225,3,1,1561841581.842611,1561841239.621676,19,2.442143,0,0,18.59878,0,0,1561841548.131042,169397.093805,0,0.4572754,75.18863,0,182478453,1,1,1,-34.55344,-43.26835,0
1561841583.322058,35,0,0,1561841582.995294,4.634689623494292,-74.1510658153092,2556.191,0.61,188.4375,4,10,-9999,1561841583.30022,-9.943290710449219,-7.324203491210938,26.586669921875,145.6827545166016,153.1759643554688,15,169399.61961325,-0.076446533203125,-0.5746002197265625,0.457977294921875,169399.61961325,1.833446328246217,1.279227591698623,-0.7682170459409111,169399.59889125,-84.77815246582031,-33.32597351074219,-536.36669921875,169399.61451625,-3.117641210821932,2.941698411892632,1.166357767194934,1.801455020904541,1.325824737548828,-0.7452223896980286,-0.2424122989177704,0.3742795586585999,0.02320706844329834,1,0.831149160861969,-0.04499716684222221,-0.07672099024057388,0.5488900542259216,0.07813617587089539,-0.9193234443664551,0.3856673538684845,0,0,0,-1,169397.89611225,3,1,1561841581.842611,1561841239.621676,19,2.442143,0,0,18.59878,0,0,1561841548.131042,169397.093805,0,0.4572754,75.18863,0,182478453,1,1,1,-35.11072,-43.81768,0
1561841583.347732,36,0,0,1561841582.995294,4.634689623494292,-74.1510658153092,2556.191,0.61,188.4375,4,10,-9999,1561841583.326319,-10.62297058105469,-6.400875091552734,26.5106201171875,143.8285064697266,151.3217163085938,15,169399.63984625,-0.015777587890625,-0.5356292724609375,0.4697723388671875,169399.63984625,2.199150011239244,1.125176772126881,-0.6109075824593476,169399.61897225,-85.34770202636719,-32.37149047851562,-536.1995239257812,169399.63478025,-3.099652026266446,2.949764024656085,1.125569017210441,2.048729181289673,1.131466507911682,-0.6995134949684143,-0.1185152605175972,0.338822603225708,0.002773523330688477,1,0.8427717089653015,-0.03343147411942482,-0.06984326243400574,0.532672643661499,0.0821077898144722,-0.902512788772583,0.4227636456489563,0,0,0,-1,169397.89611225,3,1,1561841581.842611,1561841239.621676,19,2.442143,0,0,18.59878,0,0,1561841548.131042,169397.093805,0,0.4572754,75.18863,0,182478453,1,1,1,-35.668,-44.11324,0
1561841583.362426,37,0,0,1561841582.995294,4.634689623494292,-74.1510658153092,2556.191,0.61,188.4375,4,10,-9999,1561841583.350802,-11.15290069580078,-5.5498046875,26.46966552734375,142.402587890625,149.8957977294922,15,169399.66011025,0.1481170654296875,-0.4747161865234375,0.51318359375,169399.66011025,2.784454495610788,0.2399619994927177,-0.01763918116403083,169399.63908325,-86.07585144042969,-31.29158020019531,-536.4164428710938,169399.65504425,-3.097480819818104,2.966766815323751,1.076663377809259,2.656121253967285,0.5206196308135986,-0.2054904848337173,0.00696968287229538,0.3694244623184204,0.06691193580627441,1,0.8560661673545837,-0.02588643319904804,-0.06367181986570358,0.5122756958007812,0.08249259740114212,-0.8803802728652954,0.4670387804508209,0,0,0,-1,169397.89611225,3,1,1561841581.842611,1561841239.621676,19,2.442143,0,0,18.59878,0,0,1561841548.131042,169397.093805,0,0.4572754,75.18863,0,182478453,1,1,1,-36.22528,-44.19666,0
1561841583.38276,38,0,0,1561841582.995294,4.634689623494292,-74.1510658153092,2556.191,0.61,188.4375,4,10,-9999,1561841583.376994,-11.86434173583984,-3.113752365112305,26.530029296875,142.5282440185547,150.0214538574219,15,169399.68037325,0.127227783203125,-0.470245361328125,0.60211181640625,169399.68037325,2.940939178102754,-0.4341706251417651,0.4872937646700117,169399.65919425,-86.14396667480469,-30.33195495605469,-536.2569580078125,169399.67530725,-3.121587677153432,2.988029359401069,1.019736778213213,2.986220836639404,-0.3779290318489075,0.4082051813602448,0.03076650202274323,0.3982196450233459,0.03529036045074463,1,0.8705681562423706,-0.02873115800321102,-0.06207914277911186,0.4872697293758392,0.08008860051631927,-0.8519702553749084,0.5174288153648376,0,0,0,-1,169397.89611225,3,1,1561841581.842611,1561841239.621676,19,2.442143,0,0,18.59878,0,0,1561841548.131042,169397.093805,0,0.4572754,75.18863,0,182478453,1,1,1,-36.78255,-44.8049,0
1561841583.403106,39,0,0,1561841582.995294,4.634689623494292,-74.1510658153092,2556.191,0.61,188.4375,4,10,-9999,1561841583.401356,-11.66725921630859,-1.611301422119141,26.68682861328125,143.2840728759766,150.7772827148438,15,169399.70063725,0.153350830078125,-0.526031494140625,0.578033447265625,169399.70063725,2.277921788909935,0.4263534483940555,0.5045526464303792,169399.67930525,-86.07135009765625,-28.58395385742188,-536.1395263671875,169399.69557125,3.128483539758768,3.010463067244475,0.9650865540734008,2.495810508728027,0.1281970143318176,0.5228399038314819,0.06068752706050873,0.3174900412559509,0.03313732147216797,1,0.8836961388587952,-0.03619544580578804,-0.06107058748602867,0.4626461565494537,0.07444431632757187,-0.8220981955528259,0.5644579529762268,0,0,0,-1,169397.89611225,3,1,1561841581.842611,1561841239.621676,19,2.442143,0,0,18.59878,0,0,1561841548.131042,169397.093805,0,0.4572754,75.18863,0,182478453,1,1,1,-37.33984,-41.38866,0
1561841583.428053,40,0,0,1561841582.995294,4.634689623494292,-74.1510658153092,2556.191,0.61,188.4375,4,10,-9999,1561841583.401356,-11.66725921630859,-1.611301422119141,26.68682861328125,143.2840728759766,150.7772827148438,15,169399.72090125,0.175323486328125,-0.506988525390625,0.4801788330078125,169399.72090125,1.278441692860941,1.731011831657955,0.4312038636874168,169399.69941625,-86.05940246582031,-27.10081481933594,-535.9036865234375,169399.71583525,3.104091883132386,3.045997046861905,0.9258467685320765,1.489071607589722,1.461173057556152,0.4436465203762054,0.09952551871538162,0.2653013467788696,-0.07366383075714111,1,0.8931718468666077,-0.03808976709842682,-0.05110656097531319,0.4451757073402405,0.05738060548901558,-0.7991300821304321,0.5984135270118713,0,0,0,-1,169397.89611225,3,1,1561841581.842611,1561841239.621676,19,2.442143,0,0,18.59878,0,0,1561841548.131042,169397.093805,0,0.4572754,75.18863,0,182478453,1,1,1,-36.78907,-37.95748,0
1561841583.443619,41,0,0,1561841582.995294,4.634689623494292,-74.1510658153092,2556.191,0.61,188.4375,4,10,-9999,1561841583.427748,-11.89720916748047,-0.027252197265625,26.68359375,141.3780364990234,148.8712463378906,15,169399.74116425,0.1522674560546875,-0.5100555419921875,0.5165863037109375,169399.74116425,0.9132461410039012,2.027142295385425,0.337909602276415,169399.71949725,-86.95455932617188,-26.18734741210938,-536.1961669921875,169399.73609825,3.087877750857095,3.096246456278485,0.9033576546591363,0.9179604053497314,2.033527135848999,0.3613838851451874,0.1509269773960114,0.2873932719230652,-0.1416100263595581,1,0.8988943099975586,-0.03404682129621506,-0.03210847079753876,0.435659259557724,0.02805861830711365,-0.7854096293449402,0.6183403134346008,0,0,0,-1,169397.89611225,3,1,1561841581.842611,1561841239.621676,19,2.442143,0,0,18.59878,0,0,1561841548.131042,169397.093805,0,0.4572754,75.18863,0,182478453,1,1,1,-36.78907,-38.893,0
1561841583.463789,42,0,0,1561841582.995294,4.634689623494292,-74.1510658153092,2556.191,0.61,188.4375,4,10,-9999,1561841583.452622,-14.02827453613281,1.478944778442383,25.96038818359375,137.7695770263672,145.2627868652344,15,169399.76142825,-0.0150909423828125,-0.5833740234375,0.6618804931640625,169399.76142825,1.213170810336407,1.729337235964513,0.2208895050300062,169399.73960825,-87.88673400878906,-25.02326965332031,-536.77490234375,169399.75633225,3.077152629673125,-3.138506988178918,0.8837683716970886,1.109023571014404,1.879114031791687,0.2620426416397095,0.08731472492218018,0.2384969592094421,-0.0511244535446167,1,0.9034984707832336,-0.02846068143844604,-0.01238236017525196,0.4274659156799316,-0.001957055646926165,-0.7731344103813171,0.6342390179634094,0,0,0,-1,169397.89611225,3,1,1561841581.842611,1561841239.621676,19,2.442143,0,0,18.59878,0,0,1561841548.131042,169397.093805,0,0.4572754,75.18863,0,182478453,1,1,1,-36.78907,-38.893,0
1561841583.485082,43,0,0,1561841582.995294,4.634689623494292,-74.1510658153092,2556.191,0.61,188.4375,4,10,-9999,1561841583.478283,-14.71603393554688,2.024482727050781,25.15533447265625,134.5765533447266,142.0697631835938,15,169399.78169225,-0.190826416015625,-0.71435546875,0.8857269287109375,169399.78169225,1.609276607701561,1.249006572280622,0.2731135613742421,169399.75971925,-88.93666076660156,-24.42474365234375,-537.7152099609375,169399.77659525,3.072836879144556,-3.102988942854965,0.8567088230296088,1.555824279785156,1.350344181060791,0.1418320685625076,-0.1471326947212219,0.1089016199111938,0.118890643119812,1,0.9092192053794861,-0.02324761264026165,0.003272252855822444,0.4156551659107208,-0.02527637034654617,-0.7556911706924438,0.6544400453567505,0,0,0,-1,169397.89611225,3,1,1561841581.842611,1561841239.621676,19,2.442143,0,0,18.59878,0,0,1561841548.131042,169397.093805,0,0.4572754,75.18863,0,182478453,1,1,1,-36.78907,-39.22137,0
1561841583.510001,44,0,0,1561841582.995294,4.634689623494292,-74.1510658153092,2556.191,0.61,188.4375,4,10,-9999,1561841583.503076,-15.59816741943359,3.077789306640625,24.61956787109375,132.2060241699219,139.6992340087891,15,169399.80192525,-0.081573486328125,-0.61871337890625,0.844757080078125,169399.80192525,1.353456815497966,1.002946466523841,0.8179688898452264,169399.77980025,-89.63484191894531,-23.87580871582031,-537.9656982421875,169399.79685925,3.062143774169918,-3.071541249265125,0.824641650474102,1.449988961219788,1.037779450416565,0.73017418384552,-0.04458865150809288,0.03081339597702026,0.1801143884658813,1,0.9154661893844604,-0.02234122157096863,0.01615333743393421,0.4014492034912109,-0.04751339927315712,-0.7343045473098755,0.6771549582481384,0,0,0,-1,169397.89611225,3,1,1561841581.842611,1561841239.621676,19,2.442143,0,0,18.59878,0,0,1561841548.131042,169397.093805,0,0.4572754,75.18863,0,182478453,1,1,1,-36.78907,-39.47601,0
1561841583.524633,45,0,0,1561841582.995294,4.634689623494292,-74.1510658153092,2556.191,0.61,188.4375,4,10,-9999,1561841583.503076,-15.59816741943359,3.077789306640625,24.61956787109375,132.2060241699219,139.6992340087891,15,169399.82218925,-0.1527252197265625,-0.6122589111328125,0.926361083984375,169399.82218925,0.9619755973657351,1.145241826727865,0.8105013861486442,169399.79991125,-90.37181091308594,-22.80422973632812,-538.34130859375,169399.81712325,3.041089076207923,-3.03517423203121,0.7977570311400703,1.071434378623962,1.12400484085083,0.8481804132461548,-0.03871121257543564,0.1232165098190308,0.2096890211105347,1,0.9200689792633057,-0.02559204958379269,0.02946591936051846,0.3898076117038727,-0.07417330890893936,-0.7157915830612183,0.6943637728691101,0,0,0,-1,169397.89611225,3,1,1561841581.842611,1561841239.621676,19,2.442143,0,0,18.59878,0,0,1561841548.131042,169397.093805,0,0.4572754,75.18863,0,182478453,1,1,1,-36.78907,-40.38705,0
1561841583.544844,46,0,0,1561841582.995294,4.634689623494292,-74.1510658153092,2556.191,0.61,188.4375,4,10,-9999,1561841583.529344,-16.05998992919922,4.150148391723633,24.32647705078125,129.8410034179688,137.3342132568359,15,169399.84245225,-0.278289794921875,-0.6193084716796875,0.94451904296875,169399.84245225,0.5468013002795052,0.9084617721055739,0.5832623724476711,169399.82002225,-90.8291015625,-21.87643432617188,-538.7684326171875,169399.83738625,3.022745730023839,-2.999646859627366,0.7786205145569786,0.6536661386489868,0.9940303564071655,0.6432285904884338,-0.1265698671340942,0.08645337820053101,0.2283363342285156,1,0.9228115081787109,-0.02793851867318153,0.04300697892904282,0.3818229138851166,-0.1007098034024239,-0.7022980451583862,0.7047232985496521,0,0,0,-1,169397.89611225,3,1,1561841581.842611,1561841239.621676,19,2.442143,0,0,18.59878,0,0,1561841548.131042,169397.093805,0,0.4572754,75.18863,0,182478453,1,1,1,-36.78907,-40.76764,0
1561841583.565082,47,0,0,1561841582.995294,4.634689623494292,-74.1510658153092,2556.191,0.61,188.4375,4,10,-9999,1561841583.553395,-16.99458312988281,5.505989074707031,23.46954345703125,24.33546447753906,31.82866859436035,15,169399.86271625,-0.341888427734375,-0.6346435546875,0.9532928466796875,169399.86271625,0.04957660790458807,0.844878002131605,0.4594054080508109,169399.84013325,-91.23219299316406,-21.094970703125,-539.2926635742188,169399.85765025,3.0093679803955,-2.97295080450899,0.7683937304739481,0.1739056706428528,0.7931954860687256,0.4695012867450714,-0.1917394399642944,0.06142103672027588,0.2377818822860718,1,0.9238731861114502,-0.02953216806054115,0.05323688313364983,0.3778254389762878,-0.1206842660903931,-0.6949811577796936,0.7088276147842407,0,0,0,-1,169397.89611225,3,1,1561841581.842611,1561841239.621676,19,2.442143,0,0,18.59878,0,0,1561841548.131042,169397.093805,0,0.4572754,75.18863,0,182478453,1,1,1,-36.78907,-41.63847,0
1561841583.589011,48,0,0,1561841582.995294,4.634689623494292,-74.1510658153092,2556.191,0.61,188.4375,4,10,-9999,1561841583.579612,-17.12945556640625,5.590305328369141,23.09173583984375,23.38011932373047,30.87332344055176,15,169399.88298025,-0.3628997802734375,-0.5611724853515625,0.8648681640625,169399.88298025,-0.2951397678019604,1.240496174701165,0.6200984176973201,169399.86021325,-91.45022583007812,-20.794189453125,-539.5528564453125,169399.87791425,2.995650385961825,-2.944989558977107,0.7678749224060812,-0.2551705837249756,1.103073239326477,0.5478402972221375,-0.2244808226823807,0.08653002977371216,0.2121180295944214,1,0.9229454398155212,-0.03060813993215561,0.0635790228843689,0.3784081339836121,-0.1405246704816818,-0.6946080327033997,0.7055302858352661,0,0,0,-1,169397.89611225,3,1,1561841581.842611,1561841239.621676,19,2.442143,0,0,18.59878,0,0,1561841548.131042,169397.093805,0,0.4572754,75.18863,0,182478453,1,1,1,-36.78907,-42.0933,0
1561841583.605751,49,0,0,1561841582.995294,4.634689623494292,-74.1510658153092,2556.191,0.61,188.4375,4,10,-9999,1561841583.60445,-17.83631134033203,5.818531036376953,22.642578125,123.6262893676758,131.1194915771484,15,169399.90324325,-0.2901458740234375,-0.52496337890625,0.8206787109375,169399.90324325,-0.1336070634637493,1.034625566638661,0.779810851430462,169399.88032525,-91.851318359375,-20.86309814453125,-539.9303588867188,169399.89817725,2.975441928920622,-2.905702649270101,0.7704693576752011,-0.2176644951105118,1.187110781669617,0.7648357152938843,-0.1624338030815125,0.1840819716453552,0.1294064521789551,1,0.9207673668861389,-0.03229822218418121,0.07770626246929169,0.3809277415275574,-0.1677053570747375,-0.6964721083641052,0.6977114677429199,0,0,0,-1,169397.89611225,3,1,1561841581.842611,1561841239.621676,19,2.442143,0,0,18.59878,0,0,1561841548.131042,169397.093805,0,0.4572754,75.18863,0,182478453,1,1,1,-36.78907,-42.0933,0
1561841583.625928,50,0,0,1561841582.995294,4.634689623494292,-74.1510658153092,2556.191,0.61,188.4375,4,10,-9999,1561841583.60445,-17.83631134033203,5.818531036376953,22.642578125,123.6262893676758,131.1194915771484,15,169399.92350725,-0.266143798828125,-0.638946533203125,0.917388916015625,169399.92350725,0.09016691134292178,0.1294147152757465,0.7485602539350362,169399.90043625,-92.3643798828125,-20.63958740234375,-540.334228515625,169399.91841025,2.953859841360863,-2.874325118960709,0.7676212364391375,0.07573544234037399,0.3535885810852051,0.7703966498374939,-0.0773906409740448,0.1129283308982849,0.1714152097702026,1,0.9196081757545471,-0.03646289929747581,0.08821447938680649,0.3810637295246124,-0.1900348961353302,-0.6944255232810974,0.6940174698829651,0,0,0,-1,169397.89611225,3,1,1561841581.842611,1561841239.621676,19,2.442143,0,0,18.59878,0,0,1561841548.131042,169397.093805,0,0.4572754,75.18863,0,182478453,1,1,1,-36.78907,-42.75599,0
1561841583.646207,51,0,0,1561841582.995294,4.634689623494292,-74.1510658153092,2556.191,0.61,188.4375,4,10,-9999,1561841583.630217,-18.17218017578125,6.24226188659668,22.29620361328125,20.42430877685547,27.91751480102539,15,169399.9437605,-0.335357666015625,-0.7433013916015625,1.013458251953125,169399.9437605,-0.1670752751988841,-0.3695191938867834,0.55973361053293,169399.9205055,-92.60546875,-20.17950439453125,-540.8896484375,169399.9386635,2.935127080175897,-2.862020967044424,0.7628988511373098,-0.06425175815820694,-0.3070308864116669,0.6202574968338013,-0.09454412758350372,0.003916442394256592,0.2741317749023438,1,0.9195250272750854,-0.0431179404258728,0.09064066410064697,0.3799984753131866,-0.1994622200727463,-0.6910197138786316,0.694770872592926,0,0,0,-1,169397.89611225,3,1,1561841581.842611,1561841239.621676,19,2.442143,0,0,18.59878,0,0,1561841548.131042,169397.093805,0,0.4572754,75.18863,0,182478453,1,1,1,-36.78907,-43.36436,0
1561841583.669228,52,0,0,1561841582.995294,4.634689623494292,-74.1510658153092,2556.191,0.61,188.4375,4,10,-9999,1561841583.65461,-17.956787109375,6.44938850402832,22.3778076171875,19.21778106689453,26.71098518371582,15,169399.9639935,-0.4125213623046875,-0.8648681640625,1.066940307617188,169399.9639935,-0.6660214349024284,-0.5330974722582845,0.2020913161595729,169399.9406165,-92.37657165527344,-19.97283935546875,-540.651611328125,169399.9589275,2.920060175868164,-2.86010159770895,0.7660206464000902,-0.5464165210723877,-0.5030339360237122,0.3007937669754028,-0.1765748858451843,-0.1092631220817566,0.3491470813751221,1,0.9185389876365662,-0.04941286146640778,0.08841781318187714,0.3821344971656799,-0.2001951336860657,-0.6932728886604309,0.6923109889030457,0,0,0,-1,169397.89611225,3,1,1561841581.842611,1561841239.621676,19,2.442143,0,0,18.59878,0,0,1561841548.131042,169397.093805,0,0.4572754,75.18863,0,182478453,1,1,1,-36.78907,-43.87252,0
1561841583.686671,53,0,0,1561841582.995294,4.634689623494292,-74.1510658153092,2556.191,0.61,188.4375,4,10,-9999,1561841583.680949,-17.62037658691406,6.373283386230469,22.5162353515625,124.6982040405273,132.19140625,15,169399.9842565,-0.4282989501953125,-0.994720458984375,1.073745727539062,169399.9842565,-1.061195658518272,-0.7034351197925156,-0.2875431007925094,169399.9607275,-92.12797546386719,-20.23457336425781,-540.2884521484375,169399.9791915,2.911813576608413,-2.866161110106624,0.78065061136539,-0.9815597534179688,-0.6699331998825073,-0.1571588963270187,-0.2337695062160492,-0.2288143634796143,0.3969196081161499,1,0.9159786105155945,-0.05312130972743034,0.08291322737932205,0.3889559805393219,-0.1932171881198883,-0.7037417888641357,0.6836773753166199,0,0,0,-1,169397.89611225,3,1,1561841581.842611,1561841239.621676,19,2.442143,0,0,18.59878,0,0,1561841548.131042,169397.093805,0,0.4572754,75.18863,0,182478453,1,1,1,-36.78907,-44.51353,0
1561841583.706934,54,0,0,1561841582.995294,4.634689623494292,-74.1510658153092,2556.191,0.61,188.4375,4,10,-9999,1561841583.705731,-17.29776763916016,5.826408386230469,22.843994140625,126.6936264038086,134.1868286132812,15,169400.0045205,-0.39276123046875,-1.10614013671875,1.041763305664062,169400.0045205,-1.300110503070371,-0.819300736706375,-0.8285381772634238,169399.9808385,-91.99980163574219,-20.39239501953125,-539.9812622070312,169399.9994545,2.915250315634919,-2.883739104018974,0.8050222256707812,-1.247745275497437,-0.8098341226577759,-0.7091783881187439,-0.2437127530574799,-0.3337498903274536,0.3918459415435791,1,0.9122946858406067,-0.05299955606460571,0.07366706430912018,0.3993526995182037,-0.1767431795597076,-0.7208460569381714,0.6701810956001282,0,0,0,-1,169397.89611225,3,1,1561841581.842611,1561841239.621676,19,2.442143,0,0,18.59878,0,0,1561841548.131042,169397.093805,0,0.4572754,75.18863,0,182478453,1,1,1,-36.78907,-45.05695,0
1561841583.727238,55,0,0,1561841582.995294,4.634689623494292,-74.1510658153092,2556.191,0.61,188.4375,4,10,-9999,1561841583.705731,-17.29776763916016,5.826408386230469,22.843994140625,126.6936264038086,134.1868286132812,15,169400.0247845,-0.2926025390625,-1.151077270507812,0.9813995361328125,169400.0247845,-1.54553757543604,-0.8084041467902068,-1.23049813533679,169400.0009195,-91.64509582519531,-21.41477966308594,-539.66455078125,169400.0197185,2.932543709908376,-2.913205342864284,0.8364991541168468,-1.496072053909302,-0.830522358417511,-1.14355731010437,-0.1957197487354279,-0.3961105942726135,0.3676738739013672,1,0.907723605632782,-0.04869208484888077,0.06145485118031502,0.412177562713623,-0.1517076045274734,-0.742301881313324,0.6526661515235901,0,0,0,-1,169397.89611225,3,1,1561841581.842611,1561841239.621676,19,2.442143,0,0,18.59878,0,0,1561841548.131042,169397.093805,0,0.4572754,75.18863,0,182478453,1,1,1,-36.78907,-45.72501,0
1561841583.747828,56,0,0,1561841582.995294,4.634689623494292,-74.1510658153092,2556.191,0.61,188.4375,4,10,-9999,1561841583.731456,-17.15247344970703,5.060283660888672,23.17791748046875,128.8131408691406,136.3063507080078,15,169400.0450475,-0.178131103515625,-1.1405029296875,0.8988189697265625,169400.0450475,-1.61320130820001,-0.7408506688953659,-1.505006660490015,169400.0210305,-91.51124572753906,-22.19914245605469,-539.49609375,169400.0399825,2.962105068571219,-2.951530952133888,0.8731693709651115,-1.611111283302307,-0.7498427033424377,-1.459733605384827,-0.1193453967571259,-0.3812294602394104,0.3108024597167969,1,0.902077853679657,-0.04088874906301498,0.04791546985507011,0.4269516170024872,-0.1213620007038116,-0.7663688063621521,0.6308326721191406,0,0,0,-1,169397.89611225,3,1,1561841581.842611,1561841239.621676,19,2.442143,0,0,18.59878,0,0,1561841548.131042,169397.093805,0,0.4572754,75.18863,0,182478453,1,1,1,-36.78907,-46.41421,0
1561841583.76829,57,0,0,1561841582.995294,4.634689623494292,-74.1510658153092,2556.191,0.61,188.4375,4,10,-9999,1561841583.756398,-16.63038635253906,2.533136367797852,24.17724609375,130.6598052978516,138.1530151367188,15,169400.0653115,-0.034149169921875,-1.099533081054688,0.8012237548828125,169400.0653115,-1.706250292474616,-0.6375309375607607,-1.531408174272625,169400.0411115,-90.91807556152344,-23.44618225097656,-538.8685913085938,169400.0602455,3.002071476698584,-2.99751187269468,0.9108570896037983,-1.666059494018555,-0.6902062892913818,-1.554805278778076,-0.01951782405376434,-0.3365421891212463,0.2390021085739136,1,0.8957712650299072,-0.03085453808307648,0.03390472754836082,0.4421450793743134,-0.08802612870931625,-0.7900294661521912,0.6067163348197937,0,0,0,-1,169397.89611225,3,1,1561841581.842611,1561841239.621676,19,2.442143,0,0,18.59878,0,0,1561841548.131042,169397.093805,0,0.4572754,75.18863,0,182478453,1,1,1,-36.78907,-46.43929,0
1561841583.788034,58,0,0,1561841582.995294,4.634689623494292,-74.1510658153092,2556.191,0.61,188.4375,4,10,-9999,1561841583.78223,-16.41975402832031,1.288944244384766,24.1925048828125,132.0806884765625,139.5738983154297,15,169400.0855755,0.1092987060546875,-1.016952514648438,0.7108917236328125,169400.0855755,-1.867040773817022,-0.4580067158463013,-1.304976098381946,169400.0612225,-90.73826599121094,-24.85548400878906,-538.7516479492188,169400.0804785,3.044895515062874,-3.043792567446615,0.9497279306441352,-1.839707970619202,-0.493596225976944,-1.380680084228516,0.093761146068573,-0.2448635101318359,0.1757591962814331,1,0.8883339166641235,-0.02060797996819019,0.02135057933628559,0.458238273859024,-0.0568196177482605,-0.8132572174072266,0.5791236758232117,0,0,0,-1,169397.89611225,3,1,1561841581.842611,1561841239.621676,19,2.442143,0,0,18.59878,0,0,1561841548.131042,169397.093805,0,0.4572754,75.18863,0,182478453,1,1,1,-36.78907,-46.43929,0
1561841583.808228,59,0,0,1561841582.995294,4.634689623494292,-74.1510658153092,2556.191,0.61,188.4375,4,10,-9999,1561841583.806601,-16.12180328369141,-0.1779537200927734,24.50189208984375,133.0893859863281,140.5825958251953,15,169400.1058385,0.231109619140625,-0.9461212158203125,0.6209716796875,169400.1058385,-1.849883358494186,-0.5415364971205275,-0.9136056677510619,169400.0813335,-90.54913330078125,-26.42088317871094,-538.2719116210938,169400.1007425,3.083254814790043,-3.085045593248647,0.9894672435440128,-1.871198534965515,-0.5056167244911194,-1.030901670455933,0.2095022201538086,-0.1393640637397766,0.1206117868423462,1,0.8797606229782104,-0.01224082615226507,0.01102767046540976,0.4751312434673309,-0.03103541769087315,-0.8357335329055786,0.5482571721076965,0,0,0,-1,169397.89611225,3,1,1561841581.842611,1561841239.621676,19,2.442143,0,0,18.59878,0,0,1561841548.131042,169397.093805,0,0.4572754,75.18863,0,182478453,1,1,1,-36.78907,-43.70223,0
1561841583.828538,60,0,0,1561841582.995294,4.634689623494292,-74.1510658153092,2556.191,0.61,188.4375,4,10,-9999,1561841583.806601,-16.12180328369141,-0.1779537200927734,24.50189208984375,133.0893859863281,140.5825958251953,15,169400.1260725,0.2956390380859375,-0.85467529296875,0.5296783447265625,169400.1260725,-1.746376406934949,-0.7572709212284674,-0.3826051685351058,169400.1014135,-90.35069274902344,-27.64964294433594,-538.309326171875,169400.1210065,3.110437012745205,-3.120155552635933,1.027019471280194,-1.768426060676575,-0.7059234380722046,-0.5271156430244446,0.275433361530304,-0.04965001344680786,0.05873608589172363,1,0.8709520101547241,-0.008302739821374416,0.001683162758126855,0.4912949800491333,-0.01109009701758623,-0.8557607531547546,0.5172526836395264,0,0,0,-1,169397.89611225,3,1,1561841581.842611,1561841239.621676,19,2.442143,0,0,18.59878,0,0,1561841548.131042,169397.093805,0,0.4572754,75.18863,0,182478453,1,1,1,-36.78907,-44.21454,0
1561841583.848712,61,0,0,1561841582.995294,4.634689623494292,-74.1510658153092,2556.191,0.61,188.4375,4,10,-9999,1561841583.832745,-15.77146148681641,-1.46649169921875,24.5367431640625,134.2725982666016,141.7658081054688,15,169400.1463355,0.3024444580078125,-0.775115966796875,0.430938720703125,169400.1463355,-1.590619832685011,-0.9853075516759193,0.1157582915219292,169400.1215245,-89.93241882324219,-28.85566711425781,-537.7328491210938,169400.1412695,3.120108581083165,3.138180778681941,1.061954495946019,-1.65708065032959,-0.9281144142150879,-0.02257498539984226,0.3107768297195435,0.06199949979782104,-0.006099224090576172,1,0.8622522950172424,-0.01012659631669521,-0.006910365074872971,0.5063305497169495,0.001662146183662117,-0.873309314250946,0.4871631264686584,0,0,0,-1,169397.89611225,3,1,1561841581.842611,1561841239.621676,19,2.442143,0,0,18.59878,0,0,1561841548.131042,169397.093805,0,0.4572754,75.18863,0,182478453,1,1,1,-36.78907,-44.49184,0
1561841583.869096,62,0,0,1561841582.995294,4.634689623494292,-74.1510658153092,2556.191,0.61,188.4375,4,10,-9999,1561841583.857194,-15.09915161132812,-3.464288711547852,25.18389892578125,135.8383026123047,143.3315124511719,15,169400.1665995,0.2728729248046875,-0.6491241455078125,0.3117218017578125,169400.1665995,-1.197683197017051,-1.152484026996226,0.7996977405545198,169400.1416055,-89.56884765625,-29.68345642089844,-537.9157104492188,169400.1615335,3.108538857269231,3.12720248173659,1.092430214953402,-1.305471420288086,-1.135374188423157,0.6307958960533142,0.2759077548980713,0.1422648429870605,-0.08694517612457275,1,0.8542962670326233,-0.01785817183554173,-0.01473168469965458,0.5192707180976868,0.006623995024710894,-0.8877482414245605,0.4602820575237274,0,0,0,-1,169397.89611225,3,1,1561841581.842611,1561841239.621676,19,2.442143,0,0,18.59878,0,0,1561841548.131042,169397.093805,0,0.4572754,75.18863,0,182478453,1,1,1,-36.78907,-44.90816,0
1561841583.889324,63,0,0,1561841582.995294,4.634689623494292,-74.1510658153092,2556.191,0.61,188.4375,4,10,-9999,1561841583.883665,-14.58847045898438,-3.980411529541016,25.2523193359375,137.6904907226562,145.1837005615234,15,169400.1868635,0.1361846923828125,-0.5790252685546875,0.1152191162109375,169400.1868635,-0.5551777408561315,-1.043882714587776,1.188366394259518,169400.1617165,-88.87849426269531,-30.42724609375,-537.6543579101562,169400.1817975,3.068059776970495,3.13997597078626,1.114325843262736,-0.7790391445159912,-1.126838684082031,1.121114134788513,0.2135513126850128,0.3222659230232239,-0.2266103029251099,1,0.8481692671775818,-0.03162595629692078,-0.02012261003255844,0.5283975005149841,0.0007126062992028892,-0.8976138234138489,0.4407826066017151,0,0,0,-1,169397.89611225,3,1,1561841581.842611,1561841239.621676,19,2.442143,0,0,18.59878,0,0,1561841548.131042,169397.093805,0,0.4572754,75.18863,0,182478453,1,1,1,-36.78907,-45.26795,0
1561841583.909892,64,0,0,1561841582.995294,4.634689623494292,-74.1510658153092,2556.191,0.61,188.4375,4,10,-9999,1561841583.883665,-14.58847045898438,-3.980411529541016,25.2523193359375,137.6904907226562,145.1837005615234,15,169400.2071265,-9.1552734375e-05,-0.560882568359375,-0.0102081298828125,169400.2071265,0.4284967604393513,-0.377367529619247,1.107916825102077,169400.1818275,-88.48213195800781,-30.94996643066406,-537.332763671875,169400.2020605,3.012915569903569,-3.111935376167962,1.120029131870129,0.2051136344671249,-0.5941303968429565,1.167431831359863,0.08478736877441406,0.3336153030395508,-0.3850951194763184,1,0.8459078073501587,-0.04660669341683388,-0.0216121394187212,0.5308489799499512,-0.01291847601532936,-0.9001131057739258,0.4354644119739532,0,0,0,-1,169397.89611225,3,1,1561841581.842611,1561841239.621676,19,2.442143,0,0,18.59878,0,0,1561841548.131042,169397.093805,0,0.4572754,75.18863,0,182478453,1,1,1,-36.78907,-45.5739,0
1561841583.929809,65,0,0,1561841582.995294,4.634689623494292,-74.1510658153092,2556.191,0.61,188.4375,4,10,-9999,1561841583.908069,-13.77490997314453,-4.208061218261719,25.41009521484375,139.0609588623047,146.5541687011719,15,169400.2273905,-0.0282745361328125,-0.6518096923828125,-0.15093994140625,169400.2273905,0.7984218200762628,0.5946042428981005,0.9566633899393541,169400.2019085,-88.25257873535156,-30.25010681152344,-536.9072875976562,169400.2223245,2.966240653086551,-3.072733035354057,1.1075061860579,0.7969766855239868,0.360763818025589,0.9508936405181885,0.002016343176364899,0.2876229286193848,-0.5247076749801636,1,0.8483728170394897,-0.0564008466899395,-0.01685472577810287,0.5261164307594299,-0.03074864111840725,-0.894586980342865,0.4458349943161011,0,0,0,-1,169397.89611225,3,1,1561841581.842611,1561841239.621676,19,2.442143,0,0,18.59878,0,0,1561841548.131042,169397.093805,0,0.4572754,75.18863,0,182478453,1,1,1,-36.78907,-45.5739,0
1561841583.950021,66,0,0,1561841582.995294,4.634689623494292,-74.1510658153092,2556.191,0.61,188.4375,4,10,-9999,1561841583.934343,-13.9564208984375,-3.385829925537109,25.652587890625,138.7396087646484,146.2328186035156,15,169400.2476545,-0.016876220703125,-0.6322479248046875,-0.261077880859375,169400.2476545,0.5887444895515992,1.047038027847302,1.037365959400352,169400.2220195,-88.08462524414062,-29.86524963378906,-537.21337890625,169400.2425885,2.925656324887127,-3.021288720680178,1.090738508286099,0.6301136612892151,1.037534236907959,1.032394170761108,0.03047794848680496,0.2372184991836548,-0.6791800260543823,1,0.8517806529998779,-0.06095751374959946,-0.004701105412095785,0.520318865776062,-0.05542606860399246,-0.886968195438385,0.4584921896457672,0,0,0,-1,169397.89611225,3,1,1561841581.842611,1561841239.621676,19,2.442143,0,0,18.59878,0,0,1561841548.131042,169397.093805,0,0.4572754,75.18863,0,182478453,1,1,1,-36.78907,-45.69569,0
1561841583.970371,67,0,0,1561841582.995294,4.634689623494292,-74.1510658153092,2556.191,0.61,188.4375,4,10,-9999,1561841583.958568,-14.42462158203125,-2.706863403320312,25.430419921875,137.1880187988281,144.6812286376953,15,169400.2679175,-0.3295745849609375,-0.7343597412109375,-0.10394287109375,169400.2679175,0.5750989847582512,-0.808074447447255,0.1166882673745849,169400.2421305,-88.75376892089844,-29.21281433105469,-537.3291625976562,169400.2628215,2.891017489298895,-2.976413383410895,1.076754639520806,0.528935968875885,-0.1569219380617142,0.4829224944114685,-0.002870723605155945,0.2304906249046326,-0.7067933082580566,1,0.8541945815086365,-0.0649501234292984,0.00641684839501977,0.5158409476280212,-0.07797034084796906,-0.8804235458374023,0.4677338004112244,0,0,0,-1,169397.89611225,3,1,1561841581.842611,1561841239.621676,19,2.442143,0,0,18.59878,0,0,1561841548.131042,169397.093805,0,0.4572754,75.18863,0,182478453,1,1,1,-36.78907,-44.8577,0
1561841583.990831,68,0,0,1561841582.995294,4.634689623494292,-74.1510658153092,2556.191,0.61,188.4375,4,10,-9999,1561841583.984991,-14.37434387207031,-2.208656311035156,25.5235595703125,138.5032043457031,145.9964141845703,15,169400.2881505,-0.3160247802734375,-0.9888916015625,0.5093231201171875,169400.2881505,1.505696951844564,-1.844204167469592,-0.546088105739582,169400.2622115,-88.95429992675781,-28.98544311523438,-537.3759765625,169400.2830855,2.902225784330468,-3.010974272030333,1.06163063566808,1.244067311286926,-1.743320465087891,-0.5763112306594849,-0.4396086633205414,-0.05104285478591919,-0.2603960037231445,1,0.8583447337150574,-0.06994651257991791,-0.004435098730027676,0.5082637667655945,-0.06348887085914612,-0.8731514811515808,0.4832963943481445,0,0,0,-1,169397.89611225,3,1,1561841581.842611,1561841239.621676,19,2.442143,0,0,18.59878,0,0,1561841548.131042,169397.093805,0,0.4572754,75.18863,0,182478453,1,1,1,-36.78907,-45.06914,0
1561841584.010818,69,0,0,1561841582.995294,4.634689623494292,-74.1510658153092,2556.191,0.61,188.4375,4,10,-9999,1561841584.009166,-13.67896270751953,-1.691886901855469,25.93487548828125,141.5787200927734,149.0719299316406,15,169400.3084145,-0.1671600341796875,-0.563751220703125,0.299102783203125,169400.3084145,2.080497129928508,-1.885451472748849,0.07511925223564705,169400.2823225,-88.35667419433594,-28.53099060058594,-537.046875,169400.3033485,2.924650903731356,-3.069489609935938,1.029152251990761,1.94674026966095,-1.999893665313721,-0.08269058167934418,-0.1658017337322235,0.07916754484176636,-0.09271204471588135,1,0.8667433261871338,-0.07654249668121338,-0.02205472439527512,0.4923522174358368,-0.03714016452431679,-0.8568622469902039,0.5142055153846741,0,0,0,-1,169397.89611225,3,1,1561841581.842611,1561841239.621676,19,2.442143,0,0,18.59878,0,0,1561841548.131042,169397.093805,0,0.4572754,75.18863,0,182478453,1,1,1,-36.78907,-45.07009,0
1561841584.031089,70,0,0,1561841582.995294,4.634689623494292,-74.1510658153092,2556.191,0.61,188.4375,4,10,-9999,1561841584.009166,-13.67896270751953,-1.691886901855469,25.93487548828125,141.5787200927734,149.0719299316406,15,169400.3286785,-0.1158905029296875,-0.584808349609375,0.2910308837890625,169400.3286785,2.367280430862018,-1.169992446950734,0.202967762474318,169400.3024335,-87.09535217285156,-27.66969299316406,-536.416015625,169400.3236125,2.923597185350467,-3.104512318475912,0.9849497162156295,2.347948551177979,-1.442385315895081,0.2378602623939514,-0.09524071216583252,0.2790908217430115,-0.2695505619049072,1,0.8767392039299011,-0.08712506294250488,-0.03518511354923248,0.4716985821723938,-0.02049720101058483,-0.833244264125824,0.5525248050689697,0,0,0,-1,169397.89611225,3,1,1561841581.842611,1561841239.621676,19,2.442143,0,0,18.59878,0,0,1561841548.131042,169397.093805,0,0.4572754,75.18863,0,182478453,1,1,1,-36.78907,-45.39232,0
1561841584.051603,71,0,0,1561841583.99528,4.634678894658233,-74.15106631822339,2556.282,0.66,194.0625,4,10,-9999,1561841584.035656,-11.69696044921875,0.4976844787597656,26.82427978515625,144.1255035400391,151.6187133789062,15,169400.3489415,-0.1114654541015625,-0.59515380859375,0.3837432861328125,169400.3489415,2.126463556659385,0.1897283897472071,-0.05174814945743868,169400.3225135,-86.24610900878906,-26.53086853027344,-536.2074584960938,169400.3438765,2.921112193795155,-3.118815744602697,0.9376834393327278,2.221275091171265,-0.1480847746133804,0.01277601905167103,-0.0970139354467392,0.2108680009841919,-0.245113730430603,1,0.8871855735778809,-0.09302444010972977,-0.03961069136857986,0.4501990079879761,-0.01347495336085558,-0.8061896562576294,0.5915035605430603,0,0,0,-1,169397.89611225,3,1,1561841581.842611,1561841239.621676,19,2.442143,0,0,18.59878,0,0,1561841548.131042,169397.093805,0,0.4572754,75.18863,0,182478453,1,1,1,-36.78907,-45.65201,0
1561841584.071737,72,0,0,1561841583.99528,4.634678894658233,-74.15106631822339,2556.282,0.66,194.0625,4,10,-9999,1561841584.059845,-11.67981719970703,2.008186340332031,26.88214111328125,144.1303558349609,151.6235656738281,15,169400.3692055,-0.01788330078125,-0.6569061279296875,0.428619384765625,169400.3692055,1.639435309150054,1.206753124741534,-0.1445675692460794,169400.3426245,-85.97280883789062,-24.96028137207031,-535.768798828125,169400.3641395,2.926079501434748,-3.112738507805537,0.8971948536376175,1.75853168964386,1.043910145759583,-0.1647068858146667,-0.05489437282085419,0.1516210436820984,-0.2076669931411743,1,0.8964097499847412,-0.09067632257938385,-0.03371525928378105,0.4325397908687592,-0.01799686066806316,-0.7815801501274109,0.6235452890396118,0,0,0,-1,169397.89611225,3,1,1561841581.842611,1561841239.621676,19,2.442143,0,0,18.59878,0,0,1561841548.131042,169397.093805,0,0.4572754,75.18863,0,182478453,1,1,1,-34.19282,-45.76117,0
1561841584.091888,73,0,0,1561841583.99528,4.634678894658233,-74.15106631822339,2556.282,0.66,194.0625,4,10,-9999,1561841584.086373,-11.84913635253906,2.694175720214844,26.663330078125,142.0259246826172,149.5191345214844,15,169400.3894695,0.05181884765625,-0.684356689453125,0.55120849609375,169400.3894695,1.147276481800685,1.28950712719022,-0.214866766224792,169400.3627355,-86.0684814453125,-24.33323669433594,-535.8759765625,169400.3844035,2.933481349435735,-3.095340645499889,0.8674747705965268,1.205436587333679,1.158503890037537,-0.2369531244039536,0.04317817836999893,0.1124295592308044,-0.2050533294677734,1,0.9032614231109619,-0.0845591202378273,-0.0227712020277977,0.4200595319271088,-0.02990303188562393,-0.7626981735229492,0.6460629105567932,0,0,0,-1,169397.89611225,3,1,1561841581.842611,1561841239.621676,19,2.442143,0,0,18.59878,0,0,1561841548.131042,169397.093805,0,0.4572754,75.18863,0,182478453,1,1,1,-34.19282,-45.76117,0
1561841584.11214,74,0,0,1561841583.99528,4.634678894658233,-74.15106631822339,2556.282,0.66,194.0625,4,10,-9999,1561841584.110413,-12.64588928222656,3.404546737670898,26.23260498046875,139.1918334960938,146.6850433349609,15,169400.4097335,0.0380096435546875,-0.5724334716796875,0.5478668212890625,169400.4097335,0.9806888313973948,1.829710445869054,-0.0465392726813527,169400.3828475,-87.00489807128906,-23.44096374511719,-536.3759155273438,169400.4046675,2.940637928262883,-3.072731847514762,0.8457219195661126,0.9881938099861145,1.641402840614319,-0.09064917266368866,0.09267464280128479,0.08489114046096802,-0.07366776466369629,1,0.9081985354423523,-0.07736366987228394,-0.00990606751292944,0.4112081825733185,-0.04563179612159729,-0.7484501004219055,0.6616194248199463,0,0,0,-1,169397.89611225,3,1,1561841581.842611,1561841239.621676,19,2.442143,0,0,18.59878,0,0,1561841548.131042,169397.093805,0,0.4572754,75.18863,0,182478453,1,1,1,-34.19282,-45.39967,0
1561841584.132373,75,0,0,1561841583.99528,4.634678894658233,-74.15106631822339,2556.282,0.66,194.0625,4,10,-9999,1561841584.110413,-12.64588928222656,3.404546737670898,26.23260498046875,139.1918334960938,146.6850433349609,15,169400.4299965,0.120880126953125,-0.5100250244140625,0.47882080078125,169400.4299965,1.100508976213913,2.328831308940108,0.1208345428757292,169400.4029275,-87.55143737792969,-22.72325134277344,-536.8096313476562,169400.4249005,2.94375484960492,-3.035305521627747,0.8257475207413161,1.043725490570068,2.249627590179443,0.05530377104878426,0.1480539739131927,0.2066887021064758,-0.148867130279541,1,0.9123117923736572,-0.06912221014499664,0.008847324177622795,0.403523176908493,-0.07192786037921906,-0.7350547909736633,0.6741814017295837,0,0,0,-1,169397.89611225,3,1,1561841581.842611,1561841239.621676,19,2.442143,0,0,18.59878,0,0,1561841548.131042,169397.093805,0,0.4572754,75.18863,0,182478453,1,1,1,-34.19282,-45.88358,0
1561841584.152988,76,0,0,1561841583.99528,4.634678894658233,-74.15106631822339,2556.282,0.66,194.0625,4,10,-9999,1561841584.136845,-14.83213043212891,4.785398483276367,25.052001953125,134.8660125732422,142.3592224121094,15,169400.4502295,0.11138916015625,-0.508575439453125,0.485565185546875,169400.4502295,1.401741523957757,1.864172016690788,0.1747856591868815,169400.4230385,-88.92448425292969,-22.11006164550781,-537.8214111328125,169400.4451635,2.943478741742619,-2.989553298870182,0.8020522883939756,1.297490119934082,2.033563375473022,0.208605170249939,0.2511394917964935,0.2169839143753052,-0.2346218824386597,1,0.9164336323738098,-0.06128443777561188,0.0310846846550703,0.3942426443099976,-0.1052959784865379,-0.7187844514846802,0.6872127652168274,0,0,0,-1,169397.89611225,3,1,1561841581.842611,1561841239.621676,19,2.442143,0,0,18.59878,0,0,1561841548.131042,169398.037245,0,0.5021973,75.18821,0,182478453,1,1,1,-34.19282,-45.91593,0
1561841584.172932,77,0,0,1561841583.99528,4.634678894658233,-74.15106631822339,2556.282,0.66,194.0625,4,10,-9999,1561841584.161097,-15.60809326171875,5.79163932800293,24.140869140625,130.5453186035156,138.0385284423828,15,169400.4704935,-0.06329345703125,-0.6107177734375,0.6811065673828125,169400.4704935,1.546351970097386,1.273924971652167,-0.196279499712693,169400.4431195,-89.88908386230469,-21.07875061035156,-538.364501953125,169400.4654275,2.94787023251383,-2.957581911877984,0.77278223859338,1.517923355102539,1.41576361656189,-0.08583337813615799,0.1793745458126068,0.1364386677742004,-0.1057548522949219,1,0.9213824272155762,-0.05474017933011055,0.04841244593262672,0.381725400686264,-0.1310041844844818,-0.6981299519538879,0.7038841247558594,0,0,0,-1,169397.89611225,3,1,1561841581.842611,1561841239.621676,19,2.442143,0,0,18.59878,0,0,1561841548.131042,169398.037245,0,0.5021973,75.18821,0,182478453,1,1,1,-34.19282,-45.54097,0
1561841584.193158,78,0,0,1561841583.99528,4.634678894658233,-74.15106631822339,2556.282,0.66,194.0625,4,10,-9999,1561841584.187381,-16.51080322265625,6.363851547241211,23.56072998046875,21.32917404174805,28.82238006591797,15,169400.4907575,-0.1318206787109375,-0.679107666015625,0.866058349609375,169400.4907575,1.364129699882568,1.070098339726298,-0.0403852400343976,169400.4632305,-90.55831909179688,-20.44483947753906,-539.1099853515625,169400.4856915,2.962040787629993,-2.942678049021621,0.7427240811400168,1.497471928596497,1.102609992027283,-0.1760615408420563,-0.04308244585990906,0.00314033031463623,0.09421050548553467,1,0.926725447177887,-0.0472441092133522,0.05977856740355492,0.3679328262805939,-0.1455619633197784,-0.6762970685958862,0.7221041321754456,0,0,0,-1,169397.89611225,3,1,1561841581.842611,1561841239.621676,19,2.442143,0,0,18.59878,0,0,1561841548.131042,169398.037245,0,0.5021973,75.18821,0,182478453,1,1,1,-34.19282,-45.63998,0
1561841584.213423,79,0,0,1561841583.99528,4.634678894658233,-74.15106631822339,2556.282,0.66,194.0625,4,10,-9999,1561841584.211741,-16.99905395507812,7.086931228637695,22.982177734375,21.64302825927734,29.13623428344727,15,169400.5110205,-0.22314453125,-0.546356201171875,0.90704345703125,169400.5110205,0.9731491560352715,0.702475050219542,0.2501355411729294,169400.4833415,-91.23377990722656,-19.94053649902344,-539.5030517578125,169400.5059545,2.967103924892341,-2.926141807215187,0.7179767299163261,1.011555552482605,0.8087317943572998,0.2396738827228546,-0.0008076131343841553,0.07593774795532227,0.09621381759643555,1,0.9305765628814697,-0.04347624257206917,0.06984540075063705,0.3567333817481995,-0.1610118448734283,-0.6578622460365295,0.7357258200645447,0,0,0,-1,169397.89611225,3,1,1561841581.842611,1561841239.621676,19,2.442143,0,0,18.59878,0,0,1561841548.131042,169398.037245,0,0.5021973,75.18821,0,182478453,1,1,1,-34.19282,-40.93066,0
1561841584.235368,80,0,0,1561841583.99528,4.634678894658233,-74.15106631822339,2556.282,0.66,194.0625,4,10,-9999,1561841584.211741,-16.99905395507812,7.086931228637695,22.982177734375,21.64302825927734,29.13623428344727,15,169400.5312845,-0.39556884765625,-0.58514404296875,1.085067749023438,169400.5312845,0.9658121472321032,0.4428139144596173,0.06760940427773261,169400.5034215,-91.58946228027344,-19.11839294433594,-540.3305053710938,169400.5262185,2.967456438499413,-2.914062350042694,0.697812888123429,0.9677202105522156,0.4408677220344543,0.1254642158746719,-0.1405404508113861,0.06013059616088867,0.2465720176696777,1,0.9335103631019592,-0.04252833873033524,0.07673967629671097,0.3476504385471344,-0.1728445589542389,-0.6425433754920959,0.7465004920959473,0,0,0,-1,169397.89611225,3,1,1561841581.842611,1561841239.621676,19,2.442143,0,0,18.59878,0,0,1561841548.131042,169398.037245,0,0.5021973,75.18821,0,182478453,1,1,1,-32.57019,-41.12344,0
1561841584.253984,81,0,0,1561841583.99528,4.634678894658233,-74.15106631822339,2556.282,0.66,194.0625,4,10,-9999,1561841584.238544,-17.65739440917969,8.078018188476562,22.281005859375,21.76755905151367,29.26076316833496,15,169400.5515485,-0.448455810546875,-0.53448486328125,1.239288330078125,169400.5515485,0.450636151213398,0.4369664116541302,-0.2424328803520932,169400.5235335,-91.90193176269531,-18.43292236328125,-540.4346923828125,169400.5464825,2.972910294900581,-2.908172538252942,0.6804934855652786,0.6609184741973877,0.4896032810211182,-0.1515149176120758,-0.261422336101532,0.06255680322647095,0.4228783845901489,1,0.9362049698829651,-0.04014967381954193,0.08145783096551895,0.3395184278488159,-0.1797855645418167,-0.6291766762733459,0.7561835050582886,0,0,0,-1,169397.89611225,3,1,1561841581.842611,1561841239.621676,19,2.442143,0,0,18.59878,0,0,1561841548.131042,169398.037245,0,0.5021973,75.18821,0,182478453,1,1,1,-32.57019,-41.12344,0
1561841584.274217,82,0,0,1561841583.99528,4.634678894658233,-74.15106631822339,2556.282,0.66,194.0625,4,10,-9999,1561841584.262351,-17.74932098388672,8.117982864379883,21.7994384765625,22.3519287109375,29.84513282775879,15,169400.5718115,-0.382171630859375,-0.5042877197265625,1.339645385742188,169400.5718115,-0.6906562076178794,0.960660794735563,-0.4363901035942371,169400.5436445,-91.99081420898438,-18.29508972167969,-541.16455078125,169400.5667455,2.982468759618447,-2.903319378748054,0.6783892551188595,-0.3673336505889893,0.7497049570083618,-0.4570524394512177,-0.2386740744113922,0.1140509247779846,0.5633741617202759,1,0.9365195631980896,-0.03499709442257881,0.08547136187553406,0.3382322490215302,-0.1837655007839203,-0.6275397539138794,0.7565873861312866,0,0,0,-1,169397.89611225,3,1,1561841581.842611,1561841239.621676,19,2.442143,0,0,18.59878,0,0,1561841548.131042,169398.037245,0,0.5021973,75.18821,0,182478453,1,1,1,-32.57019,-41.50589,0
1561841584.294468,83,0,0,1561841583.99528,4.634678894658233,-74.15106631822339,2556.282,0.66,194.0625,4,10,-9999,1561841584.28871,-18.07342529296875,8.071220397949219,21.52008056640625,22.63742446899414,30.13062858581543,15,169400.5920755,-0.3719329833984375,-0.3047027587890625,1.060577392578125,169400.5920755,-1.694123854767049,2.377109093181064,0.1210923368692489,169400.5637245,-92.56965637207031,-18.389892578125,-541.1219482421875,169400.5869795,2.983999435887992,-2.877304658873729,0.6991415918118361,-1.518857359886169,2.062785148620605,-0.03859582543373108,-0.1805093139410019,0.2300324440002441,0.4979205131530762,1,0.9319912195205688,-0.02832266129553318,0.0966823548078537,0.3481993675231934,-0.1999380737543106,-0.6435608863830566,0.7388195991516113,0,0,0,-1,169397.89611225,3,1,1561841581.842611,1561841239.621676,19,2.442143,0,0,18.59878,0,0,1561841548.131042,169398.037245,0,0.5021973,75.18821,0,182478453,1,1,1,-32.57019,-41.56641,0
1561841584.314709,84,0,0,1561841583.99528,4.634678894658233,-74.15106631822339,2556.282,0.66,194.0625,4,10,-9999,1561841584.313556,-19.16321563720703,7.48820686340332,21.1307373046875,21.07394027709961,28.5671443939209,15,169400.6123085,-0.1891326904296875,-0.2640228271484375,0.7614593505859375,169400.6123085,-1.684216096563627,2.744838376499205,0.6615007189520189,169400.5838355,-93.16273498535156,-18.59306335449219,-541.3538818359375,169400.6072425,2.963359709358799,-2.812502191019693,0.7313046876204495,-1.783237099647522,2.765680074691772,0.557306706905365,-0.03885774314403534,0.4200538396835327,0.1618489027023315,1,0.9228333830833435,-0.02365529164671898,0.1209753751754761,0.3649438321590424,-0.240545928478241,-0.6678413152694702,0.7043620347976685,0,0,0,-1,169397.89611225,3,1,1561841581.842611,1561841239.621676,19,2.442143,0,0,18.59878,0,0,1561841548.131042,169398.037245,0,0.5021973,75.18821,0,182478453,1,1,1,-32.57019,-42.13457,0
1561841584.335283,85,0,0,1561841583.99528,4.634678894658233,-74.15106631822339,2556.282,0.66,194.0625,4,10,-9999,1561841584.313556,-19.16321563720703,7.48820686340332,21.1307373046875,21.07394027709961,28.5671443939209,15,169400.6325725,-0.0926971435546875,-0.3104705810546875,0.63970947265625,169400.6325725,-1.486484641424623,2.467947387434795,0.7699385132695383,169400.6039465,-93.86691284179688,-19.28497314453125,-542.1775512695312,169400.6275065,2.929287411861806,-2.73555791659339,0.7562652071985719,-1.463533163070679,2.519593000411987,0.786387026309967,0.1646674275398254,0.3950108289718628,0.03271198272705078,1,0.9130321741104126,-0.02242777869105339,0.148014023900032,0.3794218897819519,-0.2873023152351379,-0.6862095594406128,0.6682615280151367,0,0,0,-1,169397.89611225,3,1,1561841581.842611,1561841239.621676,19,2.442143,0,0,18.59878,0,0,1561841548.131042,169398.037245,0,0.5021973,75.18821,0,182478453,1,1,1,-32.57019,-42.71094,0
1561841584.35532,86,0,0,1561841583.99528,4.634678894658233,-74.15106631822339,2556.282,0.66,194.0625,4,10,-9999,1561841584.33926,-20.83035278320312,6.704732894897461,19.6044921875,112.4633483886719,119.9565505981445,15,169400.6528365,-0.0076751708984375,-0.4490966796875,0.5913238525390625,169400.6528365,-1.924834831581159,2.329857957540333,0.4334124231794195,169400.6240575,-94.86192321777344,-19.70469665527344,-543.27978515625,169400.6477705,2.892109256446067,-2.660656126344484,0.7792367040155669,-1.80130398273468,2.34318208694458,0.5458407402038574,0.2845223248004913,0.3275076746940613,-0.0184553861618042,1,0.9027110934257507,-0.02202441915869713,0.1726979613304138,0.3934502005577087,-0.3291237652301788,-0.7027365565299988,0.6307448148727417,0,0,0,-1,169397.89611225,3,1,1561841581.842611,1561841239.621676,19,2.442143,0,0,18.59878,0,0,1561841548.131042,169398.037245,0,0.5021973,75.18821,0,182478453,6,1,1,-32.57019,-38.63416,0
1561841584.375552,87,0,0,1561841583.99528,4.634678894658233,-74.15106631822339,2556.282,0.66,194.0625,4,10,-9999,1561841584.363667,-21.80805969238281,6.390110015869141,18.58953857421875,109.953742980957,117.4469451904297,15,169400.6730995,-0.0255126953125,-0.506500244140625,0.5209808349609375,169400.6730995,-2.448620028455763,2.440229739441468,0.3022051341739406,169400.6441385,-96.00326538085938,-19.95864868164062,-543.9794921875,169400.6680335,2.852953487877866,-2.585685681284879,0.8116860767462394,-2.331248044967651,2.340978145599365,0.2999574840068817,0.3481372892856598,0.2285156846046448,-0.02059602737426758,1,0.8899011015892029,-0.01986461877822876,0.1948792338371277,0.4119508862495422,-0.3632129728794098,-0.7254486680030823,0.5846371650695801,0,0,0,-1,169397.89611225,3,1,1561841581.842611,1561841239.621676,19,2.442143,0,0,18.59878,0,0,1561841548.131042,169398.037245,0,0.5021973,75.18821,0,182478453,6,1,1,-32.57019,-38.64845,0
1561841584.396015,88,0,0,1561841583.99528,4.634678894658233,-74.15106631822339,2556.282,0.66,194.0625,4,10,-9999,1561841584.390358,-22.52531433105469,5.592857360839844,17.72454833984375,107.9340972900391,115.4272994995117,15,169400.6933635,-0.107208251953125,-0.447509765625,0.422607421875,169400.6933635,-2.692551735869352,3.322933417483796,0.5027371695152721,169400.6642495,-96.87171936035156,-20.6787109375,-544.85400390625,169400.6882975,2.801325216151755,-2.494399263900795,0.8499088756331526,-2.662123680114746,3.033307790756226,0.4579828083515167,0.3514845073223114,0.2830043435096741,-0.05645227432250977,1,0.8734971284866333,-0.0170455276966095,0.2193325608968735,0.4342873692512512,-0.3979780375957489,-0.7512202858924866,0.5265755653381348,0,0,0,-1,169397.89611225,3,1,1561841581.842611,1561841239.621676,19,2.442143,0,0,18.59878,0,0,1561841548.131042,169398.037245,0,0.5021973,75.18821,0,182478453,6,1,1,-32.57019,-39.5475,0
1561841584.416004,89,0,0,1561841583.99528,4.634678894658233,-74.15106631822339,2556.282,0.66,194.0625,4,10,-9999,1561841584.4143,-23.53294372558594,5.033439636230469,16.58978271484375,104.7910690307617,112.2842712402344,15,169400.7136275,-0.24066162109375,-0.49981689453125,0.378509521484375,169400.7136275,-2.924859810389183,4.379869882470704,0.1065560046912694,169400.7044715,-98.78114318847656,-21.84944152832031,-547.3587036132812,169400.7085615,2.735485289513592,-2.371131554811718,0.8865346489475076,-2.841449737548828,4.166771411895752,0.2117200046777725,0.2799282371997833,0.3396289944648743,-0.07007479667663574,1,0.8524519801139832,-0.01096534915268421,0.25232994556427,0.4577499628067017,-0.4402371048927307,-0.7748859524726868,0.4535892307758331,0,0,0,-1,169397.89611225,3,1,1561841581.842611,1561841239.621676,19,2.442143,0,0,18.59878,0,0,1561841548.131042,169398.037245,0,0.5021973,75.18821,0,182478453,6,1,1,-32.57019,-39.5475,0
1561841584.436335,90,0,0,1561841583.99528,4.634678894658233,-74.15106631822339,2556.282,0.66,194.0625,4,10,-9999,1561841584.4143,-23.53294372558594,5.033439636230469,16.58978271484375,104.7910690307617,112.2842712402344,15,169400.7338905,-0.4112701416015625,-0.61737060546875,0.245086669921875,169400.7338905,-3.303121895818587,4.410330053754595,0.5882920184823948,169400.7245525,-100.0803375244141,-22.56674194335938,-549.3524780273438,169400.7288245,2.656199233009253,-2.218998530563088,0.9240074785763071,-3.249575614929199,4.474698066711426,0.4632475972175598,0.09445583820343018,0.1676366925239563,-0.0339740514755249,1,0.8257840275764465,-5.035195499658585e-05,0.2908434271812439,0.4832088649272919,-0.4803963601589203,-0.7980230450630188,0.3638385236263275,0,0,0,-1,169397.89611225,3,1,1561841581.842611,1561841239.621676,19,2.442143,0,0,18.59878,0,0,1561841548.131042,169398.037245,0,0.5021973,75.18821,0,182478453,6,1,1,-32.57019,-40.00581,0
1561841584.456487,91,0,0,1561841583.99528,4.634678894658233,-74.15106631822339,2556.282,0.66,194.0625,4,10,-9999,1561841584.440446,-26.07315063476562,3.712335586547852,13.00738525390625,101.3095855712891,108.8027877807617,15,169400.7541545,-0.2027587890625,-0.5832977294921875,0.3472747802734375,169400.7541545,-2.774168568532575,4.075793078682656,0.4568309302250313,169400.7446635,-101.2071075439453,-23.33992004394531,-551.29248046875,169400.7490575,2.553989134989856,-2.048890184048302,0.9491361352063192,-2.93213939666748,4.178925514221191,0.4878544211387634,0.2506355047225952,0.2818611264228821,-0.003284573554992676,1,0.7961927652359009,0.007155834697186947,0.3292847275733948,0.5075404644012451,-0.5170844793319702,-0.8129127025604248,0.2679482400417328,0,0,0,-1,169397.89611225,3,1,1561841581.842611,1561841239.621676,19,2.442143,0,0,18.59878,0,0,1561841548.131042,169398.037245,0,0.5021973,75.18821,0,182478453,6,1,1,-32.57019,-40.08307,0
1561841584.476763,92,0,0,1561841583.99528,4.634678894658233,-74.15106631822339,2556.282,0.66,194.0625,4,10,-9999,1561841584.467316,-27.03704833984375,3.211360931396484,10.88519287109375,98.4017333984375,105.8949356079102,15,169400.7743875,-0.25067138671875,-0.68731689453125,0.2328338623046875,169400.7743875,-2.974132817929501,4.060962467204223,0.2513685847576361,169400.7647745,-102.044677734375,-23.525634765625,-553.1941528320312,169400.7693215,2.45890053164654,-1.889706474435453,0.9633415009710083,-2.809743881225586,3.98742413520813,0.2921275198459625,0.3109201788902283,0.1361669301986694,0.1251349449157715,1,0.7676222324371338,0.01532483194023371,0.3635703325271606,0.52757728099823,-0.5419992804527283,-0.8211033940315247,0.1789574772119522,0,0,0,-1,169397.89611225,3,1,1561841581.842611,1561841239.621676,19,2.442143,0,0,18.59878,0,0,1561841548.131042,169398.037245,0,0.5021973,75.18821,0,182478453,6,1,1,-32.57019,-40.20561,0
1561841584.496889,93,0,0,1561841583.99528,4.634678894658233,-74.15106631822339,2556.282,0.66,194.0625,4,10,-9999,1561841584.491266,-27.87802124023438,2.892780303955078,8.808349609375,95.96364593505859,103.4568481445312,15,169400.7946515,-0.297149658203125,-0.7078704833984375,0.0782928466796875,169400.7946515,-3.693025191004946,3.838516078200956,0.4723007003650836,169400.7848855,-102.8228759765625,-24.04331970214844,-555.4224853515625,169400.7895855,2.345427367405355,-1.714241904710069,0.9723604368623028,-3.592430591583252,3.957027196884155,0.3868316411972046,0.2840052247047424,0.1369782686233521,0.1072107553482056,1,0.7346727252006531,0.02286160178482533,0.3965785205364227,0.5499625205993652,-0.5575647950172424,-0.8262177705764771,0.08053333312273026,0,0,0,-1,169397.89611225,3,1,1561841581.842611,1561841239.621676,19,2.442143,0,0,18.59878,0,0,1561841548.131042,169398.037245,0,0.5021973,75.18821,0,182478453,6,1,1,-32.57019,-40.79062,0
1561841584.518512,94,0,0,1561841583.99528,4.634678894658233,-74.15106631822339,2556.282,0.66,194.0625,4,10,-9999,1561841584.515669,-28.47105407714844,2.507877349853516,6.92999267578125,94.67491149902344,102.1681137084961,15,169400.8149145,-0.3326873779296875,-0.7910308837890625,-0.0856475830078125,169400.8149145,-3.136221590303321,2.792433326236666,0.8550414237996744,169400.8049665,-103.3459014892578,-24.04209899902344,-557.31884765625,169400.8098485,2.215498106698655,-1.53441132793383,0.9645597446729338,-3.375020265579224,3.060991287231445,0.777503490447998,0.2581984400749207,0.09702092409133911,0.002629876136779785,1,0.699327826499939,0.02402462996542454,0.4267875850200653,0.5729010701179504,-0.5694013833999634,-0.8217981457710266,-0.02072681672871113,0,0,0,-1,169397.89611225,3,1,1561841581.842611,1561841239.621676,19,2.442143,0,0,18.59878,0,0,1561841548.131042,169398.037245,0,0.5021973,75.18821,0,182478453,6,1,1,-32.57019,-41.54793,0
1561841584.537651,95,0,0,1561841583.99528,4.634678894658233,-74.15106631822339,2556.282,0.66,194.0625,4,10,-9999,1561841584.515669,-28.47105407714844,2.507877349853516,6.92999267578125,94.67491149902344,102.1681137084961,15,169400.8351785,-0.3484649658203125,-0.879058837890625,-0.1424407958984375,169400.8351785,-2.28260762084793,2.224785067260129,0.8314266417817238,169400.8250775,-103.4148406982422,-23.9151611328125,-558.5757446289062,169400.8301125,2.118318933531283,-1.402337397195173,0.9411139636049624,-2.421909093856812,2.284228086471558,0.8709849715232849,0.2454383969306946,-0.03655773401260376,-0.03653424978256226,1,0.6709773540496826,0.02054117433726788,0.4506319463253021,0.5884711146354675,-0.5805518627166748,-0.8082146048545837,-0.09873490035533905,0,0,0,-1,169397.89611225,3,1,1561841581.842611,1561841239.621676,19,2.442143,0,0,18.59878,0,0,1561841548.131042,169398.037245,0,0.5021973,75.18821,0,182478453,6,1,1,-32.57019,-33.93314,0
1561841584.557714,96,0,0,1561841583.99528,4.634678894658233,-74.15106631822339,2556.282,0.66,194.0625,4,10,-9999,1561841584.541906,-29.04557037353516,2.928482055664062,3.80938720703125,94.01221466064453,101.5054168701172,15,169400.8554425,-0.4832763671875,-0.91278076171875,-0.1851959228515625,169400.8554425,-2.506890259422806,2.459754971289493,0.622647595492744,169400.8451885,-103.5002288818359,-23.44050598144531,-559.7257080078125,169400.8503765,2.048750786366216,-1.301279355195312,0.9156106378004013,-2.326514005661011,2.30021071434021,0.6874937415122986,0.2046043872833252,-0.108829140663147,0.006750404834747314,1,0.6469559669494629,0.01814508251845837,0.4707200527191162,0.5996175408363342,-0.5873100757598877,-0.792934775352478,-0.1622374653816223,0,0,0,-1,169397.89611225,3,1,1561841581.842611,1561841239.621676,19,2.442143,0,0,18.59878,0,0,1561841548.131042,169398.037245,0,0.5021973,75.18821,0,182478453,6,1,1,-32.57019,-34.54693,0
1561841584.578071,97,0,0,1561841583.99528,4.634678894658233,-74.15106631822339,2556.282,0.66,194.0625,4,10,-9999,1561841584.5663,-29.14459991455078,3.09355354309082,2.7369384765625,93.36687469482422,100.8600769042969,15,169400.8757055,-0.7748260498046875,-1.014801025390625,-0.333953857421875,169400.8757055,-3.48319819082702,2.207973330246786,0.3308698022508995,169400.8652995,-103.6592254638672,-23.36738586425781,-560.8489990234375,169400.8706395,1.969171985438622,-1.189212975594776,0.8864347554711672,-3.273992776870728,2.355670928955078,0.478288859128952,-0.02763950824737549,-0.1793245077133179,-0.01076805591583252,1,0.6180906295776367,0.0159797016531229,0.4904914796352386,0.6141065359115601,-0.5867099165916443,-0.7748228311538696,-0.2354172468185425,0,0,0,-1,169397.89611225,3,1,1561841581.842611,1561841239.621676,19,2.442143,0,0,18.59878,0,0,1561841548.131042,169398.037245,0,0.5021973,75.18821,0,182478453,6,1,1,-32.57019,-34.54693,0
1561841584.598423,98,0,0,1561841583.99528,4.634678894658233,-74.15106631822339,2556.282,0.66,194.0625,4,10,-9999,1561841584.592664,-29.24299621582031,3.380634307861328,1.41455078125,93.91765594482422,101.4108581542969,15,169400.8959695,-0.9978790283203125,-1.106216430664062,-0.384552001953125,169400.8959695,-3.594600349753907,1.890716808540044,-0.4058095574290752,169400.8853795,-103.5288543701172,-23.00022888183594,-561.9449462890625,169400.8909035,1.870286317256501,-1.072072540782008,0.8530948422326894,-3.637613534927368,1.839618444442749,-0.1986643224954605,-0.2702146768569946,-0.2803109884262085,-0.0601046085357666,1,0.5853346586227417,0.01017183531075716,0.5043790936470032,0.6347295641899109,-0.5775483846664429,-0.7533193230628967,-0.3145597279071808,0,0,0,-1,169397.89611225,3,1,1561841581.842611,1561841239.621676,19,2.442143,0,0,18.59878,0,0,1561841548.131042,169398.037245,0,0.5021973,75.18821,0,182478453,6,1,1,-21.96724,-29.28114,0
1561841584.618811,99,0,0,1561841583.99528,4.634678894658233,-74.15106631822339,2556.282,0.66,194.0625,4,10,-9999,1561841584.592664,-29.24299621582031,3.380634307861328,1.41455078125,93.91765594482422,101.4108581542969,15,169400.9162335,-0.9600372314453125,-0.9155731201171875,-0.4053802490234375,169400.9162335,-2.772033512286658,2.363617785414832,-1.372396684538391,169400.9054915,-103.5172729492188,-23.50163269042969,-563.0562744140625,169400.9111365,1.770519883390461,-0.9570384147163017,0.8280531737293959,-3.064268350601196,2.227156162261963,-1.188820362091064,-0.5097295641899109,-0.3280201554298401,-0.04622817039489746,1,0.5524041056632996,0.009548401460051537,0.5117999911308289,0.6578900814056396,-0.5528772473335266,-0.7366161346435547,-0.389517068862915,0,0,0,-1,169397.89611225,3,1,1561841581.842611,1561841239.621676,19,2.442143,0,0,18.59878,0,0,1561841548.131042,169398.037245,0,0.5021973,75.18821,0,182478453,6,1,1,-21.96724,-29.36266,0
1561841584.638946,100,0,0,1561841583.99528,4.634678894658233,-74.15106631822339,2556.282,0.66,194.0625,4,10,-9999,1561841584.622719,-29.26736450195312,3.466680526733398,0.53240966796875,94.5321044921875,102.0253067016602,15,169400.936482875,-0.7224273681640625,-0.748321533203125,-0.5481414794921875,169400.936482875,-2.335976570144791,2.465885301802746,-1.266316054101701,169400.925618875,-103.4553375244141,-23.93428039550781,-564.102783203125,169400.931416875,1.68327602723527,-0.8440382543313785,0.8177701140957033,-2.340375185012817,2.47550106048584,-1.390933275222778,-0.274169385433197,-0.04750740528106689,0.03563737869262695,1,0.5219238996505737,0.0200822725892067,0.5157266855239868,0.6791304349899292,-0.5110632181167603,-0.7296227216720581,-0.4543842971324921,0,0,0,-1,169397.89611225,3,1,1561841581.842611,1561841239.621676,19,2.442143,0,0,18.59878,0,0,1561841548.131042,169398.037245,0,0.5021973,75.18821,0,182478453,6,1,1,-21.96724,-29.91172,0
1561841584.659001,101,0,0,1561841583.99528,4.634678894658233,-74.15106631822339,2556.282,0.66,194.0625,4,10,-9999,1561841584.643169,-29.14485168457031,2.343603134155273,-1.70684814453125,93.58066558837891,101.0738677978516,15,169400.956746875,-0.331146240234375,-0.541351318359375,-0.6182708740234375,169400.956746875,-2.231090900089219,2.071826942683646,-0.5343486253384037,169400.945729875,-103.4403533935547,-24.60835266113281,-565.6918334960938,169400.951680875,1.610956912037861,-0.7425117807666779,0.8002570265334239,-2.386361598968506,2.282621383666992,-0.7653295993804932,-0.07951372861862183,0.08597385883331299,-0.08536267280578613,1,0.4924349784851074,0.03030684217810631,0.5210474133491516,0.696490466594696,-0.4709470868110657,-0.717535138130188,-0.5131785869598389,0,0,0,-1,169397.89611225,3,1,1561841581.842611,1561841239.621676,19,2.442143,0,0,18.59878,0,0,1561841548.131042,169398.037245,0,0.5021973,75.18821,0,182478453,6,1,1,-21.96724,-30.78943,0
1561841584.679389,102,0,0,1561841583.99528,4.634678894658233,-74.15106631822339,2556.282,0.66,194.0625,4,10,-9999,1561841584.667738,-29.19673156738281,1.722784042358398,-2.97796630859375,92.6663818359375,100.1595840454102,15,169400.977009875,-0.046875,-0.48199462890625,-0.596038818359375,169400.977009875,-1.638071504355824,0.8980120606203209,0.8404190715184854,169400.965809875,-103.4966735839844,-24.78846740722656,-566.77587890625,169400.971943875,1.568762982592714,-0.6778353337125756,0.7712658444564704,-1.732966423034668,1.096086263656616,0.5277815461158752,0.3447811901569366,0.2259283065795898,-0.02897703647613525,1,0.4687029719352722,0.03254413232207298,0.5287613272666931,0.70687335729599,-0.4496548473834991,-0.6970434188842773,-0.558516800403595,0,0,0,-1,169397.89611225,3,1,1561841581.842611,1561841239.621676,19,2.442143,0,0,18.59878,0,0,1561841548.131042,169398.037245,0,0.5021973,75.18821,0,182478453,6,1,1,-21.96724,-29.30278,0
1561841584.699686,103,0,0,1561841583.99528,4.634678894658233,-74.15106631822339,2556.282,0.66,194.0625,4,10,-9999,1561841584.693892,-28.91621398925781,2.137603759765625,-3.924560546875,92.86941528320312,100.3626174926758,15,169400.997273875,-0.1684112548828125,-0.4688262939453125,-0.5420989990234375,169400.997273875,-1.907207634642033,0.7907234203131708,1.806839218427454,169400.985920875,-103.2715454101562,-23.57902526855469,-567.2211303710938,169400.992207875,1.563596600840837,-0.6563884568452097,0.7309460914938053,-1.802292227745056,0.8208032846450806,1.603227257728577,0.3983345031738281,0.2224144339561462,0.01303064823150635,1,0.4521886110305786,0.02472632192075253,0.541151762008667,0.7085682153701782,-0.4543647468090057,-0.6675743460655212,-0.5898281335830688,0,0,0,-1,169397.89611225,3,1,1561841581.842611,1561841239.621676,19,2.442143,0,0,18.59878,0,0,1561841548.131042,169398.037245,0,0.5021973,75.18821,0,182478453,6,1,1,-21.96724,-27.90729,0
1561841584.719986,104,0,0,1561841583.99528,4.634678894658233,-74.15106631822339,2556.282,0.66,194.0625,4,10,-9999,1561841584.693892,-28.91621398925781,2.137603759765625,-3.924560546875,92.86941528320312,100.3626174926758,15,169401.017537875,-0.5742340087890625,-0.590087890625,-0.565277099609375,169401.017537875,-2.459746182857896,0.8176375926056205,1.331076941277485,169401.006031875,-102.8392028808594,-22.31930541992188,-567.3369750976562,169401.012471875,1.570218860065769,-0.6445703825897637,0.6766748691656408,-2.20429539680481,0.7614026069641113,1.765250086784363,0.2995321750640869,0.2145524024963379,0.1286742687225342,1,0.4338900446891785,0.01122486032545567,0.5581346750259399,0.7071769237518311,-0.4684622287750244,-0.6262040138244629,-0.6232268810272217,0,0,0,-1,169397.89611225,3,1,1561841581.842611,1561841239.621676,19,2.442143,0,0,18.59878,0,0,1561841548.131042,169398.037245,0,0.5021973,75.18821,0,182478453,6,1,1,-21.96724,-27.90729,0
1561841584.740123,105,0,0,1561841583.99528,4.634678894658233,-74.15106631822339,2556.282,0.66,194.0625,4,10,-9999,1561841584.71882,-28.50242614746094,4.325569152832031,-4.6588134765625,43.58484268188477,51.07804870605469,15,169401.037800875,-1.20538330078125,-1.115463256835938,-1.031951904296875,169401.037800875,-2.976982133979778,2.825260781413527,-1.412249824986991,169401.026143875,-102.410888671875,-21.44984436035156,-567.8217163085938,169401.032734875,1.540095086509325,-0.5986475153017377,0.6252698938461055,-3.170058965682983,2.616758584976196,-0.9875326156616211,-0.7945095300674438,-0.4184833168983459,-0.149363100528717,1,0.4063095152378082,0.003175653517246246,0.5678628087043762,0.7158452272415161,-0.456909567117691,-0.5853161215782166,-0.6698049902915955,0,0,0,-1,169397.89611225,3,1,1561841581.842611,1561841239.621676,19,2.442143,0,0,18.59878,0,0,1561841548.131042,169398.037245,0,0.5021973,75.18821,0,182478453,6,1,1,-21.96724,-28.63367,0
1561841584.760474,106,0,0,1561841583.99528,4.634678894658233,-74.15106631822339,2556.282,0.66,194.0625,4,10,-9999,1561841584.744684,-28.12167358398438,4.981281280517578,-5.3272705078125,47.02402114868164,54.51722717285156,15,169401.058064875,-0.5405426025390625,-0.5905914306640625,-0.96044921875,169401.058064875,-0.9339551479564664,1.21754824822017,-1.269645538096518,169401.046223875,-102.4478149414062,-21.8441162109375,-569.002197265625,169401.052998875,1.477427146414919,-0.5132487854199288,0.5988797240457886,-1.38577675819397,1.672364711761475,-1.488585233688354,-0.4996539950370789,-0.3359406590461731,-0.3498824834823608,1,0.3742503225803375,0.01281443331390619,0.5669503808021545,0.7337164282798767,-0.4055584073066711,-0.5637175440788269,-0.7195449471473694,0,0,0,-1,169397.89611225,3,1,1561841581.842611,1561841239.621676,19,2.442143,0,0,18.59878,0,0,1561841548.131042,169398.037245,0,0.5021973,75.18821,0,182478453,6,1,1,-21.96724,-29.52732,0
1561841584.792578,107,0,0,1561841583.99528,4.634678894658233,-74.15106631822339,2556.282,0.66,194.0625,4,10,-9999,1561841584.769066,-28.02191925048828,4.520231246948242,-6.4263916015625,50.24729537963867,57.74050140380859,15,169401.078328875,-0.19134521484375,-0.2991180419921875,-0.7682952880859375,169401.078328875,-0.9472216849266961,0.262457721220617,0.2655339385957676,169401.066334875,-102.3385925292969,-22.26312255859375,-569.4287719726562,169401.073231875,1.448524163850348,-0.4789919383986765,0.59283168937594,-0.7419087886810303,0.3480136692523956,-0.1374062895774841,0.09799957275390625,0.1325948238372803,-0.1299107670783997,1,0.3628497719764709,0.01809109002351761,0.5637041330337524,0.7417886853218079,-0.3822402954101562,-0.5587117671966553,-0.7360255122184753,0,0,0,-1,169397.89611225,3,1,1561841581.842611,1561841239.621676,19,2.442143,0,0,18.59878,0,0,1561841548.131042,169398.037245,0,0.5021973,75.18821,0,182478453,6,1,1,-21.96724,-30.22339,0
1561841584.802269,108,0,0,1561841583.99528,4.634678894658233,-74.15106631822339,2556.282,0.66,194.0625,4,10,-9999,1561841584.795332,-27.89668273925781,4.588918685913086,-6.57440185546875,50.61598205566406,58.10918807983398,15,169401.098561875,-0.3903656005859375,-0.3697509765625,-0.781280517578125,169401.098561875,-1.703441722789018,0.05135746372552406,1.057223553752419,169401.086415875,-102.0447387695312,-21.96737670898438,-569.5485229492188,169401.093495875,1.447058183729285,-0.4744110264494136,0.5666624048490251,-1.593091130256653,0.0458436906337738,1.01431667804718,0.1198798418045044,0.2944638133049011,0.02868878841400146,1,0.353019654750824,0.01079780235886574,0.5686048269271851,0.7429327964782715,-0.3854132890701294,-0.5368191003799438,-0.7505210638046265,0,0,0,-1,169397.89611225,3,1,1561841581.842611,1561841239.621676,19,2.442143,0,0,18.59878,0,0,1561841548.131042,169398.037245,0,0.5021973,75.18821,0,182478453,6,1,1,-21.96724,-30.22339,0
1561841584.821361,109,0,0,1561841583.99528,4.634678894658233,-74.15106631822339,2556.282,0.66,194.0625,4,10,-9999,1561841584.819838,-27.60233306884766,5.848972320556641,-6.19622802734375,50.51934814453125,58.01255416870117,15,169401.118824875,-0.6037445068359375,-0.75897216796875,-0.901519775390625,169401.118824875,-1.189344839644013,-0.06075309605132361,0.4411041650397864,169401.106526875,-101.7607574462891,-20.81785583496094,-569.0147094726562,169401.113759875,1.448970359316749,-0.4737258484742491,0.528122461112099,-1.476495027542114,0.09561577439308167,0.6625707745552063,-0.112756222486496,-0.08284896612167358,-0.06443536281585693,1,0.3401192128658295,-0.00147786911111325,0.5760512948036194,0.7432910799980164,-0.394049197435379,-0.5039125084877014,-0.7686334848403931,0,0,0,-1,169397.89611225,3,1,1561841581.842611,1561841239.621676,19,2.442143,0,0,18.59878,0,0,1561841548.131042,169398.037245,0,0.5021973,75.18821,0,182478453,6,1,1,-21.96724,-30.73057,0
1561841584.841577,110,0,0,1561841583.99528,4.634678894658233,-74.15106631822339,2556.282,0.66,194.0625,4,10,-9999,1561841584.819838,-27.60233306884766,5.848972320556641,-6.19622802734375,50.51934814453125,58.01255416870117,15,169401.139088875,-0.4215087890625,-0.8861541748046875,-0.662109375,169401.139088875,-0.127548371983819,-1.419754080306617,-0.03839772291287146,169401.126637875,-102.0657653808594,-20.5704345703125,-568.6880493164062,169401.134022875,1.445803931155923,-0.4815647895247174,0.5103327039943921,-0.22750623524189,-1.208744645118713,0.02048027701675892,-0.1190425455570221,-0.3651090860366821,-0.07287752628326416,1,0.3364666104316711,-0.01086474768817425,0.5765405893325806,0.744495153427124,-0.4041508138179779,-0.4884675741195679,-0.7733443379402161,0,0,0,-1,169397.89611225,3,1,1561841581.842611,1561841239.621676,19,2.442143,0,0,18.59878,0,0,1561841548.131042,169398.037245,0,0.5021973,75.18821,0,182478453,6,1,1,-21.96724,-31.55231,0
1561841584.873662,111,0,0,1561841583.99528,4.634678894658233,-74.15106631822339,2556.282,0.66,194.0625,4,10,-9999,1561841584.87035,-27.60311889648438,5.96038818359375,-4.65557861328125,51.11507034301758,58.6082763671875,15,169401.159352875,-0.3055419921875,-0.74493408203125,-0.582000732421875,169401.159352875,-0.9446615881708029,-1.472407171902464,0.2569942462443194,169401.146748875,-101.9039001464844,-20.82820129394531,-567.82275390625,169401.154286875,1.441769460312449,-0.5088408478817649,0.5049557818985122,-0.7117668986320496,-1.497849106788635,0.1087677925825119,0.01655974984169006,-0.3544270694255829,0.1638838052749634,1,0.3424749970436096,-0.02350138314068317,0.5713191032409668,0.7454884648323059,-0.4263650476932526,-0.4837687313556671,-0.7643170952796936,0,0,0,-1,169397.89611225,3,1,1561841581.842611,1561841239.621676,19,2.442143,0,0,18.59878,0,0,1561841548.131042,169398.037245,0,0.5021973,75.18821,0,182478453,6,1,1,-21.96724,-32.36999,0
1561841584.882032,112,0,0,1561841583.99528,4.634678894658233,-74.15106631822339,2556.282,0.66,194.0625,4,10,-9999,1561841584.87035,-27.60311889648438,5.96038818359375,-4.65557861328125,51.11507034301758,58.6082763671875,15,169401.179615875,-0.240264892578125,-0.7406463623046875,-0.4881134033203125,169401.179615875,-1.661304389073458,-1.466109594872754,0.8667848989424878,169401.166829875,-102.1960144042969,-20.01312255859375,-566.9082641601562,169401.174550875,1.436793391377553,-0.5354872111327492,0.4809800487785972,-1.51542854309082,-1.396255612373352,0.7187749147415161,0.1996661722660065,-0.2234631776809692,0.3045581579208374,1,0.3420406877994537,-0.04226371273398399,0.5690221190452576,0.7466161847114563,-0.452366977930069,-0.4626482427120209,-0.7624439001083374,0,0,0,-1,169397.89611225,3,1,1561841581.842611,1561841239.621676,19,2.442143,0,0,18.59878,0,0,1561841548.131042,169398.037245,0,0.5021973,75.18821,0,182478453,6,1,1,-21.96724,-32.36999,0
1561841584.903086,113,0,0,1561841583.99528,4.634678894658233,-74.15106631822339,2556.282,0.66,194.0625,4,10,-9999,1561841584.896565,-27.70164489746094,6.39155387878418,-3.568603515625,51.26066970825195,58.75387573242188,15,169401.199879875,-0.15582275390625,-0.76666259765625,-0.609893798828125,169401.199879875,-1.562312294510231,-1.762657375943039,1.291428331600603,169401.186940875,-101.7882537841797,-19.66009521484375,-565.4286499023438,169401.194813875,1.435468944836581,-0.5667700154404091,0.441578560024048,-1.677585244178772,-1.734270215034485,1.18144679069519,0.3276021480560303,-0.3269968926906586,0.2095392942428589,1,0.3378200531005859,-0.06722752749919891,0.5699920058250427,0.7459673285484314,-0.4854085445404053,-0.4273671507835388,-0.7627161145210266,0,0,0,-1,169397.89611225,3,1,1561841581.842611,1561841239.621676,19,2.442143,0,0,18.59878,0,0,1561841548.131042,169398.037245,0,0.5021973,75.18821,0,182478453,6,1,1,-21.96724,-33.17572,0
1561841584.922463,114,0,0,1561841583.99528,4.634678894658233,-74.15106631822339,2556.282,0.66,194.0625,4,10,-9999,1561841584.920843,-27.63510131835938,7.537448883056641,-0.70025634765625,50.63438034057617,58.12758636474609,15,169401.220143875,-0.156982421875,-0.8903656005859375,-0.81536865234375,169401.220143875,-1.005630400270423,-1.770848460507796,1.574833146375239,169401.207051875,-102.0544586181641,-19.11781311035156,-563.8397216796875,169401.215077875,1.443396630527549,-0.60591879544528,0.4022018504863688,-1.141280174255371,-1.787188053131104,1.523636221885681,0.369911253452301,-0.4512059390544891,0.03900957107543945,1,0.3362522721290588,-0.09349468350410461,0.5731284022331238,0.7414289712905884,-0.5240707993507385,-0.3914454281330109,-0.7563862800598145,0,0,0,-1,169397.89611225,3,1,1561841581.842611,1561841239.621676,19,2.442143,0,0,18.59878,0,0,1561841548.131042,169398.037245,0,0.5021973,75.18821,0,182478453,6,1,1,-21.96724,-33.66741,0
1561841584.953372,115,0,0,1561841583.99528,4.634678894658233,-74.15106631822339,2556.282,0.66,194.0625,4,10,-9999,1561841584.947663,-27.44093322753906,8.146020889282227,0.5201416015625,49.25882339477539,56.75202941894531,15,169401.240406875,-0.214141845703125,-0.865936279296875,-0.8695526123046875,169401.240406875,-0.506969465119626,-1.522246633806643,1.668886142380804,169401.227131875,-101.7559509277344,-18.47433471679688,-562.5741577148438,169401.235310875,1.460420545649361,-0.6471731915805585,0.3687378177039538,-0.6286149621009827,-1.601434350013733,1.658287763595581,0.3914315104484558,-0.5224809646606445,-0.1241198778152466,1,0.3379948735237122,-0.116945892572403,0.5782608389854431,0.7332786321640015,-0.5624062418937683,-0.3604383766651154,-0.7441662549972534,0,0,0,-1,169397.89611225,3,1,1561841581.842611,1561841239.621676,19,2.442143,0,0,18.59878,0,0,1561841548.131042,169398.037245,0,0.5021973,75.18821,0,182478453,6,1,1,-21.96724,-35.46335,0
1561841584.963093,116,0,0,1561841583.99528,4.634678894658233,-74.15106631822339,2556.282,0.66,194.0625,4,10,-9999,1561841584.947663,-27.44093322753906,8.146020889282227,0.5201416015625,49.25882339477539,56.75202941894531,15,169401.260640875,-0.34417724609375,-0.9202728271484375,-0.9315643310546875,169401.260640875,-0.1594221491743233,-1.030083545399531,1.416274926658537,169401.247242875,-101.8016204833984,-17.99861145019531,-561.8006591796875,169401.255574875,1.48258875755318,-0.6839274094641671,0.3418136831462815,-0.2324199825525284,-1.208721399307251,1.519238352775574,0.3041359186172485,-0.5393458604812622,-0.1599870324134827,1,0.34131920337677,-0.135546863079071,0.5848100185394287,0.7232741713523865,-0.595288872718811,-0.3351964056491852,-0.7302564978599548,0,0,0,-1,169397.89611225,3,1,1561841581.842611,1561841239.621676,19,2.442143,0,0,18.59878,0,0,1561841548.131042,169398.037245,0,0.5021973,75.18821,0,182478453,6,1,1,-21.96724,-35.46335,0
1561841584.983362,117,0,0,1561841583.99528,4.634678894658233,-74.15106631822339,2556.282,0.66,194.0625,4,10,-9999,1561841584.971772,-27.23876190185547,8.817258834838867,1.388427734375,47.71417236328125,55.20737838745117,15,169401.280903875,-0.4058380126953125,-0.91357421875,-0.983428955078125,169401.280903875,0.09849195291050948,-0.05180327689200333,0.9985812791810922,169401.267323875,-101.380126953125,-17.502685546875,-561.1419677734375,169401.275837875,1.502736124710634,-0.7068674328895633,0.3234311542406857,0.04138385877013206,-0.334033340215683,1.0928635597229,0.2481052875518799,-0.6263921856880188,-0.2344400882720947,1,0.3435806930065155,-0.1465109139680862,0.5913641452789307,0.7146854996681213,-0.6157810688018799,-0.3178216814994812,-0.7209737300872803,0,0,0,-1,169397.89611225,3,1,1561841581.842611,1561841239.621676,19,2.442143,0,0,18.59878,0,0,1561841548.131042,169398.037245,0,0.5021973,75.18821,0,182478453,6,1,1,-21.96724,-36.34512,0
1561841585.003827,118,0,0,1561841583.99528,4.634678894658233,-74.15106631822339,2556.282,0.66,194.0625,4,10,-9999,1561841584.997875,-27.28063201904297,9.010187149047852,1.7567138671875,46.46758651733398,53.96079254150391,15,169401.301167875,-0.4040374755859375,-0.7809906005859375,-1.018722534179688,169401.301167875,0.2983291695234393,1.101638156516106,0.8368176787763713,169401.287434875,-101.6247863769531,-16.95863342285156,-561.3201904296875,169401.296101875,1.51969804130379,-0.7071759629225801,0.3133874052963803,0.2344803512096405,0.839301586151123,0.8292592763900757,0.2024579048156738,-0.5580959320068359,-0.296601414680481,1,0.3417207598686218,-0.1471052020788193,0.599109947681427,0.7089812159538269,-0.6180462837219238,-0.3082828223705292,-0.723173975944519,0,0,0,-1,169397.89611225,3,1,1561841581.842611,1561841239.621676,19,2.442143,0,0,18.59878,0,0,1561841548.131042,169398.037245,0,0.5021973,75.18821,0,182478453,1,1,1,-21.96724,-37.07135,0
1561841585.037152,119,0,0,1561841583.99528,4.634678894658233,-74.15106631822339,2556.282,0.66,194.0625,4,10,-9999,1561841585.025355,-27.41325378417969,10.12775993347168,0.7738037109375,45.02973937988281,52.52294540405273,15,169401.321431875,-0.3959808349609375,-0.545928955078125,-0.9885711669921875,169401.321431875,0.7387228031843925,1.419689631808237,0.9357138995403547,169401.307515875,-101.6095581054688,-16.58563232421875,-561.7620849609375,169401.316365875,1.539251709473389,-0.6880231676087428,0.3082436873047011,0.6080142855644226,1.45532488822937,0.916199803352356,0.2114661931991577,-0.343480259180069,-0.2653259038925171,1,0.3356991410255432,-0.1387786418199539,0.61014723777771,0.7041072249412537,-0.6050819158554077,-0.3033855855464935,-0.7360931634902954,0,0,0,-1,169397.89611225,3,1,1561841581.842611,1561841239.621676,19,2.442143,0,0,18.59878,0,0,1561841548.131042,169398.037245,0,0.5021973,75.18821,0,182478453,1,1,1,-21.96724,-37.68636,0
1561841585.044282,120,0,0,1561841583.99528,4.634678894658233,-74.15106631822339,2556.282,0.66,194.0625,4,10,-9999,1561841585.025355,-27.41325378417969,10.12775993347168,0.7738037109375,45.02973937988281,52.52294540405273,15,169401.341694875,-0.4980926513671875,-0.4234771728515625,-0.94964599609375,169401.341694875,1.181096230799711,1.325989770963216,1.282890769778027,169401.327626875,-101.8851013183594,-16.25726318359375,-562.6038818359375,169401.336628875,1.567165107181203,-0.6687115774797449,0.3091697385533052,1.093071937561035,1.32044243812561,1.153282999992371,0.1500133275985718,-0.1959152817726135,-0.2195299863815308,1,0.3318915367126465,-0.127036452293396,0.6229915618896484,0.6968438029289246,-0.5905804038047791,-0.3042678534984589,-0.7474194765090942,0,0,0,-1,169397.89611225,3,1,1561841581.842611,1561841239.621676,19,2.442143,0,0,18.59878,0,0,1561841548.131042,169398.037245,0,0.5021973,75.18821,0,182478453,1,1,1,-21.96724,-37.68636,0
1561841585.064537,121,0,0,1561841584.995266,4.63466921356007,-74.15106656968048,2556.107,0.66,191.6015625,4,10,-9999,1561841585.058121,-27.59762573242188,10.59092617034912,-0.24688720703125,42.76887893676758,50.2620849609375,15,169401.361958875,-0.5540618896484375,-0.28497314453125,-0.9736175537109375,169401.361958875,1.356117846059173,1.361961886755243,1.749288307270841,169401.347737875,-101.6397247314453,-15.57856750488281,-563.5742797851562,169401.356892875,1.606627925451523,-0.6537043626948579,0.3114623417620313,1.31829047203064,1.368989706039429,1.632185935974121,0.05512917041778564,-0.02274215221405029,-0.2082096934318542,1,0.3302508592605591,-0.1145131438970566,0.6387366652488708,0.6854462623596191,-0.5788719058036804,-0.3064509332180023,-0.7556422352790833,0,0,0,-1,169397.89611225,3,1,1561841581.842611,1561841239.621676,19,2.442143,0,0,18.59878,0,0,1561841548.131042,169398.037245,0,0.5021973,75.18821,0,182478453,1,1,1,-21.96724,-37.05941,0
1561841585.085912,122,0,0,1561841584.995266,4.63466921356007,-74.15106656968048,2556.107,0.66,191.6015625,4,10,-9999,1561841585.058121,-27.59762573242188,10.59092617034912,-0.24688720703125,42.76887893676758,50.2620849609375,15,169401.382222875,-0.52978515625,-0.233642578125,-0.9302215576171875,169401.382222875,1.428682860493325,0.9425603540707305,1.947391007065802,169401.367817875,-101.4552001953125,-14.36894226074219,-564.8572387695312,169401.377156875,1.65515180014937,-0.6424120087506728,0.3116300751790602,1.417680144309998,1.127179145812988,1.922012090682983,-0.00109398365020752,0.0452122688293457,-0.1886245012283325,1,0.3292773365974426,-0.1026238426566124,0.6570198535919189,0.6703504323959351,-0.570271372795105,-0.3066106140613556,-0.7620895504951477,0,0,0,-1,169397.89611225,3,1,1561841581.842611,1561841239.621676,19,2.442143,0,0,18.59878,0,0,1561841548.131042,169398.037245,0,0.5021973,75.18821,0,182478453,1,1,1,-21.96724,-32.27546,0
1561841585.120972,123,0,0,1561841584.995266,4.63466921356007,-74.15106656968048,2556.107,0.66,191.6015625,4,10,-9999,1561841585.09979,-26.64238739013672,12.35270881652832,-2.34100341796875,35.86163711547852,43.35484313964844,15,169401.402485875,-0.51422119140625,-0.1742706298828125,-1.002532958984375,169401.402485875,1.543104511464144,0.1100079940962301,2.041648267526977,169401.387928875,-100.5085144042969,-13.0936279296875,-565.830078125,169401.397389875,1.706863499585048,-0.643989845216022,0.3114286905158257,1.500344395637512,0.2634817361831665,1.987763166427612,0.0587080717086792,0.105689525604248,-0.1866835355758667,1,0.332293838262558,-0.09466633945703506,0.6739006638526917,0.653052031993866,-0.5715101957321167,-0.3064189255237579,-0.761238157749176,0,0,0,-1,169397.89611225,3,1,1561841581.842611,1561841239.621676,19,2.442143,0,0,18.59878,0,0,1561841548.131042,169398.980925,0,0.9697266,75.1838,0,182478453,1,1,1,-21.96724,-32.85029,0
1561841585.125133,124,0,0,1561841584.995266,4.63466921356007,-74.15106656968048,2556.107,0.66,191.6015625,4,10,-9999,1561841585.09979,-26.64238739013672,12.35270881652832,-2.34100341796875,35.86163711547852,43.35484313964844,15,169401.422718875,-0.52020263671875,-0.0118560791015625,-1.126083374023438,169401.422718875,1.59713498997578,0.3547032297943457,2.479284197879153,169401.408040875,-99.90045166015625,-12.26887512207031,-566.4163818359375,169401.417653875,1.76311748931296,-0.6588102296641679,0.3103758785625209,1.565597772598267,0.2817398309707642,2.334166288375854,0.02932190895080566,0.1843380928039551,-0.3046470880508423,1,0.3396507203578949,-0.09037475287914276,0.6896665096282959,0.6331113576889038,-0.5829260349273682,-0.3054165840148926,-0.7529395818710327,0,0,0,-1,169397.89611225,3,1,1561841581.842611,1561841239.621676,19,2.442143,0,0,18.59878,0,0,1561841548.131042,169398.980925,0,0.9697266,75.1838,0,182478453,1,1,1,-21.96724,-32.85029,0
