loggingTime,loggingSample,identifierForVendor,deviceID,locationTimestamp_since1970,locationLatitude,locationLongitude,locationAltitude,locationSpeed,locationCourse,locationVerticalAccuracy,locationHorizontalAccuracy,locationFloor,locationHeadingTimestamp_since1970,locationHeadingX,locationHeadingY,locationHeadingZ,locationTrueHeading,locationMagneticHeading,locationHeadingAccuracy,accelerometerTimestamp_sinceReboot,accelerometerAccelerationX,accelerometerAccelerationY,accelerometerAccelerationZ,gyroTimestamp_sinceReboot,gyroRotationX,gyroRotationY,gyroRotationZ,magnetometerTimestamp_sinceReboot,magnetometerX,magnetometerY,magnetometerZ,motionTimestamp_sinceReboot,motionYaw,motionRoll,motionPitch,motionRotationRateX,motionRotationRateY,motionRotationRateZ,motionUserAccelerationX,motionUserAccelerationY,motionUserAccelerationZ,motionAttitudeReferenceFrame,motionQuaternionX,motionQuaternionY,motionQuaternionZ,motionQuaternionW,motionGravityX,motionGravityY,motionGravityZ,motionMagneticFieldX,motionMagneticFieldY,motionMagneticFieldZ,motionMagneticFieldCalibrationAccuracy,activityTimestamp_sinceReboot,activity,activityActivityConfidence,activityActivityStartDate,pedometerStartDate,pedometerNumberofSteps,pedometerAverageActivePace,pedometerCurrentPace,pedometerCurrentCadence,pedometerDistance,pedometerFloorAscended,pedometerFloorDescended,pedometerEndDate,altimeterTimestamp_sinceReboot,altimeterReset,altimeterRelativeAltitude,altimeterPressure,IP_en0,IP_pdp_ip0,deviceOrientation,batteryState,batteryLevel,avAudioRecorderPeakPower,avAudioRecorderAveragePower,label
1561841596.84224,1,0,0,1561841595.995109,4.634649851363744,-74.15101250640502,2555.78,0,170.5078125,4,30,-9999,1561841596.816598,-19.22383117675781,-18.64066314697266,14.0916748046875,137.3216552734375,144.8148651123047,15,169413.1330539167,-0.9192962646484375,0.31854248046875,-0.0938262939453125,169413.1330539167,-0.1320786753141528,0.1469332552423968,-0.003432015696785114,169413.1071439167,-93.6221923828125,-45.22024536132812,-548.8206787109375,169413.1279879167,-0.07616196180710609,-1.461629203503041,-0.2688344144866492,-0.1472162902355194,0.1373189389705658,-0.006638260558247566,0.04156363010406494,0.05287355184555054,0.01636821031570435,1,-0.1249005123972893,-0.6571767926216125,0.06129182875156403,0.7407846450805664,-0.9583421945571899,0.2656078934669495,-0.105037048459053,0,0,0,-1,169412.7992632917,3,1,1561841596.745762,1561841239.621676,19,2.442143,0,0,18.59878,0,0,1561841548.131042,169410.304888,0,0.3779297,75.18938,0,182478453,3,1,1,-35.43378,-41.40985,2
1561841596.855917,2,0,0,1561841595.995109,4.634649851363744,-74.15101250640502,2555.78,0,170.5078125,4,30,-9999,1561841596.849935,-19.3079833984375,-18.931396484375,13.83343505859375,137.7754516601562,145.2686614990234,15,169413.1533169167,-0.922576904296875,0.3094482421875,-0.09820556640625,169413.1533169167,-0.06241384330709702,0.1188275846782455,0.002691390597634078,169413.1272549167,-93.74783325195312,-45.20594787597656,-548.9816284179688,169413.1482509167,-0.07866338001943628,-1.459586988568325,-0.2691012139278284,-0.0842256098985672,0.1251056790351868,-0.004893623292446136,0.03717190027236938,0.04623818397521973,0.01296144723892212,1,-0.1258819103240967,-0.6562474370002747,0.06032546982169151,0.7415212988853455,-0.9580551385879517,0.2658651173114777,-0.1069860905408859,0,0,0,-1,169412.7992632917,3,1,1561841596.745762,1561841239.621676,19,2.442143,0,0,18.59878,0,0,1561841548.131042,169410.304888,0,0.3779297,75.18938,0,182478453,3,1,1,-35.43378,-41.40985,2
1561841596.880024,3,0,0,1561841595.995109,4.634649851363744,-74.15101250640502,2555.78,0,170.5078125,4,30,-9999,1561841596.876203,-19.50962829589844,-18.80103302001953,13.9443359375,137.8291931152344,145.3224029541016,15,169413.1735809167,-0.93023681640625,0.310211181640625,-0.095611572265625,169413.1735809167,0.01422926970429337,0.08608508434015733,0.04436586691573904,169413.1473659167,-93.82405090332031,-45.5089111328125,-548.8505859375,169413.1684839167,-0.0795377378893926,-1.457760030974084,-0.2695252384409473,-0.001099830493330956,0.09153174608945847,0.02990110591053963,0.03120189905166626,0.0434185266494751,0.00903785228729248,1,-0.1263793855905533,-0.6554895043373108,0.06002666428685188,0.7421311140060425,-0.9577460289001465,0.2662738561630249,-0.108723521232605,0,0,0,-1,169412.7992632917,3,1,1561841596.745762,1561841239.621676,19,2.442143,0,0,18.59878,0,0,1561841548.131042,169410.304888,0,0.3779297,75.18938,0,182478453,3,1,1,-35.43378,-42.16092,2
1561841596.896272,4,0,0,1561841595.995109,4.634649851363744,-74.15101250640502,2555.78,0,170.5078125,4,30,-9999,1561841596.876203,-19.50962829589844,-18.80103302001953,13.9443359375,137.8291931152344,145.3224029541016,15,169413.1938449167,-0.9279937744140625,0.305938720703125,-0.1006622314453125,169413.1938449167,0.03094699713115678,0.03816469631748953,0.08025542471397387,169413.1674769167,-93.954345703125,-45.66754150390625,-548.88525390625,169413.1887479167,-0.0790647472772413,-1.456347492299567,-0.2706633304582795,0.02665616571903229,0.0410589836537838,0.07189223170280457,0.0282280445098877,0.04192498326301575,0.01294994354248047,1,-0.1266853660345078,-0.6549274921417236,0.06049022451043129,0.7425374388694763,-0.9572899341583252,0.2673706710338593,-0.1100415959954262,0,0,0,-1,169412.7992632917,3,1,1561841596.745762,1561841239.621676,19,2.442143,0,0,18.59878,0,0,1561841548.131042,169410.304888,0,0.3779297,75.18938,0,182478453,3,1,1,-35.43378,-40.16433,2
1561841596.916621,5,0,0,1561841595.995109,4.634649851363744,-74.15101250640502,2555.78,0,170.5078125,4,30,-9999,1561841596.90166,-19.51139068603516,-18.80057525634766,13.82830810546875,137.7842559814453,145.2774658203125,15,169413.2140779167,-0.9398651123046875,0.297393798828125,-0.0925140380859375,169413.2140779167,0.02037637813241427,0.04176955116902079,0.082914591062418,169413.1875579167,-93.875,-45.21562194824219,-548.926025390625,169413.2090119167,-0.078337323127013,-1.4554683775799,-0.2723319424760521,0.02139615640044212,0.03917479515075684,0.08139306306838989,0.02379536628723145,0.03273385763168335,0.0156625509262085,1,-0.1270876675844193,-0.6545478701591492,0.06125744804739952,0.7427404522895813,-0.9567482471466064,0.2689781785011292,-0.110831618309021,0,0,0,-1,169412.7992632917,3,1,1561841596.745762,1561841239.621676,19,2.442143,0,0,18.59878,0,0,1561841548.131042,169410.304888,0,0.3779297,75.18938,0,182478453,3,1,1,-35.43378,-40.8482,2
1561841596.93745,6,0,0,1561841595.995109,4.634649851363744,-74.15101250640502,2555.78,0,170.5078125,4,30,-9999,1561841596.925098,-19.46260070800781,-18.64773559570312,13.8299560546875,137.7410888671875,145.2342987060547,15,169413.2343409167,-0.9416351318359375,0.2848358154296875,-0.0931854248046875,169413.2343409167,0.01763039273243356,0.02609817973444951,0.07007735565990904,169413.2076689167,-93.79985046386719,-45.27110290527344,-549.20947265625,169413.2292749167,-0.07785627054662657,-1.454694087924785,-0.2739299766251057,0.0112010445445776,0.02757326886057854,0.06920004636049271,0.0138663649559021,0.02144470810890198,0.01679587364196777,1,-0.1275420039892197,-0.6541955471038818,0.06191603094339371,0.7429183125495911,-0.9562339186668396,0.270516961812973,-0.1115224435925484,0,0,0,-1,169412.7992632917,3,1,1561841596.745762,1561841239.621676,19,2.442143,0,0,18.59878,0,0,1561841548.131042,169410.304888,0,0.3779297,75.18938,0,182478453,3,1,1,-35.43378,-41.64344,2
1561841596.963619,7,0,0,1561841595.995109,4.634649851363744,-74.15101250640502,2555.78,0,170.5078125,4,30,-9999,1561841596.956374,-19.26976013183594,-18.75254058837891,13.802978515625,137.7018737792969,145.1950836181641,15,169413.2546049167,-0.940582275390625,0.2838134765625,-0.0916290283203125,169413.2546049167,0.03161411898422163,0.01094212997080857,0.07130533923854458,169413.2277799167,-93.74252319335938,-45.31544494628906,-549.1619262695312,169413.2495389167,-0.07727574043122051,-1.454254800615207,-0.2753152858442242,0.02986251749098301,0.008182335644960403,0.06476482003927231,0.01568722724914551,0.009979486465454102,0.01926273107528687,1,-0.1278755366802216,-0.6539865732192993,0.06256218254566193,0.7429908514022827,-0.9558117389678955,0.2718503773212433,-0.1118988171219826,0,0,0,-1,169412.7992632917,3,1,1561841596.745762,1561841239.621676,19,2.442143,0,0,18.59878,0,0,1561841548.131042,169410.304888,0,0.3779297,75.18938,0,182478453,3,1,1,-35.43378,-42.05939,2
1561841596.977615,8,0,0,1561841595.995109,4.634649851363744,-74.15101250640502,2555.78,0,170.5078125,4,30,-9999,1561841596.956374,-19.26976013183594,-18.75254058837891,13.802978515625,137.7018737792969,145.1950836181641,15,169413.2748689167,-0.9468231201171875,0.2826080322265625,-0.0983428955078125,169413.2748689167,0.0008098672874930963,0.01516430556302019,0.09458296506249117,169413.2478609167,-93.83195495605469,-45.33226013183594,-548.8389892578125,169413.2698029167,-0.07662276927505189,-1.454015464468153,-0.2768724407399629,0.007504483219236135,0.004885875154286623,0.08614946901798248,0.01142418384552002,0.01067855954170227,0.01834338903427124,1,-0.1282425671815872,-0.6538461446762085,0.06330470740795135,0.7429883480072021,-0.955363392829895,0.2733485400676727,-0.1120781227946281,0,0,0,-1,169412.7992632917,3,1,1561841596.745762,1561841239.621676,19,2.442143,0,0,18.59878,0,0,1561841548.131042,169410.304888,0,0.3779297,75.18938,0,182478453,3,1,1,-35.43378,-42.05939,2
1561841596.99762,9,0,0,1561841595.995109,4.634649851363744,-74.15101250640502,2555.78,0,170.5078125,4,30,-9999,1561841596.956374,-19.26976013183594,-18.75254058837891,13.802978515625,137.7018737792969,145.1950836181641,15,169413.2951319167,-0.9520721435546875,0.280059814453125,-0.1004486083984375,169413.2951319167,-0.03664190080618222,0.03136271657731815,0.1117369182759096,169413.2679719167,-93.95841979980469,-45.08750915527344,-548.977783203125,169413.2900659167,-0.07662055896787799,-1.453764635928749,-0.2789718416419174,-0.02868361584842205,0.0208030566573143,0.1089778169989586,0.005879998207092285,0.004524588584899902,0.01320564746856689,1,-0.1290223449468613,-0.6536267995834351,0.06398396193981171,0.7429880499839783,-0.9547630548477173,0.2753673791885376,-0.1122504845261574,0,0,0,-1,169412.7992632917,3,1,1561841596.745762,1561841239.621676,19,2.442143,0,0,18.59878,0,0,1561841548.131042,169410.304888,0,0.3779297,75.18938,0,182478453,3,1,1,-35.43378,-42.43719,2
1561841597.018211,10,0,0,1561841595.995109,4.634649851363744,-74.15101250640502,2555.78,0,170.5078125,4,30,-9999,1561841597.002324,-19.53048706054688,-18.66663360595703,13.75653076171875,137.6748199462891,145.1680297851562,15,169413.3153959167,-0.9567413330078125,0.276580810546875,-0.10498046875,169413.3153959167,-0.05384991618972922,0.06315606630290212,0.09602746363775015,169413.2880829167,-93.77638244628906,-45.20809936523438,-548.921142578125,169413.3103299167,-0.07730596714995346,-1.453329600821736,-0.2812824459755218,-0.05549392104148865,0.05145257711410522,0.09920987486839294,-0.000311732292175293,0.003524750471115112,0.008114039897918701,1,-0.130110427737236,-0.6532807946205139,0.06446535140275955,0.7430610060691833,-0.9540797472000122,0.2775879204273224,-0.1125909611582756,0,0,0,-1,169412.7992632917,3,1,1561841596.745762,1561841239.621676,19,2.442143,0,0,18.59878,0,0,1561841548.131042,169410.304888,0,0.3779297,75.18938,0,182478453,3,1,1,-35.43378,-43.24753,2
1561841597.04738,11,0,0,1561841595.995109,4.634649851363744,-74.15101250640502,2555.78,0,170.5078125,4,30,-9999,1561841597.026539,-19.62592315673828,-18.56275939941406,13.72259521484375,137.7377166748047,145.2309265136719,15,169413.3356599167,-0.9575347900390625,0.2678680419921875,-0.1030426025390625,169413.3356599167,-0.03100984773288265,0.06788584039888283,0.05500173336118849,169413.3081629167,-93.92369079589844,-44.96397399902344,-549.1087646484375,169413.3305629167,-0.07820169939035955,-1.452395659747681,-0.2830693169035685,-0.04050831496715546,0.06587892770767212,0.05958843231201172,-0.003154397010803223,-0.007804512977600098,0.006520092487335205,1,-0.1310905516147614,-0.6527661681175232,0.06466224789619446,0.7433238625526428,-0.9534801244735718,0.2793041169643402,-0.113423191010952,0,0,0,-1,169412.7992632917,3,1,1561841596.745762,1561841239.621676,19,2.442143,0,0,18.59878,0,0,1561841548.131042,169410.304888,0,0.3779297,75.18938,0,182478453,3,1,1,-35.43378,-43.55569,2
1561841597.058219,12,0,0,1561841596.995095,4.634649851363744,-74.15101250640502,2555.727,0,108.28125,4,30,-9999,1561841597.026539,-19.62592315673828,-18.56275939941406,13.72259521484375,137.7377166748047,145.2309265136719,15,169413.3558929167,-0.9579925537109375,0.265380859375,-0.0994873046875,169413.3558929167,0.006222209570861132,0.01734623344412211,0.04152214350375243,169413.3282749167,-94.18962097167969,-44.85496520996094,-549.163330078125,169413.3508269167,-0.07856718283270858,-1.451541233744921,-0.2840838501685445,-0.001860523014329374,0.02571818605065346,0.03967011719942093,-0.005486607551574707,-0.01677411794662476,0.0123974084854126,1,-0.1316108554601669,-0.6523622870445251,0.06480550020933151,0.7435739636421204,-0.9531009793281555,0.2802781462669373,-0.1142040565609932,0,0,0,-1,169412.7992632917,3,1,1561841596.745762,1561841239.621676,19,2.442143,0,0,18.59878,0,0,1561841548.131042,169410.304888,0,0.3779297,75.18938,0,182478453,3,1,1,-35.43378,-39.87158,2
1561841597.078369,13,0,0,1561841596.995095,4.634649851363744,-74.15101250640502,2555.727,0,108.28125,4,30,-9999,1561841597.062915,-19.57669830322266,-18.43317413330078,13.69598388671875,137.77197265625,145.2651824951172,15,169413.3761569167,-0.95635986328125,0.2691497802734375,-0.103607177734375,169413.3761569167,-0.009802030708145644,0.002054096148778117,0.07161613013775682,169413.3483859167,-94.31060791015625,-44.93650817871094,-549.052001953125,169413.3710909167,-0.07841448633699216,-1.451439005475165,-0.2849643182397831,-0.003399563720449805,-0.003998430445790291,0.05604616180062294,-0.005316376686096191,-0.01212602853775024,0.01357930898666382,1,-0.1318884640932083,-0.6522801518440247,0.06514636427164078,0.7435671091079712,-0.9528440237045288,0.2811232209205627,-0.1142720729112625,0,0,0,-1,169412.7992632917,3,1,1561841596.745762,1561841239.621676,19,2.442143,0,0,18.59878,0,0,1561841548.131042,169410.304888,0,0.3779297,75.18938,0,182478453,3,1,1,-35.43378,-40.80732,2
1561841597.099287,14,0,0,1561841596.995095,4.634649851363744,-74.15101250640502,2555.727,0,108.28125,4,30,-9999,1561841597.062915,-19.57669830322266,-18.43317413330078,13.69598388671875,137.77197265625,145.2651824951172,15,169413.3964199167,-0.9526214599609375,0.269500732421875,-0.1134033203125,169413.3964199167,-0.03690848323129915,0.00417530395702623,0.112390724323524,169413.3684659167,-94.03953552246094,-44.85765075683594,-548.9547119140625,169413.3913539167,-0.07868236831037669,-1.451639673998095,-0.2866103135521262,-0.03736205771565437,-0.005340396892279387,0.1015092507004738,-0.0009171962738037109,-0.01340007781982422,0.007168352603912354,1,-0.1325750648975372,-0.6522353887557983,0.06560374051332474,0.74344402551651,-0.9524061679840088,0.2827024459838867,-0.1140256971120834,0,0,0,-1,169412.7992632917,3,1,1561841596.745762,1561841239.621676,19,2.442143,0,0,18.59878,0,0,1561841548.131042,169410.304888,0,0.3779297,75.18938,0,182478453,3,1,1,-35.43378,-38.8269,2
1561841597.11905,15,0,0,1561841596.995095,4.634649851363744,-74.15101250640502,2555.727,0,108.28125,4,30,-9999,1561841597.103072,-19.77662658691406,-18.49425888061523,13.95361328125,137.7908935546875,145.2841033935547,15,169413.4166839167,-0.9593353271484375,0.2715606689453125,-0.1176910400390625,169413.4166839167,-0.004312190437056302,0.05107490233386665,0.1033226608118042,169413.3885769167,-93.9854736328125,-45.11459350585938,-549.0281982421875,169413.4116179167,-0.07910498809934685,-1.451575772302622,-0.2888814670627888,-0.01699153892695904,0.0354485772550106,0.1104883626103401,-0.003746509552001953,-0.01563888788223267,-0.00307077169418335,1,-0.1335506588220596,-0.6520423889160156,0.06619256734848022,0.743386447429657,-0.9517588019371033,0.2848802208900452,-0.1140098869800568,0,0,0,-1,169412.7992632917,3,1,1561841596.745762,1561841239.621676,19,2.442143,0,0,18.59878,0,0,1561841548.131042,169410.304888,0,0.3779297,75.18938,0,182478453,3,1,1,-35.43378,-38.8269,2
1561841597.13933,16,0,0,1561841596.995095,4.634649851363744,-74.15101250640502,2555.727,0,108.28125,4,30,-9999,1561841597.127938,-19.86344146728516,-18.28493881225586,13.80194091796875,137.7910461425781,145.2842559814453,15,169413.4369479167,-0.9646759033203125,0.2735748291015625,-0.1179046630859375,169413.4369479167,0.04643221360553152,0.06799263315859501,0.04497253501205909,169413.4086879167,-94.18556213378906,-44.95150756835938,-549.064453125,169413.4318819167,-0.07874519945392416,-1.450389208801706,-0.2904771386677922,0.03414914384484291,0.06903769820928574,0.05308765545487404,-0.01219314336776733,-0.0110187828540802,-0.003110170364379883,1,-0.1340600401163101,-0.6515256762504578,0.06677374243736267,0.743695855140686,-0.9511705040931702,0.2864094078540802,-0.1150843948125839,0,0,0,-1,169412.7992632917,3,1,1561841596.745762,1561841239.621676,19,2.442143,0,0,18.59878,0,0,1561841548.131042,169410.304888,0,0.3779297,75.18938,0,182478453,3,1,1,-35.43378,-39.10426,2
1561841597.159537,17,0,0,1561841596.995095,4.634649851363744,-74.15101250640502,2555.727,0,108.28125,4,30,-9999,1561841597.153884,-19.85597229003906,-18.38790130615234,13.82830810546875,137.7116241455078,145.204833984375,15,169413.4572109167,-0.9590606689453125,0.27001953125,-0.1146392822265625,169413.4572109167,0.07171972710416091,0.03903927841947155,0.02802231362203176,169413.4287989167,-94.45262145996094,-44.77862548828125,-549.2999877929688,169413.4521449167,-0.07752060633761956,-1.448939471269057,-0.2909930003541681,0.0683225616812706,0.04145613685250282,0.02571222744882107,-0.01026463508605957,-0.01755547523498535,-0.0005744099617004395,1,-0.1338997930288315,-0.651036262512207,0.06730227172374725,0.7441056370735168,-0.9508559703826904,0.2869036197662354,-0.1164452582597733,0,0,0,-1,169413.4544039167,3,2,1561841597.400903,1561841239.621676,19,2.442143,0,0,18.59878,0,0,1561841548.131042,169410.304888,0,0.3779297,75.18938,0,182478453,3,1,1,-35.43378,-39.22912,2
1561841597.179952,18,0,0,1561841596.995095,4.634649851363744,-74.15101250640502,2555.727,0,108.28125,4,30,-9999,1561841597.178295,-19.88544464111328,-18.29896926879883,13.681884765625,137.6187896728516,145.1119995117188,15,169413.4774749167,-0.96612548828125,0.2711639404296875,-0.1109466552734375,169413.4774749167,0.0385031840920386,0.04728815357988299,0.0320668563695351,169413.4488799167,-94.34695434570312,-44.96627807617188,-549.1370239257812,169413.4724089167,-0.07616795455399963,-1.447947014950232,-0.2913163129135983,0.04625800624489784,0.03367144986987114,0.0276560690253973,-0.01088476181030273,-0.01578998565673828,0.003318071365356445,1,-0.1336122304201126,-0.6507372856140137,0.06784581393003464,0.7443694472312927,-0.9506478309631348,0.2872133255004883,-0.1173775121569633,0,0,0,-1,169413.4544039167,3,2,1561841597.400903,1561841239.621676,19,2.442143,0,0,18.59878,0,0,1561841548.131042,169410.304888,0,0.3779297,75.18938,0,182478453,3,1,1,-35.43378,-39.46819,2
1561841597.204754,19,0,0,1561841596.995095,4.634649851363744,-74.15101250640502,2555.727,0,108.28125,4,30,-9999,1561841597.178295,-19.88544464111328,-18.29896926879883,13.681884765625,137.6187896728516,145.1119995117188,15,169413.4977389167,-0.956146240234375,0.265289306640625,-0.1143798828125,169413.4977389167,-0.02407897099595143,0.06197388909501594,0.02580443306621377,169413.4689909167,-94.18190002441406,-45.03147888183594,-548.8983764648438,169413.4926419167,-0.07567039942448764,-1.446913796287191,-0.2917671688899668,-0.01229505427181721,0.05065149813890457,0.02420088276267052,-0.01301217079162598,-0.01913625001907349,0.007931053638458252,1,-0.1336517035961151,-0.6503579020500183,0.06811053305864334,0.7446695566177368,-0.9503973126411438,0.287645161151886,-0.1183436438441277,0,0,0,-1,169413.4544039167,3,2,1561841597.400903,1561841239.621676,19,2.442143,0,0,18.59878,0,0,1561841548.131042,169410.304888,0,0.3779297,75.18938,0,182478453,3,1,1,-35.43378,-39.8051,2
1561841597.220469,20,0,0,1561841596.995095,4.634649851363744,-74.15101250640502,2555.727,0,108.28125,4,30,-9999,1561841597.205078,-20.00217437744141,-18.39604949951172,13.77783203125,137.6114501953125,145.1046600341797,15,169413.5179719167,-0.9509124755859375,0.26995849609375,-0.1155242919921875,169413.5179719167,-0.05651387622813548,0.08290553631471173,0.01675687589488757,169413.4890719167,-93.96647644042969,-44.86863708496094,-549.1090087890625,169413.5129059167,-0.07640162436162157,-1.445902420602111,-0.2922458675650315,-0.0562627762556076,0.06948511302471161,0.01869026944041252,-0.001397609710693359,-0.02339410781860352,0.003137707710266113,1,-0.1341003179550171,-0.6499025225639343,0.06792809814214706,0.7450031042098999,-0.9501404166221619,0.2881035804748535,-0.1192876324057579,0,0,0,-1,169413.4544039167,3,2,1561841597.400903,1561841239.621676,19,2.442143,0,0,18.59878,0,0,1561841548.131042,169410.304888,0,0.3779297,75.18938,0,182478453,3,1,1,-35.99106,-39.98812,2
1561841597.240897,21,0,0,1561841596.995095,4.634649851363744,-74.15101250640502,2555.727,0,108.28125,4,30,-9999,1561841597.228991,-19.89371490478516,-18.18142318725586,13.6585693359375,137.6879730224609,145.1811828613281,15,169413.5382349167,-0.9571380615234375,0.2790985107421875,-0.1167449951171875,169413.5382349167,-0.03331694418521829,0.1307662695289618,0.0004290352516117653,169413.5091829167,-94.55453491210938,-44.94789123535156,-549.2415771484375,169413.5331699167,-0.07750255585442647,-1.444405715469562,-0.29254227270629,-0.04254376888275146,0.1174774020910263,0.004892698489129543,-0.004790186882019043,-0.01064693927764893,0.003999590873718262,1,-0.1346179246902466,-0.6492523550987244,0.06751484423875809,0.745513916015625,-0.9498758912086487,0.2883874177932739,-0.1206987872719765,0,0,0,-1,169413.4544039167,3,2,1561841597.400903,1561841239.621676,19,2.442143,0,0,18.59878,0,0,1561841548.131042,169410.304888,0,0.3779297,75.18938,0,182478453,3,1,1,-36.54834,-40.20863,2
1561841597.286801,22,0,0,1561841596.995095,4.634649851363744,-74.15101250640502,2555.727,0,108.28125,4,30,-9999,1561841597.280306,-19.93289184570312,-18.29281234741211,13.5697021484375,137.7256774902344,145.2188873291016,15,169413.5584989167,-0.9536895751953125,0.2805938720703125,-0.121551513671875,169413.5584989167,-0.0001070590758211854,0.1185990854567167,-0.04545430085325442,169413.5292939167,-94.14813232421875,-44.96629333496094,-549.16259765625,169413.5534329167,-0.07809977771971335,-1.442064243800608,-0.2922450551983716,-0.009591946378350258,0.125573143362999,-0.03772933036088943,-0.006607890129089355,-0.006669700145721436,0.002434909343719482,1,-0.134780690073967,-0.6483574509620667,0.06703672558069229,0.7463060617446899,-0.9496756792068481,0.2881028056144714,-0.1229335591197014,0,0,0,-1,169413.4544039167,3,2,1561841597.400903,1561841239.621676,19,2.442143,0,0,18.59878,0,0,1561841548.131042,169410.304888,0,0.3779297,75.18938,0,182478453,3,1,1,-37.6629,-41.14544,2
1561841597.289733,23,0,0,1561841596.995095,4.634649851363744,-74.15101250640502,2555.727,0,108.28125,4,30,-9999,1561841597.280306,-19.93289184570312,-18.29281234741211,13.5697021484375,137.7256774902344,145.2188873291016,15,169413.5787629167,-0.9488983154296875,0.2777862548828125,-0.118865966796875,169413.5787629167,0.05773253874295574,0.03581259244273155,-0.06712923633319133,169413.5694849167,-94.19549560546875,-44.97682189941406,-549.2744140625,169413.5736969167,-0.07802980519148302,-1.440218337034666,-0.2910116071322656,0.03955616056919098,0.04957478120923042,-0.06872719526290894,-0.001021981239318848,-0.009028375148773193,0.006675302982330322,1,-0.1343638002872467,-0.6477500200271606,0.06653369963169098,0.746953547000885,-0.9497988820075989,0.2869214415550232,-0.1247325614094734,0,0,0,-1,169413.4544039167,3,2,1561841597.400903,1561841239.621676,19,2.442143,0,0,18.59878,0,0,1561841548.131042,169410.304888,0,0.3779297,75.18938,0,182478453,3,1,1,-37.6629,-41.14544,2
1561841597.301721,24,0,0,1561841596.995095,4.634649851363744,-74.15101250640502,2555.727,0,108.28125,4,30,-9999,1561841597.280306,-19.93289184570312,-18.29281234741211,13.5697021484375,137.7256774902344,145.2188873291016,15,169413.5990259167,-0.946868896484375,0.2798309326171875,-0.11566162109375,169413.5990259167,0.0861647128567507,-0.009217733164982259,-0.03331534628856424,169413.5895659167,-94.37362670898438,-44.95603942871094,-549.2931518554688,169413.5939609167,-0.07684456873579833,-1.439611984867416,-0.2895152496021285,0.08265542984008789,-0.01017137058079243,-0.04697103425860405,0.003049910068511963,-0.00776246190071106,0.009306132793426514,1,-0.1334466934204102,-0.6476957201957703,0.06644491851329803,0.7471728920936584,-0.9501476883888245,0.2854876816272736,-0.1253644675016403,0,0,0,-1,169413.4544039167,3,2,1561841597.400903,1561841239.621676,19,2.442143,0,0,18.59878,0,0,1561841548.131042,169410.304888,0,0.3779297,75.18938,0,182478453,3,1,1,-37.6629,-41.14544,2
1561841597.321752,25,0,0,1561841596.995095,4.634649851363744,-74.15101250640502,2555.727,0,108.28125,4,30,-9999,1561841597.306226,-19.95346832275391,-18.38191604614258,13.607421875,137.6243286132812,145.1175384521484,15,169413.6192899167,-0.945953369140625,0.2857208251953125,-0.117523193359375,169413.6192899167,0.06134351886499418,0.0178434456196399,-0.0148284809495612,169413.6096769167,-94.32530212402344,-44.57589721679688,-549.3948974609375,169413.6142239167,-0.07526237225497026,-1.439419222398903,-0.2886474816751287,0.07009302824735641,-0.001485737506300211,-0.01857667416334152,0.005025804042816162,0.0001493692398071289,0.009628534317016602,1,-0.1326196193695068,-0.6477823853492737,0.06673857569694519,0.747218906879425,-0.9503688216209412,0.2846559286117554,-0.1255800426006317,0,0,0,-1,169413.4544039167,3,2,1561841597.400903,1561841239.621676,19,2.442143,0,0,18.59878,0,0,1561841548.131042,169410.304888,0,0.3779297,75.18938,0,182478453,3,1,1,-37.18267,-41.81441,2
1561841597.373349,26,0,0,1561841596.995095,4.634649851363744,-74.15101250640502,2555.727,0,108.28125,4,30,-9999,1561841597.356937,-20.04965209960938,-18.38460540771484,13.62274169921875,137.5218505859375,145.0150604248047,15,169413.6395539167,-0.9499359130859375,0.28302001953125,-0.1180877685546875,169413.6395539167,0.0099719403856927,0.07565028655700885,-0.03147829776862759,169413.6297879167,-94.32875061035156,-44.92340087890625,-549.1637573242188,169413.6344879167,-0.07434477904215829,-1.43861993090181,-0.2880976237074274,0.02045064046978951,0.05940158292651176,-0.02668333612382412,0.002440273761749268,0.0007680654525756836,0.008516609668731689,1,-0.1321456432342529,-0.6475781202316284,0.0668482705950737,0.7474700212478638,-0.9504230618476868,0.2841287553310394,-0.1263602077960968,0,0,0,-1,169413.4544039167,3,2,1561841597.400903,1561841239.621676,19,2.442143,0,0,18.59878,0,0,1561841548.131042,169410.304888,0,0.3779297,75.18938,0,182478453,3,1,1,-37.18267,-40.53111,2
1561841597.376714,27,0,0,1561841596.995095,4.634649851363744,-74.15101250640502,2555.727,0,108.28125,4,30,-9999,1561841597.356937,-20.04965209960938,-18.38460540771484,13.62274169921875,137.5218505859375,145.0150604248047,15,169413.6598169167,-0.94970703125,0.2751007080078125,-0.1215667724609375,169413.6598169167,0.01250540553068508,0.12449053042019,-0.08203921001210895,169413.6498689167,-94.218994140625,-45.136474609375,-549.2720336914062,169413.6547209167,-0.07432493105059276,-1.43699761493197,-0.2870488276346582,0.008889326825737953,0.1067334115505219,-0.07751802355051041,-0.0005993247032165527,-0.0006370842456817627,0.006023883819580078,1,-0.1318048238754272,-0.6470368504524231,0.06640499830245972,0.7480381727218628,-0.9505115151405334,0.2831230461597443,-0.1279416084289551,0,0,0,-1,169413.4544039167,3,2,1561841597.400903,1561841239.621676,19,2.442143,0,0,18.59878,0,0,1561841548.131042,169411.248694,0,0.3779297,75.18938,0,182478453,3,1,1,-37.18267,-37.18267,2
1561841597.382422,28,0,0,1561841596.995095,4.634649851363744,-74.15101250640502,2555.727,0,108.28125,4,30,-9999,1561841597.381134,-20.01173400878906,-18.5380744934082,13.24078369140625,137.5263366699219,145.0195465087891,15,169413.6800509167,-0.95123291015625,0.2713470458984375,-0.121856689453125,169413.6800509167,0.001610679827279923,0.1177652497194129,-0.07171120498867266,169413.6699799167,-94.24298095703125,-45.13224792480469,-549.3892822265625,169413.6749849167,-0.07435727224220837,-1.434603595887708,-0.2853145968340992,0.005206707399338484,0.1192507967352867,-0.08049970120191574,-0.0004994869232177734,-0.01214170455932617,0.009601473808288574,1,-0.1312513649463654,-0.6462441086769104,0.06566780805587769,0.748885452747345,-0.9506876468658447,0.2814593315124512,-0.1302832663059235,0,0,0,-1,169413.4544039167,3,2,1561841597.400903,1561841239.621676,19,2.442143,0,0,18.59878,0,0,1561841548.131042,169411.248694,0,0.3779297,75.18938,0,182478453,3,1,1,-37.18267,-37.18267,2
1561841597.402956,29,0,0,1561841596.995095,4.634649851363744,-74.15101250640502,2555.727,0,108.28125,4,30,-9999,1561841597.381134,-20.01173400878906,-18.5380744934082,13.24078369140625,137.5263366699219,145.0195465087891,15,169413.7003139167,-0.945526123046875,0.2752227783203125,-0.1165313720703125,169413.7003139167,-0.02317775728306862,0.06511242443967431,-0.04003476803494317,169413.6900599167,-94.12950134277344,-44.84005737304688,-549.58349609375,169413.6952479167,-0.07468937719409917,-1.43269498814741,-0.2839969728462648,-0.01751458458602428,0.07863466441631317,-0.0507655031979084,0.002103626728057861,-0.005338162183761597,0.01122254133224487,1,-0.130931943655014,-0.6455870270729065,0.06498752534389496,0.7495670318603516,-0.9508036375045776,0.2801947295665741,-0.1321484297513962,0,0,0,-1,169413.4544039167,3,2,1561841597.400903,1561841239.621676,19,2.442143,0,0,18.59878,0,0,1561841548.131042,169411.248694,0,0.3779297,75.18938,0,182478453,3,1,1,-37.18267,-37.99693,2
1561841597.448819,30,0,0,1561841596.995095,4.634649851363744,-74.15101250640502,2555.727,0,108.28125,4,30,-9999,1561841597.431865,-19.95039367675781,-18.53244781494141,13.46099853515625,137.5940551757812,145.0872650146484,15,169413.7205779167,-0.9476776123046875,0.275054931640625,-0.12200927734375,169413.7205779167,-0.01724716385157116,0.001336374235001762,-0.01280634273386403,169413.7101709167,-94.34318542480469,-45.002685546875,-549.4332275390625,169413.7155119167,-0.07536831265794819,-1.432077527937933,-0.2833801264218015,-0.02627105824649334,0.006868598517030478,-0.02135674841701984,0.006678938865661621,-0.004745990037918091,0.01548027992248535,1,-0.1309419721364975,-0.6453483700752258,0.06449106335639954,0.7498136162757874,-0.9508928060531616,0.2796025574207306,-0.1327593624591827,0,0,0,-1,169413.4544039167,3,2,1561841597.400903,1561841239.621676,19,2.442143,0,0,18.59878,0,0,1561841548.131042,169411.248694,0,0.3779297,75.18938,0,182478453,3,1,1,-37.17997,-37.17997,2
1561841597.45151,31,0,0,1561841596.995095,4.634649851363744,-74.15101250640502,2555.727,0,108.28125,4,30,-9999,1561841597.431865,-19.95039367675781,-18.53244781494141,13.46099853515625,137.5940551757812,145.0872650146484,15,169413.7408419167,-0.952117919921875,0.2705841064453125,-0.1280059814453125,169413.7408419167,0.06874657406319645,-0.001847967480405983,0.004227501914391783,169413.7302829167,-94.23135375976562,-45.06634521484375,-549.434326171875,169413.7357759167,-0.07545495003693642,-1.432251435297043,-0.2831457450903825,0.03792497515678406,-0.008679734542965889,-0.003495992626994848,0.001228094100952148,-0.004917681217193604,0.007068991661071777,1,-0.1308772712945938,-0.6454220414161682,0.06439337879419327,0.7497699856758118,-0.9509809017181396,0.2793775200843811,-0.1326030492782593,0,0,0,-1,169413.4544039167,3,2,1561841597.400903,1561841239.621676,19,2.442143,0,0,18.59878,0,0,1561841548.131042,169411.248694,0,0.3779297,75.18938,0,182478453,3,1,1,-37.17997,-37.17997,2
1561841597.463501,32,0,0,1561841596.995095,4.634649851363744,-74.15101250640502,2555.727,0,108.28125,4,30,-9999,1561841597.458453,-19.8868408203125,-18.43595504760742,13.40802001953125,137.4743499755859,144.9675598144531,15,169413.7611049167,-0.970794677734375,0.2591094970703125,-0.119232177734375,169413.7611049167,0.208783573662833,0.01035650084710014,-0.008724515731099584,169413.7503629167,-94.39750671386719,-45.20979309082031,-549.2963256835938,169413.7560389167,-0.07334119996068728,-1.431768025838319,-0.2828645394725078,0.171391949057579,0.003277591895312071,-0.001976659055799246,-0.01044672727584839,-0.01334518194198608,0.006257832050323486,1,-0.1301063448190689,-0.6453956365585327,0.06506245583295822,0.7498690485954285,-0.9509943723678589,0.2791074812412262,-0.133073627948761,0,0,0,-1,169413.4544039167,3,2,1561841597.400903,1561841239.621676,19,2.442143,0,0,18.59878,0,0,1561841548.131042,169411.248694,0,0.3779297,75.18938,0,182478453,3,1,1,-37.17997,-37.17997,2
1561841597.483873,33,0,0,1561841596.995095,4.634649851363744,-74.15101250640502,2555.727,0,108.28125,4,30,-9999,1561841597.482376,-20.14814758300781,-18.35293579101562,13.2117919921875,137.1114959716797,144.6047058105469,15,169413.7813689167,-0.9777374267578125,0.2517547607421875,-0.0940399169921875,169413.7813689167,0.3231642119528643,0.002244512166718782,-0.07197592320102653,169413.7704739167,-94.30178833007812,-44.71258544921875,-549.4859008789062,169413.7763029167,-0.06843482405649029,-1.43038829399656,-0.2815935076895784,0.3012236952781677,0.0001222789287567139,-0.06139231473207474,-0.02511221170425415,-0.02475869655609131,0.02870702743530273,1,-0.1280960589647293,-0.6452703475952148,0.06639847159385681,0.7502058148384094,-0.9511603713035583,0.2778867483139038,-0.134435161948204,0,0,0,-1,169413.7727629167,3,2,1561841597.719262,1561841239.621676,19,2.442143,0,0,18.59878,0,0,1561841548.131042,169411.248694,0,0.3779297,75.18938,0,182478453,3,1,1,-36.63179,-38.06612,2
1561841597.532011,34,0,0,1561841596.995095,4.634649851363744,-74.15101250640502,2555.727,0,108.28125,4,30,-9999,1561841597.508805,-19.93309783935547,-18.36588287353516,13.63275146484375,136.6430358886719,144.1362457275391,15,169413.8016329167,-0.9722900390625,0.2569580078125,-0.0799713134765625,169413.8016329167,0.3172911428009125,-0.01927649260221154,-0.09014107868034801,169413.7905549167,-94.35993957519531,-44.71916198730469,-549.2899169921875,169413.7965669167,-0.06185505856747285,-1.428738183097622,-0.2790052739849836,0.3313797414302826,-0.0149309728294611,-0.0936565101146698,-0.02519118785858154,-0.02250036597251892,0.05100756883621216,1,-0.1250652819871902,-0.6452175974845886,0.06791891157627106,0.750626266002655,-0.9516459703445435,0.2753995358943939,-0.1361058503389359,0,0,0,-1,169413.7727629167,3,2,1561841597.719262,1561841239.621676,19,2.442143,0,0,18.59878,0,0,1561841548.131042,169411.248694,0,0.3779297,75.18938,0,182478453,3,1,1,-36.63179,-39.3826,2
1561841597.535052,35,0,0,1561841596.995095,4.634649851363744,-74.15101250640502,2555.727,0,108.28125,4,30,-9999,1561841597.508805,-19.93309783935547,-18.36588287353516,13.63275146484375,136.6430358886719,144.1362457275391,15,169413.8218959167,-0.961944580078125,0.258758544921875,-0.0802001953125,169413.8218959167,0.193186770738784,-0.05382674668824553,-0.06386313557231815,169413.8106659167,-94.70574951171875,-44.89166259765625,-548.99267578125,169413.8167999167,-0.05617863138199609,-1.427976937487069,-0.2764183718342868,0.2269598692655563,-0.05838577076792717,-0.07651188224554062,-0.01241648197174072,-0.01470249891281128,0.05914193391799927,1,-0.1222957149147987,-0.6454286575317383,0.06915981322526932,0.7507879137992859,-0.9522441625595093,0.2729117274284363,-0.1369312107563019,0,0,0,-1,169413.7727629167,3,2,1561841597.719262,1561841239.621676,19,2.442143,0,0,18.59878,0,0,1561841548.131042,169411.248694,0,0.3779297,75.18938,0,182478453,3,1,1,-36.63179,-39.3826,2
1561841597.544523,36,0,0,1561841596.995095,4.634649851363744,-74.15101250640502,2555.727,0,108.28125,4,30,-9999,1561841597.533594,-19.96061706542969,-18.39913558959961,13.66192626953125,136.3399658203125,143.8331756591797,15,169413.8421289167,-0.963287353515625,0.262359619140625,-0.0920562744140625,169413.8421289167,0.05763400178262281,-0.03163116321519813,-0.04230298233536366,169413.8307769167,-94.33860778808594,-44.73646545410156,-548.9903564453125,169413.8370639167,-0.05311592237528202,-1.428298462539132,-0.2747376055314933,0.08640036731958389,-0.04830117896199226,-0.04854123294353485,-0.008333921432495117,-0.01073530316352844,0.05121028423309326,1,-0.1206690967082977,-0.6458281278610229,0.06978160887956619,0.7506501078605652,-0.9527409672737122,0.2712943851947784,-0.1366899907588959,0,0,0,-1,169413.7727629167,3,2,1561841597.719262,1561841239.621676,19,2.442143,0,0,18.59878,0,0,1561841548.131042,169411.248694,0,0.3779297,75.18938,0,182478453,3,1,1,-36.63179,-40.01945,2
1561841597.564785,37,0,0,1561841596.995095,4.634649851363744,-74.15101250640502,2555.727,0,108.28125,4,30,-9999,1561841597.559311,-19.98983764648438,-18.15652465820312,13.9776611328125,136.2741088867188,143.7673187255859,15,169413.8623929167,-0.9630126953125,0.26458740234375,-0.1073760986328125,169413.8623929167,-0.02001578612081754,0.002178732087793825,-0.057337858269406,169413.8508579167,-94.16093444824219,-44.79953002929688,-548.8325805664062,169413.8573269167,-0.05261960397189715,-1.428812034700897,-0.2735994586850808,-0.01043989695608616,-0.006541748996824026,-0.05552190914750099,-0.01163607835769653,-0.0059317946434021,0.03591775894165039,1,-0.1200664490461349,-0.6461129188537598,0.06962806731462479,0.7505159378051758,-0.9531161189079285,0.2701987624168396,-0.1362442821264267,0,0,0,-1,169413.7727629167,3,2,1561841597.719262,1561841239.621676,19,2.442143,0,0,18.59878,0,0,1561841548.131042,169411.248694,0,0.3779297,75.18938,0,182478453,3,1,1,-36.63179,-40.82386,2
1561841597.602663,38,0,0,1561841596.995095,4.634649851363744,-74.15101250640502,2555.727,0,108.28125,4,30,-9999,1561841597.559311,-19.98983764648438,-18.15652465820312,13.9776611328125,136.2741088867188,143.7673187255859,15,169413.8826569167,-0.9532928466796875,0.263519287109375,-0.125762939453125,169413.8826569167,-0.02286243901000324,-0.01288783546322046,-0.06727624282536369,169413.8709689167,-94.33526611328125,-45.01786804199219,-548.9752807617188,169413.8775909167,-0.05342329559923423,-1.429256914126828,-0.2723259690351381,-0.03016992472112179,-0.009522891603410244,-0.07176559418439865,-0.004476010799407959,-0.006292343139648438,0.02058851718902588,1,-0.1198358535766602,-0.6463010311126709,0.06893822550773621,0.7504545450210571,-0.9535165429115295,0.2689724266529083,-0.1358686834573746,0,0,0,-1,169413.7727629167,3,2,1561841597.719262,1561841239.621676,19,2.442143,0,0,18.59878,0,0,1561841548.131042,169411.248694,0,0.3779297,75.18938,0,182478453,3,1,1,-36.63179,-40.49989,2
1561841597.605222,39,0,0,1561841596.995095,4.634649851363744,-74.15101250640502,2555.727,0,108.28125,4,30,-9999,1561841597.559311,-19.98983764648438,-18.15652465820312,13.9776611328125,136.2741088867188,143.7673187255859,15,169413.9029199167,-0.9464263916015625,0.269195556640625,-0.1385498046875,169413.9029199167,0.02277561995846665,-0.05943669552449744,-0.04869110684213673,169413.8910489167,-94.09402465820312,-44.94107055664062,-548.9671630859375,169413.8978549167,-0.0539748005457402,-1.430212535157171,-0.2710251334579829,0.007745499256998301,-0.05525549128651619,-0.05668757483363152,0.004208087921142578,-0.002903014421463013,0.001491904258728027,1,-0.1194963976740837,-0.6466973423957825,0.06836444884538651,0.7502195835113525,-0.9539914131164551,0.2677192986011505,-0.1350063234567642,0,0,0,-1,169413.7727629167,3,2,1561841597.719262,1561841239.621676,19,2.442143,0,0,18.59878,0,0,1561841548.131042,169411.248694,0,0.3779297,75.18938,0,182478453,3,1,1,-36.63179,-40.49989,2
1561841597.625521,40,0,0,1561841596.995095,4.634649851363744,-74.15101250640502,2555.727,0,108.28125,4,30,-9999,1561841597.60443,-19.96005249023438,-18.34503555297852,13.97698974609375,136.3307800292969,143.8239898681641,15,169413.9231839167,-0.94793701171875,0.2782745361328125,-0.146240234375,169413.9029199167,0.02277561995846665,-0.05943669552449744,-0.04869110684213673,169413.9111599167,-94.07984924316406,-44.70939636230469,-549.0175170898438,169413.9181179167,-0.05338625029534125,-1.43168455053711,-0.2700478583640447,0.06874227523803711,-0.08606613427400589,-0.0220813937485218,0.007792472839355469,0.009452313184738159,-0.008939981460571289,1,-0.118891529738903,-0.6473374366760254,0.0683540552854538,0.7497644424438477,-0.9544477462768555,0.2667775750160217,-0.1336380988359451,0,0,0,-1,169413.7727629167,3,2,1561841597.719262,1561841239.621676,19,2.442143,0,0,18.59878,0,0,1561841548.131042,169411.248694,0,0.3779297,75.18938,0,182478453,3,1,1,-36.63179,-41.13052,2
1561841597.64592,41,0,0,1561841596.995095,4.634649851363744,-74.15101250640502,2555.727,0,108.28125,4,30,-9999,1561841597.635882,-19.66002655029297,-18.19597625732422,13.922607421875,136.2477264404297,143.7409362792969,15,169413.9434575417,-0.9437713623046875,0.282196044921875,-0.15545654296875,169413.9434575417,0.1224513479735164,-0.08417879363187861,0.02266190297992027,169413.9312805417,-94.06996154785156,-44.56707763671875,-548.9686889648438,169413.9383819167,-0.05148089063562651,-1.433167128812167,-0.2697367384354009,0.1155068501830101,-0.09236850589513779,0.01308165211230516,0.007247686386108398,0.01376521587371826,-0.01814109086990356,1,-0.1181076988577843,-0.6480227112770081,0.06905435770750046,0.7492319345474243,-0.9547269344329834,0.2664777040481567,-0.1322342753410339,0,0,0,-1,169413.7727629167,3,2,1561841597.719262,1561841239.621676,19,2.442143,0,0,18.59878,0,0,1561841548.131042,169411.248694,0,0.3779297,75.18938,0,182478453,3,1,1,-36.63179,-41.9836,2
1561841597.682424,42,0,0,1561841596.995095,4.634649851363744,-74.15101250640502,2555.727,0,108.28125,4,30,-9999,1561841597.660911,-19.73065948486328,-18.21149826049805,13.8572998046875,136.0648040771484,143.5580139160156,15,169413.9637215417,-0.94024658203125,0.2819976806640625,-0.1657257080078125,169413.9637215417,0.1307148705199232,-0.07886871673436961,0.0524072818272333,169413.9513615417,-93.92550659179688,-44.67265319824219,-548.6420288085938,169413.9586555417,-0.04885783644094186,-1.434320546778382,-0.2699223701782928,0.1273549944162369,-0.0871625542640686,0.04065149277448654,0.01510196924209595,0.01569199562072754,-0.02880114316940308,1,-0.1172863841056824,-0.6485990881919861,0.07016520947217941,0.748758852481842,-0.9548297524452209,0.2666566073894501,-0.1311262547969818,0,0,0,-1,169413.7727629167,3,2,1561841597.719262,1561841239.621676,19,2.442143,0,0,18.59878,0,0,1561841548.131042,169411.248694,0,0.3779297,75.18938,0,182478453,3,1,1,-36.63179,-42.55769,2
1561841597.686727,43,0,0,1561841596.995095,4.634649851363744,-74.15101250640502,2555.727,0,108.28125,4,30,-9999,1561841597.660911,-19.73065948486328,-18.21149826049805,13.8572998046875,136.0648040771484,143.5580139160156,15,169413.9839845417,-0.941986083984375,0.2855682373046875,-0.1685333251953125,169413.9839845417,0.1862604213757059,-0.0759072816022015,0.1034784557355738,169413.9714725417,-94.08489990234375,-44.64668273925781,-549.0675659179688,169413.9788885417,-0.04581925508193362,-1.435149776641179,-0.2707420240407684,0.1606245338916779,-0.07549950480461121,0.08299868553876877,0.01201814413070679,0.01705363392829895,-0.03908300399780273,1,-0.116576299071312,-0.6490435600280762,0.07161882519721985,0.7483469247817993,-0.9547213912010193,0.2674465179443359,-0.1303048431873322,0,0,0,-1,169413.7727629167,3,2,1561841597.719262,1561841239.621676,19,2.442143,0,0,18.59878,0,0,1561841548.131042,169411.248694,0,0.3779297,75.18938,0,182478453,3,1,1,-36.63179,-42.55769,2
1561841597.706707,44,0,0,1561841596.995095,4.634649851363744,-74.15101250640502,2555.727,0,108.28125,4,30,-9999,1561841597.688902,-19.80751037597656,-17.99220657348633,14.336181640625,135.8385620117188,143.3317718505859,15,169414.0042175417,-0.9382781982421875,0.28961181640625,-0.1671905517578125,169414.0042175417,0.3278849313011387,-0.1415874919862807,0.1753270798364946,169413.9915835417,-93.901611328125,-44.35420227050781,-548.7584228515625,169413.9991515417,-0.04095027688734189,-1.435716135860038,-0.2725544028138513,0.2873094975948334,-0.1256774663925171,0.1566119194030762,0.01406675577163696,0.01739814877510071,-0.04013168811798096,1,-0.1156495362520218,-0.649442732334137,0.07406534254550934,0.7479062676429749,-0.954313337802887,0.2691924273967743,-0.1296986490488052,0,0,0,-1,169413.7727629167,3,2,1561841597.719262,1561841239.621676,19,2.442143,0,0,18.59878,0,0,1561841548.131042,169411.248694,0,0.3779297,75.18938,0,182478453,3,1,1,-36.63179,-42.94103,2
1561841597.727016,45,0,0,1561841596.995095,4.634649851363744,-74.15101250640502,2555.727,0,108.28125,4,30,-9999,1561841597.711032,-19.51694488525391,-18.11044311523438,14.23236083984375,135.4168701171875,142.9100799560547,15,169414.0244815417,-0.93902587890625,0.3000946044921875,-0.1520233154296875,169414.0244815417,0.4714378361718979,-0.2446688704033237,0.2273266317008368,169414.0116645417,-94.32926940917969,-44.33377075195312,-548.5283813476562,169414.0194155417,-0.03281883500469537,-1.437006775281203,-0.275356762001134,0.4380372166633606,-0.2296379506587982,0.2162289172410965,0.01673197746276855,0.02205502986907959,-0.03133279085159302,1,-0.11400106549263,-0.650246798992157,0.07809436321258545,0.7470502853393555,-0.9537284374237061,0.2718902826309204,-0.1283657103776932,0,0,0,-1,169413.7727629167,3,2,1561841597.719262,1561841239.621676,19,2.442143,0,0,18.59878,0,0,1561841548.131042,169411.248694,0,0.3779297,75.18938,0,182478453,3,1,1,-36.63179,-43.62187,2
1561841597.763312,46,0,0,1561841596.995095,4.634649851363744,-74.15101250640502,2555.727,0,108.28125,4,30,-9999,1561841597.737291,-19.60734558105469,-17.94120407104492,14.43048095703125,134.7095031738281,142.2027130126953,15,169414.0447455417,-0.9440155029296875,0.29913330078125,-0.1411285400390625,169414.0447455417,0.5743019006439904,-0.3537229201970875,0.2273535296278466,169414.0317755417,-94.19007873535156,-44.30992126464844,-548.1610107421875,169414.0396795417,-0.02184915183964639,-1.439542677865665,-0.2786058944273989,0.5451562404632568,-0.3319968283176422,0.2273665219545364,0.01042097806930542,0.02803924679756165,-0.01638144254684448,1,-0.1115367859601974,-0.6516473889350891,0.08339304476976395,0.745627760887146,-0.9531700015068054,0.2750155627727509,-0.1258304566144943,0,0,0,-1,169413.7727629167,3,2,1561841597.719262,1561841239.621676,19,2.442143,0,0,18.59878,0,0,1561841548.131042,169411.248694,0,0.3779297,75.18938,0,182478453,3,1,1,-36.63179,-40.39028,2
1561841597.767298,47,0,0,1561841596.995095,4.634649851363744,-74.15101250640502,2555.727,0,108.28125,4,30,-9999,1561841597.762189,-19.69715118408203,-17.64325714111328,14.7191162109375,133.7903747558594,141.2835845947266,15,169414.0650085417,-0.9492645263671875,0.299163818359375,-0.1510009765625,169414.0650085417,0.6867075386696189,-0.3951012530019756,0.1719512568387102,169414.0518865417,-94.08114624023438,-43.85432434082031,-548.074951171875,169414.0599425417,-0.008615652355714676,-1.443457776914999,-0.2813511608371285,0.6599536538124084,-0.4071941077709198,0.1882513463497162,0.00871962308883667,0.01864123344421387,-0.02661919593811035,1,-0.1080692335963249,-0.6536974310874939,0.08943314105272293,0.7436413764953613,-0.9529029726982117,0.2776539325714111,-0.1220014169812202,0,0,0,-1,169413.7727629167,3,2,1561841597.719262,1561841239.621676,19,2.442143,0,0,18.59878,0,0,1561841548.131042,169411.248694,0,0.3779297,75.18938,0,182478453,3,1,1,-36.63179,-40.39028,2
1561841597.788265,48,0,0,1561841596.995095,4.634649851363744,-74.15101250640502,2555.727,0,108.28125,4,30,-9999,1561841597.786227,-19.34796905517578,-16.99265289306641,15.29742431640625,132.7073516845703,140.2005615234375,15,169414.0852725417,-0.953460693359375,0.2884674072265625,-0.1511688232421875,169414.0852725417,0.7408852899895368,-0.292269146462964,0.07047176981734977,169414.0719975417,-93.88478088378906,-43.89083862304688,-547.7108764648438,169414.0802065417,0.006452233470308344,-1.446786888368678,-0.2824725328940134,0.7295287251472473,-0.3308836221694946,0.09174450486898422,-0.001565158367156982,0.01727420091629028,-0.03143292665481567,1,-0.1033992320299149,-0.6556780338287354,0.09557192772626877,0.7417957186698914,-0.952994167804718,0.2787310481071472,-0.118789829313755,0,0,0,-1,169413.7727629167,3,2,1561841597.719262,1561841239.621676,19,2.442143,0,0,18.59878,0,0,1561841548.131042,169411.248694,0,0.3779297,75.18938,0,182478453,3,1,1,-36.63179,-41.2086,2
1561841597.808068,49,0,0,1561841596.995095,4.634649851363744,-74.15101250640502,2555.727,0,108.28125,4,30,-9999,1561841597.786227,-19.34796905517578,-16.99265289306641,15.29742431640625,132.7073516845703,140.2005615234375,15,169414.1055365417,-0.952056884765625,0.2808074951171875,-0.140838623046875,169414.1055365417,0.7197965162655264,-0.1020869540660074,0.009886985546919172,169414.0920775417,-93.85870361328125,-43.58598327636719,-547.1948852539062,169414.1004705417,0.02213330737736206,-1.447311942209162,-0.2816345436870702,0.7365054488182068,-0.1501391381025314,0.01548515539616346,-0.000187993049621582,0.005704224109649658,-0.03265225887298584,1,-0.0979173332452774,-0.6566986441612244,0.1011366248130798,0.7408984303474426,-0.9532879590988159,0.2779261767864227,-0.1183181703090668,0,0,0,-1,169413.7727629167,3,2,1561841597.719262,1561841239.621676,19,2.442143,0,0,18.59878,0,0,1561841548.131042,169411.248694,0,0.3779297,75.18938,0,182478453,3,1,1,-36.63179,-42.1541,2
1561841597.846095,50,0,0,1561841596.995095,4.634649851363744,-74.15101250640502,2555.727,0,108.28125,4,30,-9999,1561841597.836842,-19.47266387939453,-16.71944046020508,15.89459228515625,130.6987457275391,138.1919555664062,15,169414.1257995417,-0.9377288818359375,0.2695159912109375,-0.1150665283203125,169414.1257995417,0.583631220258647,-0.07390804657187902,-0.04582341498033941,169414.1121895417,-94.07272338867188,-43.63885498046875,-546.7571411132812,169414.1207335417,0.03647581724279277,-1.445176656323781,-0.2798553276658239,0.6198296546936035,-0.07427764683961868,-0.03344084322452545,0.009857654571533203,-3.254413604736328e-05,-0.006812572479248047,1,-0.09265697747468948,-0.6566635966300964,0.1057668402791023,0.7409595251083374,-0.9535222053527832,0.276216596364975,-0.120415210723877,0,0,0,-1,169413.7727629167,3,2,1561841597.719262,1561841239.621676,19,2.442143,0,0,18.59878,0,0,1561841548.131042,169411.248694,0,0.3779297,75.18938,0,182478453,3,1,1,-36.63179,-43.21,2
1561841597.848941,51,0,0,1561841596.995095,4.634649851363744,-74.15101250640502,2555.727,0,108.28125,4,30,-9999,1561841597.836842,-19.47266387939453,-16.71944046020508,15.89459228515625,130.6987457275391,138.1919555664062,15,169414.1460635417,-0.93743896484375,0.252166748046875,-0.089202880859375,169414.1460635417,0.3926095994860975,-0.0708555313304302,-0.0792780445939148,169414.1323005417,-93.82659912109375,-43.0706787109375,-546.7514038085938,169414.1409675417,0.0475876636497418,-1.443678722211886,-0.2773735925018869,0.4480147361755371,-0.08186393231153488,-0.07705383747816086,0.01619738340377808,-0.0155908465385437,0.02578425407409668,1,-0.08816465735435486,-0.6567054390907288,0.1090065315365791,0.7410010695457458,-0.9540178179740906,0.2738305628299713,-0.1219299212098122,0,0,0,-1,169413.7727629167,3,2,1561841597.719262,1561841239.621676,19,2.442143,0,0,18.59878,0,0,1561841548.131042,169411.248694,0,0.3779297,75.18938,0,182478453,3,1,1,-36.63179,-43.21,2
1561841597.868884,52,0,0,1561841596.995095,4.634649851363744,-74.15101250640502,2555.727,0,108.28125,4,30,-9999,1561841597.86495,-19.51511383056641,-16.58160400390625,16.02301025390625,130.1636505126953,137.6568603515625,15,169414.1662965417,-0.938140869140625,0.254302978515625,-0.09600830078125,169414.1662965417,0.14270708490855,0.004985703876737342,-0.1003718783239964,169414.1524115417,-93.82026672363281,-42.93276977539062,-546.4993286132812,169414.1612305417,0.05420887709740845,-1.443009326149036,-0.274827643783504,0.2007858008146286,-0.02309755608439445,-0.09704005718231201,0.0188639760017395,-0.01846662163734436,0.03237074613571167,1,-0.0850779265165329,-0.6568357944488525,0.1106013432145119,0.7410101294517517,-0.9546244740486145,0.2713810503482819,-0.1226569712162018,0,0,0,-1,169413.7727629167,3,2,1561841597.719262,1561841239.621676,19,2.442143,0,0,18.59878,0,0,1561841548.131042,169411.248694,0,0.3779297,75.18938,0,182478453,3,1,1,-36.63179,-41.6806,2
1561841597.88905,53,0,0,1561841596.995095,4.634649851363744,-74.15101250640502,2555.727,0,108.28125,4,30,-9999,1561841597.887545,-19.45013427734375,-16.41696166992188,16.4686279296875,130.0741577148438,137.5673675537109,15,169414.1865605417,-0.946624755859375,0.2595062255859375,-0.1069793701171875,169414.1865605417,-0.05356096321145562,0.1092380742250882,-0.1345599425017796,169414.1725225417,-93.80906677246094,-43.07167053222656,-546.5517578125,169414.1814945417,0.05575879712707359,-1.441998195249433,-0.2724094157956076,-0.01518937759101391,0.07939260452985764,-0.1261899471282959,0.01273441314697266,-0.01357489824295044,0.02017515897750854,1,-0.08372265100479126,-0.6566106081008911,0.1103458628058434,0.7414018511772156,-0.9551477432250977,0.2690527737140656,-0.1237060576677322,0,0,0,-1,169413.7727629167,3,2,1561841597.719262,1561841239.621676,19,2.442143,0,0,18.59878,0,0,1561841548.131042,169411.248694,0,0.3779297,75.18938,0,182478453,3,1,1,-36.63179,-41.68758,2
1561841597.93075,54,0,0,1561841596.995095,4.634649851363744,-74.15101250640502,2555.727,0,108.28125,4,30,-9999,1561841597.916222,-19.53880310058594,-16.56975555419922,16.36138916015625,130.2683563232422,137.7615661621094,15,169414.2068245417,-0.945343017578125,0.2593231201171875,-0.115570068359375,169414.2068245417,-0.1390135467927191,0.1532625238890791,-0.150235042361877,169414.1926025417,-93.95394897460938,-43.00523376464844,-546.4656372070312,169414.2017585417,0.05366559489682435,-1.440106680214185,-0.2697384278023914,-0.1288277953863144,0.1453204751014709,-0.1571515947580338,0.007516443729400635,-0.003570407629013062,0.01496428251266479,1,-0.08351579308509827,-0.6559132933616638,0.1086213290691376,0.7422966361045837,-0.9556212425231934,0.2664793431758881,-0.1256057322025299,0,0,0,-1,169413.7727629167,3,2,1561841597.719262,1561841239.621676,19,2.442143,0,0,18.59878,0,0,1561841548.131042,169411.248694,0,0.3779297,75.18938,0,182478453,3,1,1,-36.63179,-42.43008,2
1561841597.933538,55,0,0,1561841596.995095,4.634649851363744,-74.15101250640502,2555.727,0,108.28125,4,30,-9999,1561841597.916222,-19.53880310058594,-16.56975555419922,16.36138916015625,130.2683563232422,137.7615661621094,15,169414.2270875417,-0.9462127685546875,0.2595062255859375,-0.12164306640625,169414.2270875417,-0.1639599093557094,0.1329758942854005,-0.1299976812383649,169414.2127135417,-93.88845825195312,-43.10444641113281,-546.5753173828125,169414.2220215417,0.05014085601658835,-1.43812867929972,-0.2671876243324016,-0.162297859787941,0.1369978338479996,-0.1359267234802246,0.008486032485961914,-0.005948007106781006,0.009207487106323242,1,-0.08382418751716614,-0.655119001865387,0.1064001247286797,0.7432843446731567,-0.9560415744781494,0.2640199065208435,-0.1275852024555206,0,0,0,-1,169413.7727629167,3,2,1561841597.719262,1561841239.621676,19,2.442143,0,0,18.59878,0,0,1561841548.131042,169411.248694,0,0.3779297,75.18938,0,182478453,3,1,1,-36.63179,-41.23033,2
1561841597.94989,56,0,0,1561841596.995095,4.634649851363744,-74.15101250640502,2555.727,0,108.28125,4,30,-9999,1561841597.938761,-19.36094665527344,-16.61425399780273,16.12933349609375,130.5393371582031,138.0325469970703,15,169414.2473515417,-0.941864013671875,0.252777099609375,-0.12432861328125,169414.2473515417,-0.1592818005848762,0.02402091408418771,-0.114576114314043,169414.2328255417,-94.03707885742188,-43.03756713867188,-546.6885986328125,169414.2422855417,0.04630891483603738,-1.437181801876922,-0.2650661974474124,-0.1655546724796295,0.04923456162214279,-0.1198692992329597,0.01425844430923462,-0.005488157272338867,0.006067156791687012,1,-0.08433560281991959,-0.6546794176101685,0.1042460352182388,0.7439188361167908,-0.9564734101295471,0.2619731426239014,-0.1285647302865982,0,0,0,-1,169413.7727629167,3,2,1561841597.719262,1561841239.621676,19,2.442143,0,0,18.59878,0,0,1561841548.131042,169411.248694,0,0.3779297,75.18938,0,182478453,3,1,1,-36.63179,-41.23033,2
1561841597.970133,57,0,0,1561841596.995095,4.634649851363744,-74.15101250640502,2555.727,0,108.28125,4,30,-9999,1561841597.964492,-19.36115264892578,-16.51861572265625,16.15924072265625,130.7984771728516,138.2916870117188,15,169414.2676155417,-0.9508819580078125,0.255462646484375,-0.1356048583984375,169414.2676155417,-0.1271901768172033,-0.06692364029703721,-0.1247030506751783,169414.2529365417,-93.69497680664062,-43.25038146972656,-546.6558837890625,169414.2625495417,0.04277262964128069,-1.438384902787474,-0.2630492472363011,-0.1357142180204391,-0.06159235537052155,-0.1239226311445236,0.01444590091705322,-0.005662083625793457,-0.00233834981918335,1,-0.08467729389667511,-0.655048131942749,0.1023256406188011,0.7438220381736755,-0.9571491479873657,0.2600261270999908,-0.1274833977222443,0,0,0,-1,169413.7727629167,3,2,1561841597.719262,1561841239.621676,19,2.442143,0,0,18.59878,0,0,1561841548.131042,169411.248694,0,0.3779297,75.18938,0,182478453,3,1,1,-36.63179,-40.45135,2
1561841598.005312,58,0,0,1561841596.995095,4.634649851363744,-74.15101250640502,2555.727,0,108.28125,4,30,-9999,1561841597.988866,-19.41129302978516,-16.88554000854492,16.23638916015625,131.0126800537109,138.5058898925781,15,169414.2878785417,-0.96832275390625,0.2513580322265625,-0.1397705078125,169414.2878785417,-0.1149625389882135,-0.02707529353839958,-0.1361125654172958,169414.2730475417,-93.75099182128906,-43.64302062988281,-546.6500244140625,169414.2828125417,0.03976118318874535,-1.440524507789587,-0.2607605902590755,-0.1194638758897781,-0.04471084102988243,-0.1372051388025284,-0.004272937774658203,-0.003482013940811157,-0.01167958974838257,1,-0.08470065891742706,-0.655797004699707,0.1005511805415154,0.7434014081954956,-0.9580073356628418,0.2578155100345612,-0.1255121678113937,0,0,0,-1,169413.7727629167,3,2,1561841597.719262,1561841239.621676,19,2.442143,0,0,18.59878,0,0,1561841548.131042,169411.248694,0,0.3779297,75.18938,0,182478453,3,1,1,-36.63179,-41.4283,2
1561841598.01058,59,0,0,1561841596.995095,4.634649851363744,-74.15101250640502,2555.727,0,108.28125,4,30,-9999,1561841597.988866,-19.41129302978516,-16.88554000854492,16.23638916015625,131.0126800537109,138.5058898925781,15,169414.3081425417,-0.95867919921875,0.2428131103515625,-0.146575927734375,169414.3081425417,-0.09473503156073469,-0.08315028081889,-0.1362707571860465,169414.2931585417,-93.78208923339844,-43.50898742675781,-546.7296142578125,169414.3030455417,0.03699588545983561,-1.442196343054194,-0.2582821099837976,-0.1082354560494423,-0.07111288607120514,-0.1394882649183273,-0.005890429019927979,-0.009814560413360596,-0.02204996347427368,1,-0.08459934592247009,-0.6563893556594849,0.09878583997488022,0.7431267499923706,-0.9588465690612793,0.2554200291633606,-0.1239919289946556,0,0,0,-1,169413.7727629167,3,2,1561841597.719262,1561841239.621676,19,2.442143,0,0,18.59878,0,0,1561841548.131042,169411.248694,0,0.3779297,75.18938,0,182478453,3,1,1,-36.63179,-41.4283,2
1561841598.030912,60,0,0,1561841596.995095,4.634649851363744,-74.15101250640502,2555.727,0,108.28125,4,30,-9999,1561841598.015432,-19.19007110595703,-16.89237976074219,16.00982666015625,131.2005615234375,138.6937713623047,15,169414.3283755417,-0.96240234375,0.2495574951171875,-0.1305999755859375,169414.3283755417,-0.04077326260522215,-0.1214262972699448,-0.1252050565406583,169414.3132385417,-93.77413940429688,-43.33604431152344,-546.731689453125,169414.3233095417,0.03490024293414614,-1.444746829784255,-0.2558066266525635,-0.05811130255460739,-0.1231971308588982,-0.1283368170261383,0.002859592437744141,-0.007862895727157593,-0.01408648490905762,1,-0.08423939347267151,-0.657336413860321,0.09730639308691025,0.7425255179405212,-0.9597840309143066,0.2530258595943451,-0.1216251254081726,0,0,0,-1,169413.7727629167,3,2,1561841597.719262,1561841239.621676,19,2.442143,0,0,18.59878,0,0,1561841548.131042,169411.248694,0,0.3779297,75.18938,0,182478453,3,1,1,-36.63179,-41.58677,2
1561841598.05128,61,0,0,1561841596.995095,4.634649851363744,-74.15101250640502,2555.727,0,108.28125,4,30,-9999,1561841598.039882,-19.25857543945312,-17.14371109008789,16.1278076171875,131.30224609375,138.7954559326172,15,169414.3486395417,-0.9852447509765625,0.2451171875,-0.1286163330078125,169414.3486395417,0.06661178413338893,-0.1542356429513941,-0.294051866496663,169414.3333495417,-93.42823791503906,-43.61819458007812,-546.7240600585938,169414.3435735417,0.03406874627450963,-1.447560464343763,-0.252945453925177,0.0284491553902626,-0.141357496380806,-0.2220393419265747,-0.009240627288818359,0.002398252487182617,-0.009252727031707764,1,-0.08331094682216644,-0.6584473848342896,0.09617923200130463,0.7417923212051392,-0.9608368873596191,0.2502567768096924,-0.1190126538276672,0,0,0,-1,169413.7727629167,3,2,1561841597.719262,1561841239.621676,19,2.442143,0,0,18.59878,0,0,1561841548.131042,169411.248694,0,0.3779297,75.18938,0,182478453,3,1,1,-36.63179,-37.27826,2
1561841598.079896,62,0,0,1561841597.99508,4.634649851363744,-74.15101250640502,2555.619,0,108.28125,4,30,-9999,1561841598.039882,-19.25857543945312,-17.14371109008789,16.1278076171875,131.30224609375,138.7954559326172,15,169414.3689025417,-0.954315185546875,0.225677490234375,-0.1165008544921875,169414.3689025417,0.1675711557938568,-0.2086536114016372,-0.2210479631148659,169414.3534615417,-93.31834411621094,-43.73460388183594,-546.5708618164062,169414.3638365417,0.03536535429315716,-1.451069673580762,-0.2470461539506662,0.1539127975702286,-0.2304460853338242,-0.2459854185581207,-0.01195752620697021,-0.02688950300216675,-0.0169980525970459,1,-0.08052080869674683,-0.6600069403648376,0.09486863762140274,0.7408826947212219,-0.9626976251602173,0.2445408701896667,-0.1158144772052765,0,0,0,-1,169413.7727629167,3,2,1561841597.719262,1561841239.621676,19,2.442143,0,0,18.59878,0,0,1561841548.131042,169411.248694,0,0.3779297,75.18938,0,182478453,3,1,1,-36.63179,-37.97086,2
1561841598.09157,63,0,0,1561841597.99508,4.634649851363744,-74.15101250640502,2555.619,0,108.28125,4,30,-9999,1561841598.079136,-18.97153472900391,-17.25553131103516,16.2513427734375,131.2396087646484,138.7328186035156,15,169414.3891665417,-1.004653930664062,0.24713134765625,-0.125030517578125,169414.3891665417,0.1296586608315978,-0.1715280805414965,-0.2414421844265837,169414.3735725417,-93.39787292480469,-43.95899963378906,-546.6482543945312,169414.3841005417,0.03801658246505486,-1.454473333540129,-0.2421278647402832,0.1334107220172882,-0.1857854127883911,-0.2347644567489624,-0.02594989538192749,0.02758029103279114,0.009983658790588379,1,-0.07765582948923111,-0.6615375280380249,0.09436798840761185,0.7398867011070251,-0.9642691612243652,0.2397689670324326,-0.1126753389835358,0,0,0,-1,169413.7727629167,3,2,1561841597.719262,1561841239.621676,19,2.442143,0,0,18.59878,0,0,1561841548.131042,169411.248694,0,0.3779297,75.18938,0,182478453,3,1,1,-36.63179,-37.97086,2
1561841598.111762,64,0,0,1561841597.99508,4.634649851363744,-74.15101250640502,2555.619,0,108.28125,4,30,-9999,1561841598.079136,-18.97153472900391,-17.25553131103516,16.2513427734375,131.2396087646484,138.7328186035156,15,169414.4094305417,-0.9717559814453125,0.1891326904296875,-0.1120452880859375,169414.4094305417,0.1402844072649049,-0.1593659564753227,-0.2632500116449156,169414.3936835417,-93.12626647949219,-43.71609497070312,-546.3381958007812,169414.4043645417,0.04018700436529229,-1.457287140364792,-0.2367567903013174,0.1402609050273895,-0.1589596569538116,-0.2643266320228577,-0.01921361684799194,-0.03928440809249878,-0.01699978113174438,1,-0.07481073588132858,-0.6628351211547852,0.09350879490375519,0.7391272187232971,-0.9658480286598206,0.2345511317253113,-0.1101059094071388,0,0,0,-1,169413.7727629167,3,2,1561841597.719262,1561841239.621676,19,2.442143,0,0,18.59878,0,0,1561841548.131042,169411.248694,0,0.3779297,75.18938,0,182478453,3,1,1,-36.63179,-38.4655,2
1561841598.132081,65,0,0,1561841597.99508,4.634649851363744,-74.15101250640502,2555.619,0,108.28125,4,30,-9999,1561841598.123549,-18.71987152099609,-17.31884002685547,16.5179443359375,130.8977966308594,138.3910064697266,15,169414.4296935417,-0.988525390625,0.2166290283203125,-0.1110076904296875,169414.4296935417,0.08046767865285319,-0.1107195907394993,-0.251229035116516,169414.4137635417,-92.98193359375,-43.94570922851562,-546.1941528320312,169414.4246275417,0.04214923246372951,-1.459956242938705,-0.2311739618379514,0.09201081842184067,-0.1352977305650711,-0.2625007629394531,-0.01093810796737671,-0.020242840051651,-0.004237234592437744,1,-0.07196452468633652,-0.6640675663948059,0.0924895852804184,0.7384315133094788,-0.9674248695373535,0.2291204184293747,-0.107670746743679,0,0,0,-1,169413.7727629167,3,2,1561841597.719262,1561841239.621676,19,2.442143,0,0,18.59878,0,0,1561841548.131042,169411.248694,0,0.3779297,75.18938,0,182478453,3,1,1,-36.63179,-39.22893,2
1561841598.159903,66,0,0,1561841597.99508,4.634649851363744,-74.15101250640502,2555.619,0,108.28125,4,30,-9999,1561841598.123549,-18.71987152099609,-17.31884002685547,16.5179443359375,130.8977966308594,138.3910064697266,15,169414.4499575417,-0.986572265625,0.2069244384765625,-0.1083526611328125,169414.4499575417,0.02693254810397134,-0.101600660850959,-0.237720949435416,169414.4338745417,-92.83782958984375,-43.84538269042969,-545.903076171875,169414.4448915417,0.04301129024553414,-1.461785082101948,-0.2260217300723754,0.0456174910068512,-0.08886578679084778,-0.2392175197601318,-0.02270489931106567,-0.01200506091117859,-0.004994630813598633,1,-0.06968400627374649,-0.6649285554885864,0.0911700576543808,0.7380393147468567,-0.9687806367874146,0.2241022288799286,-0.1060283109545708,0,0,0,-1,169413.7727629167,3,2,1561841597.719262,1561841239.621676,19,2.442143,0,0,18.59878,0,0,1561841548.131042,169411.248694,0,0.3779297,75.18938,0,182478453,3,1,1,-36.63179,-39.8346,2
1561841598.172657,67,0,0,1561841597.99508,4.634649851363744,-74.15101250640502,2555.619,0,108.28125,4,30,-9999,1561841598.166829,-18.14419555664062,-17.49556350708008,16.724609375,130.8202056884766,138.3134155273438,15,169414.4702215417,-0.9856719970703125,0.2060699462890625,-0.0968170166015625,169414.4702215417,-0.06221224201257803,-0.2254467062873498,-0.2609602257396655,169414.4539855417,-92.529541015625,-43.73887634277344,-546.1054077148438,169414.4651245417,0.0424700135662392,-1.464666955120999,-0.2211364136562747,-0.04679979383945465,-0.2041750699281693,-0.2587307989597321,-0.01061439514160156,-0.01690015196800232,3.349781036376953e-05,1,-0.06792428344488144,-0.6661162972450256,0.08945254981517792,0.737342357635498,-0.9701595306396484,0.2193385064601898,-0.1033507436513901,0,0,0,-1,169413.7727629167,3,2,1561841597.719262,1561841239.621676,19,2.442143,0,0,18.59878,0,0,1561841548.131042,169411.248694,0,0.3779297,75.18938,0,182478453,3,1,1,-36.32347,-39.88992,2
1561841598.192742,68,0,0,1561841597.99508,4.634649851363744,-74.15101250640502,2555.619,0,108.28125,4,30,-9999,1561841598.191184,-18.17161560058594,-17.65207672119141,16.7554931640625,130.9338989257812,138.4271087646484,15,169414.4904545417,-1.008682250976562,0.2088623046875,-0.0836029052734375,169414.4904545417,-0.006028331443503364,-0.1864055636551152,-0.2553590653350108,169414.4740965417,-92.54806518554688,-44.1639404296875,-546.07568359375,169414.4853885417,0.04074654899332826,-1.469564372335042,-0.2160164596478258,-0.03077448718249798,-0.2074736654758453,-0.2527416050434113,-0.02619677782058716,-0.005066081881523132,0.01017898321151733,1,-0.0663890466094017,-0.6680099368095398,0.08728313446044922,0.7360278367996216,-0.9717585444450378,0.2143403738737106,-0.09871044009923935,0,0,0,-1,169413.7727629167,3,2,1561841597.719262,1561841239.621676,19,2.442143,0,0,18.59878,0,0,1561841548.131042,169411.248694,0,0.3779297,75.18938,0,182478453,3,1,1,-33.91953,-36.98888,2
1561841598.213314,69,0,0,1561841597.99508,4.634649851363744,-74.15101250640502,2555.619,0,108.28125,4,30,-9999,1561841598.191184,-18.17161560058594,-17.65207672119141,16.7554931640625,130.9338989257812,138.4271087646484,15,169414.5107185417,-1.057952880859375,0.2038726806640625,-0.09820556640625,169414.5107185417,0.03433294014108353,-0.1429393125556049,-0.5005837374578341,169414.4941775417,-92.44754028320312,-44.2119140625,-546.0578002929688,169414.5056525417,0.04017619766133897,-1.473315292884553,-0.2099424297537983,0.02218220382928848,-0.1466997861862183,-0.4023494720458984,-0.05446302890777588,-0.003188133239746094,0.003621697425842285,1,-0.06417538970708847,-0.669542133808136,0.08517441898584366,0.7350782752037048,-0.9733995795249939,0.2084035873413086,-0.09518969804048538,0,0,0,-1,169413.7727629167,3,2,1561841597.719262,1561841239.621676,19,2.442143,0,0,18.59878,0,0,1561841548.131042,169411.248694,0,0.3779297,75.18938,0,182478453,3,1,1,-33.14361,-37.40609,2
1561841598.245251,70,0,0,1561841597.99508,4.634649851363744,-74.15101250640502,2555.619,0,108.28125,4,30,-9999,1561841598.21804,-17.81741333007812,-17.72008895874023,16.75213623046875,130.9651336669922,138.4583435058594,15,169414.5309815417,-1.083572387695312,0.155670166015625,-0.1633453369140625,169414.5309815417,0.08897701096787437,-0.4576775491355675,-1.059639573493339,169414.5142885417,-92.28817749023438,-44.47776794433594,-546.1017456054688,169414.5259155417,0.03981741216701469,-1.477581136282849,-0.1969908000722318,0.06493206322193146,-0.3492281436920166,-0.9123088121414185,-0.1040418744087219,-0.01099631190299988,-0.03211778402328491,1,-0.05934339016675949,-0.6714449524879456,0.08085180819034576,0.7342362999916077,-0.9764024615287781,0.1957192122936249,-0.09128007292747498,0,0,0,-1,169413.7727629167,3,2,1561841597.719262,1561841239.621676,19,2.442143,0,0,18.59878,0,0,1561841548.131042,169411.248694,0,0.3779297,75.18938,0,182478453,3,1,1,-33.14361,-36.24011,2
1561841598.253836,71,0,0,1561841597.99508,4.634649851363744,-74.15101250640502,2555.619,0,108.28125,4,30,-9999,1561841598.245317,-17.52568054199219,-17.99109268188477,16.94500732421875,130.976806640625,138.4700164794922,15,169414.5512455417,-1.05999755859375,0.1343536376953125,-0.1896209716796875,169414.5512455417,0.2540823459084268,-1.082887371913077,-1.511028600346902,169414.5343995417,-91.55056762695312,-44.73530578613281,-545.82763671875,169414.5461795417,0.04024522607624745,-1.489796629737719,-0.1728084114318907,0.2049693316221237,-0.9144632816314697,-1.420753717422485,-0.0864989161491394,-0.0348951518535614,-0.1055814623832703,1,-0.04983953386545181,-0.6765079498291016,0.07322556525468826,0.7310888171195984,-0.9818757176399231,0.1719496101140976,-0.07970602810382843,0,0,0,-1,169413.7727629167,3,2,1561841597.719262,1561841239.621676,19,2.442143,0,0,18.59878,0,0,1561841548.131042,169411.248694,0,0.3779297,75.18938,0,182478453,3,1,1,-33.14361,-36.24011,2
1561841598.273878,72,0,0,1561841597.99508,4.634649851363744,-74.15101250640502,2555.619,0,108.28125,4,30,-9999,1561841598.268253,-16.22563171386719,-18.66348266601562,17.5662841796875,130.7289123535156,138.2221221923828,15,169414.5715095417,-1.094314575195312,0.1189117431640625,-0.0768585205078125,169414.5715095417,0.596167518457977,-1.338370540554885,-1.903602779790502,169414.5545105417,-90.83082580566406,-45.00076293945312,-545.4552001953125,169414.5664435417,0.04461827486082438,-1.513033854904659,-0.1397066154051273,0.5016471147537231,-1.31318187713623,-1.83803379535675,-0.0942193865776062,0.0003042817115783691,-0.1104346513748169,1,-0.0354713536798954,-0.6856805682182312,0.06407888233661652,0.7242084145545959,-0.9886053204536438,0.1392525881528854,-0.05716788396239281,0,0,0,-1,169413.7727629167,3,2,1561841597.719262,1561841239.621676,19,2.442143,0,0,18.59878,0,0,1561841548.131042,169411.248694,0,0.3779297,75.18938,0,182478453,3,1,1,-33.14361,-34.09107,2
1561841598.29413,73,0,0,1561841597.99508,4.634649851363744,-74.15101250640502,2555.619,0,108.28125,4,30,-9999,1561841598.268253,-16.22563171386719,-18.66348266601562,17.5662841796875,130.7289123535156,138.2221221923828,15,169414.5917725417,-1.33306884765625,0.1579742431640625,-0.0197906494140625,169414.5917725417,0.8389910845419849,-0.9653727256522402,-1.53854464704571,169414.5746215417,-89.68766784667969,-45.453369140625,-544.6989135742188,169414.5867065417,0.05643999184098254,-1.537871872167209,-0.1015694099907634,0.7978236079216003,-1.144244313240051,-1.70727527141571,-0.1936355233192444,0.03367593884468079,-0.007946312427520752,1,-0.01687080226838589,-0.6952272653579712,0.05553647130727768,0.7164426445960999,-0.9943070411682129,0.1013948619365692,-0.03274885192513466,0,0,0,-1,169413.7727629167,3,2,1561841597.719262,1561841239.621676,19,2.442143,0,0,18.59878,0,0,1561841548.131042,169411.248694,0,0.3779297,75.18938,0,182478453,3,1,1,-33.14361,-34.79184,2
1561841598.325703,74,0,0,1561841597.99508,4.634649851363744,-74.15101250640502,2555.619,0,108.28125,4,30,-9999,1561841598.319565,-13.98512268066406,-19.08044815063477,18.8707275390625,128.6865234375,136.1797332763672,15,169414.6120365417,-1.457122802734375,0.1152191162109375,-0.0014190673828125,169414.6120365417,0.7956273651444427,-0.1763105852270608,-0.9398737571630584,169414.5947325417,-88.46257019042969,-45.79481506347656,-544.1825561523438,169414.6069705417,0.07286914800969424,-1.551963746991474,-0.07340232858175845,0.8346192240715027,-0.359067440032959,-1.052582144737244,-0.4290017485618591,0.06988255679607391,0.02627283334732056,1,-0.000675019808113575,-0.7004349827766418,0.05166462063789368,0.7118434906005859,-0.9971303939819336,0.07333642989397049,-0.01878075860440731,0,0,0,-1,169413.7727629167,3,2,1561841597.719262,1561841239.621676,19,2.442143,0,0,18.59878,0,0,1561841548.131042,169412.192521,0,0.4995117,75.18825,0,182478453,3,1,1,-33.14361,-35.17121,2
1561841598.335968,75,0,0,1561841597.99508,4.634649851363744,-74.15101250640502,2555.619,0,108.28125,4,30,-9999,1561841598.319565,-13.98512268066406,-19.08044815063477,18.8707275390625,128.6865234375,136.1797332763672,15,169414.6323005417,-1.4195556640625,0.064788818359375,-0.043426513671875,169414.6323005417,0.4951855099282435,0.1529274982239471,-0.8134921160528031,169414.6148135417,-87.85969543457031,-45.73556518554688,-543.7036743164062,169414.6272035417,0.08719017142985362,-1.552613132021253,-0.05505892420324499,0.5788894295692444,0.1091016232967377,-0.8135873079299927,-0.447114884853363,0.03702516853809357,-0.009265363216400146,1,0.01090230233967304,-0.7005739212036133,0.05035145580768585,0.7117177248001099,-0.9983196258544922,0.05503110960125923,-0.01815464161336422,0,0,0,-1,169413.7727629167,3,2,1561841597.719262,1561841239.621676,19,2.442143,0,0,18.59878,0,0,1561841548.131042,169412.192521,0,0.4995117,75.18825,0,182478453,3,1,1,-33.14361,-35.9552,2
1561841598.3552,76,0,0,1561841597.99508,4.634649851363744,-74.15101250640502,2555.619,0,108.28125,4,30,-9999,1561841598.343331,-13.43830108642578,-19.11652374267578,19.093017578125,127.9103012084961,135.4035034179688,15,169414.6525335417,-1.379959106445312,0.0564727783203125,-0.0116119384765625,169414.6525335417,0.210731143368008,0.1605920758411952,-0.8078957493381107,169414.6349245417,-87.75689697265625,-45.84478759765625,-543.450439453125,169414.6474675417,0.09528049840759213,-1.549178401145328,-0.03813441677804603,0.2661120295524597,0.1563274562358856,-0.8319162726402283,-0.3874350786209106,0.0144566111266613,-0.01325052976608276,1,0.01969079673290253,-0.6991509199142456,0.04734991863369942,0.7131327390670776,-0.9990395307540894,0.0381251759827137,-0.02160052768886089,0,0,0,-1,169413.7727629167,3,2,1561841597.719262,1561841239.621676,19,2.442143,0,0,18.59878,0,0,1561841548.131042,169412.192521,0,0.4995117,75.18825,0,182478453,3,1,1,-33.14361,-36.68404,2
1561841598.375194,77,0,0,1561841597.99508,4.634649851363744,-74.15101250640502,2555.619,0,108.28125,4,30,-9999,1561841598.369756,-13.15303802490234,-19.37528991699219,19.28887939453125,127.6200485229492,135.1132507324219,15,169414.6727965417,-1.425582885742188,0.0476837158203125,0.0411224365234375,169414.6727965417,0.1694359011891303,0.2422049137627824,-0.6061644925579165,169414.6550355417,-87.4263916015625,-45.84622192382812,-543.690185546875,169414.6677315417,0.09876643002284298,-1.545673973236962,-0.02259751269299277,0.1612282395362854,0.2009545862674713,-0.6636564135551453,-0.4021362662315369,0.0363643690943718,0.04270666837692261,1,0.02638250589370728,-0.6976727843284607,0.04321710020303726,0.7146250605583191,-0.9994292855262756,0.02259558998048306,-0.0251132994890213,0,0,0,-1,169413.7727629167,3,2,1561841597.719262,1561841239.621676,19,2.442143,0,0,18.59878,0,0,1561841548.131042,169412.192521,0,0.4995117,75.18825,0,182478453,3,1,1,-33.14361,-37.38036,2
1561841598.407304,78,0,0,1561841597.99508,4.634649851363744,-74.15101250640502,2555.619,0,108.28125,4,30,-9999,1561841598.394156,-12.78615570068359,-19.25624847412109,19.0897216796875,127.4128799438477,134.9060821533203,15,169414.6930605417,-1.48931884765625,0.0358123779296875,0.0651092529296875,169414.6930605417,0.1176089221634253,0.5026671283786031,-0.481623095760906,169414.6751465417,-87.27865600585938,-45.95565795898438,-543.7369384765625,169414.6879945417,0.1017753331273381,-1.539739866295402,-0.01077968967772707,0.1460413038730621,0.4103504121303558,-0.5184627175331116,-0.4471955895423889,0.0259331651031971,0.09026902914047241,1,0.03153926134109497,-0.6953275799751282,0.04026779159903526,0.7168704867362976,-0.9994596838951111,0.01077948044985533,-0.03104966320097446,0,0,0,-1,169413.7727629167,3,2,1561841597.719262,1561841239.621676,19,2.442143,0,0,18.59878,0,0,1561841548.131042,169412.192521,0,0.4995117,75.18825,0,182478453,3,1,1,-33.14361,-37.94894,2
1561841598.415977,79,0,0,1561841597.99508,4.634649851363744,-74.15101250640502,2555.619,0,108.28125,4,30,-9999,1561841598.394156,-12.78615570068359,-19.25624847412109,19.0897216796875,127.4128799438477,134.9060821533203,15,169414.7133245417,-1.540069580078125,0.0282745361328125,0.0291595458984375,169414.7133245417,-0.1963684492931016,0.8539476635399789,-0.29858669720085,169414.6952275417,-87.26863098144531,-45.93032836914062,-543.5841064453125,169414.7082585417,0.1024965236514963,-1.527783456098414,-0.001935828420249244,-0.09284451603889465,0.7701948881149292,-0.3418179452419281,-0.5373496413230896,0.02484335005283356,0.1008608341217041,1,0.03473673388361931,-0.6908643841743469,0.0376613512635231,0.7211666107177734,-0.9990730881690979,0.001935827196575701,-0.04299952462315559,0,0,0,-1,169413.7727629167,3,2,1561841597.719262,1561841239.621676,19,2.442143,0,0,18.59878,0,0,1561841548.131042,169412.192521,0,0.4995117,75.18825,0,182478453,3,1,1,-33.14361,-37.94894,2
1561841598.436149,80,0,0,1561841597.99508,4.634649851363744,-74.15101250640502,2555.619,0,108.28125,4,30,-9999,1561841598.420743,-12.89765930175781,-19.4682731628418,19.12298583984375,127.5073165893555,135.0005187988281,15,169414.7335875417,-1.4407958984375,0.1126708984375,-0.1110687255859375,169414.7335875417,-0.6577941313468466,0.932397731350988,-0.1778829155346436,169414.7153385417,-87.33468627929688,-46.44969177246094,-543.929443359375,169414.7285225417,0.09577908492494439,-1.509809266610768,0.003173380105200448,-0.5537322163581848,0.9401119947433472,-0.2081618756055832,-0.4999108910560608,0.06567337363958359,0.03049242496490479,1,0.03395656496286392,-0.6843774318695068,0.03378036245703697,0.727553129196167,-0.998136043548584,-0.003173374803736806,-0.06094896420836449,0,0,0,-1,169413.7727629167,3,2,1561841597.719262,1561841239.621676,19,2.442143,0,0,18.59878,0,0,1561841548.131042,169412.192521,0,0.4995117,75.18825,0,182478453,3,1,1,-33.14361,-38.78378,2
1561841598.4566,81,0,0,1561841597.99508,4.634649851363744,-74.15101250640502,2555.619,0,108.28125,4,30,-9999,1561841598.444663,-13.14436340332031,-19.62935638427734,18.835205078125,128.3543243408203,135.8475341796875,15,169414.7538515417,-1.3583984375,0.1440277099609375,-0.2039794921875,169414.7538515417,-0.8504962067672361,0.8579053872359457,-0.01457121958825954,169414.7354495417,-87.62994384765625,-46.50852966308594,-544.3514404296875,169414.7487855417,0.08077874062326793,-1.491598610214935,0.005043812962711477,-0.8493441343307495,0.8445918560028076,-0.06655734032392502,-0.3943367004394531,0.1486137360334396,-0.1009244918823242,1,0.02924998104572296,-0.6779288053512573,0.02794981561601162,0.7340134978294373,-0.9968528747558594,-0.005043791607022285,-0.07911394536495209,0,0,0,-1,169413.7727629167,3,2,1561841597.719262,1561841239.621676,19,2.442143,0,0,18.59878,0,0,1561841548.131042,169412.192521,0,0.4995117,75.18825,0,182478453,3,1,1,-33.14361,-39.25583,2
1561841598.482471,82,0,0,1561841597.99508,4.634649851363744,-74.15101250640502,2555.619,0,108.28125,4,30,-9999,1561841598.470985,-13.73061370849609,-20.38725662231445,17.5645751953125,129.5333251953125,137.0265350341797,15,169414.7741155417,-1.325042724609375,0.1631011962890625,-0.17303466796875,169414.7741155417,-0.5982573009653622,1.043017986181827,0.170365344409568,169414.7555605417,-87.85621643066406,-46.75233459472656,-545.1614990234375,169414.7690185417,0.06460005451603978,-1.473515026094713,0.003131847065307368,-0.6922679543495178,0.9755714535713196,0.1118179932236671,-0.3462399840354919,0.1537208259105682,-0.09003686904907227,1,0.02285745926201344,-0.6715011596679688,0.02286728098988533,0.740297794342041,-0.9952670335769653,-0.003131842007860541,-0.09712745994329453,0,0,0,-1,169413.7727629167,3,2,1561841597.719262,1561841239.621676,19,2.442143,0,0,18.59878,0,0,1561841548.131042,169412.192521,0,0.4995117,75.18825,0,182478453,3,1,1,-33.14361,-34.86076,2
1561841598.496783,83,0,0,1561841597.99508,4.634649851363744,-74.15101250640502,2555.619,0,108.28125,4,30,-9999,1561841598.495093,-14.13645935058594,-20.31672286987305,17.11102294921875,130.1446533203125,137.6378631591797,15,169414.7943785417,-1.248306274414062,0.1815032958984375,-0.1891937255859375,169414.7943785417,-0.1398063698492357,1.208488973140048,0.3835623086308803,169414.7756715417,-88.27461242675781,-46.90538024902344,-545.4459838867188,169414.7892825417,0.05528194778862244,-1.451710174161649,-0.002516006016005037,-0.2603589594364166,1.149842381477356,0.342208594083786,-0.2924859523773193,0.1649797260761261,-0.05352824926376343,1,0.01740450225770473,-0.663547158241272,0.02150563523173332,0.7476227283477783,-0.9929144382476807,0.002516003325581551,-0.118804506957531,0,0,0,-1,169413.7727629167,3,2,1561841597.719262,1561841239.621676,19,2.442143,0,0,18.59878,0,0,1561841548.131042,169412.192521,0,0.4995117,75.18825,0,182478453,3,1,1,-33.14361,-35.4024,2
1561841598.517171,84,0,0,1561841597.99508,4.634649851363744,-74.15101250640502,2555.619,0,108.28125,4,30,-9999,1561841598.495093,-14.13645935058594,-20.31672286987305,17.11102294921875,130.1446533203125,137.6378631591797,15,169414.8146125417,-1.143798828125,0.1762847900390625,-0.185546875,169414.8146125417,0.1052595778726188,1.612824470905764,0.3563056538222463,169414.7957525417,-88.92294311523438,-46.75436401367188,-546.0674438476562,169414.8095465417,0.05521175006475832,-1.425287027219521,-0.01032600084162572,0.09420260041952133,1.511651158332825,0.3781298398971558,-0.2088322043418884,0.178562730550766,-0.04675328731536865,1,0.01414218172430992,-0.6536862254142761,0.02425912581384182,0.7562445402145386,-0.9893794059753418,0.01032581739127636,-0.1449886411428452,0,0,0,-1,169413.7727629167,3,2,1561841597.719262,1561841239.621676,19,2.442143,0,0,18.59878,0,0,1561841548.131042,169412.192521,0,0.4995117,75.18825,0,182478453,3,1,1,-33.14361,-36.1413,2
1561841598.537538,85,0,0,1561841597.99508,4.634649851363744,-74.15101250640502,2555.619,0,108.28125,4,30,-9999,1561841598.521492,-14.77085876464844,-20.2375602722168,16.6387939453125,130.0323028564453,137.5255126953125,15,169414.8348755417,-0.9701385498046875,0.18310546875,-0.30487060546875,169414.8348755417,-0.1247651023285772,1.688806853650706,0.1949415275810372,169414.8158635417,-89.63786315917969,-46.99612426757812,-546.5896606445312,169414.8298095417,0.05724047188515085,-1.391693456591871,-0.01649589693562558,-0.06073318421840668,1.723077893257141,0.2395192384719849,-0.08294826745986938,0.1547694951295853,-0.05562680959701538,1,0.01201573386788368,-0.6409323811531067,0.02724760957062244,0.7670193910598755,-0.9838699102401733,0.01649514958262444,-0.1781226098537445,0,0,0,-1,169413.7727629167,3,2,1561841597.719262,1561841239.621676,19,2.442143,0,0,18.59878,0,0,1561841548.131042,169412.192521,0,0.4995117,75.18825,0,182478453,3,1,1,-33.14361,-34.87388,2
1561841598.564967,86,0,0,1561841597.99508,4.634649851363744,-74.15101250640502,2555.619,0,108.28125,4,30,-9999,1561841598.546001,-15.11589813232422,-20.26325607299805,16.05035400390625,130.0742492675781,137.5674591064453,15,169414.8551395417,-0.78155517578125,0.175933837890625,-0.302825927734375,169414.8551395417,-0.04309234328246315,1.47833829796618,0.06605571609778038,169414.8359745417,-90.14717102050781,-46.56739807128906,-547.1161499023438,169414.8500735417,0.05503212399850761,-1.358798789396662,-0.02002546756568495,-0.1278530955314636,1.516867160797119,0.0761159211397171,0.1031337380409241,0.1657516211271286,-0.1277180314064026,1,0.009499675594270229,-0.6282708644866943,0.02769112586975098,0.7774437069892883,-0.9774165749549866,0.0200241282582283,-0.2103709578514099,0,0,0,-1,169413.7727629167,3,2,1561841597.719262,1561841239.621676,19,2.442143,0,0,18.59878,0,0,1561841548.131042,169412.192521,0,0.4995117,75.18825,0,182478453,3,1,1,-33.14361,-35.58856,2
1561841598.577924,87,0,0,1561841597.99508,4.634649851363744,-74.15101250640502,2555.619,0,108.28125,4,30,-9999,1561841598.57333,-16.37577056884766,-20.17948150634766,15.12042236328125,130.0444946289062,137.5377044677734,15,169414.8754035417,-0.6279144287109375,0.14837646484375,-0.1969757080078125,169414.8754035417,0.3404230937132318,1.354100501533438,0.1465444337232452,169414.8560855417,-90.61518859863281,-46.73197937011719,-547.77978515625,169414.8703375417,0.05661046434425456,-1.329473079724052,-0.02122663121816185,0.2660832703113556,1.389176368713379,0.1091665476560593,0.2737212777137756,0.1318969130516052,-0.002872169017791748,1,0.009106800891458988,-0.6168063879013062,0.02881833165884018,0.7865344285964966,-0.9708037972450256,0.02122503705322742,-0.2389338910579681,0,0,0,-1,169413.7727629167,3,2,1561841597.719262,1561841239.621676,19,2.442143,0,0,18.59878,0,0,1561841548.131042,169412.192521,0,0.4995117,75.18825,0,182478453,3,1,1,-33.14361,-35.58856,2
1561841598.598508,88,0,0,1561841597.99508,4.634649851363744,-74.15101250640502,2555.619,0,108.28125,4,30,-9999,1561841598.57333,-16.37577056884766,-20.17948150634766,15.12042236328125,130.0444946289062,137.5377044677734,15,169414.8956665417,-0.502044677734375,0.1489105224609375,-0.2111053466796875,169414.8956665417,0.3041393880736652,1.221361362268946,0.3214315593476587,169414.8761665417,-90.91145324707031,-46.40696716308594,-548.2496948242188,169414.8906005417,0.06444125178355946,-1.302539996189112,-0.02297295851544414,0.3520474433898926,1.258263826370239,0.2618570029735565,0.4025329947471619,0.1267330348491669,0.07809096574783325,1,0.01039695460349321,-0.6061366200447083,0.03257871046662331,0.7946250438690186,-0.9639801383018494,0.02297093719244003,-0.2649806141853333,0,0,0,-1,169413.7727629167,3,2,1561841597.719262,1561841239.621676,19,2.442143,0,0,18.59878,0,0,1561841548.131042,169412.192521,0,0.4995117,75.18825,0,182478453,3,1,1,-33.14361,-36.33607,2
1561841598.618835,89,0,0,1561841597.99508,4.634649851363744,-74.15101250640502,2555.619,0,108.28125,4,30,-9999,1561841598.609463,-16.63973999023438,-19.84907913208008,14.57574462890625,129.4878540039062,136.9810638427734,15,169414.9159305417,-0.43017578125,0.119140625,-0.2457122802734375,169414.9159305417,0.07888948939087223,1.201795117740134,0.4661093834628673,169414.8962775417,-91.63322448730469,-46.14279174804688,-548.2943725585938,169414.9108645417,0.07127119516034855,-1.278102339416762,-0.02879388961923512,0.1314716786146164,1.181779980659485,0.4499640762805939,0.4837149977684021,0.1139255464076996,0.04389095306396484,1,0.009699441492557526,-0.5964053869247437,0.03717540577054024,0.8017633557319641,-0.9570731520652771,0.02878991141915321,-0.2884130775928497,0,0,0,-1,169413.7727629167,3,2,1561841597.719262,1561841239.621676,19,2.442143,0,0,18.59878,0,0,1561841548.131042,169412.192521,0,0.4995117,75.18825,0,182478453,3,1,1,-33.14361,-34.79054,2
1561841598.638985,90,0,0,1561841597.99508,4.634649851363744,-74.15101250640502,2555.619,0,108.28125,4,30,-9999,1561841598.609463,-16.63973999023438,-19.84907913208008,14.57574462890625,129.4878540039062,136.9810638427734,15,169414.9361945417,-0.4485321044921875,0.0677337646484375,-0.17767333984375,169414.9361945417,-0.04764262032097253,0.9864985173154027,0.5115248021642066,169414.9163885417,-91.81010437011719,-45.99325561523438,-548.5994873046875,169414.9310975417,0.07485785742012106,-1.254370075084483,-0.03767276938099017,-0.03437081724405289,1.078347325325012,0.495610386133194,0.5474879741668701,0.05315645039081573,0.09203356504440308,1,0.00671690097078681,-0.5869234800338745,0.04133918136358261,0.8085584044456482,-0.9496791958808899,0.03766385838389397,-0.3109514117240906,0,0,0,-1,169413.7727629167,3,2,1561841597.719262,1561841239.621676,19,2.442143,0,0,18.59878,0,0,1561841548.131042,169412.192521,0,0.4995117,75.18825,0,182478453,3,1,1,-33.14361,-35.2039,2
1561841598.658951,91,0,0,1561841597.99508,4.634649851363744,-74.15101250640502,2555.619,0,108.28125,4,30,-9999,1561841598.647067,-17.89251708984375,-19.50545883178711,14.00396728515625,128.8822631835938,136.3754730224609,15,169414.95648175,-0.445892333984375,0.0075836181640625,-0.0924530029296875,169414.95648175,0.1161361940806114,0.6016893166621473,0.4546735034259581,169414.93649275,-92.58006286621094,-46.00291442871094,-549.0814208984375,169414.95138575,0.07760770887696922,-1.236212004489392,-0.04756428132325943,0.03740536421537399,0.6995795369148254,0.4871130287647247,0.4596071243286133,-0.007507283240556717,0.198137640953064,1,0.003109056502580643,-0.579644501209259,0.04537729546427727,0.8135990500450134,-0.9434785842895508,0.04754634946584702,-0.3280051648616791,0,0,0,-1,169413.7727629167,3,2,1561841597.719262,1561841239.621676,19,2.442143,0,0,18.59878,0,0,1561841548.131042,169412.192521,0,0.4995117,75.18825,0,182478453,3,1,1,-33.14361,-35.9268,2
1561841598.679128,92,0,0,1561841597.99508,4.634649851363744,-74.15101250640502,2555.619,0,108.28125,4,30,-9999,1561841598.673608,-18.79132843017578,-19.05073165893555,13.42242431640625,128.4570922851562,135.9503021240234,15,169414.97671475,-0.3402252197265625,-0.0236968994140625,-0.0528717041015625,169414.97671475,0.5720520621550915,0.1247690970702123,0.2215768669073557,169414.95660375,-93.24375915527344,-45.49000549316406,-549.5875854492188,169414.97164975,0.0845069110615022,-1.226043666472377,-0.05354518680510867,0.443577915430069,0.2541373670101166,0.2745315432548523,0.5604614019393921,-0.0697396993637085,0.2606057524681091,1,0.002418735530227423,-0.5755470395088196,0.04992479830980301,0.8162396550178528,-0.9398101568222046,0.0535196028649807,-0.3374795019626617,0,0,0,-1,169413.7727629167,3,2,1561841597.719262,1561841239.621676,19,2.442143,0,0,18.59878,0,0,1561841548.131042,169412.192521,0,0.4995117,75.18825,0,182478453,3,1,1,-33.14361,-36.11568,2
1561841598.699531,93,0,0,1561841597.99508,4.634649851363744,-74.15101250640502,2555.619,0,108.28125,4,30,-9999,1561841598.697932,-18.76177978515625,-18.86298370361328,13.52935791015625,127.3533248901367,134.8465270996094,15,169414.99697875,-0.4025115966796875,-0.016937255859375,0.019500732421875,169414.99697875,1.080539529096063,-0.4619284868675519,0.1947923905599928,169414.97671475,-93.31338500976562,-45.44680786132812,-549.4274291992188,169414.99191275,0.09918404151094062,-1.225950159956512,-0.0523350830926035,0.9594380855560303,-0.3375948965549469,0.1537598520517349,0.5854535102844238,-0.07129313051700592,0.320392370223999,1,0.007134276442229748,-0.5754603147506714,0.05556684732437134,0.8159086108207703,-0.9398388862609863,0.05231119692325592,-0.3375890552997589,0,0,0,-1,169413.7727629167,3,2,1561841597.719262,1561841239.621676,19,2.442143,0,0,18.59878,0,0,1561841548.131042,169412.192521,0,0.4995117,75.18825,0,182478453,3,1,1,-33.14361,-36.97431,2
1561841598.721986,94,0,0,1561841597.99508,4.634649851363744,-74.15101250640502,2555.619,0,108.28125,4,30,-9999,1561841598.697932,-18.76177978515625,-18.86298370361328,13.52935791015625,127.3533248901367,134.8465270996094,15,169415.01724275,-0.5514984130859375,-0.0492706298828125,0.02569580078125,169415.01724275,1.25001644296598,-0.5492213147620603,0.5276132246254843,169414.99682675,-93.22016906738281,-45.15965270996094,-549.211669921875,169415.01217675,0.1231140377463218,-1.235562016148499,-0.04977122547624838,1.270617842674255,-0.6198878288269043,0.4404251575469971,0.4720181226730347,-0.0800851508975029,0.3695070743560791,1,0.01537660416215658,-0.579199492931366,0.06451761722564697,0.8124831318855286,-0.9431637525558472,0.0497506782412529,-0.3285830020904541,0,0,0,-1,169413.7727629167,3,2,1561841597.719262,1561841239.621676,19,2.442143,0,0,18.59878,0,0,1561841548.131042,169412.192521,0,0.4995117,75.18825,0,182478453,3,1,1,-33.14361,-37.93562,2
1561841598.739973,95,0,0,1561841597.99508,4.634649851363744,-74.15101250640502,2555.619,0,108.28125,4,30,-9999,1561841598.724075,-18.84767150878906,-18.66967010498047,13.92938232421875,125.5147933959961,133.0079956054688,15,169415.03750675,-0.6657867431640625,-0.1158447265625,-0.105712890625,169415.03750675,0.6933521255893667,-0.01155865176316191,0.694909275878736,169415.01690675,-93.38868713378906,-44.74464416503906,-548.484375,169415.03244075,0.1487218072908165,-1.242587455264779,-0.05345579042033606,0.8815968036651611,-0.1305352002382278,0.6811054348945618,0.3184226751327515,-0.1337373405694962,0.2901340126991272,1,0.02155873365700245,-0.5818861126899719,0.07590064406394958,0.8094335794448853,-0.945268988609314,0.05343033373355865,-0.3218875527381897,0,0,0,-1,169413.7727629167,3,2,1561841597.719262,1561841239.621676,19,2.442143,0,0,18.59878,0,0,1561841548.131042,169412.192521,0,0.4995117,75.18825,0,182478453,3,1,1,-33.14361,-37.93562,2
1561841598.760172,96,0,0,1561841597.99508,4.634649851363744,-74.15101250640502,2555.619,0,108.28125,4,30,-9999,1561841598.748433,-18.97615814208984,-17.83723449707031,14.54205322265625,124.0983657836914,131.5915679931641,15,169415.05776975,-0.6493072509765625,-0.1204986572265625,-0.1907196044921875,169415.05776975,0.007501059526317183,-0.04443404383964507,0.5985406613053467,169415.03701775,-93.46176147460938,-44.0816650390625,-547.9891967773438,169415.05270375,0.162697198138281,-1.241359416539288,-0.06307347140742844,0.1345308423042297,0.0481535829603672,0.6271058320999146,0.2841868996620178,-0.1977972835302353,0.1568208336830139,1,0.02167019061744213,-0.5814610123634338,0.08434760570526123,0.8088998794555664,-0.9443431496620178,0.06303165853023529,-0.3228669762611389,0,0,0,-1,169413.7727629167,3,2,1561841597.719262,1561841239.621676,19,2.442143,0,0,18.59878,0,0,1561841548.131042,169412.192521,0,0.4995117,75.18825,0,182478453,3,1,1,-33.14361,-38.7714,2
1561841598.805963,97,0,0,1561841597.99508,4.634649851363744,-74.15101250640502,2555.619,0,108.28125,4,30,-9999,1561841598.799258,-19.120849609375,-17.24865341186523,15.13671875,123.5885238647461,131.0817260742188,15,169415.07803375,-0.6823272705078125,-0.062957763671875,-0.18341064453125,169415.07803375,-0.08625073295996026,-0.7231582245095335,0.5037180117447484,169415.05712875,-93.32899475097656,-44.08950805664062,-547.8182373046875,169415.07296775,0.1655230650245736,-1.245639368349844,-0.07436960636677505,-0.1236450374126434,-0.5617132186889648,0.5245552659034729,0.2881209850311279,-0.1580718159675598,0.1237350702285767,1,0.01809610798954964,-0.5834254622459412,0.08871053904294968,0.8071045875549316,-0.9449813365936279,0.07430107146501541,-0.3185745179653168,0,0,0,-1,169413.7727629167,3,2,1561841597.719262,1561841239.621676,19,2.442143,0,0,18.59878,0,0,1561841548.131042,169412.192521,0,0.4995117,75.18825,0,182478453,3,1,1,-33.14361,-40.20995,2
1561841598.808053,98,0,0,1561841597.99508,4.634649851363744,-74.15101250640502,2555.619,0,108.28125,4,30,-9999,1561841598.799258,-19.120849609375,-17.24865341186523,15.13671875,123.5885238647461,131.0817260742188,15,169415.09829775,-0.8057098388671875,-0.067626953125,-0.15252685546875,169415.09829775,0.1170323477874231,-0.6530169529834625,0.4191679734569127,169415.07720975,-93.54487609863281,-43.6087646484375,-547.9533081054688,169415.09320075,0.1680547008785389,-1.261183956691545,-0.08370353398833058,0.08565225452184677,-0.797209620475769,0.4306023716926575,0.2235464453697205,-0.1462889313697815,0.1394228935241699,1,0.01576916314661503,-0.5898643732070923,0.09231042116880417,0.802053689956665,-0.949117124080658,0.08360582590103149,-0.3036227226257324,0,0,0,-1,169413.7727629167,3,2,1561841597.719262,1561841239.621676,19,2.442143,0,0,18.59878,0,0,1561841548.131042,169412.192521,0,0.4995117,75.18825,0,182478453,3,1,1,-33.14361,-40.20995,2
1561841598.821081,99,0,0,1561841597.99508,4.634649851363744,-74.15101250640502,2555.619,0,108.28125,4,30,-9999,1561841598.799258,-19.120849609375,-17.24865341186523,15.13671875,123.5885238647461,131.0817260742188,15,169415.11856075,-0.993438720703125,-0.0808258056640625,-0.18463134765625,169415.11856075,-0.07196527055666621,0.01900538280324147,0.3573525424467565,169415.09732075,-93.8885498046875,-43.3890380859375,-547.5081787109375,169415.11346475,0.1721472490222873,-1.270595044586258,-0.09097108192905309,0.004023707006126642,-0.1393755674362183,0.3747265636920929,0.04699945449829102,-0.1665292531251907,0.1352337002754211,1,0.01449876837432384,-0.5937549471855164,0.09600586444139481,0.7987663149833679,-0.951326847076416,0.09084565937519073,-0.294489711523056,0,0,0,-1,169413.7727629167,3,2,1561841597.719262,1561841239.621676,19,2.442143,0,0,18.59878,0,0,1561841548.131042,169412.192521,0,0.4995117,75.18825,0,182478453,3,1,1,-33.14361,-40.98122,2
1561841598.841304,100,0,0,1561841597.99508,4.634649851363744,-74.15101250640502,2555.619,0,108.28125,4,30,-9999,1561841598.825422,-19.31566619873047,-16.87067031860352,15.08734130859375,123.3849716186523,130.878173828125,15,169415.13879375,-1.00042724609375,-0.07745361328125,-0.23779296875,169415.13879375,-0.3250009941566919,0.2817203653851602,0.1530950110565131,169415.11743175,-93.6578369140625,-43.41909790039062,-547.24609375,169415.13372775,0.1710401086962751,-1.268558448182589,-0.09786903766934106,-0.2950311601161957,0.2658145427703857,0.2092305719852448,-0.07093751430511475,-0.1807969808578491,0.07795602083206177,1,0.01129960548132658,-0.5930900573730469,0.09760096669197083,0.7991186380386353,-0.9501043558120728,0.09771287441253662,-0.2962329983711243,0,0,0,-1,169413.7727629167,3,2,1561841597.719262,1561841239.621676,19,2.442143,0,0,18.59878,0,0,1561841548.131042,169412.192521,0,0.4995117,75.18825,0,182478453,3,1,1,-33.14361,-40.55348,2
1561841598.886522,101,0,0,1561841597.99508,4.634649851363744,-74.15101250640502,2555.619,0,108.28125,4,30,-9999,1561841598.87691,-19.39110565185547,-16.85298538208008,15.189453125,124.0005416870117,131.4937438964844,15,169415.15905775,-0.9789581298828125,-0.04296875,-0.200836181640625,169415.15905775,-0.2072232275801556,0.167307502845939,-0.07903250114140949,169415.13754275,-93.72140502929688,-43.27346801757812,-547.6934814453125,169415.15399175,0.1655875645332886,-1.26408832800456,-0.1015806064619777,-0.2625920176506042,0.19641974568367,-0.01907584443688393,-0.02909022569656372,-0.1656302511692047,0.06824880838394165,1,0.007974523119628429,-0.5913997292518616,0.09652850031852722,0.8005404472351074,-0.9484183192253113,0.1014060005545616,-0.300365537405014,0,0,0,-1,169413.7727629167,3,2,1561841597.719262,1561841239.621676,19,2.442143,0,0,18.59878,0,0,1561841548.131042,169412.192521,0,0.4995117,75.18825,0,182478453,3,1,1,-33.14361,-41.77536,2
1561841598.889307,102,0,0,1561841597.99508,4.634649851363744,-74.15101250640502,2555.619,0,108.28125,4,30,-9999,1561841598.87691,-19.39110565185547,-16.85298538208008,15.189453125,124.0005416870117,131.4937438964844,15,169415.17932175,-0.97113037109375,0.0013275146484375,-0.1781768798828125,169415.17932175,-0.033239978829715,-0.006411826640474774,-0.2945727808058826,169415.15762375,-93.95683288574219,-43.31591796875,-547.8067626953125,169415.17425575,0.1616524975516108,-1.26210300630277,-0.09971885679677597,-0.05929774045944214,0.03126461431384087,-0.2638448476791382,-0.03456085920333862,-0.1241050660610199,0.1310705542564392,1,0.00746707571670413,-0.5905860662460327,0.09441626816987991,0.801397442817688,-0.9479983448982239,0.0995536744594574,-0.3023046851158142,0,0,0,-1,169413.7727629167,3,2,1561841597.719262,1561841239.621676,19,2.442143,0,0,18.59878,0,0,1561841548.131042,169412.192521,0,0.4995117,75.18825,0,182478453,3,1,1,-33.14361,-41.77536,2
1561841598.902194,103,0,0,1561841597.99508,4.634649851363744,-74.15101250640502,2555.619,0,108.28125,4,30,-9999,1561841598.87691,-19.39110565185547,-16.85298538208008,15.189453125,124.0005416870117,131.4937438964844,15,169415.19958475,-0.9647216796875,0.076446533203125,-0.253509521484375,169415.19958475,-0.06507247702332312,-0.09241914667680179,-0.2316297673901868,169415.17773475,-93.86054992675781,-43.36268615722656,-547.9222412109375,169415.19451875,0.159149842371995,-1.263232076089368,-0.0942012708933663,-0.04367297142744064,-0.09810882061719894,-0.2779297828674316,-0.0166059136390686,-0.05493847280740738,0.09112977981567383,1,0.009003955870866776,-0.5909492373466492,0.09179627895355225,0.8014183640480042,-0.9488481879234314,0.09406200796365738,-0.3013958632946014,0,0,0,-1,169413.7727629167,3,2,1561841597.719262,1561841239.621676,19,2.442143,0,0,18.59878,0,0,1561841548.131042,169412.192521,0,0.4995117,75.18825,0,182478453,3,1,1,-33.14361,-41.77536,2
1561841598.922369,104,0,0,1561841597.99508,4.634649851363744,-74.15101250640502,2555.619,0,108.28125,4,30,-9999,1561841598.900434,-19.34916687011719,-16.89721298217773,14.97216796875,124.1832962036133,131.6764984130859,15,169415.21984875,-0.9985504150390625,0.11865234375,-0.2928466796875,169415.21984875,-0.1668792665426542,0.09700457744170023,0.07280203577116912,169415.19784575,-93.85441589355469,-43.63406372070312,-547.9788208007812,169415.21478275,0.1563910809175263,-1.264848865717124,-0.09162170148566266,-0.1384588778018951,0.009824037551879883,-0.01194922346621752,-0.02431446313858032,0.009199179708957672,0.01969051361083984,1,0.009300920180976391,-0.5915629863739014,0.08992861211299896,0.8011738657951355,-0.9495624303817749,0.09149356931447983,-0.2999334633350372,0,0,0,-1,169413.7727629167,3,2,1561841597.719262,1561841239.621676,19,2.442143,0,0,18.59878,0,0,1561841548.131042,169412.192521,0,0.4995117,75.18825,0,182478453,3,1,1,-33.14361,-42.113,2
1561841598.972078,105,0,0,1561841597.99508,4.634649851363744,-74.15101250640502,2555.619,0,108.28125,4,30,-9999,1561841598.961064,-19.55469512939453,-17.24324035644531,14.8128662109375,124.6723251342773,132.16552734375,15,169415.24011275,-1.002288818359375,0.11767578125,-0.3111572265625,169415.24011275,-0.2999297293385769,0.4610491110756078,0.2470199090136457,169415.21792575,-93.67900085449219,-43.75541687011719,-547.8226928710938,169415.23504675,0.1532378485958104,-1.26121347283655,-0.09537129433834865,-0.2740508019924164,0.3891026377677917,0.2322408109903336,-0.06878972053527832,0.03235195577144623,0.0002372860908508301,1,0.006694988813251257,-0.5901836752891541,0.08977600932121277,0.8022334575653076,-0.9481322765350342,0.09522677958011627,-0.3032768070697784,0,0,0,-1,169413.7727629167,3,2,1561841597.719262,1561841239.621676,19,2.442143,0,0,18.59878,0,0,1561841548.131042,169412.192521,0,0.4995117,75.18825,0,182478453,3,1,1,-33.14361,-42.15936,2
1561841598.974855,106,0,0,1561841597.99508,4.634649851363744,-74.15101250640502,2555.619,0,108.28125,4,30,-9999,1561841598.961064,-19.55469512939453,-17.24324035644531,14.8128662109375,124.6723251342773,132.16552734375,15,169415.26037575,-0.9423065185546875,0.117767333984375,-0.3212127685546875,169415.26037575,-0.2739010581085785,0.3968136655828965,0.149426506654929,169415.23803775,-93.68302917480469,-43.62440490722656,-548.1543579101562,169415.25527975,0.1486765313048889,-1.25261568106767,-0.1013322769808879,-0.305742621421814,0.447535514831543,0.1798005849123001,-0.02328211069107056,0.01129832863807678,-0.0140373706817627,1,0.002559260465204716,-0.5868358612060547,0.08969962596893311,0.8047179579734802,-0.9449338316917419,0.1011589467525482,-0.3112342357635498,0,0,0,-1,169413.7727629167,3,2,1561841597.719262,1561841239.621676,19,2.442143,0,0,18.59878,0,0,1561841548.131042,169412.192521,0,0.4995117,75.18825,0,182478453,3,1,1,-33.14361,-42.15936,2
1561841598.983078,107,0,0,1561841597.99508,4.634649851363744,-74.15101250640502,2555.619,0,108.28125,4,30,-9999,1561841598.961064,-19.55469512939453,-17.24324035644531,14.8128662109375,124.6723251342773,132.16552734375,15,169415.28063975,-0.9289703369140625,0.1488189697265625,-0.3014373779296875,169415.28063975,-0.04421087094029642,0.1220063337553641,0.05392794680966854,169415.25814875,-93.91584777832031,-43.61247253417969,-548.3353881835938,169415.27554375,0.1450809279709969,-1.246820330101547,-0.10479697319504,-0.1121174991130829,0.1745540648698807,0.05922968313097954,0.01434016227722168,0.02832931280136108,0.009920597076416016,1,-0.0001561906246934086,-0.5845546126365662,0.08925884962081909,0.8064296245574951,-0.9427764415740967,0.1046052575111389,-0.3165917694568634,0,0,0,-1,169413.7727629167,3,2,1561841597.719262,1561841239.621676,19,2.442143,0,0,18.59878,0,0,1561841548.131042,169412.192521,0,0.4995117,75.18825,0,182478453,3,1,1,-33.14361,-39.82384,2
1561841599.003192,108,0,0,1561841597.99508,4.634649851363744,-74.15101250640502,2555.619,0,108.28125,4,30,-9999,1561841598.961064,-19.55469512939453,-17.24324035644531,14.8128662109375,124.6723251342773,132.16552734375,15,169415.30087275,-0.9459075927734375,0.145660400390625,-0.3286895751953125,169415.30087275,0.1857541544524818,0.04674593398194285,0.07534668619273982,169415.27825975,-94.14913940429688,-44.00973510742188,-548.5869750976562,169415.29580675,0.1457517516078442,-1.245144928043882,-0.1056911752711806,0.1388976722955704,0.04018400609493256,0.06412909924983978,0.001680254936218262,0.04842089116573334,0.004847347736358643,1,-0.0003978759632445872,-0.5838916301727295,0.08978760242462158,0.8068510890007019,-0.9421557188034058,0.1054945141077042,-0.3181408047676086,0,0,0,-1,169413.7727629167,3,2,1561841597.719262,1561841239.621676,19,2.442143,0,0,18.59878,0,0,1561841548.131042,169412.192521,0,0.4995117,75.18825,0,182478453,3,1,1,-33.14361,-38.75745,2
1561841599.046841,109,0,0,1561841597.99508,4.634649851363744,-74.15101250640502,2555.619,0,108.28125,4,30,-9999,1561841599.028009,-19.56691741943359,-17.33325576782227,14.26544189453125,124.5359725952148,132.0291748046875,15,169415.32113675,-0.939544677734375,0.128265380859375,-0.338775634765625,169415.32113675,0.2423175654768928,0.08989340469897064,0.06602136131971836,169415.29833975,-94.06375122070312,-43.80471801757812,-548.531494140625,169415.31607075,0.1502358464651935,-1.243789572061953,-0.1057663534904715,0.2474212199449539,0.06760098785161972,0.06773741543292999,0.0009660124778747559,0.0320344865322113,-0.01899445056915283,1,0.000818655826151371,-0.5833454132080078,0.09161865711212158,0.8070399761199951,-0.9417161345481873,0.1055692732334137,-0.3194149136543274,0,0,0,-1,169413.7727629167,3,2,1561841597.719262,1561841239.621676,19,2.442143,0,0,18.59878,0,0,1561841548.131042,169412.192521,0,0.4995117,75.18825,0,182478453,3,1,1,-33.14361,-40.18134,2
1561841599.049283,110,0,0,1561841597.99508,4.634649851363744,-74.15101250640502,2555.619,0,108.28125,4,30,-9999,1561841599.028009,-19.56691741943359,-17.33325576782227,14.26544189453125,124.5359725952148,132.0291748046875,15,169415.34140075,-0.95263671875,0.0999908447265625,-0.33056640625,169415.34140075,0.1274045612849547,0.1990646335806979,0.05209728987634808,169415.31845075,-94.35507202148438,-43.63995361328125,-548.334228515625,169415.33633475,0.1548217150869387,-1.241102731379672,-0.1055220368516612,0.1634802520275116,0.1677675396203995,0.05564001202583313,-0.005440711975097656,0.007008887827396393,-0.01454973220825195,1,0.002129893749952316,-0.582253634929657,0.09340140223503113,0.8076214194297791,-0.9408788681030273,0.1053263172507286,-0.3219523429870605,0,0,0,-1,169413.7727629167,3,2,1561841597.719262,1561841239.621676,19,2.442143,0,0,18.59878,0,0,1561841548.131042,169412.192521,0,0.4995117,75.18825,0,182478453,3,1,1,-33.14361,-40.18134,2
1561841599.06399,111,0,0,1561841598.995066,4.634661795575763,-74.15101435042372,2555.613,0.74,87.5390625,4,30,-9999,1561841599.056924,-20.02267456054688,-16.88069534301758,14.318603515625,124.3040390014648,131.7972412109375,15,169415.36166375,-0.9442138671875,0.0834197998046875,-0.30426025390625,169415.36166375,0.04698322163506891,0.190837063709007,0.03776042846401551,169415.33856175,-94.36567687988281,-43.31503295898438,-548.24072265625,169415.35659775,0.1570042982931313,-1.236868746969434,-0.105799043243917,0.05158621445298195,0.2020179182291031,0.03565751388669014,-0.01248568296432495,-0.01510189473628998,0.005305826663970947,1,0.002453025430440903,-0.5805447697639465,0.09436781704425812,0.8087375164031982,-0.939479649066925,0.1056017801165581,-0.3259235024452209,0,0,0,-1,169413.7727629167,3,2,1561841597.719262,1561841239.621676,19,2.442143,0,0,18.59878,0,0,1561841548.131042,169412.192521,0,0.4995117,75.18825,0,182478453,3,1,1,-33.14361,-40.18134,2
1561841599.086618,112,0,0,1561841598.995066,4.634661795575763,-74.15101435042372,2555.613,0.74,87.5390625,4,30,-9999,1561841599.056924,-20.02267456054688,-16.88069534301758,14.318603515625,124.3040390014648,131.7972412109375,15,169415.38192775,-0.9344940185546875,0.0834197998046875,-0.2778472900390625,169415.38192775,0.04630704503429779,0.09941340664767689,0.07054021305736481,169415.35867275,-94.40365600585938,-43.547119140625,-548.259765625,169415.37686175,0.158173972833532,-1.233466577863551,-0.1063641937231911,0.04947139695286751,0.1207638084888458,0.05347219854593277,-0.001601994037628174,-0.02311016619205475,0.04601705074310303,1,0.002401054371148348,-0.5791763067245483,0.09500712156295776,0.8096435070037842,-0.9383088946342468,0.1061637550592422,-0.3290980756282806,0,0,0,-1,169413.7727629167,3,2,1561841597.719262,1561841239.621676,19,2.442143,0,0,18.59878,0,0,1561841548.131042,169412.192521,0,0.4995117,75.18825,0,182478453,3,1,1,-33.14361,-40.55079,2
1561841599.115608,113,0,0,1561841598.995066,4.634661795575763,-74.15101435042372,2555.613,0.74,87.5390625,4,30,-9999,1561841599.087622,-19.96887969970703,-16.73215866088867,14.59942626953125,124.2158889770508,131.7090911865234,15,169415.40219175,-0.9343109130859375,0.0914306640625,-0.3126983642578125,169415.40219175,-0.03678091781508436,0.06604559608563808,0.08694555168836193,169415.37878475,-94.40609741210938,-43.20732116699219,-548.5315551757812,169415.39712575,0.1592213028653995,-1.231738365792633,-0.1077033690930759,-0.009761299937963486,0.05747324600815773,0.08297602087259293,0.005902230739593506,-0.0185060054063797,0.03628379106521606,1,0.002076179254800081,-0.5784979462623596,0.09581608325242996,0.8100340366363525,-0.9376038908958435,0.1074952632188797,-0.330671638250351,0,0,0,-1,169413.7727629167,3,2,1561841597.719262,1561841239.621676,19,2.442143,0,0,18.59878,0,0,1561841548.131042,169412.192521,0,0.4995117,75.18825,0,182478453,3,1,1,-33.14361,-40.92525,2
1561841599.124645,114,0,0,1561841598.995066,4.634661795575763,-74.15101435042372,2555.613,0.74,87.5390625,4,30,-9999,1561841599.087622,-19.96887969970703,-16.73215866088867,14.59942626953125,124.2158889770508,131.7090911865234,15,169415.42245475,-0.945343017578125,0.0871734619140625,-0.3249664306640625,169415.42245475,-0.1184291757791697,0.1308986286351387,0.08736846166946652,169415.39886475,-94.67803955078125,-43.25746154785156,-548.379638671875,169415.41735875,0.1586382300109625,-1.230226124873716,-0.1097375996707535,-0.1004581823945045,0.1095905154943466,0.08483064919710159,-0.000895082950592041,-0.02034511417150497,0.006545484066009521,1,0.001005872734822333,-0.5779197812080383,0.09616197645664215,0.8104077577590942,-0.9368947744369507,0.1095174849033356,-0.3320154249668121,0,0,0,-1,169413.7727629167,3,2,1561841597.719262,1561841239.621676,19,2.442143,0,0,18.59878,0,0,1561841548.131042,169412.192521,0,0.4995117,75.18825,0,182478453,3,1,1,-33.14361,-41.60294,2
1561841599.144823,115,0,0,1561841598.995066,4.634661795575763,-74.15101435042372,2555.613,0.74,87.5390625,4,30,-9999,1561841599.129323,-20.30831146240234,-16.71835708618164,14.17889404296875,124.2300033569336,131.7232055664062,15,169415.44268775,-0.947265625,0.07684326171875,-0.32073974609375,169415.44268775,-0.1746927148648377,0.1792163602924463,0.08176304020706773,169415.41897575,-94.77876281738281,-43.25611877441406,-548.5402221679688,169415.43762175,0.1566111751796311,-1.227618547745025,-0.1122096663239771,-0.166430801153183,0.1709998100996017,0.08275578171014786,-0.008629083633422852,-0.03151474893093109,0.0121910572052002,1,-0.0007130079320631921,-0.5769028663635254,0.09604531526565552,0.8111459612846375,-0.9357678890228271,0.1119743436574936,-0.3343651592731476,0,0,0,-1,169413.7727629167,3,2,1561841597.719262,1561841239.621676,19,2.442143,0,0,18.59878,0,0,1561841548.131042,169412.192521,0,0.4995117,75.18825,0,182478453,3,1,1,-33.70089,-42.36264,2
1561841599.165093,116,0,0,1561841598.995066,4.634661795575763,-74.15101435042372,2555.613,0.74,87.5390625,4,30,-9999,1561841599.153375,-20.54926300048828,-16.81854248046875,14.165283203125,124.4203262329102,131.9135284423828,15,169415.46295175,-0.9515228271484375,0.0854034423828125,-0.3335113525390625,169415.46295175,-0.1611436165029506,0.1508209378016944,0.02045653928122565,169415.43908675,-94.81321716308594,-43.36381530761719,-548.65771484375,169415.45788575,0.1535919649072013,-1.224644199369173,-0.1146297259344924,-0.1801261156797409,0.1569609642028809,0.03944266587495804,-0.01772832870483398,-0.03373615443706512,0.01166039705276489,1,-0.002713622525334358,-0.5757305026054382,0.09550625085830688,0.8120378851890564,-0.9345116019248962,0.1143788546323776,-0.337054044008255,0,0,0,-1,169413.7727629167,3,2,1561841597.719262,1561841239.621676,19,2.442143,0,0,18.59878,0,0,1561841548.131042,169412.192521,0,0.4995117,75.18825,0,182478453,3,1,1,-34.25817,-42.59457,2
1561841599.191523,117,0,0,1561841598.995066,4.634661795575763,-74.15101435042372,2555.613,0.74,87.5390625,4,30,-9999,1561841599.179632,-20.31870269775391,-16.72908020019531,14.034912109375,124.6176071166992,132.1108093261719,15,169415.48321575,-0.9429168701171875,0.09918212890625,-0.33526611328125,169415.48321575,-0.01411688430629203,0.08309595233265239,-0.07913849495279464,169415.45919775,-94.78782653808594,-43.08804321289062,-549.219482421875,169415.47814975,0.1510094625083585,-1.222573556616418,-0.1152876764956663,-0.06126923114061356,0.0877470001578331,-0.06007913127541542,-0.01440995931625366,-0.02343394607305527,0.003147125244140625,1,-0.003823828883469105,-0.5748948454856873,0.09464079141616821,0.8127264380455017,-0.9337406754493713,0.1150324568152428,-0.338962584733963,0,0,0,-1,169413.7727629167,3,2,1561841597.719262,1561841239.621676,19,2.442143,0,0,18.59878,0,0,1561841548.131042,169412.192521,0,0.4995117,75.18825,0,182478453,3,1,1,-34.81545,-42.79013,2
1561841599.205693,118,0,0,1561841598.995066,4.634661795575763,-74.15101435042372,2555.613,0.74,87.5390625,4,30,-9999,1561841599.204519,-20.24991607666016,-16.86603164672852,13.880859375,124.6030349731445,132.0962371826172,15,169415.50347875,-0.937103271484375,0.1223907470703125,-0.3309783935546875,169415.50347875,0.1550111554608251,0.1201253430774411,-0.08659747653388858,169415.47930875,-94.94706726074219,-43.38902282714844,-548.9569091796875,169415.49841275,0.1509714247551169,-1.220944894798442,-0.1133098825977062,0.1206592842936516,0.09746061265468597,-0.09926701337099075,-0.005351901054382324,-0.003158517181873322,0.007781267166137695,1,-0.003102725138887763,-0.5742040276527405,0.09406131505966187,0.8132849931716919,-0.9333993196487427,0.1130675747990608,-0.3405602276325226,0,0,0,-1,169413.7727629167,3,2,1561841597.719262,1561841239.621676,19,2.442143,0,0,18.59878,0,0,1561841548.131042,169412.192521,0,0.4995117,75.18825,0,182478453,3,1,1,-34.81545,-42.79013,2
1561841599.226004,119,0,0,1561841598.995066,4.634661795575763,-74.15101435042372,2555.613,0.74,87.5390625,4,30,-9999,1561841599.204519,-20.24991607666016,-16.86603164672852,13.880859375,124.6030349731445,132.0962371826172,15,169415.52374275,-0.9195709228515625,0.1306304931640625,-0.3541259765625,169415.52374275,0.1531376216339544,0.09348467742894249,-0.04738962001741501,169415.49938975,-94.93301391601562,-43.62284851074219,-548.8430786132812,169415.51867675,0.153548895416341,-1.218332650005689,-0.1105331370586712,0.1753057539463043,0.1138068288564682,-0.06065011397004128,0.0001652240753173828,0.0181708037853241,0.007060110569000244,1,-0.001350039732642472,-0.5731020569801331,0.09432023018598557,0.8140368461608887,-0.9327977299690247,0.1103082001209259,-0.3431044220924377,0,0,0,-1,169413.7727629167,3,2,1561841597.719262,1561841239.621676,19,2.442143,0,0,18.59878,0,0,1561841548.131042,169412.192521,0,0.4995117,75.18825,0,182478453,3,1,1,-35.37273,-43.64212,2
1561841599.246074,120,0,0,1561841598.995066,4.634661795575763,-74.15101435042372,2555.613,0.74,87.5390625,4,30,-9999,1561841599.230171,-20.52350616455078,-17.03566360473633,13.87677001953125,124.4126510620117,131.9058532714844,15,169415.54400675,-0.902313232421875,0.1454620361328125,-0.37261962890625,169415.54400675,0.02729021063836898,0.006216616932571966,-0.001975799212729787,169415.51950075,-94.84124755859375,-43.48130798339844,-548.8848266601562,169415.53894075,0.1555280983382435,-1.216925054452984,-0.1088461002204688,0.05410449951887131,0.01484509464353323,-0.01786217093467712,0.02744245529174805,0.02889616042375565,-0.02539199590682983,1,-0.0001587870065122843,-0.5725027918815613,0.09464815258979797,0.8144214153289795,-0.9324870109558105,0.1086313053965569,-0.3444810509681702,0,0,0,-1,169413.7727629167,3,2,1561841597.719262,1561841239.621676,19,2.442143,0,0,18.59878,0,0,1561841548.131042,169413.13624,0,0.5603027,75.18768,0,182478453,3,1,1,-35.93001,-44.01495,2
1561841599.271575,121,0,0,1561841598.995066,4.634661795575763,-74.15101435042372,2555.613,0.74,87.5390625,4,30,-9999,1561841599.254632,-20.53404998779297,-16.65157699584961,13.73187255859375,124.3503036499023,131.843505859375,15,169415.56426975,-0.9052276611328125,0.150848388671875,-0.350494384765625,169415.56426975,0.02374820638856359,0.007465905799928136,0.05108635392655399,169415.53961175,-94.75691223144531,-43.37574768066406,-548.9940795898438,169415.55920375,0.1558723842759108,-1.216911294078226,-0.10883450116833,0.005595020018517971,-0.0003852564841508865,0.03639920428395271,0.0265844464302063,0.04012290388345718,-0.01839017868041992,1,-5.613872417598031e-05,-0.5724970102310181,0.09478506445884705,0.814409613609314,-0.9324834942817688,0.1086197718977928,-0.3444943428039551,0,0,0,-1,169413.7727629167,3,2,1561841597.719262,1561841239.621676,19,2.442143,0,0,18.59878,0,0,1561841548.131042,169413.13624,0,0.5603027,75.18768,0,182478453,3,1,1,-36.48729,-42.66077,2
