loggingTime,loggingSample,identifierForVendor,deviceID,locationTimestamp_since1970,locationLatitude,locationLongitude,locationAltitude,locationSpeed,locationCourse,locationVerticalAccuracy,locationHorizontalAccuracy,locationFloor,locationHeadingTimestamp_since1970,locationHeadingX,locationHeadingY,locationHeadingZ,locationTrueHeading,locationMagneticHeading,locationHeadingAccuracy,accelerometerTimestamp_sinceReboot,accelerometerAccelerationX,accelerometerAccelerationY,accelerometerAccelerationZ,gyroTimestamp_sinceReboot,gyroRotationX,gyroRotationY,gyroRotationZ,magnetometerTimestamp_sinceReboot,magnetometerX,magnetometerY,magnetometerZ,motionTimestamp_sinceReboot,motionYaw,motionRoll,motionPitch,motionRotationRateX,motionRotationRateY,motionRotationRateZ,motionUserAccelerationX,motionUserAccelerationY,motionUserAccelerationZ,motionAttitudeReferenceFrame,motionQuaternionX,motionQuaternionY,motionQuaternionZ,motionQuaternionW,motionGravityX,motionGravityY,motionGravityZ,motionMagneticFieldX,motionMagneticFieldY,motionMagneticFieldZ,motionMagneticFieldCalibrationAccuracy,activityTimestamp_sinceReboot,activity,activityActivityConfidence,activityActivityStartDate,pedometerStartDate,pedometerNumberofSteps,pedometerAverageActivePace,pedometerCurrentPace,pedometerCurrentCadence,pedometerDistance,pedometerFloorAscended,pedometerFloorDescended,pedometerEndDate,altimeterTimestamp_sinceReboot,altimeterReset,altimeterRelativeAltitude,altimeterPressure,IP_en0,IP_pdp_ip0,deviceOrientation,batteryState,batteryLevel,avAudioRecorderPeakPower,avAudioRecorderAveragePower,label
1561841630.597757,1,0,0,1561841629.994622,4.634700310420836,-74.15105491883507,2555.747,0.88,317.8125,4,10,-9999,1561841630.582943,-10.20661926269531,-26.88695526123047,-5.6239013671875,165.90478515625,173.3979949951172,15,169446.88651425,-0.3659515380859375,0.2974700927734375,-1.079544067382812,169446.88651425,-0.4672159268957953,1.000460671962361,-3.457686705480715,169446.86387025,-85.39639282226562,-53.19384765625,-568.1666870117188,169446.88144825,-0.5508258273424507,-0.6717773868124554,0.02219561525354428,-0.5300276875495911,0.9089147448539734,-3.537722826004028,0.2126331925392151,0.2722548246383667,-0.3046037554740906,1,-0.07954702526330948,-0.3200161159038544,-0.2602516412734985,0.9074861407279968,-0.6222248673439026,-0.022193793207407,-0.7825239300727844,0,0,0,-1,169444.5764319167,3,1,1561841628.522931,1561841239.621676,19,2.442143,0,0,18.59878,0,0,1561841548.131042,169444.285725,0,0.4440918,75.18877,0,182478453,5,1,1,-29.21017,-29.39076,0
1561841630.608532,2,0,0,1561841629.994622,4.634700310420836,-74.15105491883507,2555.747,0.88,317.8125,4,10,-9999,1561841630.607319,-7.976295471191406,-27.45011138916016,-5.990966796875,170.1026458740234,177.5958557128906,15,169446.90677825,-0.2810821533203125,0.38421630859375,-1.0545654296875,169446.90677825,-0.3136612542351345,1.356622248769634,-3.081133570522814,169446.88398125,-83.23768615722656,-53.933837890625,-568.8220825195312,169446.90171225,-0.6100012905944296,-0.647515605870033,0.05732845588951106,-0.3361431658267975,1.258634209632874,-3.181753396987915,0.2776156067848206,0.4040988087654114,-0.2747551202774048,1,-0.06957636773586273,-0.3114832937717438,-0.2932724952697754,0.9011817574501038,-0.6022157669067383,-0.05729705840349197,-0.7962746024131775,0,0,0,-1,169444.5764319167,3,1,1561841628.522931,1561841239.621676,19,2.442143,0,0,18.59878,0,0,1561841548.131042,169444.285725,0,0.4440918,75.18877,0,182478453,5,1,1,-29.21017,-29.8709,0
1561841630.642437,3,0,0,1561841629.994622,4.634700310420836,-74.15105491883507,2555.747,0.88,317.8125,4,10,-9999,1561841630.607319,-7.976295471191406,-27.45011138916016,-5.990966796875,170.1026458740234,177.5958557128906,15,169446.92704225,-0.2009429931640625,0.42266845703125,-1.013702392578125,169446.92704225,-0.3309022928161985,1.73656185936968,-2.684237613262234,169446.90406225,-81.09834289550781,-54.33294677734375,-568.9614868164062,169446.92197625,-0.6626666205682472,-0.6144531562371075,0.08793466502035698,-0.3151699900627136,1.628763794898987,-2.787193775177002,0.3368117213249207,0.494254469871521,-0.2217585444450378,1,-0.05866577476263046,-0.2993199527263641,-0.3223415911197662,0.8961371183395386,-0.5742842555046082,-0.08782137930393219,-0.8139317631721497,0,0,0,-1,169444.5764319167,3,1,1561841628.522931,1561841239.621676,19,2.442143,0,0,18.59878,0,0,1561841548.131042,169444.285725,0,0.4440918,75.18877,0,182478453,5,1,1,-29.21017,-30.7113,0
1561841630.649106,4,0,0,1561841629.994622,4.634700310420836,-74.15105491883507,2555.747,0.88,317.8125,4,10,-9999,1561841630.646864,-6.167327880859375,-27.84487915039062,-6.33856201171875,173.7494201660156,181.2426300048828,15,169446.94730525,-0.134674072265625,0.43536376953125,-0.9578704833984375,169446.94730525,-0.42035254750978,2.072621629952926,-2.273809601870743,169446.92417325,-79.45719909667969,-54.58944702148438,-569.3939819335938,169446.94223925,-0.7103754675612561,-0.5727362951127997,0.1112394906764675,-0.4086093902587891,2.001247882843018,-2.38198709487915,0.37093585729599,0.5422998666763306,-0.1493313312530518,1,-0.04808315262198448,-0.2829745709896088,-0.3478107750415802,0.8925474882125854,-0.5385841727256775,-0.1110102161765099,-0.835226833820343,0,0,0,-1,169444.5764319167,3,1,1561841628.522931,1561841239.621676,19,2.442143,0,0,18.59878,0,0,1561841548.131042,169444.285725,0,0.4440918,75.18877,0,182478453,5,1,1,-29.21017,-30.8472,0
1561841630.672278,5,0,0,1561841629.994622,4.634700310420836,-74.15105491883507,2555.747,0.88,317.8125,4,10,-9999,1561841630.646864,-6.167327880859375,-27.84487915039062,-6.33856201171875,173.7494201660156,181.2426300048828,15,169446.9675795,-0.069427490234375,0.439666748046875,-0.8990936279296875,169446.9675795,-0.3742297932229156,2.222343214856636,-1.84284116162369,169446.94428425,-77.52645874023438,-54.65937805175781,-569.9382934570312,169446.96250325,-0.7525961865495541,-0.5249428962567461,0.1270062735157657,-0.3988582193851471,2.19298529624939,-1.955708622932434,0.3960832953453064,0.5661792755126953,-0.07147276401519775,1,-0.03815830126404762,-0.2633488774299622,-0.3694930374622345,0.8903180956840515,-0.4971269965171814,-0.1266651004552841,-0.8583826422691345,0,0,0,-1,169444.5764319167,3,1,1561841628.522931,1561841239.621676,19,2.442143,0,0,18.59878,0,0,1561841548.131042,169444.285725,0,0.4440918,75.18877,0,182478453,5,1,1,-29.21017,-31.82841,0
1561841630.689755,6,0,0,1561841629.994622,4.634700310420836,-74.15105491883507,2555.747,0.88,317.8125,4,10,-9999,1561841630.684099,-1.042716979980469,-28.33608627319336,-7.1348876953125,179.5182647705078,187.011474609375,15,169446.9878435,-0.0133209228515625,0.4448089599609375,-0.8438720703125,169446.9878435,-0.2724155468525323,2.209662040694005,-1.381369673199196,169446.9644055,-76.00340270996094,-55.21038818359375,-569.833984375,169446.9827775,-0.7870823046169126,-0.4754090012077402,0.1377218112207166,-0.2913064658641815,2.218188762664795,-1.502594590187073,0.4137717485427856,0.5798222422599792,0.01214140653610229,1,-0.02832064591348171,-0.2425993829965591,-0.3867589831352234,0.8892474770545959,-0.4533683061599731,-0.1372868567705154,-0.8806869387626648,0,0,0,-1,169444.5764319167,3,1,1561841628.522931,1561841239.621676,19,2.442143,0,0,18.59878,0,0,1561841548.131042,169444.285725,0,0.4440918,75.18877,0,182478453,5,1,1,-29.21017,-31.82841,0
1561841630.718037,7,0,0,1561841629.994622,4.634700310420836,-74.15105491883507,2555.747,0.88,317.8125,4,10,-9999,1561841630.708368,0.1601181030273438,-28.1522102355957,-7.38067626953125,181.3023529052734,188.7955627441406,15,169447.0081065,0.042999267578125,0.447052001953125,-0.81304931640625,169447.0081065,-0.3105323062704004,2.107168688245652,-0.8695953328408484,169446.9844865,-74.53079223632812,-54.68507385253906,-570.1668090820312,169447.0030405,-0.8127237135935778,-0.4276206745067071,0.1437947074481086,-0.2920209765434265,2.129442453384399,-1.006457805633545,0.4233510494232178,0.5875593423843384,0.07553625106811523,1,-0.01917072385549545,-0.2221500128507614,-0.3992727994918823,0.8893048167228699,-0.4104268550872803,-0.1432996839284897,-0.9005637168884277,0,0,0,-1,169444.5764319167,3,1,1561841628.522931,1561841239.621676,19,2.442143,0,0,18.59878,0,0,1561841548.131042,169444.285725,0,0.4440918,75.18877,0,182478453,5,1,1,-29.21017,-33.90812,0
1561841630.730241,8,0,0,1561841629.994622,4.634700310420836,-74.15105491883507,2555.747,0.88,317.8125,4,10,-9999,1561841630.708368,0.1601181030273438,-28.1522102355957,-7.38067626953125,181.3023529052734,188.7955627441406,15,169447.0283705,0.095855712890625,0.4484100341796875,-0.7948760986328125,169447.0283705,-0.4309250307212855,1.992977400709125,-0.3231013613511384,169447.0045975,-73.46830749511719,-54.93556213378906,-570.3176879882812,169447.0232745,-0.8292995300467818,-0.3832934759738991,0.1433741507115568,-0.3983330428600311,2.015572786331177,-0.4641474485397339,0.4401471316814423,0.5922394990921021,0.1138296127319336,1,-0.01218401547521353,-0.2022140920162201,-0.4069646596908569,0.8906967639923096,-0.3701398074626923,-0.1428834497928619,-0.9179220199584961,0,0,0,-1,169444.5764319167,3,1,1561841628.522931,1561841239.621676,19,2.442143,0,0,18.59878,0,0,1561841548.131042,169444.285725,0,0.4440918,75.18877,0,182478453,5,1,1,-29.21017,-33.90812,0
1561841630.750416,9,0,0,1561841629.994622,4.634700310420836,-74.15105491883507,2555.747,0.88,317.8125,4,10,-9999,1561841630.73473,1.013938903808594,-28.14524078369141,-7.72662353515625,182.269775390625,189.7629852294922,15,169447.0486035,0.136322021484375,0.4608306884765625,-0.784393310546875,169447.0486035,-0.5531915553151503,1.897399212347271,0.2147764850638383,169447.0247085,-72.64320373535156,-54.4488525390625,-570.67919921875,169447.0435375,-0.8363484136650248,-0.3425354523008163,0.1359590680828015,-0.5305488705635071,1.918256282806396,0.07652806490659714,0.4516275227069855,0.5886045694351196,0.142045795917511,1,-0.00788532942533493,-0.1825673133134842,-0.4098064601421356,0.8936809897422791,-0.3327767848968506,-0.1355405896902084,-0.933214008808136,0,0,0,-1,169444.5764319167,3,1,1561841628.522931,1561841239.621676,19,2.442143,0,0,18.59878,0,0,1561841548.131042,169444.285725,0,0.4440918,75.18877,0,182478453,5,1,1,-29.21017,-34.66793,0
1561841630.772187,10,0,0,1561841629.994622,4.634700310420836,-74.15105491883507,2555.747,0.88,317.8125,4,10,-9999,1561841630.759454,1.877769470214844,-27.93343353271484,-7.90777587890625,182.3631286621094,189.8563385009766,15,169447.0688675,0.1476898193359375,0.4835357666015625,-0.7859954833984375,169447.0688675,-0.605239044079114,1.731584411292322,0.7774728623094815,169447.0448195,-72.43040466308594,-54.45425415039062,-570.8971557617188,169447.0638015,-0.8332606088068411,-0.305362175067407,0.1227380810896437,-0.6041551828384399,1.775262951850891,0.6312000751495361,0.4455479681491852,0.5931485295295715,0.1637416481971741,1,-0.005999803077429533,-0.1633473634719849,-0.4077504277229309,0.898343563079834,-0.2983769476413727,-0.122430145740509,-0.9465633034706116,0,0,0,-1,169444.5764319167,3,1,1561841628.522931,1561841239.621676,19,2.442143,0,0,18.59878,0,0,1561841548.131042,169444.285725,0,0.4440918,75.18877,0,182478453,5,1,1,-29.21017,-35.45971,0
1561841630.798626,11,0,0,1561841629.994622,4.634700310420836,-74.15105491883507,2555.747,0.88,317.8125,4,10,-9999,1561841630.785271,2.110588073730469,-27.83034515380859,-8.29449462890625,181.4737854003906,188.9669952392578,15,169447.0891315,0.1472015380859375,0.5384521484375,-0.7940521240234375,169447.0891315,-0.5368613178268935,1.450768721729461,1.366352107812239,169447.0649005,-72.34803771972656,-54.49888610839844,-570.9365234375,169447.0840655,-0.8187929183440339,-0.2733070843173475,0.1058125732355536,-0.5723103880882263,1.531721830368042,1.21124804019928,0.4157312214374542,0.6128021478652954,0.1673370599746704,1,-0.006091434042900801,-0.1456495970487595,-0.4004017412662506,0.9046697616577148,-0.2684076130390167,-0.1056152358651161,-0.9574981927871704,0,0,0,-1,169444.5764319167,3,1,1561841628.522931,1561841239.621676,19,2.442143,0,0,18.59878,0,0,1561841548.131042,169444.285725,0,0.4440918,75.18877,0,182478453,5,1,1,-29.21017,-36.06257,0
1561841630.811196,12,0,0,1561841629.994622,4.634700310420836,-74.15105491883507,2555.747,0.88,317.8125,4,10,-9999,1561841630.809607,1.46319580078125,-27.76457977294922,-8.475341796875,179.4390716552734,186.9322814941406,15,169447.1093945,0.1256866455078125,0.6204833984375,-0.809234619140625,169447.1093945,-0.3086635661334918,1.028469669778943,2.003284633076059,169447.0850115,-72.5238037109375,-54.45379638671875,-571.1043701171875,169447.1043285,-0.7914432282686829,-0.2488256455784974,0.08842161949742308,-0.3722614943981171,1.129966735839844,1.833815217018127,0.382312536239624,0.6646919250488281,0.1639175415039062,1,-0.007321916520595551,-0.1312951147556305,-0.3871815204620361,0.9125779271125793,-0.2453038692474365,-0.08830644190311432,-0.9654159545898438,0,0,0,-1,169444.5764319167,3,1,1561841628.522931,1561841239.621676,19,2.442143,0,0,18.59878,0,0,1561841548.131042,169444.285725,0,0.4440918,75.18877,0,182478453,5,1,1,-29.76745,-33.39558,0
1561841630.831571,13,0,0,1561841629.994622,4.634700310420836,-74.15105491883507,2555.747,0.88,317.8125,4,10,-9999,1561841630.809607,1.46319580078125,-27.76457977294922,-8.475341796875,179.4390716552734,186.9322814941406,15,169447.1296585,0.07763671875,0.7074127197265625,-0.8255615234375,169447.1296585,-0.1111568817904903,0.5926271121048257,2.804499043871378,169447.1051225,-73.14273071289062,-54.16932678222656,-571.3838500976562,169447.1245925,-0.7495409267761581,-0.2336899313393613,0.07282052364624794,-0.1544221192598343,0.6925515532493591,2.573229074478149,0.3410166501998901,0.7369712591171265,0.1566722393035889,1,-0.009001985192298889,-0.121650293469429,-0.3672711551189423,0.9220802783966064,-0.2309550046920776,-0.07275617867708206,-0.9702403545379639,0,0,0,-1,169444.5764319167,3,1,1561841628.522931,1561841239.621676,19,2.442143,0,0,18.59878,0,0,1561841548.131042,169444.285725,0,0.4440918,75.18877,0,182478453,5,1,1,-29.76745,-33.39558,0
1561841630.85221,14,0,0,1561841629.994622,4.634700310420836,-74.15105491883507,2555.747,0.88,317.8125,4,10,-9999,1561841630.837532,0.670135498046875,-27.67704010009766,-8.64141845703125,176.0449829101562,183.5381927490234,15,169447.1499225,-0.0482330322265625,0.747711181640625,-0.84857177734375,169447.1499225,0.06632869010951351,0.1503745920029972,3.827158495100095,169447.1252335,-74.52890014648438,-54.25627136230469,-571.6997680664062,169447.1448565,-0.6894767534002114,-0.2279601843705729,0.05719447393712297,0.005135591607540846,0.2499357759952545,3.565750598907471,0.2491504698991776,0.7957497239112854,0.135775089263916,1,-0.01168416161090136,-0.1165984943509102,-0.3386810123920441,0.9335755705833435,-0.2256214171648026,-0.0571632981300354,-0.972536563873291,0,0,0,-1,169444.5764319167,3,1,1561841628.522931,1561841239.621676,19,2.442143,0,0,18.59878,0,0,1561841548.131042,169444.285725,0,0.4440918,75.18877,0,182478453,5,1,1,-30.32473,-34.28469,0
1561841630.885563,15,0,0,1561841629.994622,4.634700310420836,-74.15105491883507,2555.747,0.88,317.8125,4,10,-9999,1561841630.863823,-2.39251708984375,-27.39352798461914,-9.09759521484375,170.8889465332031,178.3821563720703,15,169447.1701855,-0.268096923828125,0.7017974853515625,-0.851715087890625,169447.1701855,0.3752684260480465,-0.2668583286058639,4.727498158513145,169447.1453135,-76.02786254882812,-54.05609130859375,-572.0555419921875,169447.1651195,-0.6084703623765086,-0.2311716108599749,0.04113675781941723,0.2822140753269196,-0.1772728115320206,4.537796020507812,0.08544589579105377,0.7741726636886597,0.1244458556175232,1,-0.01504945289343596,-0.1161290109157562,-0.2997647821903229,0.9467991590499878,-0.2289242893457413,-0.04112515598535538,-0.9725751280784607,0,0,0,-1,169444.5764319167,3,1,1561841628.522931,1561841239.621676,19,2.442143,0,0,18.59878,0,0,1561841548.131042,169444.285725,0,0.4440918,75.18877,0,182478453,2,1,1,-31.43929,-35.79632,0
1561841630.893187,16,0,0,1561841629.994622,4.634700310420836,-74.15105491883507,2555.747,0.88,317.8125,4,10,-9999,1561841630.888583,-4.900741577148438,-27.03581619262695,-9.0321044921875,164.0834808349609,171.5766906738281,15,169447.1904495,-0.6007232666015625,0.5897064208984375,-0.8502960205078125,169447.1904495,0.8561522282903464,-0.4429542630490644,4.995182599689151,169447.1654245,-78.13095092773438,-53.78384399414062,-571.802490234375,169447.1853525,-0.5111455864688841,-0.2412008811263184,0.02773198312475813,0.7106291055679321,-0.4342018067836761,5.000190258026123,-0.1909104287624359,0.6802858114242554,0.114233136177063,1,-0.01709323935210705,-0.119869090616703,-0.2525532841682434,0.9599770903587341,-0.2387770712375641,-0.02772842906415462,-0.970678448677063,0,0,0,-1,169444.5764319167,3,1,1561841628.522931,1561841239.621676,19,2.442143,0,0,18.59878,0,0,1561841548.131042,169444.285725,0,0.4440918,75.18877,0,182478453,2,1,1,-31.43929,-35.79632,0
1561841630.913081,17,0,0,1561841629.994622,4.634700310420836,-74.15105491883507,2555.747,0.88,317.8125,4,10,-9999,1561841630.910928,-7.579864501953125,-26.63965606689453,-8.62286376953125,156.8033752441406,164.2965850830078,15,169447.2107135,-0.811004638671875,0.4370880126953125,-0.7955474853515625,169447.2107135,1.355748731932088,-0.5468489708630176,4.757345270114099,169447.1855365,-81.23991394042969,-53.42573547363281,-571.725341796875,169447.2056165,-0.4092599772651402,-0.2529394840418493,0.02287293078701909,1.264223575592041,-0.4934185445308685,4.811403751373291,-0.4853033423423767,0.5417155623435974,0.143052875995636,1,-0.01452095620334148,-0.1257985234260559,-0.2029811590909958,0.9709596037864685,-0.2501855194568634,-0.02287093549966812,-0.9679277539253235,0,0,0,-1,169444.5764319167,3,1,1561841628.522931,1561841239.621676,19,2.442143,0,0,18.59878,0,0,1561841548.131042,169444.285725,0,0.4440918,75.18877,0,182478453,2,1,1,-31.99657,-36.47896,0
1561841630.932946,18,0,0,1561841629.994622,4.634700310420836,-74.15105491883507,2555.747,0.88,317.8125,4,10,-9999,1561841630.910928,-7.579864501953125,-26.63965606689453,-8.62286376953125,156.8033752441406,164.2965850830078,15,169447.2309465,-0.927398681640625,0.3311920166015625,-0.7663116455078125,169447.2309465,1.451892309393366,-0.9633125042329549,4.840523780440544,169447.2056475,-83.83387756347656,-52.75532531738281,-571.0733642578125,169447.2258805,-0.3090015160614624,-0.2684714011288354,0.02535976377363628,1.452237129211426,-0.848707914352417,4.764998912811279,-0.5958503484725952,0.3953368961811066,0.1826937794685364,1,-0.008177665062248707,-0.1341618001461029,-0.1541669070720673,0.9788597226142883,-0.2651726007461548,-0.02535704523324966,-0.9638674855232239,0,0,0,-1,169444.5764319167,3,1,1561841628.522931,1561841239.621676,19,2.442143,0,0,18.59878,0,0,1561841548.131042,169444.285725,0,0.4440918,75.18877,0,182478453,2,1,1,-32.55385,-32.81325,0
1561841630.96836,19,0,0,1561841629.994622,4.634700310420836,-74.15105491883507,2555.747,0.88,317.8125,4,10,-9999,1561841630.961995,-15.56801605224609,-23.81914901733398,-6.24151611328125,141.7163238525391,149.2095336914062,15,169447.2512095,-1.155868530273438,0.2303314208984375,-0.735137939453125,169447.2512095,1.57561664836794,-1.400522861442936,5.294672108499539,169447.2257275,-86.37570190429688,-51.9154052734375,-570.3599243164062,169447.2461435,-0.2042138913722388,-0.2932548443662348,0.02602417192237541,1.505469441413879,-1.319634914398193,5.200561046600342,-0.7395926713943481,0.3201649188995361,0.2047713994979858,1,-0.002085867570713162,-0.1466413736343384,-0.1027184650301933,0.9838398098945618,-0.2889717519283295,-0.02602123469114304,-0.9569839239120483,0,0,0,-1,169444.5764319167,3,1,1561841628.522931,1561841239.621676,19,2.442143,0,0,18.59878,0,0,1561841548.131042,169444.285725,0,0.4440918,75.18877,0,182478453,2,1,1,-32.5398,-33.67495,0
1561841630.974706,20,0,0,1561841629.994622,4.634700310420836,-74.15105491883507,2555.747,0.88,317.8125,4,10,-9999,1561841630.961995,-15.56801605224609,-23.81914901733398,-6.24151611328125,141.7163238525391,149.2095336914062,15,169447.2714735,-1.39697265625,0.1002960205078125,-0.6309051513671875,169447.2714735,2.082297160509293,-1.538712159878276,4.907512401868179,169447.2458385,-89.15684509277344,-50.77635192871094,-569.4971313476562,169447.2664075,-0.09223809849376897,-0.3255092864835223,0.02629893820352934,1.941175937652588,-1.523424863815308,5.123339176177979,-0.9719604253768921,0.1970875263214111,0.2496353387832642,1,0.005491823423653841,-0.1624489724636078,-0.04761788249015808,0.9855519533157349,-0.319680780172348,-0.02629590593278408,-0.9471603631973267,0,0,0,-1,169444.5764319167,3,1,1561841628.522931,1561841239.621676,19,2.442143,0,0,18.59878,0,0,1561841548.131042,169444.285725,0,0.4440918,75.18877,0,182478453,2,1,1,-32.5398,-34.36021,0
1561841630.993722,21,0,0,1561841629.994622,4.634700310420836,-74.15105491883507,2555.747,0.88,317.8125,4,10,-9999,1561841630.989226,-18.12075042724609,-22.40205001831055,-5.07525634765625,134.1751098632812,141.6683197021484,15,169447.2917375,-1.423568725585938,-0.0183563232421875,-0.4858245849609375,169447.2917375,2.368278849954689,-1.579585291024376,3.665752557229772,169447.2659495,-91.82426452636719,-49.59646606445312,-568.3252563476562,169447.2866715,0.0104346669479512,-0.360377897260747,0.03679293948655653,2.361605167388916,-1.594397306442261,3.976050138473511,-1.084088444709778,0.06408261507749557,0.3767654299736023,1,0.01903222687542439,-0.179088294506073,0.001835270784795284,0.9836471080780029,-0.3523892164230347,-0.03678463771939278,-0.9351302981376648,0,0,0,-1,169444.5764319167,3,1,1561841628.522931,1561841239.621676,19,2.442143,0,0,18.59878,0,0,1561841548.131042,169444.285725,0,0.4440918,75.18877,0,182478453,2,1,1,-32.5398,-34.36021,0
1561841631.013926,22,0,0,1561841629.994622,4.634700310420836,-74.15105491883507,2555.747,0.88,317.8125,4,10,-9999,1561841631.012355,-20.05869293212891,-21.01482772827148,-3.62567138671875,128.4272766113281,135.9204864501953,15,169447.3120005,-1.340835571289062,-0.0028839111328125,-0.3648834228515625,169447.3120005,1.73545851173006,-1.324428093299993,2.961502510143692,169447.2860605,-93.92295837402344,-48.04710388183594,-566.9599609375,169447.3069355,0.09197411851334149,-0.3951343714891936,0.05371481306855658,1.988254189491272,-1.41401469707489,3.019397974014282,-1.003058910369873,0.02115724980831146,0.5034008026123047,1,0.03532405197620392,-0.194795697927475,0.03979483991861343,0.9793994426727295,-0.3843770325183868,-0.05368898808956146,-0.9216136932373047,0,0,0,-1,169444.5764319167,3,1,1561841628.522931,1561841239.621676,19,2.442143,0,0,18.59878,0,0,1561841548.131042,169444.285725,0,0.4440918,75.18877,0,182478453,2,1,1,-32.5398,-35.07883,0
1561841631.051822,23,0,0,1561841629.994622,4.634700310420836,-74.15105491883507,2555.747,0.88,317.8125,4,10,-9999,1561841631.040191,-22.88264465332031,-18.68422698974609,-1.49224853515625,123.6339645385742,131.1271667480469,15,169447.3322645,-1.371612548828125,0.0469207763671875,-0.3032073974609375,169447.3322645,0.6834038873373757,-1.118408614532554,3.285254215433028,169447.3061415,-95.61769104003906,-46.985107421875,-565.867919921875,169447.3271985,0.1600156497512973,-0.424673733281504,0.05605386538710249,0.8926268815994263,-1.151957750320435,3.18860387802124,-0.9200750589370728,0.09943576902151108,0.5784890651702881,1,0.04414290562272072,-0.2077988237142563,0.07220997661352158,0.9745032787322998,-0.4113763868808746,-0.05602451786398888,-0.9097421169281006,0,0,0,-1,169444.5764319167,3,1,1561841628.522931,1561841239.621676,19,2.442143,0,0,18.59878,0,0,1561841548.131042,169444.285725,0,0.4440918,75.18877,0,182478453,2,1,1,-32.5398,-36.6398,0
1561841631.05873,24,0,0,1561841629.994622,4.634700310420836,-74.15105491883507,2555.747,0.88,317.8125,4,10,-9999,1561841631.040191,-22.88264465332031,-18.68422698974609,-1.49224853515625,123.6339645385742,131.1271667480469,15,169447.3525285,-1.354827880859375,-0.0113525390625,-0.211761474609375,169447.3525285,0.3201617641399089,-1.382376348091245,3.119817583252869,169447.3262525,-96.80325317382812,-45.68661499023438,-564.6598510742188,169447.3474625,0.2252265421120141,-0.4511981557439658,0.03820016300315876,0.3610853552818298,-1.256673574447632,3.243757724761963,-0.955967128276825,0.06033137813210487,0.6403728723526001,1,0.04362975433468819,-0.2201410084962845,0.1052626818418503,0.9687899947166443,-0.43572598695755,-0.03819087147712708,-0.8992687463760376,0,0,0,-1,169444.5764319167,3,1,1561841628.522931,1561841239.621676,19,2.442143,0,0,18.59878,0,0,1561841548.131042,169444.285725,0,0.4440918,75.18877,0,182478453,2,1,1,-32.5398,-36.6398,0
1561841631.074831,25,0,0,1561841630.994608,4.634708692324008,-74.15106548003307,2555.431,0.87,313.59375,4,10,-9999,1561841631.040191,-22.88264465332031,-18.68422698974609,-1.49224853515625,123.6339645385742,131.1271667480469,15,169447.3727915,-1.291046142578125,-0.06005859375,-0.1444549560546875,169447.3727915,0.1191849808965342,-1.961663153663646,2.379278504205043,169447.3463635,-98.13780212402344,-44.26731872558594,-564.1178588867188,169447.3676955,0.2808313554410375,-0.4840433807199164,0.0166164834630724,0.1960396766662598,-1.844730973243713,2.565367937088013,-0.8472024202346802,-0.02742114663124084,0.7065315246582031,1,0.04152783751487732,-0.2361700087785721,0.13389952480793,0.9615456461906433,-0.4652976095676422,-0.01661571860313416,-0.8849983215332031,0,0,0,-1,169444.5764319167,3,1,1561841628.522931,1561841239.621676,19,2.442143,0,0,18.59878,0,0,1561841548.131042,169444.285725,0,0.4440918,75.18877,0,182478453,2,1,1,-32.5398,-37.46645,0
1561841631.094866,26,0,0,1561841630.994608,4.634708692324008,-74.15106548003307,2555.431,0.87,313.59375,4,10,-9999,1561841631.08271,-23.98842620849609,-17.0860710144043,-0.8031005859375,119.2840194702148,126.7772216796875,15,169447.3930255,-1.258895874023438,-0.0727081298828125,-0.09722900390625,169447.3930255,-0.3701889789009384,-2.505241230075828,1.952372449884796,169447.3664745,-99.32292175292969,-42.72125244140625,-563.1958618164062,169447.3879595,0.3205673254992883,-0.5267005272144661,-0.005345459483327197,-0.2448133379220963,-2.356899499893188,2.004466533660889,-0.7625974416732788,-0.07088193297386169,0.7514209151268005,1,0.03899844735860825,-0.2573909759521484,0.1547821015119553,0.9530327916145325,-0.5026766061782837,0.005345433950424194,-0.8644580245018005,0,0,0,-1,169444.5764319167,3,1,1561841628.522931,1561841239.621676,19,2.442143,0,0,18.59878,0,0,1561841548.131042,169444.285725,0,0.4440918,75.18877,0,182478453,2,1,1,-32.5398,-38.37698,0
1561841631.128665,27,0,0,1561841630.994608,4.634708692324008,-74.15106548003307,2555.431,0.87,313.59375,4,10,-9999,1561841631.114059,-25.81722259521484,-14.70021438598633,1.10321044921875,114.2826538085938,121.7758560180664,15,169447.4132885,-1.30706787109375,-0.120025634765625,-0.079986572265625,169447.4132885,-0.8551751144863964,-3.239354367729403,1.828128794497656,169447.3865555,-100.0936584472656,-41.62620544433594,-561.9725341796875,169447.4082225,0.3484472122069642,-0.5805903517262103,-0.03406418024242513,-0.7157414555549622,-3.046027421951294,1.853065967559814,-0.7411072254180908,-0.1152496114373207,0.7492738962173462,1,0.03353818133473396,-0.284689724445343,0.1708678156137466,0.9426723122596741,-0.5481994152069092,0.03405759111046791,-0.8356539011001587,0,0,0,-1,169444.5764319167,3,1,1561841628.522931,1561841239.621676,19,2.442143,0,0,18.59878,0,0,1561841548.131042,169444.285725,0,0.4440918,75.18877,0,182478453,2,1,1,-32.5398,-38.48592,0
1561841631.13561,28,0,0,1561841630.994608,4.634708692324008,-74.15106548003307,2555.431,0.87,313.59375,4,10,-9999,1561841631.114059,-25.81722259521484,-14.70021438598633,1.10321044921875,114.2826538085938,121.7758560180664,15,169447.4335525,-1.362274169921875,-0.227783203125,-0.1387786865234375,169447.4335525,-1.668841401274491,-3.8159684248318,1.487972016893432,169447.4066665,-100.5807800292969,-40.48178100585938,-560.7450561523438,169447.4284865,0.3654041029278998,-0.6490210482935866,-0.07180429477424034,-1.435431241989136,-3.729166984558105,1.608081817626953,-0.7277475595474243,-0.2581439614295959,0.6908937096595764,1,0.02443797886371613,-0.3195172846317291,0.1833477914333344,0.9293519854545593,-0.6028493642807007,0.07174260914325714,-0.7946229577064514,0,0,0,-1,169444.5764319167,3,1,1561841628.522931,1561841239.621676,19,2.442143,0,0,18.59878,0,0,1561841548.131042,169444.285725,0,0.4440918,75.18877,0,182478453,2,1,1,-21.28568,-21.28568,0
1561841631.155777,29,0,0,1561841630.994608,4.634708692324008,-74.15106548003307,2555.431,0.87,313.59375,4,10,-9999,1561841631.139896,-26.60311889648438,-13.02896499633789,4.09100341796875,113.4834823608398,120.9766845703125,15,169447.4538165,-1.422042846679688,-0.27874755859375,-0.232757568359375,169447.4538165,-2.654424323807124,-3.9387356237106,0.7743127553599934,169447.4267775,-100.9132995605469,-39.70118713378906,-559.4112548828125,169447.4487505,0.3613432927739889,-0.7277653320564412,-0.1186024373310544,-2.404223680496216,-3.933228731155396,0.9771844744682312,-0.7262042760848999,-0.3685687184333801,0.5647512078285217,1,0.009356008842587471,-0.3594492077827454,0.1883793026208878,0.9139048457145691,-0.6605296730995178,0.1183245778083801,-0.7414174675941467,0,0,0,-1,169444.5764319167,3,1,1561841628.522931,1561841239.621676,19,2.442143,0,0,18.59878,0,0,1561841548.131042,169444.285725,0,0.4440918,75.18877,0,182478453,2,1,1,-21.28568,-21.28568,0
1561841631.175901,30,0,0,1561841630.994608,4.634708692324008,-74.15106548003307,2555.431,0.87,313.59375,4,10,-9999,1561841631.164159,-26.5714111328125,-12.38761901855469,5.486572265625,114.9324493408203,122.425651550293,15,169447.4740795,-1.451690673828125,-0.3122406005859375,-0.3973846435546875,169447.4740795,-3.428179146918746,-4.047174749608664,-0.02914643391815421,169447.4468585,-101.1112060546875,-39.18850708007812,-557.7696533203125,169447.4690135,0.3285146878601456,-0.812925684490006,-0.1682057418240674,-3.290326356887817,-4.012655258178711,0.1457027494907379,-0.7407820224761963,-0.4675845801830292,0.3606434464454651,1,-0.01169987581670284,-0.4012797772884369,0.1824310123920441,0.8975279927253723,-0.7160508036613464,0.1674136817455292,-0.6776753067970276,0,0,0,-1,169444.5764319167,3,1,1561841628.522931,1561841239.621676,19,2.442143,0,0,18.59878,0,0,1561841548.131042,169444.285725,0,0.4440918,75.18877,0,182478453,2,1,1,-16.88931,-18.54788,0
1561841631.19694,31,0,0,1561841630.994608,4.634708692324008,-74.15106548003307,2555.431,0.87,313.59375,4,10,-9999,1561841631.190514,-26.21369934082031,-12.83260345458984,7.04180908203125,118.7607955932617,126.2539978027344,15,169447.4943435,-1.497833251953125,-0.2651519775390625,-0.56475830078125,169447.4943435,-3.802724791046945,-4.386660410618188,-0.5011552518277651,169447.4669695,-100.7771911621094,-39.47200012207031,-556.3370361328125,169447.4892775,0.2713202396104608,-0.9075750548894569,-0.2121865850209347,-3.705557346343994,-4.30452299118042,-0.4067116975784302,-0.6945341229438782,-0.5043601393699646,0.1342757940292358,1,-0.0353485569357872,-0.444775253534317,0.1668680012226105,0.8792499303817749,-0.7703401446342468,0.2105979472398758,-0.6018509268760681,0,0,0,-1,169444.5764319167,3,1,1561841628.522931,1561841239.621676,19,2.442143,0,0,18.59878,0,0,1561841548.131042,169444.285725,0,0.4440918,75.18877,0,182478453,2,1,1,-16.88931,-19.55478,0
1561841631.216437,32,0,0,1561841630.994608,4.634708692324008,-74.15106548003307,2555.431,0.87,313.59375,4,10,-9999,1561841631.215318,-25.73408508300781,-13.60676193237305,8.35980224609375,124.1584396362305,131.6516418457031,15,169447.5146075,-1.519287109375,-0.2245635986328125,-0.817047119140625,169447.5146075,-4.15461226062075,-4.39417105752443,-1.088104504488542,169447.4870805,-100.0820617675781,-39.853271484375,-554.890380859375,169447.5095415,0.1971405641103308,-1.014370468337928,-0.2470697988087339,-4.108992099761963,-4.473886489868164,-0.9039654135704041,-0.6958943009376526,-0.4866749942302704,-0.1783592700958252,1,-0.05975077673792839,-0.4902772009372711,0.1449269652366638,0.8573530316352844,-0.8233622908592224,0.2445637881755829,-0.5121161937713623,0,0,0,-1,169444.5764319167,3,1,1561841628.522931,1561841239.621676,19,2.442143,0,0,18.59878,0,0,1561841548.131042,169444.285725,0,0.4440918,75.18877,0,182478453,2,1,1,-16.88931,-20.62518,0
1561841631.240271,33,0,0,1561841630.994608,4.634708692324008,-74.15106548003307,2555.431,0.87,313.59375,4,10,-9999,1561841631.215318,-25.73408508300781,-13.60676193237305,8.35980224609375,124.1584396362305,131.6516418457031,15,169447.5348705,-1.529510498046875,-0.2449493408203125,-1.015182495117188,169447.5348705,-4.01013337463897,-3.588125406195597,-1.983198805818572,169447.5071915,-99.23207092285156,-40.96401977539062,-553.5704956054688,169447.5297745,0.1083704815735871,-1.122423503731987,-0.2639670179636055,-4.066645622253418,-3.846663951873779,-1.753002166748047,-0.6520326733589172,-0.4995901882648468,-0.5069763660430908,1,-0.08267775923013687,-0.5328434705734253,0.1153893023729324,0.8342227339744568,-0.8699400424957275,0.2609122097492218,-0.4184844493865967,0,0,0,-1,169444.5764319167,3,1,1561841628.522931,1561841239.621676,19,2.442143,0,0,18.59878,0,0,1561841548.131042,169444.285725,0,0.4440918,75.18877,0,182478453,2,1,1,-16.88931,-21.32544,0
1561841631.256998,34,0,0,1561841630.994608,4.634708692324008,-74.15106548003307,2555.431,0.87,313.59375,4,10,-9999,1561841631.241184,-23.16445159912109,-16.46728515625,10.34893798828125,130.7064208984375,138.1996307373047,15,169447.5551035,-1.481277465820312,-0.173431396484375,-1.16558837890625,169447.5551035,-3.794659141369531,-2.423635582689184,-2.800361823117941,169447.5272715,-97.92857360839844,-42.5648193359375,-552.779296875,169447.5500385,0.01389151172770771,-1.213871389837178,-0.2541448608374366,-3.867286443710327,-2.732036828994751,-2.629668235778809,-0.6133391261100769,-0.4615160822868347,-0.7616666555404663,1,-0.100164495408535,-0.566463828086853,0.07793871313333511,0.8142551183700562,-0.9068787693977356,0.2514178156852722,-0.3381716012954712,0,0,0,-1,169444.5764319167,3,1,1561841628.522931,1561841239.621676,19,2.442143,0,0,18.59878,0,0,1561841548.131042,169444.285725,0,0.4440918,75.18877,0,182478453,2,1,1,-16.88931,-22.07904,0
1561841631.278722,35,0,0,1561841630.994608,4.634708692324008,-74.15106548003307,2555.431,0.87,313.59375,4,10,-9999,1561841631.265483,-21.58984375,-18.0807991027832,10.456298828125,137.4566192626953,144.9498291015625,15,169447.5753675,-1.382827758789062,-0.0455169677734375,-1.22369384765625,169447.5753675,-3.403964088391092,-1.423174910726823,-3.296020576771891,169447.5473835,-96.58937072753906,-44.00872802734375,-552.5253295898438,169447.5703015,-0.07858483986802828,-1.279339347092828,-0.2214119580971045,-3.500349521636963,-1.616103053092957,-3.195618629455566,-0.495014488697052,-0.3396329581737518,-0.920441746711731,1,-0.1118741631507874,-0.5893364548683167,0.0345749706029892,0.7993568181991577,-0.9344441294670105,0.219607338309288,-0.2803334295749664,0,0,0,-1,169444.5764319167,3,1,1561841628.522931,1561841239.621676,19,2.442143,0,0,18.59878,0,0,1561841548.131042,169444.285725,0,0.4440918,75.18877,0,182478453,2,1,1,-16.88931,-23.04919,0
1561841631.297458,36,0,0,1561841630.994608,4.634708692324008,-74.15106548003307,2555.431,0.87,313.59375,4,10,-9999,1561841631.291858,-20.03606414794922,-20.05496978759766,9.90020751953125,143.6261749267578,151.119384765625,15,169447.5956315,-1.26947021484375,0.1160736083984375,-1.28900146484375,169447.5956315,-2.969006499147208,-1.372223579067536,-3.640858925256365,169447.5674945,-94.90792846679688,-46.21492004394531,-552.5700073242188,169447.5905655,-0.1632018318064403,-1.323664966286374,-0.1730276726846794,-3.119235277175903,-1.289292454719543,-3.567593097686768,-0.37959223985672,-0.1329047232866287,-1.015453100204468,1,-0.1178419888019562,-0.6046717166900635,-0.01113515067845583,0.7876302003860474,-0.9551398158073425,0.1721656024456024,-0.2409707605838776,0,0,0,-1,169444.5764319167,3,1,1561841628.522931,1561841239.621676,19,2.442143,0,0,18.59878,0,0,1561841548.131042,169444.285725,0,0.4440918,75.18877,0,182478453,2,1,1,-16.88931,-23.04919,0
1561841631.317726,37,0,0,1561841630.994608,4.634708692324008,-74.15106548003307,2555.431,0.87,313.59375,4,10,-9999,1561841631.316118,-18.25485229492188,-22.05249404907227,9.25518798828125,148.723388671875,156.2165985107422,15,169447.6158945,-1.1624755859375,0.2039794921875,-1.324478149414062,169447.6158945,-2.200414746440923,-1.958254041152236,-3.832281085456863,169447.5876055,-93.14622497558594,-47.94410705566406,-553.4737548828125,169447.6108295,-0.2357189822269955,-1.365337974640041,-0.1126228510953479,-2.397330522537231,-1.845076084136963,-3.807924032211304,-0.229154109954834,0.05337131023406982,-1.107472538948059,1,-0.1174295023083687,-0.6203616857528687,-0.05583014339208603,0.77346271276474,-0.9727655053138733,0.1123849228024483,-0.2027233839035034,0,0,0,-1,169444.5764319167,3,1,1561841628.522931,1561841239.621676,19,2.442143,0,0,18.59878,0,0,1561841548.131042,169444.285725,0,0.4440918,75.18877,0,182478453,2,1,1,-16.88931,-24.07986,0
1561841631.339242,38,0,0,1561841630.994608,4.634708692324008,-74.15106548003307,2555.431,0.87,313.59375,4,10,-9999,1561841631.316118,-18.25485229492188,-22.05249404907227,9.25518798828125,148.723388671875,156.2165985107422,15,169447.6361585,-1.15582275390625,0.2871856689453125,-1.31463623046875,169447.6361585,-1.652289588783539,-1.871867486976682,-3.87611591805124,169447.6076855,-91.09730529785156,-49.90765380859375,-553.9749145507812,169447.6310925,-0.2908493319719588,-1.410095604406379,-0.04355152397230668,-1.755778551101685,-1.993901014328003,-3.870468139648438,-0.1648063659667969,0.2081407010555267,-1.165520191192627,1,-0.1102989464998245,-0.6386744379997253,-0.09637431800365448,0.7554078698158264,-0.9861793518066406,0.04353775829076767,-0.1598582118749619,0,0,0,-1,169444.5764319167,3,1,1561841628.522931,1561841239.621676,19,2.442143,0,0,18.59878,0,0,1561841548.131042,169444.285725,0,0.4440918,75.18877,0,182478453,2,1,1,-16.88931,-24.62096,0
1561841631.360816,39,0,0,1561841630.994608,4.634708692324008,-74.15106548003307,2555.431,0.87,313.59375,4,10,-9999,1561841631.342401,-13.55780029296875,-25.10878372192383,8.5811767578125,152.3410034179688,159.8342132568359,15,169447.6564225,-1.175277709960938,0.3173828125,-1.246719360351562,169447.6564225,-1.519166954322075,-0.7704892549829667,-3.890081801123724,169447.6277965,-88.81881713867188,-51.33732604980469,-554.2120971679688,169447.6513565,-0.3341832149636615,-1.443712873323245,0.02972787322937079,-1.522132277488708,-1.130172610282898,-3.890409469604492,-0.1831240653991699,0.3372491300106049,-1.161217212677002,1,-0.09888467192649841,-0.6533597707748413,-0.1345037370920181,0.738411545753479,-0.9914975166320801,-0.02972349524497986,-0.1266856640577316,0,0,0,-1,169444.5764319167,3,1,1561841628.522931,1561841239.621676,19,2.442143,0,0,18.59878,0,0,1561841548.131042,169445.229582,0,0.5654297,75.18761,0,182478453,2,1,1,-16.88931,-25.32752,0
1561841631.378556,40,0,0,1561841630.994608,4.634708692324008,-74.15106548003307,2555.431,0.87,313.59375,4,10,-9999,1561841631.366754,-11.26827239990234,-26.52384948730469,8.29913330078125,155.2657165527344,162.7589263916016,15,169447.6766855,-1.143341064453125,0.3590240478515625,-1.096237182617188,169447.6766855,-1.419813735115034,0.8448029009888648,-3.798366794239139,169447.6479075,-86.55419921875,-52.54931640625,-554.4352416992188,169447.6716205,-0.3742279753058736,-1.448564132233156,0.1040322619476987,-1.469497084617615,0.4393824636936188,-3.841249942779541,-0.1782323718070984,0.4380732178688049,-1.068016409873962,1,-0.08483088761568069,-0.6573958396911621,-0.1729878783226013,0.7284982800483704,-0.9871729016304016,-0.1038447096943855,-0.1212688609957695,0,0,0,-1,169444.5764319167,3,1,1561841628.522931,1561841239.621676,19,2.442143,0,0,18.59878,0,0,1561841548.131042,169445.229582,0,0.5654297,75.18761,0,182478453,2,1,1,-16.88931,-26.30381,0
1561841631.398834,41,0,0,1561841630.994608,4.634708692324008,-74.15106548003307,2555.431,0.87,313.59375,4,10,-9999,1561841631.393126,-9.250198364257812,-27.66966247558594,7.2950439453125,158.0040130615234,165.4972229003906,15,169447.6969495,-1.004653930664062,0.3995208740234375,-0.9085540771484375,169447.6969495,-1.087860558932691,2.08639443384638,-3.620325686935745,169447.6680185,-84.14566040039062,-54.02822875976562,-555.3208618164062,169447.6918535,-0.4118855953986058,-1.419255939830543,0.1756322823196793,-1.203049898147583,1.85766589641571,-3.661426544189453,-0.1172897815704346,0.5532707571983337,-0.8525667786598206,1,-0.06759627163410187,-0.6489309668540955,-0.2104650586843491,0.7280272841453552,-0.9733322262763977,-0.1747307330369949,-0.1486386954784393,0,0,0,-1,169444.5764319167,3,1,1561841628.522931,1561841239.621676,19,2.442143,0,0,18.59878,0,0,1561841548.131042,169445.229582,0,0.5654297,75.18761,0,182478453,2,1,1,-16.88931,-26.90537,0
1561841631.419082,42,0,0,1561841630.994608,4.634708692324008,-74.15106548003307,2555.431,0.87,313.59375,4,10,-9999,1561841631.417386,-7.397468566894531,-28.21697616577148,6.54443359375,160.2223815917969,167.7155914306641,15,169447.7172135,-0.807708740234375,0.411956787109375,-0.76470947265625,169447.7172135,-0.3650416211460332,2.017319225704667,-3.436247193441141,169447.6880995,-82.15821838378906,-54.47821044921875,-555.9556884765625,169447.7121165,-0.443841826882012,-1.369582280410132,0.2437948233130753,-0.587232768535614,2.145837545394897,-3.49130654335022,0.03912240266799927,0.660286545753479,-0.6216027736663818,1,-0.04631263762712479,-0.6331513524055481,-0.2442412078380585,0.7330217361450195,-0.9508503079414368,-0.2413869649171829,-0.1939490139484406,0,0,0,-1,169444.5764319167,3,1,1561841628.522931,1561841239.621676,19,2.442143,0,0,18.59878,0,0,1561841548.131042,169445.229582,0,0.5654297,75.18761,0,182478453,2,1,1,-16.88931,-27.52792,0
1561841631.443659,43,0,0,1561841630.994608,4.634708692324008,-74.15106548003307,2555.431,0.87,313.59375,4,10,-9999,1561841631.417386,-7.397468566894531,-28.21697616577148,6.54443359375,160.2223815917969,167.7155914306641,15,169447.7374465,-0.6727294921875,0.4086151123046875,-0.69970703125,169447.7374465,0.4035959379310013,1.161565139997287,-3.201025887004874,169447.7082105,-80.49327087402344,-54.878173828125,-556.9046020507812,169447.7323805,-0.4628026930049707,-1.327768365927513,0.3098816004824897,0.2421797513961792,1.395928621292114,-3.255542755126953,0.2043361663818359,0.7071523070335388,-0.4977478384971619,1,-0.02131828851997852,-0.6204475164413452,-0.2710222899913788,0.735620379447937,-0.9243831634521484,-0.3049458861351013,-0.2291808128356934,0,0,0,-1,169444.5764319167,3,1,1561841628.522931,1561841239.621676,19,2.442143,0,0,18.59878,0,0,1561841548.131042,169445.229582,0,0.5654297,75.18761,0,182478453,2,1,1,-16.88931,-23.36481,0
1561841631.459411,44,0,0,1561841630.994608,4.634708692324008,-74.15106548003307,2555.431,0.87,313.59375,4,10,-9999,1561841631.443681,-3.640083312988281,-28.93506622314453,5.77020263671875,161.2491302490234,168.7423400878906,15,169447.7577105,-0.59051513671875,0.4789581298828125,-0.70916748046875,169447.7577105,0.7672601721612456,0.2592558026420148,-2.926366626933949,169447.7484325,-76.97750854492188,-55.65238952636719,-556.8975219726562,169447.7526445,-0.4691918264005697,-1.307045149738532,0.3743324672320891,0.7203676104545593,0.4588001072406769,-3.030522108078003,0.2665464282035828,0.7964527010917664,-0.4560950994491577,1,0.004828975070267916,-0.6153465509414673,-0.2913623750209808,0.7324160933494568,-0.8985654711723328,-0.3656513094902039,-0.2426506131887436,0,0,0,-1,169444.5764319167,3,1,1561841628.522931,1561841239.621676,19,2.442143,0,0,18.59878,0,0,1561841548.131042,169445.229582,0,0.5654297,75.18761,0,182478453,2,1,1,-16.88931,-23.36481,0
1561841631.479684,45,0,0,1561841630.994608,4.634708692324008,-74.15106548003307,2555.431,0.87,313.59375,4,10,-9999,1561841631.468051,-2.320259094238281,-29.02556610107422,5.91510009765625,161.3922424316406,168.8854522705078,15,169447.7779735,-0.4853363037109375,0.5634918212890625,-0.8359527587890625,169447.7779735,0.9077198154258778,-0.4186593096887076,-2.160423920563966,169447.7685135,-75.31431579589844,-55.7330322265625,-556.427734375,169447.7729075,-0.4685863218878903,-1.305668625195394,0.4325157295169447,0.8300445675849915,-0.2629306614398956,-2.403090000152588,0.3357397317886353,0.9469729661941528,-0.5223661661148071,1,0.02805903553962708,-0.6166532039642334,-0.3069018125534058,0.7244051694869995,-0.8761907815933228,-0.4191561937332153,-0.2379030287265778,0,0,0,-1,169444.5764319167,3,1,1561841628.522931,1561841239.621676,19,2.442143,0,0,18.59878,0,0,1561841548.131042,169445.229582,0,0.5654297,75.18761,0,182478453,2,1,1,-16.88931,-24.01011,0
1561841631.517889,46,0,0,1561841630.994608,4.634708692324008,-74.15106548003307,2555.431,0.87,313.59375,4,10,-9999,1561841631.494355,-0.691650390625,-29.24031448364258,6.4056396484375,160.6862335205078,168.179443359375,15,169447.7982375,-0.51763916015625,0.6300048828125,-0.95904541015625,169447.7982375,1.845571967005457,-0.9043498513824915,-1.075942646738477,169447.7886245,-74.2860107421875,-55.56388854980469,-555.8638916015625,169447.7931715,-0.4558112405314829,-1.322895171861936,0.4751839533174166,1.503805637359619,-0.8404171466827393,-1.35136342048645,0.3882550001144409,1.050870537757874,-0.6837162971496582,1,0.04603755474090576,-0.6235287189483643,-0.3141153752803802,0.7144396901130676,-0.8620251417160034,-0.4575020372867584,-0.2181849628686905,0,0,0,-1,169444.5764319167,3,1,1561841628.522931,1561841239.621676,19,2.442143,0,0,18.59878,0,0,1561841548.131042,169445.229582,0,0.5654297,75.18761,0,182478453,2,1,1,-16.88931,-25.78143,0
1561841631.522836,47,0,0,1561841630.994608,4.634708692324008,-74.15106548003307,2555.431,0.87,313.59375,4,10,-9999,1561841631.518816,0.3581161499023438,-29.16433715820312,7.1676025390625,157.1025390625,164.5957489013672,15,169447.8185015,-0.7332763671875,0.66290283203125,-0.9741668701171875,169447.8185015,3.678006826669662,-0.4821895501247658,-0.3019840918034641,169447.8087355,-73.45005798339844,-55.18980407714844,-554.7622680664062,169447.8134355,-0.4093706939035263,-1.361925447899582,0.5023340000893958,3.163944959640503,-0.6630799174308777,-0.4272222816944122,0.2384697198867798,1.136852741241455,-0.8048332333564758,1,0.06512709707021713,-0.6363088488578796,-0.30616694688797,0.7050754427909851,-0.8574119806289673,-0.48147252202034,-0.181739017367363,0,0,0,-1,169444.5764319167,3,1,1561841628.522931,1561841239.621676,19,2.442143,0,0,18.59878,0,0,1561841548.131042,169445.229582,0,0.5654297,75.18761,0,182478453,2,1,1,-16.88931,-25.78143,0
1561841631.540649,48,0,0,1561841630.994608,4.634708692324008,-74.15106548003307,2555.431,0.87,313.59375,4,10,-9999,1561841631.518816,0.3581161499023438,-29.16433715820312,7.1676025390625,157.1025390625,164.5957489013672,15,169447.8387645,-0.9342498779296875,0.726165771484375,-0.779083251953125,169447.8387645,5.918939438567269,0.5514644953482339,-0.236578187011663,169447.8288165,-73.45869445800781,-54.89675903320312,-552.7843017578125,169447.8336985,-0.3137047440752497,-1.414100346206861,0.5229927656395864,5.348542213439941,0.2445767521858215,-0.2033750861883163,0.02670419216156006,1.185464382171631,-0.7769903540611267,1,0.09611645340919495,-0.6505105495452881,-0.2806016206741333,0.6991854906082153,-0.8557142019271851,-0.4994750916957855,-0.1351952999830246,0,0,0,-1,169444.5764319167,3,1,1561841628.522931,1561841239.621676,19,2.442143,0,0,18.59878,0,0,1561841548.131042,169445.229582,0,0.5654297,75.18761,0,182478453,2,1,1,-16.88931,-25.97557,0
1561841631.561263,49,0,0,1561841630.994608,4.634708692324008,-74.15106548003307,2555.431,0.87,313.59375,4,10,-9999,1561841631.545111,0.922576904296875,-27.72763824462891,11.2308349609375,148.9964141845703,156.4896240234375,15,169447.8590285,-1.124496459960938,0.7843475341796875,-0.3764801025390625,169447.8590285,7.770247588244648,1.36513024950411,-0.6233727742575725,169447.8489275,-73.51455688476562,-53.475341796875,-549.2890625,169447.8539625,-0.1646663088085669,-1.473904439942189,0.5457720175218452,7.380562305450439,1.233637452125549,-0.5025226473808289,-0.1945856809616089,1.271000742912292,-0.5041207075119019,1,0.1456797271966934,-0.6613880395889282,-0.2391546070575714,0.6958075761795044,-0.8507176637649536,-0.5190781354904175,-0.08268655836582184,0,0,0,-1,169444.5764319167,3,1,1561841628.522931,1561841239.621676,19,2.442143,0,0,18.59878,0,0,1561841548.131042,169445.229582,0,0.5654297,75.18761,0,182478453,2,1,1,-16.88931,-26.89799,0
1561841631.597905,50,0,0,1561841630.994608,4.634708692324008,-74.15106548003307,2555.431,0.87,313.59375,4,10,-9999,1561841631.596078,0.5932388305664062,-23.64727401733398,18.4625244140625,121.0420913696289,128.5352935791016,15,169447.8792925,-1.224090576171875,0.7994232177734375,0.1103057861328125,169447.8792925,8.868407390061002,1.414769974326533,-1.061120557375532,169447.8690385,-73.62907409667969,-51.23971557617188,-545.4434814453125,169447.8741955,0.02651487864759264,-1.546561559361336,0.570668132403959,8.653172492980957,1.484580755233765,-0.9599493145942688,-0.3395540714263916,1.365862846374512,-0.1236656904220581,1,0.2102999091148376,-0.6675160527229309,-0.1874879449605942,0.689234733581543,-0.8412930965423584,-0.5401944518089294,-0.02039253525435925,0,0,0,-1,169444.5764319167,3,1,1561841628.522931,1561841239.621676,19,2.442143,0,0,18.59878,0,0,1561841548.131042,169445.229582,0,0.5654297,75.18761,0,182478453,2,1,1,-16.88931,-27.77633,0
1561841631.601377,51,0,0,1561841630.994608,4.634708692324008,-74.15106548003307,2555.431,0.87,313.59375,4,10,-9999,1561841631.596078,0.5932388305664062,-23.64727401733398,18.4625244140625,121.0420913696289,128.5352935791016,15,169447.8995255,-1.246414184570312,0.7255859375,0.61376953125,169447.8995255,9.784130004562568,0.6132540936958164,-1.523784609336164,169447.8891185,-73.91470336914062,-47.85931396484375,-541.760009765625,169447.8944595,0.2470198897617368,-1.642548175717204,0.5903328939304627,9.508728981018066,0.8629255294799805,-1.393944978713989,-0.411845326423645,1.323849558830261,0.2991769313812256,1,0.2829580307006836,-0.6706066727638245,-0.1310177445411682,0.6730942726135254,-0.8286179900169373,-0.5566375851631165,0.05955711379647255,0,0,0,-1,169444.5764319167,3,1,1561841628.522931,1561841239.621676,19,2.442143,0,0,18.59878,0,0,1561841548.131042,169445.229582,0,0.5654297,75.18761,0,182478453,2,1,1,-16.88931,-28.31358,0
1561841631.624677,52,0,0,1561841630.994608,4.634708692324008,-74.15106548003307,2555.431,0.87,313.59375,4,10,-9999,1561841631.622265,0.550689697265625,-20.02830123901367,22.3529052734375,102.8941650390625,110.3873672485352,15,169447.9197895,-1.210708618164062,0.613372802734375,1.132247924804688,169447.9197895,11.13727789337409,0.07342761231122873,-2.101408004491701,169447.9092295,-73.42442321777344,-43.55575561523438,-538.1392211914062,169447.9147235,0.4977703252448525,-1.775123706127546,0.5962215588714087,10.80231380462646,0.04037249833345413,-1.988993644714355,-0.4348671436309814,1.223263144493103,0.6966331005096436,1,0.3623169362545013,-0.6728121042251587,-0.0721210390329361,0.6409749388694763,-0.8102500438690186,-0.561519980430603,0.1678993850946426,0,0,0,-1,169444.5764319167,3,1,1561841628.522931,1561841239.621676,19,2.442143,0,0,18.59878,0,0,1561841548.131042,169445.229582,0,0.5654297,75.18761,0,182478453,2,1,1,-16.88931,-29.05287,0
1561841631.642118,53,0,0,1561841630.994608,4.634708692324008,-74.15106548003307,2555.431,0.87,313.59375,4,10,-9999,1561841631.622265,0.550689697265625,-20.02830123901367,22.3529052734375,102.8941650390625,110.3873672485352,15,169447.9400525,-1.030426025390625,0.5180206298828125,1.454788208007812,169447.9400525,9.80430824350988,0.9565070623833664,-1.788609880765861,169447.9293415,-72.98753356933594,-37.91073608398438,-535.3193969726562,169447.9349865,0.7721461428859174,-1.9214963364419,0.5747393461619354,10.77424907684326,0.7273485064506531,-1.984443426132202,-0.3525164723396301,1.105108976364136,1.120272755622864,1,0.4464022517204285,-0.6670111417770386,-0.008323168382048607,0.5964494347572327,-0.7882458567619324,-0.5436160564422607,0.288357675075531,0,0,0,-1,169444.5764319167,3,1,1561841628.522931,1561841239.621676,19,2.442143,0,0,18.59878,0,0,1561841548.131042,169445.229582,0,0.5654297,75.18761,0,182478453,2,1,1,-16.88931,-29.05287,0
1561841631.688835,54,0,0,1561841630.994608,4.634708692324008,-74.15106548003307,2555.431,0.87,313.59375,4,10,-9999,1561841631.681089,0.3951873779296875,-5.363967895507812,28.96875,75.57982635498047,83.07302856445312,15,169447.9603165,-0.7502593994140625,0.5207672119140625,1.218673706054688,169447.9603165,4.203593119389487,3.44980934129237,-0.526157274457538,169447.9494215,-73.42140197753906,-32.69792175292969,-534.058837890625,169447.9552505,0.9697703523626514,-1.997633241085122,0.5379766776380471,5.509274005889893,2.574002981185913,-0.8915013074874878,-0.08495330810546875,1.036188006401062,0.8282153606414795,1,0.5050948858261108,-0.6501054167747498,0.04553177580237389,0.5658347010612488,-0.7817001342773438,-0.5123994946479797,0.3555158078670502,0,0,0,-1,169444.5764319167,3,1,1561841628.522931,1561841239.621676,19,2.442143,0,0,18.59878,0,0,1561841548.131042,169445.229582,0,0.5654297,75.18761,0,182478453,2,1,1,-16.88931,-30.28782,0
1561841631.694826,55,0,0,1561841630.994608,4.634708692324008,-74.15106548003307,2555.431,0.87,313.59375,4,10,-9999,1561841631.681089,0.3951873779296875,-5.363967895507812,28.96875,75.57982635498047,83.07302856445312,15,169447.980577625,-0.62744140625,0.399658203125,1.569091796875,169447.980577625,-0.003259176542038972,5.129418701802378,0.9837013992224924,169447.969529625,-75.95045471191406,-30.80854797363281,-533.7844848632812,169447.975511625,1.037200517805785,-1.949283467271732,0.5149619786419752,0.8944035768508911,5.063688278198242,0.6636116504669189,0.1374197602272034,0.9751830101013184,1.199555397033691,1,0.5208171010017395,-0.6241363286972046,0.08611144870519638,0.5760105848312378,-0.8087148666381836,-0.4925017654895782,0.3215932250022888,0,0,0,-1,169444.5764319167,3,1,1561841628.522931,1561841239.621676,19,2.442143,0,0,18.59878,0,0,1561841548.131042,169445.229582,0,0.5654297,75.18761,0,182478453,2,1,1,-16.88931,-30.97838,0
1561841631.707367,56,0,0,1561841630.994608,4.634708692324008,-74.15106548003307,2555.431,0.87,313.59375,4,10,-9999,1561841631.681089,0.3951873779296875,-5.363967895507812,28.96875,75.57982635498047,83.07302856445312,15,169448.000840625,-0.5752105712890625,0.3290557861328125,1.583953857421875,169448.000840625,-1.994227488524808,4.02456211510891,1.550656437367281,169447.989640625,-78.74331665039062,-30.56108093261719,-534.226806640625,169447.995774625,1.015081086073521,-1.838994622249072,0.4960413265432418,-1.715821027755737,4.433436393737793,1.491484403610229,0.261103093624115,0.8442491292953491,1.332938432693481,1,0.5047683119773865,-0.6014456152915955,0.1150014623999596,0.6084791421890259,-0.8480324149131775,-0.4759477376937866,0.2330557554960251,0,0,0,-1,169444.5764319167,3,1,1561841628.522931,1561841239.621676,19,2.442143,0,0,18.59878,0,0,1561841548.131042,169445.229582,0,0.5654297,75.18761,0,182478453,2,1,1,-16.88931,-30.97838,0
1561841631.723819,57,0,0,1561841630.994608,4.634708692324008,-74.15106548003307,2555.431,0.87,313.59375,4,10,-9999,1561841631.721706,-7.223777770996094,-5.153846740722656,27.86871337890625,80.15364074707031,87.64684295654297,15,169448.021104625,-0.6066436767578125,0.304473876953125,1.417465209960938,169448.021104625,-2.290104419316502,2.35667092971136,1.742035986990337,169448.009751625,-81.32603454589844,-31.37454223632812,-534.7724609375,169448.016038625,0.9601551935223289,-1.740723725023178,0.4737741641751012,-2.294707298278809,2.745922088623047,1.677254796028137,0.2909154891967773,0.7603861093521118,1.368238806724548,1,0.4774130880832672,-0.5893374085426331,0.1302274018526077,0.6385913491249084,-0.8770360946655273,-0.4562479853630066,0.1504836827516556,0,0,0,-1,169444.5764319167,3,1,1561841628.522931,1561841239.621676,19,2.442143,0,0,18.59878,0,0,1561841548.131042,169445.229582,0,0.5654297,75.18761,0,182478453,2,1,1,-16.88931,-31.30696,0
1561841631.759781,58,0,0,1561841630.994608,4.634708692324008,-74.15106548003307,2555.431,0.87,313.59375,4,10,-9999,1561841631.747596,-8.391517639160156,-6.204944610595703,27.5386962890625,84.10520172119141,91.59840393066406,15,169448.041368625,-0.65484619140625,0.273162841796875,1.228302001953125,169448.041368625,-2.207775723693902,1.073371897338224,2.17231759799226,169448.029832625,-82.752197265625,-32.39035034179688,-535.4671630859375,169448.036271625,0.9038817315432277,-1.675241207628371,0.4432425462295684,-2.223842620849609,1.335170984268188,2.031502485275269,0.2778373956680298,0.7220227718353271,1.217465043067932,1,0.4488997757434845,-0.5878598690032959,0.1381808519363403,0.6586468815803528,-0.8984428644180298,-0.4288709163665771,0.09418047219514847,0,0,0,-1,169444.5764319167,3,1,1561841628.522931,1561841239.621676,19,2.442143,0,0,18.59878,0,0,1561841548.131042,169445.229582,0,0.5654297,75.18761,0,182478453,2,1,1,-16.88931,-32.33565,0
1561841631.763489,59,0,0,1561841630.994608,4.634708692324008,-74.15106548003307,2555.431,0.87,313.59375,4,10,-9999,1561841631.747596,-8.391517639160156,-6.204944610595703,27.5386962890625,84.10520172119141,91.59840393066406,15,169448.061631625,-0.704376220703125,0.2017669677734375,1.087478637695312,169448.061631625,-2.567509664787407,0.09103403659385158,2.711929694909096,169448.049943625,-83.22354125976562,-33.15139770507812,-535.72998046875,169448.056535625,0.8495602521278733,-1.636259570290256,0.4004455834760656,-2.409498453140259,0.3233282864093781,2.580966711044312,0.2300567030906677,0.6371126174926758,1.109573841094971,1,0.4186591804027557,-0.5956887602806091,0.1438309550285339,0.6702178120613098,-0.9189147353172302,-0.3898287117481232,0.0602412186563015,0,0,0,-1,169444.5764319167,3,1,1561841628.522931,1561841239.621676,19,2.442143,0,0,18.59878,0,0,1561841548.131042,169445.229582,0,0.5654297,75.18761,0,182478453,2,1,1,-16.88931,-33.05629,0
1561841631.783614,60,0,0,1561841630.994608,4.634708692324008,-74.15106548003307,2555.431,0.87,313.59375,4,10,-9999,1561841631.772835,-9.075035095214844,-6.8408203125,27.29473876953125,88.29151153564453,95.78471374511719,15,169448.081864625,-0.80877685546875,0.11846923828125,0.9018096923828125,169448.081864625,-3.577364637495023,-0.6716257911003912,3.235391850343474,169448.070054625,-83.43089294433594,-33.93821716308594,-535.7742309570312,169448.076798625,0.7853243113632464,-1.615234190237247,0.3461095465654146,-3.291716337203979,-0.5100551843643188,3.091207504272461,0.1965610980987549,0.4885020852088928,0.9535418748855591,1,0.3823530077934265,-0.612127959728241,0.1455818563699722,0.6766915321350098,-0.9397709369659424,-0.3392406404018402,0.04178892448544502,0,0,0,-1,169444.5764319167,3,1,1561841628.522931,1561841239.621676,19,2.442143,0,0,18.59878,0,0,1561841548.131042,169445.229582,0,0.5654297,75.18761,0,182478453,2,1,1,-16.88931,-33.05629,0
1561841631.80619,61,0,0,1561841630.994608,4.634708692324008,-74.15106548003307,2555.431,0.87,313.59375,4,10,-9999,1561841631.798256,-9.297889709472656,-7.843860626220703,26.93487548828125,94.10215759277344,101.5953598022461,15,169448.102128625,-1.064117431640625,0.045379638671875,0.6818695068359375,169448.102128625,-4.701689464389188,-1.234727235147835,3.645213193638645,169448.090135625,-83.79544067382812,-35.30258178710938,-536.3037109375,169448.097062625,0.7001865595965331,-1.60581083447685,0.2811957015816356,-4.442886829376221,-1.11845600605011,3.576959609985352,0.03903865814208984,0.3656851053237915,0.7567728757858276,1,0.3357371985912323,-0.6356860399246216,0.1411985456943512,0.6806223392486572,-0.9601354598999023,-0.2775045931339264,0.03363241627812386,0,0,0,-1,169444.5764319167,3,1,1561841628.522931,1561841239.621676,19,2.442143,0,0,18.59878,0,0,1561841548.131042,169445.229582,0,0.5654297,75.18761,0,182478453,2,1,1,-16.88931,-33.74032,0
1561841631.840926,62,0,0,1561841630.994608,4.634708692324008,-74.15106548003307,2555.431,0.87,313.59375,4,10,-9999,1561841631.822873,-9.157333374023438,-11.43226623535156,26.0496826171875,101.7012481689453,109.194450378418,15,169448.122392625,-1.38323974609375,-0.0563201904296875,0.463409423828125,169448.122392625,-5.443832565361569,-1.567372300581382,3.710754120697713,169448.110246625,-83.79653930664062,-37.21005249023438,-536.840087890625,169448.117326625,0.5949579449423915,-1.607612873259976,0.2102431294367909,-5.302742958068848,-1.543312191963196,3.72654390335083,-0.2361987829208374,0.2076753377914429,0.5400673151016235,1,0.2794944643974304,-0.6632357835769653,0.1300572901964188,0.681972324848175,-0.9773175120353699,-0.2086976766586304,0.03599772229790688,0,0,0,-1,169444.5764319167,3,1,1561841628.522931,1561841239.621676,19,2.442143,0,0,18.59878,0,0,1561841548.131042,169445.229582,0,0.5654297,75.18761,0,182478453,2,1,1,-16.88931,-19.39649,0
1561841631.844519,63,0,0,1561841630.994608,4.634708692324008,-74.15106548003307,2555.431,0.87,313.59375,4,10,-9999,1561841631.822873,-9.157333374023438,-11.43226623535156,26.0496826171875,101.7012481689453,109.194450378418,15,169448.142655625,-1.647171020507812,-0.212646484375,0.2552642822265625,169448.142655625,-6.03290409109503,-0.9658108156515582,3.417646611123592,169448.130357625,-83.38706970214844,-39.36087036132812,-537.509033203125,169448.137589625,0.4771737987138946,-1.617022699097129,0.1411370313089229,-5.858983039855957,-1.223193049430847,3.509413957595825,-0.5365288257598877,0.01496702432632446,0.3140212297439575,1,0.2178155928850174,-0.6895154714584351,0.1132450252771378,0.681395947933197,-0.9889991879463196,-0.1406689286231995,0.04575043544173241,0,0,0,-1,169444.5764319167,3,1,1561841628.522931,1561841239.621676,19,2.442143,0,0,18.59878,0,0,1561841548.131042,169445.229582,0,0.5654297,75.18761,0,182478453,2,1,1,-16.88931,-19.39649,0
1561841631.864685,64,0,0,1561841630.994608,4.634708692324008,-74.15106548003307,2555.431,0.87,313.59375,4,10,-9999,1561841631.848793,-9.213897705078125,-13.35369110107422,24.973388671875,110.3955535888672,117.8887557983398,15,169448.162919625,-1.826690673828125,-0.40838623046875,0.03179931640625,169448.162919625,-7.105292483042687,0.5560075818518001,2.873895162924445,169448.150437625,-84.12606811523438,-41.75616455078125,-538.9423217773438,169448.157853625,0.3462484271992874,-1.615263444471404,0.0805686298254915,-6.781763076782227,0.1202678605914116,3.021061182022095,-0.7684504985809326,-0.2413263767957687,0.09256315231323242,1,0.1518049240112305,-0.7064767479896545,0.09030340611934662,0.6853401064872742,-0.9957706928253174,-0.08048149198293686,0.04430826008319855,0,0,0,-1,169444.5764319167,3,1,1561841628.522931,1561841239.621676,19,2.442143,0,0,18.59878,0,0,1561841548.131042,169445.229582,0,0.5654297,75.18761,0,182478453,2,1,1,-16.88931,-20.31812,0
1561841631.88499,65,0,0,1561841630.994608,4.634708692324008,-74.15106548003307,2555.431,0.87,313.59375,4,10,-9999,1561841631.87334,-10.00368499755859,-15.86520385742188,23.402099609375,120.6155319213867,128.1087341308594,15,169448.183183625,-1.845458984375,-0.4442291259765625,-0.1887359619140625,169448.183183625,-8.309823732486768,1.680150781159621,2.251147698890823,169448.170548625,-85.06031799316406,-44.2945556640625,-541.0317993164062,169448.178117625,0.1931079898852162,-1.5883408633318,0.03036505291321478,-8.118965148925781,1.571055769920349,2.416402339935303,-0.8492171168327332,-0.4283035397529602,-0.09230363368988037,1,0.07934649288654327,-0.7088525295257568,0.05678098648786545,0.6985757946968079,-0.9993851780891418,-0.03036038763821125,0.01753554865717888,0,0,0,-1,169444.5764319167,3,1,1561841628.522931,1561841239.621676,19,2.442143,0,0,18.59878,0,0,1561841548.131042,169445.229582,0,0.5654297,75.18761,0,182478453,2,1,1,-16.88931,-21.39439,0
1561841631.91579,66,0,0,1561841630.994608,4.634708692324008,-74.15106548003307,2555.431,0.87,313.59375,4,10,-9999,1561841631.899465,-11.24253845214844,-18.48860168457031,20.62548828125,132.4767150878906,139.9699249267578,15,169448.203446625,-1.785781860351562,-0.286956787109375,-0.447265625,169448.203446625,-7.30362021994976,0.2755887032913617,1.412560615886204,169448.190660625,-86.45945739746094,-46.9521484375,-544.505126953125,169448.198350625,0.02695031969584951,-1.557312358410548,-0.01082887345517638,-7.839168071746826,0.8756186366081238,1.623107314109802,-0.8257721662521362,-0.3718058466911316,-0.2932646870613098,1,0.005609555169939995,-0.7023013234138489,0.01339429151266813,0.7117316126823425,-0.9998503923416138,0.01082866173237562,-0.01348276808857918,0,0,0,-1,169444.5764319167,3,1,1561841628.522931,1561841239.621676,19,2.442143,0,0,18.59878,0,0,1561841548.131042,169445.229582,0,0.5654297,75.18761,0,182478453,2,1,1,-16.88931,-22.45849,0
1561841631.925506,67,0,0,1561841630.994608,4.634708692324008,-74.15106548003307,2555.431,0.87,313.59375,4,10,-9999,1561841631.92388,-12.92899322509766,-22.68442916870117,15.1490478515625,141.5228881835938,149.0160980224609,15,169448.223710625,-1.649429321289062,-0.254150390625,-0.59881591796875,169448.223710625,-3.973610517133515,-2.285467323226456,0.584134025072454,169448.210740625,-87.32516479492188,-48.82540893554688,-547.3785400390625,169448.218614625,-0.1047390929626224,-1.568973479116929,-0.03673047158828693,-4.871760368347168,-1.739085674285889,0.7725868821144104,-0.7368822693824768,-0.301111251115799,-0.5687350034713745,1,-0.04995341598987579,-0.7046941518783569,-0.02408558316528797,0.7073405385017395,-0.9993237853050232,0.03672221302986145,-0.001821617130190134,0,0,0,-1,169444.5764319167,3,1,1561841628.522931,1561841239.621676,19,2.442143,0,0,18.59878,0,0,1561841548.131042,169445.229582,0,0.5654297,75.18761,0,182478453,2,1,1,-16.88931,-22.45849,0
1561841631.945729,68,0,0,1561841630.994608,4.634708692324008,-74.15106548003307,2555.431,0.87,313.59375,4,10,-9999,1561841631.92388,-12.92899322509766,-22.68442916870117,15.1490478515625,141.5228881835938,149.0160980224609,15,169448.243943625,-1.68853759765625,-0.25787353515625,-0.701385498046875,169448.243943625,-1.909561869045663,-3.080746879532535,0.2233422763939692,169448.230851625,-86.96112060546875,-49.86666870117188,-548.4332275390625,169448.238877625,-0.1715892882751893,-1.624508491166277,-0.04467903513286624,-2.108295679092407,-3.112669944763184,0.2486232668161392,-0.6201907992362976,-0.2953355610370636,-0.6622600555419922,1,-0.07749002426862717,-0.7216728329658508,-0.04277404025197029,0.6865522265434265,-0.9975612759590149,0.0446641705930233,0.05363276228308678,0,0,0,-1,169444.5764319167,3,1,1561841628.522931,1561841239.621676,19,2.442143,0,0,18.59878,0,0,1561841548.131042,169445.229582,0,0.5654297,75.18761,0,182478453,2,1,1,-16.88931,-23.37398,0
1561841631.965948,69,0,0,1561841630.994608,4.634708692324008,-74.15106548003307,2555.431,0.87,313.59375,4,10,-9999,1561841631.950085,-12.51331329345703,-23.42959976196289,14.36761474609375,145.3374481201172,152.8306579589844,15,169448.264207625,-1.829193115234375,-0.2519683837890625,-0.8793487548828125,169448.264207625,-2.572619205654833,-1.43125600673856,0.1493468781383356,169448.250962625,-86.357177734375,-50.49404907226562,-548.6766357421875,169448.259141625,-0.2127701738408781,-1.682397322161503,-0.04545979393702758,-2.305405616760254,-2.017083406448364,0.1791480481624603,-0.7758634090423584,-0.300662636756897,-0.9337184429168701,1,-0.09419813752174377,-0.7394281029701233,-0.05391452088952065,0.6644290685653687,-0.9927523732185364,0.04544413834810257,0.1112544164061546,0,0,0,-1,169444.5764319167,3,1,1561841628.522931,1561841239.621676,19,2.442143,0,0,18.59878,0,0,1561841548.131042,169445.229582,0,0.5654297,75.18761,0,182478453,2,1,1,-16.88931,-24.33613,0
1561841631.994611,70,0,0,1561841630.994608,4.634708692324008,-74.15106548003307,2555.431,0.87,313.59375,4,10,-9999,1561841631.974588,-11.89034271240234,-24.0567741394043,14.05279541015625,148.8077392578125,156.3009490966797,15,169448.284471625,-1.8570556640625,-0.2085418701171875,-0.891845703125,169448.284471625,-2.666933990395553,0.3147142681301519,-0.1322752166026006,169448.271043625,-85.66786193847656,-51.19880676269531,-549.4820556640625,169448.279405625,-0.2675298100996551,-1.703283909727817,-0.04030195522687131,-2.855997800827026,0.02607318758964539,-0.04404614865779877,-0.8676162362098694,-0.278633326292038,-1.01945948600769,1,-0.1134745180606842,-0.7437204122543335,-0.07281266897916794,0.6547530889511108,-0.9904312491416931,0.04029104486107826,0.1319930404424667,0,0,0,-1,169444.5764319167,3,1,1561841628.522931,1561841239.621676,19,2.442143,0,0,18.59878,0,0,1561841548.131042,169445.229582,0,0.5654297,75.18761,0,182478453,2,1,1,-16.88931,-25.0938,0
1561841632.006574,71,0,0,1561841630.994608,4.634708692324008,-74.15106548003307,2555.431,0.87,313.59375,4,10,-9999,1561841632.000775,-11.46170806884766,-24.80554962158203,12.848876953125,152.3280944824219,159.8213043212891,15,169448.304734625,-1.798080444335938,-0.108184814453125,-0.9068756103515625,169448.304734625,-1.041209433485555,0.6779654460753248,-0.5966588716790967,169448.291154625,-85.66671752929688,-51.71879577636719,-550.7996826171875,169448.299668625,-0.3131108891022862,-1.696060309650938,-0.0293031887548412,-1.523434281349182,0.6493934988975525,-0.4700935781002045,-0.8380953073501587,-0.200090616941452,-1.023061156272888,1,-0.1264943033456802,-0.7392162680625916,-0.09226825833320618,0.655015230178833,-0.9917386174201965,0.02929899469017982,0.1248829960823059,0,0,0,-1,169444.5764319167,3,1,1561841628.522931,1561841239.621676,19,2.442143,0,0,18.59878,0,0,1561841548.131042,169445.229582,0,0.5654297,75.18761,0,182478453,2,1,1,-16.88931,-25.94432,0
1561841632.026796,72,0,0,1561841630.994608,4.634708692324008,-74.15106548003307,2555.431,0.87,313.59375,4,10,-9999,1561841632.025195,-10.99167633056641,-25.5265998840332,11.36920166015625,152.8380432128906,160.3312530517578,15,169448.324998625,-1.769775390625,0.0020599365234375,-0.88995361328125,169448.324998625,0.7287175732850738,0.9921966167837363,-1.086916468326258,169448.311265625,-85.62820434570312,-52.17030334472656,-551.5116577148438,169448.319932625,-0.322910508524188,-1.681385050278629,-0.01320051035772341,0.3390892446041107,0.8863906264305115,-0.9841481447219849,-0.7985080480575562,-0.05738958716392517,-1.022982001304626,1,-0.1241213008761406,-0.7346909642219543,-0.1023586392402649,0.6590490937232971,-0.9938045740127563,0.01320012658834457,0.1103538200259209,0,0,0,-1,169444.5764319167,3,1,1561841628.522931,1561841239.621676,19,2.442143,0,0,18.59878,0,0,1561841548.131042,169445.229582,0,0.5654297,75.18761,0,182478453,2,1,1,-16.88931,-26.82992,0
1561841632.047071,73,0,0,1561841630.994608,4.634708692324008,-74.15106548003307,2555.431,0.87,313.59375,4,10,-9999,1561841632.025195,-10.99167633056641,-25.5265998840332,11.36920166015625,152.8380432128906,160.3312530517578,15,169448.345262625,-1.671585083007812,0.129150390625,-0.833648681640625,169448.345262625,1.647866877161245,1.334607227618494,-1.233661970711804,169448.331346625,-85.24720764160156,-52.25575256347656,-551.5402221679688,169448.340196625,-0.300318717944425,-1.659770387238537,0.008055032079080472,1.507196187973022,1.224495530128479,-1.252955913543701,-0.7189081311225891,0.0642835795879364,-0.9438648223876953,1,-0.1076910719275475,-0.7299517393112183,-0.1039086356759071,0.666915237903595,-0.9960119128227234,-0.008054944686591625,0.08885381370782852,0,0,0,-1,169444.5764319167,3,1,1561841628.522931,1561841239.621676,19,2.442143,0,0,18.59878,0,0,1561841548.131042,169445.229582,0,0.5654297,75.18761,0,182478453,2,1,1,-16.88931,-24.78579,0
1561841632.079152,74,0,0,1561841631.994594,4.634719546888615,-74.15107386193624,2555.316,0.88,317.109375,4,30,-9999,1561841632.057782,-10.72248840332031,-25.52853012084961,11.5457763671875,150.7853546142578,158.278564453125,15,169448.365525625,-1.652603149414062,0.27288818359375,-0.808197021484375,169448.365525625,1.833764842312591,2.102217072830867,-0.89472119246131,169448.351457625,-84.90382385253906,-52.05284118652344,-551.0402221679688,169448.360459625,-0.2640347300762129,-1.630376474083908,0.0289343806412238,1.815211534500122,1.834575891494751,-0.9996578693389893,-0.6550395488739014,0.2272945940494537,-0.8800308704376221,1,-0.08596662431955338,-0.7227514982223511,-0.1006942912936211,0.6783071756362915,-0.9978077411651611,-0.02893034368753433,0.05951997637748718,0,0,0,-1,169444.5764319167,3,1,1561841628.522931,1561841239.621676,19,2.442143,0,0,18.59878,0,0,1561841548.131042,169445.229582,0,0.5654297,75.18761,0,182478453,2,1,1,-16.88931,-23.76554,0
1561841632.088939,75,0,0,1561841631.994594,4.634719546888615,-74.15107386193624,2555.316,0.88,317.109375,4,30,-9999,1561841632.057782,-10.72248840332031,-25.52853012084961,11.5457763671875,150.7853546142578,158.278564453125,15,169448.385789625,-1.675704956054688,0.417388916015625,-0.782135009765625,169448.385789625,2.008540647803439,3.59261576210958,-0.7630904608425085,169448.371568625,-85.0096435546875,-51.84803771972656,-550.492919921875,169448.380692625,-0.2258165230983903,-1.582456455604496,0.04438795067755721,1.926132202148438,3.155194282531738,-0.7366265058517456,-0.65985107421875,0.4019783735275269,-0.8104918003082275,1,-0.06461091339588165,-0.7082722783088684,-0.09486628323793411,0.6965459585189819,-0.9989472031593323,-0.04437337443232536,0.0116483811289072,0,0,0,-1,169444.5764319167,3,1,1561841628.522931,1561841239.621676,19,2.442143,0,0,18.59878,0,0,1561841548.131042,169445.229582,0,0.5654297,75.18761,0,182478453,2,1,1,-17.44659,-24.54169,0
1561841632.107929,76,0,0,1561841631.994594,4.634719546888615,-74.15107386193624,2555.316,0.88,317.109375,4,30,-9999,1561841632.102196,-10.96536254882812,-25.22015380859375,12.44818115234375,145.0847473144531,152.5779571533203,15,169448.406022625,-1.67694091796875,0.492401123046875,-0.714935302734375,169448.406022625,2.765841662752224,4.861462618195183,-1.387133020114236,169448.391679625,-85.48497009277344,-51.4063720703125,-550.473388671875,169448.400956625,-0.1827027935361319,-1.504181101283433,0.0635209059949948,2.484304428100586,4.682925701141357,-1.166145324707031,-0.6876562237739563,0.5125596523284912,-0.6860554814338684,1,-0.03919719159603119,-0.682090699672699,-0.08818772435188293,0.7248715162277222,-0.9957696795463562,-0.06347819417715073,-0.06643171608448029,0,0,0,-1,169444.5764319167,3,1,1561841628.522931,1561841239.621676,19,2.442143,0,0,18.59878,0,0,1561841548.131042,169445.229582,0,0.5654297,75.18761,0,182478453,2,1,1,-17.44659,-24.54169,0
1561841632.128062,77,0,0,1561841631.994594,4.634719546888615,-74.15107386193624,2555.316,0.88,317.109375,4,30,-9999,1561841632.102196,-10.96536254882812,-25.22015380859375,12.44818115234375,145.0847473144531,152.5779571533203,15,169448.426286625,-1.54278564453125,0.549713134765625,-0.622528076171875,169448.426286625,4.232549137289701,4.389080425100743,-2.558193660978201,169448.411759625,-86.17002868652344,-51.09291076660156,-550.1148681640625,169448.421220625,-0.1237877136891606,-1.411623176378852,0.1046740273276146,3.839075565338135,4.635810375213623,-2.263960599899292,-0.6426945328712463,0.6342376470565796,-0.5147289633750916,1,-0.000328477006405592,-0.6489859223365784,-0.08088000118732452,0.7564889788627625,-0.9819545149803162,-0.1044829860329628,-0.1576343327760696,0,0,0,-1,169444.5764319167,3,1,1561841628.522931,1561841239.621676,19,2.442143,0,0,18.59878,0,0,1561841548.131042,169445.229582,0,0.5654297,75.18761,0,182478453,2,1,1,-18.00387,-25.48193,0
1561841632.157807,78,0,0,1561841631.994594,4.634719546888615,-74.15107386193624,2555.316,0.88,317.109375,4,30,-9999,1561841632.156119,-11.44596862792969,-23.8487434387207,13.9761962890625,134.6365966796875,142.1298065185547,15,169448.446549625,-1.408050537109375,0.5754852294921875,-0.508148193359375,169448.446549625,5.416543686303744,3.18462773890882,-3.519119440242227,169448.431870625,-86.1131591796875,-50.59115600585938,-549.2251586914062,169448.441484625,-0.04349649151767147,-1.340393255664302,0.1790371494009357,5.203592777252197,3.456170320510864,-3.323173522949219,-0.53034508228302,0.7467925548553467,-0.3384365439414978,1,0.05659187957644463,-0.6200302839279175,-0.07249071449041367,0.7791693806648254,-0.9580124616622925,-0.1780821979045868,-0.2247196137905121,0,0,0,-1,169444.5764319167,3,1,1561841628.522931,1561841239.621676,19,2.442143,0,0,18.59878,0,0,1561841548.131042,169445.229582,0,0.5654297,75.18761,0,182478453,2,1,1,-19.11843,-19.4975,0
1561841632.168609,79,0,0,1561841631.994594,4.634719546888615,-74.15107386193624,2555.316,0.88,317.109375,4,30,-9999,1561841632.156119,-11.44596862792969,-23.8487434387207,13.9761962890625,134.6365966796875,142.1298065185547,15,169448.466813625,-1.214340209960938,0.5340576171875,-0.3038482666015625,169448.466813625,5.643344876321509,2.397333138499126,-4.078899922410343,169448.451982625,-85.23870849609375,-49.7264404296875,-547.691650390625,169448.461747625,0.04857736896651933,-1.30119638941214,0.2791287267804506,5.675992488861084,2.542494773864746,-3.97270941734314,-0.3832125067710876,0.8385522365570068,-0.1656699776649475,1,0.1252278387546539,-0.5969082117080688,-0.06509268283843994,0.789798378944397,-0.9265714287757874,-0.2755182087421417,-0.2560371458530426,0,0,0,-1,169444.5764319167,3,1,1561841628.522931,1561841239.621676,19,2.442143,0,0,18.59878,0,0,1561841548.131042,169445.229582,0,0.5654297,75.18761,0,182478453,2,1,1,-19.11843,-19.4975,0
1561841632.188673,80,0,0,1561841631.994594,4.634719546888615,-74.15107386193624,2555.316,0.88,317.109375,4,30,-9999,1561841632.177216,-10.67860412597656,-23.07045745849609,15.63763427734375,128.0762023925781,135.5694122314453,15,169448.487077625,-1.050094604492188,0.4840850830078125,-0.0917205810546875,169448.487077625,5.116376669312042,1.667182251915371,-4.419283335023332,169448.472093625,-84.26011657714844,-49.07258605957031,-545.6829833984375,169448.482011625,0.1377633713580807,-1.285014557491832,0.3911101605895017,5.262739181518555,1.8944011926651,-4.335622787475586,-0.2337978482246399,0.8867844343185425,0.07196009159088135,1,0.1956512629985809,-0.5756828188896179,-0.06210344657301903,0.7914878726005554,-0.8869907259941101,-0.38121497631073,-0.2606197595596313,0,0,0,-1,169444.5764319167,3,1,1561841628.522931,1561841239.621676,19,2.442143,0,0,18.59878,0,0,1561841548.131042,169445.229582,0,0.5654297,75.18761,0,182478453,2,1,1,-19.67571,-20.3676,0
1561841632.209675,81,0,0,1561841631.994594,4.634719546888615,-74.15107386193624,2555.316,0.88,317.109375,4,30,-9999,1561841632.204169,-9.524887084960938,-22.29927444458008,17.4451904296875,122.2639389038086,129.7571411132812,15,169448.507340625,-0.858367919921875,0.3833770751953125,0.07421875,169448.507340625,4.980665175954912,0.4452560331792199,-5.028181296124106,169448.492173625,-83.31105041503906,-48.15711975097656,-544.08056640625,169448.502275625,0.2177321851661708,-1.291802108019946,0.5083320132033898,4.926437854766846,0.7867130041122437,-4.845901489257812,-0.1357604265213013,0.9276845455169678,0.2328623533248901,1,0.2628973722457886,-0.5573158264160156,-0.06647250801324844,0.7847710251808167,-0.8397797346115112,-0.4867208302021027,-0.2405680865049362,0,0,0,-1,169444.5764319167,3,1,1561841628.522931,1561841239.621676,19,2.442143,0,0,18.59878,0,0,1561841548.131042,169445.229582,0,0.5654297,75.18761,0,182478453,2,1,1,-20.23299,-21.31775,0
1561841632.241767,82,0,0,1561841631.994594,4.634719546888615,-74.15107386193624,2555.316,0.88,317.109375,4,30,-9999,1561841632.228056,-6.117843627929688,-20.16904830932617,21.25103759765625,115.8708343505859,123.3640365600586,15,169448.527604625,-0.6110992431640625,0.30572509765625,0.227203369140625,169448.527604625,5.640462270757607,-0.9081235506471338,-5.662097791453411,169448.512284625,-81.64109802246094,-47.28643798828125,-542.2418823242188,169448.522538625,0.3049251259851559,-1.337670332400815,0.6370940903167325,5.433465957641602,-0.6300881505012512,-5.553592681884766,0.05178242921829224,0.9296246767044067,0.3411721587181091,1,0.3322933316230774,-0.5447301864624023,-0.07878951728343964,0.7659257650375366,-0.7820833325386047,-0.5948621034622192,-0.1857003271579742,0,0,0,-1,169444.5764319167,3,1,1561841628.522931,1561841239.621676,19,2.442143,0,0,18.59878,0,0,1561841548.131042,169445.229582,0,0.5654297,75.18761,0,182478453,2,1,1,-20.79026,-21.99871,0
1561841632.24968,83,0,0,1561841631.994594,4.634719546888615,-74.15107386193624,2555.316,0.88,317.109375,4,30,-9999,1561841632.228056,-6.117843627929688,-20.16904830932617,21.25103759765625,115.8708343505859,123.3640365600586,15,169448.547868625,-0.469757080078125,0.2939605712890625,0.377471923828125,169448.547868625,6.25459787077424,-1.554549446248759,-5.899513276311795,169448.532395625,-79.00834655761719,-45.47854614257812,-540.0665893554688,169448.542771625,0.4291943557521174,-1.440706564677946,0.7726826089577221,6.148605823516846,-1.433389544487,-5.856558799743652,0.1651142239570618,0.9962611198425293,0.3974829912185669,1,0.4068194031715393,-0.5367070436477661,-0.09460249543190002,0.7331397533416748,-0.7099902629852295,-0.6980586051940918,-0.09288704395294189,0,0,0,-1,169444.5764319167,3,1,1561841628.522931,1561841239.621676,19,2.442143,0,0,18.59878,0,0,1561841548.131042,169445.229582,0,0.5654297,75.18761,0,182478453,2,1,1,-20.79026,-21.99871,0
1561841632.271954,84,0,0,1561841631.994594,4.634719546888615,-74.15107386193624,2555.316,0.88,317.109375,4,30,-9999,1561841632.256077,-3.715179443359375,-18.16688537597656,23.5264892578125,105.7402648925781,113.2334671020508,15,169448.568131625,-0.25738525390625,0.323822021484375,0.5297088623046875,169448.568131625,6.327445979232268,-2.025201117266866,-6.061695525639876,169448.552506625,-76.344482421875,-43.18060302734375,-537.9212646484375,169448.563035625,0.6109836923008841,-1.61024562427928,0.8993902350107542,6.358053684234619,-1.92186176776886,-6.033369064331055,0.2596347332000732,1.08249306678772,0.4238601922988892,1,0.4825700521469116,-0.5285767912864685,-0.1111535504460335,0.6894764304161072,-0.6216037273406982,-0.7829477190971375,0.0245345588773489,0,0,0,-1,169444.5764319167,3,1,1561841628.522931,1561841239.621676,19,2.442143,0,0,18.59878,0,0,1561841548.131042,169445.229582,0,0.5654297,75.18761,0,182478453,2,1,1,-17.16517,-22.39481,0
1561841632.290278,85,0,0,1561841631.994594,4.634719546888615,-74.15107386193624,2555.316,0.88,317.109375,4,30,-9999,1561841632.278448,-1.200386047363281,-15.59922790527344,25.43267822265625,90.02867126464844,97.52187347412109,15,169448.588365625,-0.0459442138671875,0.3728790283203125,0.64031982421875,169448.588365625,5.79897468410356,-2.298794047637322,-5.958094298178049,169448.572587625,-73.54640197753906,-39.98345947265625,-536.1517944335938,169448.583299625,0.8592525178320156,-1.855796327184295,1.000966953949554,5.983729839324951,-2.274609565734863,-6.018431186676025,0.3732865452766418,1.196698904037476,0.4512546062469482,1,0.5540217757225037,-0.5185561180114746,-0.1300612092018127,0.6381562948226929,-0.5177262425422668,-0.8419930338859558,0.1516811549663544,0,0,0,-1,169444.5764319167,3,1,1561841628.522931,1561841239.621676,19,2.442143,0,0,18.59878,0,0,1561841548.131042,169446.173396,0,0.8244629,75.18517,0,182478453,2,1,1,-15.67867,-21.84226,0
1561841632.322872,86,0,0,1561841631.994594,4.634719546888615,-74.15107386193624,2555.316,0.88,317.109375,4,30,-9999,1561841632.304838,3.996917724609375,-9.489337921142578,28.126953125,69.16501617431641,76.65821838378906,15,169448.608628625,0.1803741455078125,0.4361724853515625,0.669708251953125,169448.608628625,5.06354221644596,-2.340438430235109,-5.508354566987572,169448.592698625,-70.96940612792969,-36.91062927246094,-534.8843383789062,169448.603562625,1.157970001388088,-2.159520052277437,1.06143919578316,5.220409870147705,-2.329537630081177,-5.666430473327637,0.4787987470626831,1.272838473320007,0.3815551996231079,1,0.6159214377403259,-0.505991518497467,-0.1510795652866364,0.5846266746520996,-0.4055259823799133,-0.8730581402778625,0.2707732617855072,0,0,0,-1,169444.5764319167,3,1,1561841628.522931,1561841239.621676,19,2.442143,0,0,18.59878,0,0,1561841548.131042,169446.173396,0,0.8244629,75.18517,0,182478453,2,1,1,-15.67867,-23.42619,0
1561841632.330594,87,0,0,1561841631.994594,4.634719546888615,-74.15107386193624,2555.316,0.88,317.109375,4,30,-9999,1561841632.329436,6.117332458496094,-6.393074035644531,28.44488525390625,47.73996734619141,55.23317337036133,15,169448.628892625,0.3945770263671875,0.468170166015625,0.6882781982421875,169448.628892625,4.373325430407943,-2.073663458571365,-4.519644294386859,169448.612809625,-68.73684692382812,-33.85643005371094,-534.514404296875,169448.623826625,1.461046348024061,-2.47242754720957,1.073156654789138,4.572315692901611,-2.208443164825439,-4.83560848236084,0.5750322937965393,1.325611114501953,0.3103771209716797,1,0.6667133569717407,-0.4926425516605377,-0.1713217049837112,0.5323959589004517,-0.2961168587207794,-0.8787117004394531,0.3744067549705505,0,0,0,-1,169444.5764319167,3,1,1561841628.522931,1561841239.621676,19,2.442143,0,0,18.59878,0,0,1561841548.131042,169446.173396,0,0.8244629,75.18517,0,182478453,2,1,1,-15.67867,-23.42619,0
1561841632.35084,88,0,0,1561841631.994594,4.634719546888615,-74.15107386193624,2555.316,0.88,317.109375,4,30,-9999,1561841632.329436,6.117332458496094,-6.393074035644531,28.44488525390625,47.73996734619141,55.23317337036133,15,169448.649156625,0.5663604736328125,0.6058502197265625,0.677032470703125,169448.649156625,3.17990302481891,-1.003051927703008,-2.674172728554498,169448.632890625,-67.17413330078125,-30.88963317871094,-534.0748291015625,169448.644090625,1.695072450199437,-2.714223400749352,1.045164691167072,3.552471876144409,-1.336498260498047,-3.223884344100952,0.6854768395423889,1.398683309555054,0.2259864807128906,1,0.7048752307891846,-0.4811094403266907,-0.1850650459527969,0.4872735440731049,-0.2079682648181915,-0.8650071620941162,0.4566307663917542,0,0,0,-1,169444.5764319167,3,1,1561841628.522931,1561841239.621676,19,2.442143,0,0,18.59878,0,0,1561841548.131042,169446.173396,0,0.8244629,75.18517,0,182478453,2,1,1,-15.67867,-23.55632,0
1561841632.371269,89,0,0,1561841631.994594,4.634719546888615,-74.15107386193624,2555.316,0.88,317.109375,4,30,-9999,1561841632.355234,7.565338134765625,-3.56525993347168,28.55126953125,33.57931900024414,41.07252502441406,15,169448.669419625,0.8346710205078125,0.6250152587890625,0.6450347900390625,169448.669419625,1.490666336968266,-0.08691732218080708,-0.1065259109709515,169448.653001625,-66.17063903808594,-28.27452087402344,-533.9796142578125,169448.664353625,1.809058895428588,-2.826567528457891,1.008142654775946,1.913041472434998,-0.2125084549188614,-0.7887083292007446,0.8879199028015137,1.481111764907837,0.1427665948867798,1,0.7266622185707092,-0.4749239683151245,-0.1868447512388229,0.4598893523216248,-0.1652789115905762,-0.8458425402641296,0.5071815252304077,0,0,0,-1,169444.5764319167,3,1,1561841628.522931,1561841239.621676,19,2.442143,0,0,18.59878,0,0,1561841548.131042,169446.173396,0,0.8244629,75.18517,0,182478453,2,1,1,-15.67867,-24.30007,0
1561841632.392315,90,0,0,1561841631.994594,4.634719546888615,-74.15107386193624,2555.316,0.88,317.109375,4,30,-9999,1561841632.379651,8.289131164550781,-1.522830963134766,28.685302734375,30.49942779541016,37.99263381958008,15,169448.689683625,0.8317108154296875,0.5859375,0.6628265380859375,169448.689683625,0.03669463139576579,-0.4507109860400292,2.509787778688812,169448.673081625,-66.19194030761719,-27.31352233886719,-534.0328979492188,169448.684617625,1.801754524880228,-2.823353027208196,0.9834417474850347,0.3475807905197144,-0.2778589427471161,1.894061088562012,1.031136512756348,1.444821119308472,0.1370712518692017,1,0.7287224531173706,-0.4817998707294464,-0.1799726784229279,0.4521529078483582,-0.1733941584825516,-0.8324095606803894,0.5263350605964661,0,0,0,-1,169444.5764319167,3,1,1561841628.522931,1561841239.621676,19,2.442143,0,0,18.59878,0,0,1561841548.131042,169446.173396,0,0.8244629,75.18517,0,182478453,2,1,1,-15.67867,-24.64838,0
1561841632.411657,91,0,0,1561841631.994594,4.634719546888615,-74.15107386193624,2555.316,0.88,317.109375,4,30,-9999,1561841632.406382,8.944427490234375,-1.155778884887695,28.749267578125,36.95183563232422,44.44504165649414,15,169448.709947625,0.58465576171875,0.55535888671875,0.6311798095703125,169448.709947625,-0.8997471100705076,-0.9786552415890104,4.52532162119869,169448.693192625,-65.86679077148438,-27.58503723144531,-533.923583984375,169448.704850625,1.696310839432301,-2.748679091573787,0.966033047002453,-0.7049020528793335,-0.9063860177993774,4.080670356750488,0.9526793956756592,1.380742192268372,0.1301085948944092,1,0.7114347815513611,-0.5064396858215332,-0.1716061532497406,0.4559942781925201,-0.217694029211998,-0.8226367235183716,0.5252411961555481,0,0,0,-1,169444.5764319167,3,1,1561841628.522931,1561841239.621676,19,2.442143,0,0,18.59878,0,0,1561841548.131042,169446.173396,0,0.8244629,75.18517,0,182478453,2,1,1,-15.67867,-24.64838,0
1561841632.431918,92,0,0,1561841631.994594,4.634719546888615,-74.15107386193624,2555.316,0.88,317.109375,4,30,-9999,1561841632.430209,9.192405700683594,-2.395368576049805,28.7325439453125,49.37622451782227,56.86943054199219,15,169448.730210625,0.2289276123046875,0.548736572265625,0.562530517578125,169448.730210625,-1.454026833007064,-0.9476469917527818,5.932670697147717,169448.713304625,-65.23687744140625,-28.32341003417969,-534.0457763671875,169448.725114625,1.525823582231199,-2.629920258342922,0.9418110592343231,-1.341177821159363,-1.013810157775879,5.625531196594238,0.7010899186134338,1.3654944896698,0.08742678165435791,1,0.6787595748901367,-0.5438506007194519,-0.1614329963922501,0.4663168489933014,-0.2880650162696838,-0.8086249232292175,0.5129760503768921,0,0,0,-1,169444.5764319167,3,1,1561841628.522931,1561841239.621676,19,2.442143,0,0,18.59878,0,0,1561841548.131042,169446.173396,0,0.8244629,75.18517,0,182478453,2,1,1,-15.67867,-22.81505,0
1561841632.454244,93,0,0,1561841631.994594,4.634719546888615,-74.15107386193624,2555.316,0.88,317.109375,4,30,-9999,1561841632.430209,9.192405700683594,-2.395368576049805,28.7325439453125,49.37622451782227,56.86943054199219,15,169448.750443625,-0.126617431640625,0.5265655517578125,0.491607666015625,169448.750443625,-1.966751655558461,-0.4047371024581003,6.89912439988642,169448.733384625,-64.97454833984375,-29.90086364746094,-533.6949462890625,169448.745378625,1.323718813349493,-2.48603773204113,0.8992738102936333,-1.818374514579773,-0.6013262867927551,6.686182022094727,0.4360116124153137,1.31971001625061,0.03012382984161377,1,0.6344117522239685,-0.5866218209266663,-0.1464180201292038,0.4816204011440277,-0.3792794346809387,-0.7828752994537354,0.4932068586349487,0,0,0,-1,169444.5764319167,3,1,1561841628.522931,1561841239.621676,19,2.442143,0,0,18.59878,0,0,1561841548.131042,169446.173396,0,0.8244629,75.18517,0,182478453,2,1,1,-15.67867,-15.72685,0
1561841632.472447,94,0,0,1561841631.994594,4.634719546888615,-74.15107386193624,2555.316,0.88,317.109375,4,30,-9999,1561841632.456602,9.425987243652344,-3.766826629638672,28.99267578125,64.14683532714844,71.64003753662109,15,169448.770707625,-0.4586181640625,0.522247314453125,0.42962646484375,169448.770707625,-3.006694489629573,0.4414557023036768,7.397153100594433,169448.753495625,-64.85177612304688,-31.37002563476562,-533.8610229492188,169448.765641625,1.113274840906007,-2.329088581864406,0.8364110293892298,-2.679425716400146,0.2449158281087875,7.330103397369385,0.177379846572876,1.269235610961914,0.004479169845581055,1,0.5797649025917053,-0.6279262900352478,-0.1259584873914719,0.5037020444869995,-0.4865228831768036,-0.7422428131103516,0.4608375430107117,0,0,0,-1,169444.5764319167,3,1,1561841628.522931,1561841239.621676,19,2.442143,0,0,18.59878,0,0,1561841548.131042,169446.173396,0,0.8244629,75.18517,0,182478453,2,1,1,-15.67867,-16.76357,0
1561841632.492721,95,0,0,1561841631.994594,4.634719546888615,-74.15107386193624,2555.316,0.88,317.109375,4,30,-9999,1561841632.480838,9.320365905761719,-5.551853179931641,28.68389892578125,79.26983642578125,86.76303863525391,15,169448.790971625,-0.720428466796875,0.4858245849609375,0.422607421875,169448.790971625,-4.448619119694991,1.099289781066875,7.575582763100869,169448.773576625,-65.21690368652344,-33.88436889648438,-534.6337890625,169448.785905625,0.9016277334452776,-2.16484662571759,0.7615991199790882,-4.08811616897583,0.9586408138275146,7.502049922943115,0.01154816150665283,1.193818092346191,0.0124976634979248,1,0.5141609907150269,-0.6619541645050049,-0.1056417673826218,0.5350655317306519,-0.5997439622879028,-0.6900796890258789,0.4050896763801575,0,0,0,-1,169444.5764319167,3,1,1561841628.522931,1561841239.621676,19,2.442143,0,0,18.59878,0,0,1561841548.131042,169446.173396,0,0.8244629,75.18517,0,182478453,2,1,1,-15.67867,-16.92624,0
1561841632.513415,96,0,0,1561841631.994594,4.634719546888615,-74.15107386193624,2555.316,0.88,317.109375,4,30,-9999,1561841632.507281,6.440147399902344,-11.91237258911133,26.7626953125,94.54179382324219,102.0349960327148,15,169448.811234625,-0.9871978759765625,0.43194580078125,0.3595733642578125,169448.811234625,-5.673080667788898,1.268409032402394,8.426324779636721,169448.793687625,-67.17002868652344,-37.3389892578125,-535.8003540039062,169448.806169625,0.6876864848454526,-2.000253730800863,0.6723327235949529,-5.4201979637146,1.301930069923401,8.077699661254883,-0.1302427649497986,1.093729496002197,0.07150089740753174,1,0.4355745315551758,-0.6878631114959717,-0.08943897485733032,0.5736896395683289,-0.7113252282142639,-0.6228127479553223,0.3257616758346558,0,0,0,-1,169444.5764319167,3,1,1561841628.522931,1561841239.621676,19,2.442143,0,0,18.59878,0,0,1561841548.131042,169446.173396,0,0.8244629,75.18517,0,182478453,2,1,1,-15.32435,-17.69481,0
1561841632.533206,97,0,0,1561841631.994594,4.634719546888615,-74.15107386193624,2555.316,0.88,317.109375,4,30,-9999,1561841632.531531,3.509368896484375,-15.90975952148438,25.23809814453125,109.7667922973633,117.2599945068359,15,169448.831498625,-1.646743774414062,0.1931304931640625,0.198516845703125,169448.831498625,-6.87387230643029,1.299052429169282,9.814423994594437,169448.813798625,-70.01092529296875,-41.3963623046875,-536.9389038085938,169448.826432625,0.4744783988814864,-1.854132594330549,0.5455667388426145,-6.46834659576416,1.068377494812012,9.596171379089355,-0.4363762736320496,0.8197296857833862,0.04985606670379639,1,0.3382010459899902,-0.7107101082801819,-0.07361794263124466,0.6124472618103027,-0.8207495808601379,-0.5189026594161987,0.2389776110649109,0,0,0,-1,169444.5764319167,3,1,1561841628.522931,1561841239.621676,19,2.442143,0,0,18.59878,0,0,1561841548.131042,169446.173396,0,0.8244629,75.18517,0,182478453,2,1,1,-15.32435,-18.27451,0
1561841632.55458,98,0,0,1561841631.994594,4.634719546888615,-74.15107386193624,2555.316,0.88,317.109375,4,30,-9999,1561841632.531531,3.509368896484375,-15.90975952148438,25.23809814453125,109.7667922973633,117.2599945068359,15,169448.851762625,-2.49365234375,0.0280609130859375,0.0061187744140625,169448.851762625,-10.34728204867072,2.908019311236067,10.23149313079626,169448.833879625,-73.67459106445312,-44.8509521484375,-539.1221923828125,169448.846696625,0.2577796320263398,-1.722385080575008,0.3819556089005653,-9.203052520751953,2.501409292221069,10.16153144836426,-1.108033299446106,0.510309100151062,0.04017102718353271,1,0.2183826714754105,-0.7227533459663391,-0.0605849102139473,0.6528905630111694,-0.917296290397644,-0.372735857963562,0.1401267796754837,0,0,0,-1,169444.5764319167,3,1,1561841628.522931,1561841239.621676,19,2.442143,0,0,18.59878,0,0,1561841548.131042,169446.173396,0,0.8244629,75.18517,0,182478453,2,1,1,-15.32435,-18.94045,0
1561841632.573884,99,0,0,1561841631.994594,4.634719546888615,-74.15107386193624,2555.316,0.88,317.109375,4,30,-9999,1561841632.557809,-0.6615219116210938,-19.50576400756836,22.7794189453125,126.0625228881836,133.5557250976562,15,169448.872025625,-3.176422119140625,0.1251678466796875,-0.379486083984375,169448.872025625,-13.85320472676328,4.430800441473489,9.296642628081306,169448.853990625,-78.53567504882812,-48.30601501464844,-542.7474365234375,169448.866960625,-0.0006701514127282823,-1.581044052601474,0.1958012186791401,-13.38063907623291,4.215695858001709,9.719443321228027,-2.008661508560181,0.1968565881252289,-0.2746543884277344,1,0.0685236006975174,-0.7073403596878052,-0.06970347464084625,0.7000824809074402,-0.9808405041694641,-0.1945525109767914,0.01005173660814762,0,0,0,-1,169444.5764319167,3,1,1561841628.522931,1561841239.621676,19,2.442143,0,0,18.59878,0,0,1561841548.131042,169446.173396,0,0.8244629,75.18517,0,182478453,2,1,1,-15.32435,-18.94045,0
1561841632.594181,100,0,0,1561841631.994594,4.634719546888615,-74.15107386193624,2555.316,0.88,317.109375,4,30,-9999,1561841632.583559,-6.167610168457031,-22.88803482055664,18.0765380859375,145.5615844726562,153.0547943115234,15,169448.892289625,-2.989273071289062,0.5197906494140625,-0.9261474609375,169448.892289625,-11.87755465105454,2.394080886175921,7.015872055753315,169448.874101625,-84.4124755859375,-51.25120544433594,-549.44580078125,169448.887193625,-0.2697569953669895,-1.470756907631855,0.004980039747557609,-12.95933437347412,3.264740705490112,7.64795446395874,-2.103293895721436,0.3173884749412537,-0.4944126605987549,1,-0.08838149905204773,-0.6650210618972778,-0.1013747751712799,0.7346147298812866,-0.9949878454208374,-0.004980019293725491,-0.09987139701843262,0,0,0,-1,169444.5764319167,3,1,1561841628.522931,1561841239.621676,19,2.442143,0,0,18.59878,0,0,1561841548.131042,169446.173396,0,0.8244629,75.18517,0,182478453,2,1,1,-15.32435,-19.80199,0
1561841632.614325,101,0,0,1561841631.994594,4.634719546888615,-74.15107386193624,2555.316,0.88,317.109375,4,30,-9999,1561841632.608617,-15.35968017578125,-24.80903625488281,5.50189208984375,160.6504821777344,168.1436920166016,15,169448.912522625,-2.604080200195312,0.6794891357421875,-1.490737915039062,169448.912522625,-5.099992902285875,-2.169121538368056,3.952938794436211,169448.894181625,-89.033447265625,-51.876953125,-556.4141235351562,169448.907456625,-0.4632588990848567,-1.45858944728607,-0.1457018695294386,-7.033471584320068,-1.063650369644165,4.818262100219727,-1.799410462379456,0.4935917854309082,-1.107232451438904,1,-0.2053861021995544,-0.6343689560890198,-0.1235133707523346,0.7349401712417603,-0.9831823110580444,0.1451869010925293,-0.1107851564884186,0,0,0,-1,169444.5764319167,3,1,1561841628.522931,1561841239.621676,19,2.442143,0,0,18.59878,0,0,1561841548.131042,169446.173396,0,0.8244629,75.18517,0,182478453,2,1,1,-15.32435,-20.53635,0
1561841632.634607,102,0,0,1561841631.994594,4.634719546888615,-74.15107386193624,2555.316,0.88,317.109375,4,30,-9999,1561841632.633339,-17.05324554443359,-24.26283645629883,3.7950439453125,164.2100372314453,171.7032470703125,15,169448.932786625,-2.62554931640625,0.5783538818359375,-1.669723510742188,169448.932786625,1.923973032652409,-3.788467025518988,-0.1190662039119166,169448.914292625,-91.33074951171875,-50.90086364746094,-559.3703002929688,169448.927720625,-0.5231200351492301,-1.525639493964009,-0.2111837989960323,0.4963953197002411,-3.811981439590454,0.9082493782043457,-1.59831714630127,0.453163206577301,-1.637624025344849,1,-0.2512775957584381,-0.6440421342849731,-0.115541934967041,0.7132456302642822,-0.9767866730690002,0.2096175402402878,-0.0441385991871357,0,0,0,-1,169444.5764319167,3,1,1561841628.522931,1561841239.621676,19,2.442143,0,0,18.59878,0,0,1561841548.131042,169446.173396,0,0.8244629,75.18517,0,182478453,2,1,1,-15.32435,-21.44925,0
1561841632.655124,103,0,0,1561841631.994594,4.634719546888615,-74.15107386193624,2555.316,0.88,317.109375,4,30,-9999,1561841632.633339,-17.05324554443359,-24.26283645629883,3.7950439453125,164.2100372314453,171.7032470703125,15,169448.953050625,-2.53765869140625,0.3348236083984375,-1.495559692382812,169448.953050625,3.849719464274701,-1.999073110128207,-2.847373806892782,169448.934403625,-91.48843383789062,-50.63591003417969,-558.021240234375,169448.947984625,-0.4680248593613143,-1.584019906641924,-0.1916202007597773,3.844983339309692,-2.638098955154419,-2.442037105560303,-1.625993967056274,0.2531996071338654,-1.610515356063843,1,-0.2296533733606339,-0.6736096143722534,-0.09589669853448868,0.6959261298179626,-0.9816110730171204,0.1904496848583221,0.01298116892576218,0,0,0,-1,169444.5764319167,3,1,1561841628.522931,1561841239.621676,19,2.442143,0,0,18.59878,0,0,1561841548.131042,169446.173396,0,0.8244629,75.18517,0,182478453,2,1,1,-15.32435,-22.16552,0
1561841632.67519,104,0,0,1561841631.994594,4.634719546888615,-74.15107386193624,2555.316,0.88,317.109375,4,30,-9999,1561841632.659141,-16.77414703369141,-23.72819137573242,5.692626953125,159.2512664794922,166.7444763183594,15,169448.97332225,-2.20892333984375,0.3513641357421875,-1.04638671875,169448.97332225,3.010625049082421,1.043573787901327,-2.767844626208073,169448.954484625,-90.33805847167969,-50.82167053222656,-555.283935546875,169448.96825625,-0.3915006688625899,-1.596436769597996,-0.1338628791509858,3.265583515167236,0.3069427311420441,-2.997469186782837,-1.420008182525635,0.2074331641197205,-1.323534488677979,1,-0.1847647428512573,-0.6917847394943237,-0.08847560733556747,0.6924362182617188,-0.990727961063385,0.133463442325592,0.02540827170014381,0,0,0,-1,169444.5764319167,3,1,1561841628.522931,1561841239.621676,19,2.442143,0,0,18.59878,0,0,1561841548.131042,169446.173396,0,0.8244629,75.18517,0,182478453,2,1,1,-15.32435,-22.77225,0
1561841632.695309,105,0,0,1561841631.994594,4.634719546888615,-74.15107386193624,2555.316,0.88,317.109375,4,30,-9999,1561841632.683444,-15.49630737304688,-24.38387680053711,7.84112548828125,154.5106048583984,162.0038146972656,15,169448.99358625,-1.763107299804688,0.25286865234375,-0.793243408203125,169448.99358625,2.20936536454857,2.961357101548173,-1.520270834593913,169448.97460425,-88.83538818359375,-51.20761108398438,-554.2100830078125,169448.98852025,-0.3344342814355636,-1.557610213518074,-0.08493901211530722,2.336862325668335,2.662786722183228,-1.808531284332275,-0.9667348861694336,0.2283039540052414,-0.8834224939346313,1,-0.1466034203767776,-0.6869776844978333,-0.0889497846364975,0.7061566114425659,-0.9963083267211914,0.08483691513538361,-0.01313819643110037,0,0,0,-1,169444.5764319167,3,1,1561841628.522931,1561841239.621676,19,2.442143,0,0,18.59878,0,0,1561841548.131042,169446.173396,0,0.8244629,75.18517,0,182478453,2,1,1,-15.32435,-20.34638,0
1561841632.715596,106,0,0,1561841631.994594,4.634719546888615,-74.15107386193624,2555.316,0.88,317.109375,4,30,-9999,1561841632.710186,-14.09851837158203,-24.44974517822266,9.38470458984375,151.2913818359375,158.7845916748047,15,169449.01385025,-1.547012329101562,0.117828369140625,-0.671661376953125,169449.01385025,2.440717364237062,2.662593836767051,-1.193394442397588,169448.99471525,-88.35220336914062,-51.07888793945312,-553.4617309570312,169449.00878425,-0.2909547729116458,-1.494288380054751,-0.0552576460448967,2.257845640182495,2.918662786483765,-1.138122797012329,-0.6539833545684814,0.13877072930336,-0.6435167193412781,1,-0.1185254529118538,-0.6691736578941345,-0.08773591369390488,0.7283273339271545,-0.9955528378486633,0.05522952973842621,-0.07631666213274002,0,0,0,-1,169444.5764319167,3,1,1561841628.522931,1561841239.621676,19,2.442143,0,0,18.59878,0,0,1561841548.131042,169446.173396,0,0.8244629,75.18517,0,182478453,2,1,1,-15.32435,-21.06373,0
1561841632.735833,107,0,0,1561841631.994594,4.634719546888615,-74.15107386193624,2555.316,0.88,317.109375,4,30,-9999,1561841632.734088,-13.74346923828125,-24.48824691772461,9.67376708984375,147.4759063720703,154.9691162109375,15,169449.03411325,-1.323410034179688,-0.01885986328125,-0.572265625,169449.03411325,3.603869481927927,1.103841656002038,-2.039985123426223,169449.01479625,-88.36564636230469,-51.03733825683594,-553.5040893554688,169449.02904725,-0.2391860871562188,-1.446219762372983,-0.02172386623152285,3.277492523193359,1.496732354164124,-1.775721073150635,-0.4376407861709595,0.02037684619426727,-0.495540976524353,1,-0.08702931553125381,-0.6559826731681824,-0.08231012523174286,0.7452097535133362,-0.9920161366462708,0.02172215841710567,-0.1242252588272095,0,0,0,-1,169444.5764319167,3,1,1561841628.522931,1561841239.621676,19,2.442143,0,0,18.59878,0,0,1561841548.131042,169446.173396,0,0.8244629,75.18517,0,182478453,2,1,1,-15.32435,-21.06373,0
1561841632.756134,108,0,0,1561841631.994594,4.634719546888615,-74.15107386193624,2555.316,0.88,317.109375,4,30,-9999,1561841632.734088,-13.74346923828125,-24.48824691772461,9.67376708984375,147.4759063720703,154.9691162109375,15,169449.05437725,-1.158432006835938,-0.0402984619140625,-0.483001708984375,169449.05437725,4.562784308252835,0.2896552538530512,-2.992866291985446,169449.03490725,-87.58561706542969,-50.91264343261719,-552.426025390625,169449.04928125,-0.1675270131109186,-1.429904573386324,0.03509383440735503,4.409045219421387,0.359657347202301,-2.799144268035889,-0.2308095097541809,-0.009377479553222656,-0.3878128528594971,1,-0.04163818061351776,-0.6542907953262329,-0.07463072240352631,0.7513988018035889,-0.9894816279411316,-0.03508663177490234,-0.1403396278619766,0,0,0,-1,169444.5764319167,3,1,1561841628.522931,1561841239.621676,19,2.442143,0,0,18.59878,0,0,1561841548.131042,169446.173396,0,0.8244629,75.18517,0,182478453,2,1,1,-15.32435,-21.82451,0
1561841632.77634,109,0,0,1561841631.994594,4.634719546888615,-74.15107386193624,2555.316,0.88,317.109375,4,30,-9999,1561841632.760317,-12.98558807373047,-24.38556671142578,11.0709228515625,141.9647064208984,149.4579162597656,15,169449.07461025,-1.004608154296875,0.0037994384765625,-0.3904571533203125,169449.07461025,4.964263299433332,0.4564263960554483,-3.589906528332642,169449.05501825,-86.58976745605469,-50.69920349121094,-550.2163696289062,169449.06954425,-0.0829571383743318,-1.429742346078226,0.1117514425785563,4.848704814910889,0.37774258852005,-3.472418785095215,-0.1087281703948975,0.0846177414059639,-0.3048092722892761,1,0.01499805226922035,-0.6556829810142517,-0.06784295290708542,0.7518326044082642,-0.9838926792144775,-0.1115189865231514,-0.1397097706794739,0,0,0,-1,169444.5764319167,3,1,1561841628.522931,1561841239.621676,19,2.442143,0,0,18.59878,0,0,1561841548.131042,169446.173396,0,0.8244629,75.18517,0,182478453,2,1,1,-15.32435,-22.70025,0
1561841632.796557,110,0,0,1561841631.994594,4.634719546888615,-74.15107386193624,2555.316,0.88,317.109375,4,30,-9999,1561841632.785791,-11.79439544677734,-24.1024169921875,13.08868408203125,135.5861053466797,143.0793151855469,15,169449.09487425,-0.8093109130859375,0.0848541259765625,-0.2466888427734375,169449.09487425,5.620357535056381,0.7696772571666015,-3.939096215722197,169449.07512925,-85.06004333496094,-50.10307312011719,-548.5242309570312,169449.08980825,0.01047434599442901,-1.43351496785538,0.2002744797497995,5.438142776489258,0.6899105906486511,-3.879213333129883,0.05141913890838623,0.2457675635814667,-0.1877841949462891,1,0.07879358530044556,-0.6532487869262695,-0.06174500659108162,0.7504965662956238,-0.9707916975021362,-0.198938325047493,-0.1341151893138885,0,0,0,-1,169444.5764319167,3,1,1561841628.522931,1561841239.621676,19,2.442143,0,0,18.59878,0,0,1561841548.131042,169446.173396,0,0.8244629,75.18517,0,182478453,2,1,1,-15.32435,-23.43304,0
1561841632.816841,111,0,0,1561841631.994594,4.634719546888615,-74.15107386193624,2555.316,0.88,317.109375,4,30,-9999,1561841632.811003,-8.548553466796875,-22.31237030029297,17.5889892578125,128.0135345458984,135.5067443847656,15,169449.11513825,-0.60113525390625,0.153839111328125,-0.095703125,169449.11513825,6.176725442603669,0.787201922403759,-4.079948142615398,169449.09521025,-83.60467529296875,-49.22872924804688,-546.0211791992188,169449.11007225,0.1192047818296361,-1.444115076416666,0.2957642020541779,6.073188781738281,0.8350400924682617,-4.058765411376953,0.2561041116714478,0.4063696265220642,-0.0535358190536499,1,0.1493173390626907,-0.6459689736366272,-0.05299689248204231,0.7467393279075623,-0.9489141702651978,-0.2914709448814392,-0.120856836438179,0,0,0,-1,169449.10640925,3,1,1561841633.052908,1561841239.621676,19,2.442143,0,0,18.59878,0,0,1561841548.131042,169446.173396,0,0.8244629,75.18517,0,182478453,2,1,1,-15.32435,-24.40783,0
1561841632.837615,112,0,0,1561841631.994594,4.634719546888615,-74.15107386193624,2555.316,0.88,317.109375,4,30,-9999,1561841632.835448,-7.064498901367188,-20.84450531005859,19.8809814453125,119.147590637207,126.6407928466797,15,169449.13540125,-0.487457275390625,0.2566986083984375,0.0885009765625,169449.13540125,6.30354570634546,0.1503897720212106,-4.010343764365087,169449.11532125,-82.20960998535156,-48.16658020019531,-543.8110961914062,169449.13033525,0.2423840521117015,-1.472809739722454,0.3923460246420687,6.31088399887085,0.3326629996299744,-4.063933849334717,0.3838002681732178,0.5912500619888306,0.08859562873840332,1,0.2229921221733093,-0.6364561319351196,-0.04209967702627182,0.7371740937232971,-0.9195821285247803,-0.3823572397232056,-0.0903962105512619,0,0,0,-1,169449.10640925,3,1,1561841633.052908,1561841239.621676,19,2.442143,0,0,18.59878,0,0,1561841548.131042,169446.173396,0,0.8244629,75.18517,0,182478453,2,1,1,-15.32435,-24.77038,0
1561841632.857425,113,0,0,1561841631.994594,4.634719546888615,-74.15107386193624,2555.316,0.88,317.109375,4,30,-9999,1561841632.835448,-7.064498901367188,-20.84450531005859,19.8809814453125,119.147590637207,126.6407928466797,15,169449.15566525,-0.401092529296875,0.3437347412109375,0.2188873291015625,169449.15566525,6.001628992517575,-0.4220734822061891,-3.534788148515708,169449.13540125,-80.15542602539062,-46.12359619140625,-541.1842651367188,169449.15059925,0.3754102685065434,-1.529707330755923,0.4805769136089876,6.106163024902344,-0.3336228728294373,-3.699721097946167,0.441476047039032,0.760767936706543,0.2010363340377808,1,0.2941835522651672,-0.6286841630935669,-0.03112805634737015,0.7191962003707886,-0.8859797716140747,-0.4622908234596252,-0.03642452135682106,0,0,0,-1,169449.10640925,3,1,1561841633.052908,1561841239.621676,19,2.442143,0,0,18.59878,0,0,1561841548.131042,169446.173396,0,0.8244629,75.18517,0,182478453,2,1,1,-15.32435,-25.5525,0
1561841632.877652,114,0,0,1561841631.994594,4.634719546888615,-74.15107386193624,2555.316,0.88,317.109375,4,30,-9999,1561841632.861819,-5.462745666503906,-18.64292907714844,22.17401123046875,109.5107116699219,117.0039138793945,15,169449.17592925,-0.3271942138671875,0.40557861328125,0.2891387939453125,169449.17592925,5.550495895444769,-0.4694039800474044,-2.731300197097787,169449.15551225,-78.46955871582031,-43.62289428710938,-538.8158569335938,169449.17086325,0.5119487025430383,-1.606527603285768,0.5487528741758712,5.638931274414062,-0.5073646306991577,-2.943154811859131,0.4897465705871582,0.9045429229736328,0.2251518964767456,1,0.3573905229568481,-0.6225040555000305,-0.01939927600324154,0.6959772706031799,-0.8526310920715332,-0.5216236114501953,0.03047857061028481,0,0,0,-1,169449.10640925,3,1,1561841633.052908,1561841239.621676,19,2.442143,0,0,18.59878,0,0,1561841548.131042,169446.173396,0,0.8244629,75.18517,0,182478453,2,1,1,-15.32435,-25.5525,0
1561841632.897865,115,0,0,1561841631.994594,4.634719546888615,-74.15107386193624,2555.316,0.88,317.109375,4,30,-9999,1561841632.886288,-3.624198913574219,-16.25803375244141,24.478271484375,99.75467681884766,107.2478790283203,15,169449.19619225,-0.3009033203125,0.446044921875,0.424346923828125,169449.19619225,5.375289723121764,-0.2695041791488577,-2.050473184431173,169449.17562325,-77.20011901855469,-40.73883056640625,-537.2811279296875,169449.19112625,0.6486481597000174,-1.689227978615476,0.5917490159691935,5.403617382049561,-0.3326700031757355,-2.197500228881836,0.5171608328819275,0.9779337644577026,0.2486302852630615,1,0.4114382565021515,-0.6162393093109131,-0.004242704715579748,0.6715278029441833,-0.824152410030365,-0.5578135251998901,0.09806465357542038,0,0,0,-1,169449.10640925,3,1,1561841633.052908,1561841239.621676,19,2.442143,0,0,18.59878,0,0,1561841548.131042,169446.173396,0,0.8244629,75.18517,0,182478453,2,1,1,-15.32435,-26.51824,0
1561841632.918155,116,0,0,1561841631.994594,4.634719546888615,-74.15107386193624,2555.316,0.88,317.109375,4,30,-9999,1561841632.912306,-1.786224365234375,-9.9012451171875,27.7357177734375,89.92584991455078,97.41905212402344,15,169449.21645625,-0.3114471435546875,0.5307769775390625,0.589508056640625,169449.21645625,5.317846936305409,-0.1013503237084915,-1.621169486181527,169449.19570425,-76.14239501953125,-37.73599243164062,-535.511962890625,169449.21135925,0.7858635828056435,-1.771872529585334,0.6131979444055734,5.309150695800781,-0.1480522304773331,-1.707817912101746,0.5035289525985718,1.057770252227783,0.3399440050125122,1,0.4590974152088165,-0.6090138554573059,0.0149672357365489,0.6466124653816223,-0.8013347387313843,-0.5754857063293457,0.1633366197347641,0,0,0,-1,169449.10640925,3,1,1561841633.052908,1561841239.621676,19,2.442143,0,0,18.59878,0,0,1561841548.131042,169446.173396,0,0.8244629,75.18517,0,182478453,2,1,1,-15.32435,-27.16034,0
1561841632.938587,117,0,0,1561841631.994594,4.634719546888615,-74.15107386193624,2555.316,0.88,317.109375,4,30,-9999,1561841632.936861,-1.524650573730469,-6.3138427734375,28.49127197265625,80.02816772460938,87.52136993408203,15,169449.23672025,-0.351318359375,0.6015167236328125,0.814849853515625,169449.23672025,5.412342283368035,0.01722719014339557,-1.29037691560224,169449.21581525,-75.8917236328125,-34.07882690429688,-534.4153442382812,169449.23162325,0.9240214413661619,-1.853164390821409,0.6177146719955637,5.409742832183838,0.002833421807736158,-1.390627503395081,0.4440382122993469,1.151668071746826,0.4747176170349121,1,0.502959668636322,-0.6005014777183533,0.03747155517339706,0.6205041408538818,-0.7829206585884094,-0.5791736841201782,0.2271409034729004,0,0,0,-1,169449.10640925,3,1,1561841633.052908,1561841239.621676,19,2.442143,0,0,18.59878,0,0,1561841548.131042,169446.173396,0,0.8244629,75.18517,0,182478453,2,1,1,-15.32435,-23.16084,0
1561841632.958791,118,0,0,1561841631.994594,4.634719546888615,-74.15107386193624,2555.316,0.88,317.109375,4,30,-9999,1561841632.936861,-1.524650573730469,-6.3138427734375,28.49127197265625,80.02816772460938,87.52136993408203,15,169449.25695325,-0.3113250732421875,0.651031494140625,0.9287567138671875,169449.25695325,4.922886830841207,0.1781782600995334,-0.5399599057552007,169449.23592625,-75.9482421875,-30.71026611328125,-534.068603515625,169449.25188725,1.05825071535442,-1.929876985356858,0.6056076187669291,5.137428760528564,0.0803828090429306,-0.8048782348632812,0.4318287968635559,1.203325510025024,0.5985188484191895,1,0.5426487326622009,-0.591600239276886,0.06277510523796082,0.5929593443870544,-0.7697194218635559,-0.5692617297172546,0.2889169752597809,0,0,0,-1,169449.10640925,3,1,1561841633.052908,1561841239.621676,19,2.442143,0,0,18.59878,0,0,1561841548.131042,169446.173396,0,0.8244629,75.18517,0,182478453,2,1,1,-15.32435,-19.05056,0
1561841632.978928,119,0,0,1561841631.994594,4.634719546888615,-74.15107386193624,2555.316,0.88,317.109375,4,30,-9999,1561841632.962955,-1.606040954589844,-3.153787612915039,28.7410888671875,70.88240051269531,78.37560272216797,15,169449.27721625,-0.22467041015625,0.639495849609375,0.951873779296875,169449.27721625,3.004700580921431,0.9689195235920077,1.169267001869797,169449.25600725,-75.84736633300781,-27.86582946777344,-534.4003295898438,169449.27215025,1.162120785679177,-1.980819369194195,0.5740910603646541,3.655893325805664,0.7309051752090454,0.6514093279838562,0.5005546808242798,1.199123382568359,0.6166763305664062,1,0.570014476776123,-0.585188627243042,0.09077580273151398,0.5695589780807495,-0.7700859308242798,-0.5430718064308167,0.3347244560718536,0,0,0,-1,169449.10640925,3,1,1561841633.052908,1561841239.621676,19,2.442143,0,0,18.59878,0,0,1561841548.131042,169446.173396,0,0.8244629,75.18517,0,182478453,2,1,1,-15.32435,-19.33706,0
1561841632.99917,120,0,0,1561841631.994594,4.634719546888615,-74.15107386193624,2555.316,0.88,317.109375,4,30,-9999,1561841632.987384,-2.156654357910156,0.130615234375,28.29998779296875,66.13404846191406,73.62725067138672,15,169449.29748025,-0.1898651123046875,0.546722412109375,0.994171142578125,169449.29748025,-0.2365076132427759,1.353210206781025,3.113980466775633,169449.27611825,-76.35664367675781,-26.72721862792969,-534.47802734375,169449.29241425,1.194228422479193,-1.975380569558358,0.5247213219844654,0.5916653871536255,1.349690914154053,2.702488899230957,0.6096018552780151,1.102625846862793,0.6274920701980591,1,0.5713856816291809,-0.5863935947418213,0.1199562847614288,0.5614902973175049,-0.7955912351608276,-0.5009718537330627,0.3406780958175659,0,0,0,-1,169449.10640925,3,1,1561841633.052908,1561841239.621676,19,2.442143,0,0,18.59878,0,0,1561841548.131042,169446.173396,0,0.8244629,75.18517,0,182478453,2,1,1,-15.32435,-20.01052,0
1561841633.02208,121,0,0,1561841631.994594,4.634719546888615,-74.15107386193624,2555.316,0.88,317.109375,4,30,-9999,1561841633.013656,-3.01275634765625,-0.086822509765625,28.4783935546875,68.72919464111328,76.22239685058594,15,169449.31774425,-0.4153594970703125,0.4250030517578125,1.002304077148438,169449.31774425,-2.901606951963374,0.968726444412977,4.021414791332655,169449.29622925,-77.33322143554688,-26.33172607421875,-534.2865600585938,169449.31267825,1.144528783064241,-1.926545264779101,0.4681020173978535,-2.364771127700806,1.060025334358215,3.885193109512329,0.5707703232765198,0.9309754371643066,0.6958732604980469,1,0.5438092947006226,-0.599736750125885,0.140617772936821,0.5699245929718018,-0.8365479707717896,-0.4511933028697968,0.3108254373073578,0,0,0,-1,169449.10640925,3,1,1561841633.052908,1561841239.621676,19,2.442143,0,0,18.59878,0,0,1561841548.131042,169446.173396,0,0.8244629,75.18517,0,182478453,2,1,1,-15.32435,-20.73058,0
1561841633.040211,122,0,0,1561841631.994594,4.634719546888615,-74.15107386193624,2555.316,0.88,317.109375,4,30,-9999,1561841633.013656,-3.01275634765625,-0.086822509765625,28.4783935546875,68.72919464111328,76.22239685058594,15,169449.33800725,-0.7863922119140625,0.34234619140625,0.8973236083984375,169449.33800725,-4.206213669902126,0.6648403229589783,4.356252969923881,169449.31630925,-78.02180480957031,-27.57456970214844,-534.1640625,169449.33294125,1.045379580651807,-1.866325291116787,0.410493944160769,-4.00013256072998,0.7480127811431885,4.276070117950439,0.2833778858184814,0.7908164262771606,0.7015471458435059,1,0.4978283941745758,-0.6210411190986633,0.1490452736616135,0.5867370963096619,-0.8771736621856689,-0.3990622758865356,0.2670503556728363,0,0,0,-1,169449.10640925,3,1,1561841633.052908,1561841239.621676,19,2.442143,0,0,18.59878,0,0,1561841548.131042,169446.173396,0,0.8244629,75.18517,0,182478453,2,1,1,-15.32435,-20.73058,0
1561841633.060012,123,0,0,1561841632.99458,4.634719714526678,-74.15107511922172,2555.623,0.73,319.5703125,4,30,-9999,1561841633.039739,-3.702980041503906,-1.33610725402832,28.94769287109375,75.9349365234375,83.42813873291016,15,169449.35827125,-1.160720825195312,0.0989990234375,0.7447967529296875,169449.35827125,-4.511817796575334,0.3242441237748914,4.693551376730123,169449.33642025,-78.61116027832031,-29.28239440917969,-533.9905395507812,169449.35320525,0.9291986963443949,-1.811730836471562,0.3467483993026975,-4.481541156768799,0.3973053395748138,4.614149570465088,-0.06814336776733398,0.5891243815422058,0.5925467014312744,1,0.4424778521060944,-0.6453043818473816,0.1509474515914917,0.6041609048843384,-0.9133171439170837,-0.3398415446281433,0.2244087904691696,0,0,0,-1,169449.10640925,3,1,1561841633.052908,1561841239.621676,19,2.442143,0,0,18.59878,0,0,1561841548.131042,169446.173396,0,0.8244629,75.18517,0,182478453,2,1,1,-15.32435,-20.18155,0
