loggingTime,loggingSample,identifierForVendor,deviceID,locationTimestamp_since1970,locationLatitude,locationLongitude,locationAltitude,locationSpeed,locationCourse,locationVerticalAccuracy,locationHorizontalAccuracy,locationFloor,locationHeadingTimestamp_since1970,locationHeadingX,locationHeadingY,locationHeadingZ,locationTrueHeading,locationMagneticHeading,locationHeadingAccuracy,accelerometerTimestamp_sinceReboot,accelerometerAccelerationX,accelerometerAccelerationY,accelerometerAccelerationZ,gyroTimestamp_sinceReboot,gyroRotationX,gyroRotationY,gyroRotationZ,magnetometerTimestamp_sinceReboot,magnetometerX,magnetometerY,magnetometerZ,motionTimestamp_sinceReboot,motionYaw,motionRoll,motionPitch,motionRotationRateX,motionRotationRateY,motionRotationRateZ,motionUserAccelerationX,motionUserAccelerationY,motionUserAccelerationZ,motionAttitudeReferenceFrame,motionQuaternionX,motionQuaternionY,motionQuaternionZ,motionQuaternionW,motionGravityX,motionGravityY,motionGravityZ,motionMagneticFieldX,motionMagneticFieldY,motionMagneticFieldZ,motionMagneticFieldCalibrationAccuracy,activityTimestamp_sinceReboot,activity,activityActivityConfidence,activityActivityStartDate,pedometerStartDate,pedometerNumberofSteps,pedometerAverageActivePace,pedometerCurrentPace,pedometerCurrentCadence,pedometerDistance,pedometerFloorAscended,pedometerFloorDescended,pedometerEndDate,altimeterTimestamp_sinceReboot,altimeterReset,altimeterRelativeAltitude,altimeterPressure,IP_en0,IP_pdp_ip0,deviceOrientation,batteryState,batteryLevel,avAudioRecorderPeakPower,avAudioRecorderAveragePower,label
1561841637.094454,1,0,0,1561841636.994522,4.634673949335362,-74.15106346837631,2555.74,0.36,169.1015625,4,30,-9999,1561841637.092362,-14.18373870849609,-19.15353393554688,18.88702392578125,136.3505096435547,143.8437194824219,15,169453.39006675,-0.96728515625,0.2356719970703125,0.1386871337890625,169453.39006675,0.2899697731777896,-0.05601879458148975,0.03288764261749752,169453.37706675,-88.73046875,-45.84254455566406,-544.0948486328125,169453.38497075,-0.03194053180574254,-1.706680121024382,-0.2188542085515093,0.2754174172878265,-0.05134950205683708,0.03224572539329529,-0.006804466247558594,0.01624135673046112,0.001447558403015137,1,-0.08375320583581924,-0.7477317452430725,0.07183952629566193,0.6547684669494629,-0.9671487808227539,0.2171113044023514,0.1322347223758698,0,0,0,-1,169452.3568895417,3,2,1561841636.303388,1561841239.621676,31,1.858098,0,0,29.67847,0,0,1561841636.303662,169450.891907,0,0.4863281,75.18838,0,182478453,5,1,1,-38.21385,-44.03475,1
1561841637.113635,2,0,0,1561841636.994522,4.634673949335362,-74.15106346837631,2555.74,0.36,169.1015625,4,30,-9999,1561841637.092362,-14.18373870849609,-19.15353393554688,18.88702392578125,136.3505096435547,143.8437194824219,15,169453.41033075,-0.9650115966796875,0.23541259765625,0.1433868408203125,169453.41033075,0.2792710561306143,-0.1034765915228108,0.03589914517815912,169453.39717775,-88.61309814453125,-45.7847900390625,-543.8792114257812,169453.40523475,-0.02607669089152485,-1.70692423237112,-0.2203397720121927,0.2884900867938995,-0.09846002608537674,0.02775776386260986,0.001616358757019043,0.01810261607170105,0.009342551231384277,1,-0.08203606307506561,-0.7479863166809082,0.07432591170072556,0.6544174551963806,-0.966795802116394,0.2185611873865128,0.1324268877506256,0,0,0,-1,169452.3568895417,3,2,1561841636.303388,1561841239.621676,31,1.858098,0,0,29.67847,0,0,1561841636.303662,169450.891907,0,0.4863281,75.18838,0,182478453,3,1,1,-38.21385,-44.98344,1
1561841637.132177,3,0,0,1561841636.994522,4.634673949335362,-74.15106346837631,2555.74,0.36,169.1015625,4,30,-9999,1561841637.116179,-14.2454833984375,-19.17669677734375,18.9542236328125,135.93310546875,143.4263153076172,15,169453.43056375,-0.963409423828125,0.230743408203125,0.139678955078125,169453.43056375,0.2443580795041115,-0.1183636620163537,0.06891382057965342,169453.41725875,-88.66932678222656,-45.87368774414062,-544.031494140625,169453.42549775,-0.02064720638829923,-1.708041266399705,-0.221985260883405,0.2523645758628845,-0.1245171949267387,0.05469910427927971,0.0009272098541259766,0.01468141376972198,0.007228732109069824,1,-0.08049912750720978,-0.7484975457191467,0.07676396518945694,0.6537420153617859,-0.9662896990776062,0.2201666086912155,0.1334573775529861,0,0,0,-1,169452.3568895417,3,2,1561841636.303388,1561841239.621676,31,1.858098,0,0,29.67847,0,0,1561841636.303662,169450.891907,0,0.4863281,75.18838,0,182478453,3,1,1,-38.21385,-45.69596,1
1561841637.152424,4,0,0,1561841636.994522,4.634673949335362,-74.15106346837631,2555.74,0.36,169.1015625,4,30,-9999,1561841637.140737,-14.15760040283203,-19.17015838623047,18.875,135.5788879394531,143.0720977783203,15,169453.45082775,-0.959381103515625,0.230438232421875,0.1322021484375,169453.45082775,0.1887387590861336,-0.06053551579026414,0.09701682798271459,169453.43736975,-88.56207275390625,-45.42759704589844,-543.6282958984375,169453.44576175,-0.01609778636551696,-1.709375203782974,-0.2242006223649517,0.2045895755290985,-0.09662909805774689,0.08855826407670975,0.007663249969482422,0.005456149578094482,0.001002669334411621,1,-0.07946594804525375,-0.7490156292915344,0.07913441210985184,0.6529918909072876,-0.9656252861022949,0.2223270684480667,0.1346784979104996,0,0,0,-1,169452.3568895417,3,2,1561841636.303388,1561841239.621676,31,1.858098,0,0,29.67847,0,0,1561841636.303662,169450.891907,0,0.4863281,75.18838,0,182478453,3,1,1,-38.21385,-46.0658,1
1561841637.172799,5,0,0,1561841636.994522,4.634673949335362,-74.15106346837631,2555.74,0.36,169.1015625,4,30,-9999,1561841637.166919,-14.18972778320312,-18.91458129882812,19.14117431640625,135.3266448974609,142.8198547363281,15,169453.47109175,-0.97088623046875,0.2351531982421875,0.1295318603515625,169453.47109175,0.1305825114137463,0.0702240958359724,0.1241259436669582,169453.45744975,-88.49844360351562,-45.62263488769531,-543.7648315429688,169453.46602575,-0.01285020198016097,-1.709317496280661,-0.2267632161822887,0.1427475214004517,0.03292463347315788,0.1166884377598763,0.00139695405960083,0.008649945259094238,-0.001639604568481445,1,-0.07908699661493301,-0.7490107417106628,0.08115335553884506,0.6527957916259766,-0.9650657773017883,0.2248247861862183,0.1345436871051788,0,0,0,-1,169452.3568895417,3,2,1561841636.303388,1561841239.621676,31,1.858098,0,0,29.67847,0,0,1561841636.303662,169450.891907,0,0.4863281,75.18838,0,182478453,3,1,1,-38.21385,-46.0658,1
1561841637.193011,6,0,0,1561841636.994522,4.634673949335362,-74.15106346837631,2555.74,0.36,169.1015625,4,30,-9999,1561841637.191949,-14.34723663330078,-18.70209121704102,19.08758544921875,135.1752471923828,142.66845703125,15,169453.49135475,-0.9661712646484375,0.232025146484375,0.1292572021484375,169453.49135475,0.1037892466347861,0.1383096733166112,0.1220577327644026,169453.47756075,-88.67826843261719,-45.25938415527344,-543.8138427734375,169453.48628875,-0.01070702644446279,-1.707105514747918,-0.2295878904591818,0.1063871160149574,0.1248417720198631,0.1227130368351936,-0.004983246326446533,0.007302284240722656,-0.003568172454833984,1,-0.07929644733667374,-0.7482466101646423,0.08282420039176941,0.653436541557312,-0.9647279977798462,0.2275762408971786,0.132321834564209,0,0,0,-1,169452.3568895417,3,2,1561841636.303388,1561841239.621676,31,1.858098,0,0,29.67847,0,0,1561841636.303662,169450.891907,0,0.4863281,75.18838,0,182478453,3,1,1,-38.21385,-46.84352,1
1561841637.213276,7,0,0,1561841636.994522,4.634673949335362,-74.15106346837631,2555.74,0.36,169.1015625,4,30,-9999,1561841637.191949,-14.34723663330078,-18.70209121704102,19.08758544921875,135.1752471923828,142.66845703125,15,169453.51161875,-0.97821044921875,0.232696533203125,0.1316375732421875,169453.51161875,0.1265187939063944,0.1262554072745855,0.04702103852254804,169453.49764175,-88.79283142089844,-45.19090270996094,-543.547607421875,169453.50655275,-0.008839898947941179,-1.704151416559279,-0.2320265609223045,0.1128396913409233,0.1204004213213921,0.07223628461360931,-0.007606267929077148,0.001052558422088623,0.0001194477081298828,1,-0.07951804995536804,-0.7472452521324158,0.08423003554344177,0.6543750762939453,-0.9645617008209229,0.2299502491950989,0.1293971687555313,0,0,0,-1,169452.3568895417,3,2,1561841636.303388,1561841239.621676,31,1.858098,0,0,29.67847,0,0,1561841636.303662,169450.891907,0,0.4863281,75.18838,0,182478453,3,1,1,-38.21385,-40.08584,1
1561841637.233504,8,0,0,1561841636.994522,4.634673949335362,-74.15106346837631,2555.74,0.36,169.1015625,4,30,-9999,1561841637.217553,-14.33000183105469,-18.68152236938477,19.2381591796875,135.025634765625,142.5188446044922,15,169453.53188275,-0.9666900634765625,0.2230377197265625,0.1345062255859375,169453.53188275,0.1733046753046884,0.07626867256212526,-0.02854242898292424,169453.51775275,-88.95245361328125,-45.37277221679688,-543.5120849609375,169453.52681675,-0.006071463683381358,-1.701332526593052,-0.232785273858746,0.1607310473918915,0.08628478646278381,-0.02318184822797775,-0.01022607088088989,-0.002981647849082947,0.009361982345581055,1,-0.07885193079710007,-0.7463979125022888,0.08530837297439575,0.6552824974060059,-0.9647495150566101,0.2306885570287704,0.1266549378633499,0,0,0,-1,169452.3568895417,3,2,1561841636.303388,1561841239.621676,31,1.858098,0,0,29.67847,0,0,1561841636.303662,169450.891907,0,0.4863281,75.18838,0,182478453,3,1,1,-38.21385,-40.58762,1
1561841637.254763,9,0,0,1561841636.994522,4.634673949335362,-74.15106346837631,2555.74,0.36,169.1015625,4,30,-9999,1561841637.242011,-14.41600799560547,-18.87429428100586,19.234130859375,134.7807769775391,142.2739868164062,15,169453.55214575,-0.963470458984375,0.2326507568359375,0.1329803466796875,169453.55214575,0.1897433034493115,0.01943788016427034,0.02264778822614285,169453.53783275,-88.71597290039062,-45.35067749023438,-543.6607055664062,169453.54707975,-0.00234411122368028,-1.699410826073313,-0.2327784513795932,0.1844353079795837,0.02367387525737286,-0.003327715676277876,0.0018271803855896,-0.004180461168289185,0.008209943771362305,1,-0.07754161953926086,-0.7459140419960022,0.08645246177911758,0.6558395028114319,-0.9649924635887146,0.2306819260120392,0.1248009204864502,0,0,0,-1,169452.3568895417,3,2,1561841636.303388,1561841239.621676,31,1.858098,0,0,29.67847,0,0,1561841636.303662,169450.891907,0,0.4863281,75.18838,0,182478453,3,1,1,-37.46157,-38.84165,1
1561841637.274097,10,0,0,1561841636.994522,4.634673949335362,-74.15106346837631,2555.74,0.36,169.1015625,4,30,-9999,1561841637.268965,-14.57340240478516,-18.65928649902344,19.32855224609375,134.5124969482422,142.0057067871094,15,169453.57240975,-0.9564056396484375,0.2395477294921875,0.129302978515625,169453.57240975,0.1776120720517826,0.00809281392053279,0.09325005293690651,169453.55794475,-88.7337646484375,-45.25886535644531,-543.598388671875,169453.56731275,0.001345089556882777,-1.698471992716654,-0.2340521616956926,0.1803529560565948,-0.001447722781449556,0.0773511528968811,0.004474818706512451,0.005444616079330444,0.007688641548156738,1,-0.07662457227706909,-0.7456925511360168,0.08810114860534668,0.6559798717498779,-0.9648171663284302,0.2319210916757584,0.1238574087619781,0,0,0,-1,169452.3568895417,3,2,1561841636.303388,1561841239.621676,31,1.858098,0,0,29.67847,0,0,1561841636.303662,169450.891907,0,0.4863281,75.18838,0,182478453,3,1,1,-37.46157,-39.34879,1
1561841637.294278,11,0,0,1561841636.994522,4.634673949335362,-74.15106346837631,2555.74,0.36,169.1015625,4,30,-9999,1561841637.292654,-14.49061584472656,-18.46213150024414,19.23834228515625,134.2839202880859,141.7771301269531,15,169453.59264275,-0.955230712890625,0.23779296875,0.12359619140625,169453.59264275,0.1457481485573115,0.01803279637314454,0.09101965552396515,169453.57802475,-88.97639465332031,-45.10847473144531,-543.458740234375,169453.58757675,0.004576722474555356,-1.697656296333615,-0.2363305738812105,0.1530510187149048,0.008792398497462273,0.09503081440925598,0.009801387786865234,0.004922673106193542,0.002134084701538086,1,-0.07620381563901901,-0.7454492449760437,0.08997908234596252,0.6560505032539368,-0.9643912315368652,0.234136775135994,0.1230031996965408,0,0,0,-1,169452.3568895417,3,2,1561841636.303388,1561841239.621676,31,1.858098,0,0,29.67847,0,0,1561841636.303662,169450.891907,0,0.4863281,75.18838,0,182478453,3,1,1,-37.46157,-39.45739,1
1561841637.314563,12,0,0,1561841636.994522,4.634673949335362,-74.15106346837631,2555.74,0.36,169.1015625,4,30,-9999,1561841637.292654,-14.49061584472656,-18.46213150024414,19.23834228515625,134.2839202880859,141.7771301269531,15,169453.61290675,-0.9581146240234375,0.2372283935546875,0.1287384033203125,169453.61290675,0.1326278191309271,0.01149393694867298,0.04991722620800921,169453.59813575,-88.84190368652344,-44.93424987792969,-543.3153686523438,169453.60784075,0.007215205733525049,-1.69684133072292,-0.2382085090894869,0.13177290558815,0.01102838665246964,0.05994899570941925,0.00746452808380127,0.0005033612251281738,0.003509759902954102,1,-0.07587408274412155,-0.7452006340026855,0.09151306003332138,0.656158983707428,-0.964053213596344,0.2359621077775955,0.1221617236733437,0,0,0,-1,169452.3568895417,3,2,1561841636.303388,1561841239.621676,31,1.858098,0,0,29.67847,0,0,1561841636.303662,169450.891907,0,0.4863281,75.18838,0,182478453,3,1,1,-37.46157,-40.09023,1
1561841637.33479,13,0,0,1561841636.994522,4.634673949335362,-74.15106346837631,2555.74,0.36,169.1015625,4,30,-9999,1561841637.318817,-14.42461395263672,-18.37326812744141,19.44390869140625,134.0973968505859,141.5906066894531,15,169453.63316975,-0.972991943359375,0.2347564697265625,0.1300506591796875,169453.63316975,0.1487660427045893,-0.01472408503483009,-0.001210673031550022,169453.61821675,-88.99755859375,-44.69879150390625,-543.446044921875,169453.62810375,0.009921714937091375,-1.696291982213762,-0.2392216450115599,0.141661748290062,-0.01904136314988136,0.01056785974651575,-0.0002748370170593262,0.001060083508491516,0.008280754089355469,1,-0.07522381097078323,-0.7450788021087646,0.09275742620229721,0.6561973094940186,-0.9638822674751282,0.2369465082883835,0.1216020882129669,0,0,0,-1,169452.3568895417,3,2,1561841636.303388,1561841239.621676,31,1.858098,0,0,29.67847,0,0,1561841636.303662,169450.891907,0,0.4863281,75.18838,0,182478453,3,1,1,-37.46157,-40.09023,1
1561841637.35524,14,0,0,1561841636.994522,4.634673949335362,-74.15106346837631,2555.74,0.36,169.1015625,4,30,-9999,1561841637.343842,-14.54911041259766,-18.36420440673828,19.359130859375,133.8871459960938,141.3803558349609,15,169453.65343375,-0.9773101806640625,0.234710693359375,0.1349945068359375,169453.65343375,0.1401059754718696,0.006343117084350729,-0.03531964132495788,169453.63832775,-89.08879089355469,-44.49197387695312,-543.2662963867188,169453.64836775,0.01294649519123667,-1.695953813987018,-0.2392177286231306,0.1406148672103882,-0.006260587368160486,-0.03912326321005821,-0.0177345871925354,-0.001163899898529053,0.01278746128082275,1,-0.07411143928766251,-0.7450809478759766,0.09373575448989868,0.6561824679374695,-0.9639243483543396,0.2369427084922791,0.1212762519717216,0,0,0,-1,169452.3568895417,3,2,1561841636.303388,1561841239.621676,31,1.858098,0,0,29.67847,0,0,1561841636.303662,169450.891907,0,0.4863281,75.18838,0,182478453,3,1,1,-37.46157,-40.5804,1
1561841637.375368,15,0,0,1561841636.994522,4.634673949335362,-74.15106346837631,2555.74,0.36,169.1015625,4,30,-9999,1561841637.36967,-14.60319519042969,-18.25609970092773,19.5987548828125,133.6826782226562,141.1758880615234,15,169453.67369775,-0.9577178955078125,0.2329559326171875,0.1234283447265625,169453.67369775,0.1123875285302159,0.0351489326990838,0.00457797391384621,169453.65840775,-88.99351501464844,-44.97683715820312,-543.26318359375,169453.66863175,0.01571383342391276,-1.695204437951858,-0.2389750860175661,0.1159515902400017,0.01967327482998371,-0.01209351047873497,-0.002251863479614258,-0.005322679877281189,0.005461335182189941,1,-0.0730360820889473,-0.7449471354484558,0.09452598541975021,0.6563416123390198,-0.9640719890594482,0.2367069572210312,0.1205610111355782,0,0,0,-1,169452.3568895417,3,2,1561841636.303388,1561841239.621676,31,1.858098,0,0,29.67847,0,0,1561841636.303662,169450.891907,0,0.4863281,75.18838,0,182478453,3,1,1,-37.46157,-41.34309,1
1561841637.395625,16,0,0,1561841636.994522,4.634673949335362,-74.15106346837631,2555.74,0.36,169.1015625,4,30,-9999,1561841637.393892,-14.39545440673828,-18.12002944946289,19.63372802734375,133.5502777099609,141.0434875488281,15,169453.69396075,-0.95269775390625,0.2425689697265625,0.1241302490234375,169453.69396075,0.06535024472501839,0.02408962364031175,0.06791513517087371,169453.67851975,-88.91740417480469,-44.92294311523438,-543.3295288085938,169453.68889475,0.01766355269390703,-1.694206468785162,-0.2395556066504243,0.07147333770990372,0.02547284029424191,0.04760098084807396,0.01071673631668091,0.0002626180648803711,0.005799531936645508,1,-0.07254835218191147,-0.7446661591529846,0.09534543007612228,0.6565960049629211,-0.9640553593635559,0.2372709512710571,0.119581900537014,0,0,0,-1,169452.3568895417,3,2,1561841636.303388,1561841239.621676,31,1.858098,0,0,29.67847,0,0,1561841636.303662,169450.891907,0,0.4863281,75.18838,0,182478453,3,1,1,-37.46157,-41.63827,1
1561841637.415908,17,0,0,1561841636.994522,4.634673949335362,-74.15106346837631,2555.74,0.36,169.1015625,4,30,-9999,1561841637.393892,-14.39545440673828,-18.12002944946289,19.63372802734375,133.5502777099609,141.0434875488281,15,169453.71422475,-0.9563140869140625,0.24493408203125,0.1203765869140625,169453.71422475,0.03443467289472455,0.03545333201167986,0.0831601345149233,169453.69859975,-89.15367126464844,-44.91679382324219,-543.1258544921875,169453.70915875,0.01862458354594278,-1.693745331860284,-0.2412024917077369,0.03938465192914009,0.01320685259997845,0.08641468733549118,0.01279354095458984,0.004110485315322876,0.002202868461608887,1,-0.07275469601154327,-0.7444806098937988,0.09625612199306488,0.656650722026825,-0.9637212753295898,0.2388704866170883,0.1190892457962036,0,0,0,-1,169452.3568895417,3,2,1561841636.303388,1561841239.621676,31,1.858098,0,0,29.67847,0,0,1561841636.303662,169450.891907,0,0.4863281,75.18838,0,182478453,3,1,1,-37.46157,-42.15131,1
1561841637.437758,18,0,0,1561841636.994522,4.634673949335362,-74.15106346837631,2555.74,0.36,169.1015625,4,30,-9999,1561841637.420154,-14.46578216552734,-18.20631790161133,19.51104736328125,133.4975433349609,140.9907531738281,15,169453.73448875,-0.971954345703125,0.2477264404296875,0.120758056640625,169453.73448875,0.02270744303456063,0.0980325576224708,0.0223806731688079,169453.71871075,-89.096923828125,-44.60293579101562,-543.3379516601562,169453.72939175,0.01895568561494385,-1.692759341402249,-0.2425366201145771,0.01679838262498379,0.08142558485269547,0.03602634742856026,-0.002299249172210693,0.008659303188323975,0.00430595874786377,1,-0.07311832904815674,-0.7441127300262451,0.09682439267635345,0.656943678855896,-0.9635210037231445,0.2401657700538635,0.1181000918149948,0,0,0,-1,169452.3568895417,3,2,1561841636.303388,1561841239.621676,31,1.858098,0,0,29.67847,0,0,1561841636.303662,169450.891907,0,0.4863281,75.18838,0,182478453,3,1,1,-37.46157,-42.95771,1
1561841637.456383,19,0,0,1561841636.994522,4.634673949335362,-74.15106346837631,2555.74,0.36,169.1015625,4,30,-9999,1561841637.444537,-14.76026916503906,-17.90044403076172,19.7777099609375,133.4702911376953,140.9635009765625,15,169453.75472175,-0.968841552734375,0.2441558837890625,0.1194915771484375,169453.75472175,0.07094101880142174,0.09400079804819984,0.01135092519813573,169453.73879175,-88.92076110839844,-44.58218383789062,-543.1731567382812,169453.74965575,0.01959179071362026,-1.690829273333465,-0.2428015318215952,0.05758203193545341,0.08881532400846481,0.0005304056685417891,-0.007446408271789551,0.002710610628128052,0.002984404563903809,1,-0.07306260615587234,-0.7434905171394348,0.09706122428178787,0.6576190590858459,-0.9636839628219604,0.2404229193925858,0.1162325888872147,0,0,0,-1,169452.3568895417,3,2,1561841636.303388,1561841239.621676,31,1.858098,0,0,29.67847,0,0,1561841636.303662,169450.891907,0,0.4863281,75.18838,0,182478453,3,1,1,-37.46157,-43.55807,1
1561841637.477073,20,0,0,1561841636.994522,4.634673949335362,-74.15106346837631,2555.74,0.36,169.1015625,4,30,-9999,1561841637.470849,-14.78263854980469,-17.98920059204102,19.572265625,133.3656768798828,140.85888671875,15,169453.77498575,-0.957794189453125,0.2471923828125,0.1155853271484375,169453.77498575,0.1011023834110051,0.06888319422711751,0.04983413558199874,169453.75890275,-89.03057861328125,-44.64718627929688,-543.323486328125,169453.76991975,0.0211751174480299,-1.688854194952246,-0.243383139109893,0.09587295353412628,0.06306894868612289,0.04298225790262222,-0.00241386890411377,0.005976065993309021,0.006033658981323242,1,-0.07276230305433273,-0.7428740859031677,0.09772572666406631,0.6582502722740173,-0.9637726545333862,0.2409874349832535,0.1143125221133232,0,0,0,-1,169452.3568895417,3,2,1561841636.303388,1561841239.621676,31,1.858098,0,0,29.67847,0,0,1561841636.303662,169450.891907,0,0.4863281,75.18838,0,182478453,3,1,1,-37.46157,-44.04243,1
1561841637.496872,21,0,0,1561841636.994522,4.634673949335362,-74.15106346837631,2555.74,0.36,169.1015625,4,30,-9999,1561841637.495289,-14.74382781982422,-18.06955718994141,19.638916015625,133.2349853515625,140.7281951904297,15,169453.79524875,-0.9503173828125,0.248382568359375,0.1184234619140625,169453.79524875,0.08276891615079066,0.0735005829250969,0.04489397175990175,169453.77898275,-89.2257080078125,-44.61100769042969,-543.3160400390625,169453.79018275,0.0230372417842625,-1.687201943469326,-0.2445449221435228,0.08950001001358032,0.0637643039226532,0.04660416021943092,0.01475256681442261,0.003597468137741089,0.002241849899291992,1,-0.07253570109605789,-0.7423491477966309,0.09870914369821548,0.6587205529212952,-0.9636813998222351,0.2421148121356964,0.1126873716711998,0,0,0,-1,169452.3568895417,3,2,1561841636.303388,1561841239.621676,31,1.858098,0,0,29.67847,0,0,1561841636.303662,169450.891907,0,0.4863281,75.18838,0,182478453,3,1,1,-37.46157,-44.04243,1
1561841637.517169,22,0,0,1561841636.994522,4.634673949335362,-74.15106346837631,2555.74,0.36,169.1015625,4,30,-9999,1561841637.495289,-14.74382781982422,-18.06955718994141,19.638916015625,133.2349853515625,140.7281951904297,15,169453.81551275,-0.9535980224609375,0.2504119873046875,0.1226348876953125,169453.81551275,0.06626237739837053,0.03611965491641769,0.003712712875679466,169453.79909375,-89.29696655273438,-44.64344787597656,-543.2642211914062,169453.81044675,0.02449904507869093,-1.685685262885912,-0.2453849529131399,0.06214376166462898,0.04281721264123917,0.01072605140507221,0.01253795623779297,0.008367240428924561,0.007221221923828125,1,-0.07234610617160797,-0.7418673634529114,0.09944672137498856,0.6591730713844299,-0.963648796081543,0.2429297566413879,0.111202284693718,0,0,0,-1,169452.3568895417,3,2,1561841636.303388,1561841239.621676,31,1.858098,0,0,29.67847,0,0,1561841636.303662,169450.891907,0,0.4863281,75.18838,0,182478453,3,1,1,-37.46157,-44.73647,1
1561841637.537953,23,0,0,1561841636.994522,4.634673949335362,-74.15106346837631,2555.74,0.36,169.1015625,4,30,-9999,1561841637.521611,-14.81877899169922,-18.01544952392578,19.60479736328125,133.1358947753906,140.6291046142578,15,169453.83577675,-0.96441650390625,0.24810791015625,0.1275634765625,169453.83577675,0.08212523011531851,-0.02714054098510653,-0.0225756165606017,169453.81917475,-89.06703186035156,-44.47979736328125,-543.1988525390625,169453.83071075,0.02596198042614955,-1.685123327521711,-0.2453593427243903,0.08012781292200089,-0.02072448097169399,-0.02520904690027237,0.002032339572906494,0.006911963224411011,0.01606273651123047,1,-0.07182303816080093,-0.7417359352111816,0.09989919513463974,0.6593098640441895,-0.963717520236969,0.2429049164056778,0.1106614917516708,0,0,0,-1,169452.3568895417,3,2,1561841636.303388,1561841239.621676,31,1.858098,0,0,29.67847,0,0,1561841636.303662,169450.891907,0,0.4863281,75.18838,0,182478453,3,1,1,-37.46157,-45.18039,1
1561841637.557719,24,0,0,1561841636.994522,4.634673949335362,-74.15106346837631,2555.74,0.36,169.1015625,4,30,-9999,1561841637.545881,-14.75080871582031,-17.95773696899414,19.61651611328125,133.0179901123047,140.5111999511719,15,169453.85603975,-0.9666290283203125,0.24932861328125,0.1230926513671875,169453.85603975,0.04919444428816171,-0.01652997457001282,0.005455219176918311,169453.83928575,-89.1112060546875,-44.38189697265625,-543.1256103515625,169453.85097375,0.02758493695155264,-1.685515428835214,-0.2451501354140018,0.06402314454317093,-0.03766990825533867,-0.006244942545890808,-0.002187430858612061,0.005497485399246216,0.01429057121276855,1,-0.07113221287727356,-0.7419317960739136,0.1003707721829414,0.6590926647186279,-0.9637244343757629,0.2427019774913788,0.11104516685009,0,0,0,-1,169452.3568895417,3,2,1561841636.303388,1561841239.621676,31,1.858098,0,0,29.67847,0,0,1561841636.303662,169450.891907,0,0.4863281,75.18838,0,182478453,3,1,1,-37.46157,-45.76254,1
1561841637.577964,25,0,0,1561841636.994522,4.634673949335362,-74.15106346837631,2555.74,0.36,169.1015625,4,30,-9999,1561841637.57228,-14.59669494628906,-17.7400016784668,19.6328125,132.9588165283203,140.4520263671875,15,169453.87630375,-0.9620819091796875,0.250518798828125,0.1195526123046875,169453.87630375,-0.02677968265740079,0.04352404169516499,0.03358166239757217,169453.85936675,-89.01670837402344,-44.28999328613281,-543.3074951171875,169453.87123775,0.0281459297322978,-1.685522144124188,-0.2454253480712022,-0.01077146176248789,0.02555619738996029,0.02437262237071991,-0.002147793769836426,0.008938401937484741,0.01183509826660156,1,-0.07101480662822723,-0.7419426441192627,0.1006576642394066,0.6590493321418762,-0.9636572599411011,0.2429689466953278,0.1110439822077751,0,0,0,-1,169452.3568895417,3,2,1561841636.303388,1561841239.621676,31,1.858098,0,0,29.67847,0,0,1561841636.303662,169450.891907,0,0.4863281,75.18838,0,182478453,3,1,1,-37.46157,-39.53998,1
1561841637.598209,26,0,0,1561841636.994522,4.634673949335362,-74.15106346837631,2555.74,0.36,169.1015625,4,30,-9999,1561841637.596538,-14.72379302978516,-17.88505554199219,19.794921875,133.0241088867188,140.5173187255859,15,169453.89656775,-0.949371337890625,0.2465667724609375,0.116241455078125,169453.89656775,-0.0582151035324781,0.04409635501342302,0.04769721512331915,169453.87947775,-88.9295654296875,-44.38638305664062,-543.2586059570312,169453.89147075,0.027272073311931,-1.684914171631026,-0.246089286775768,-0.05526755750179291,0.04556559398770332,0.04285309463739395,0.008882641792297363,0.003686249256134033,0.006061196327209473,1,-0.07158917933702469,-0.7416837811470032,0.1005934923887253,0.6592882871627808,-0.9635640382766724,0.2436129450798035,0.1104396805167198,0,0,0,-1,169452.3568895417,3,2,1561841636.303388,1561841239.621676,31,1.858098,0,0,29.67847,0,0,1561841636.303662,169450.891907,0,0.4863281,75.18838,0,182478453,3,1,1,-37.46157,-40.25581,1
1561841637.618462,27,0,0,1561841636.994522,4.634673949335362,-74.15106346837631,2555.74,0.36,169.1015625,4,30,-9999,1561841637.596538,-14.72379302978516,-17.88505554199219,19.794921875,133.0241088867188,140.5173187255859,15,169453.91680075,-0.9568328857421875,0.2466278076171875,0.122406005859375,169453.91680075,-0.03778919060378836,0.003867708851122078,0.03526611178704729,169453.89955775,-88.9288330078125,-44.5284423828125,-543.202392578125,169453.91173475,0.02594534030030918,-1.684725716792113,-0.2468550774907068,-0.05110503360629082,0.006997427437454462,0.03834862634539604,0.01375329494476318,0.002989381551742554,0.007957696914672852,1,-0.07234400510787964,-0.7415421605110168,0.1004324480891228,0.6593897938728333,-0.9633992910385132,0.2443555891513824,0.1102368608117104,0,0,0,-1,169452.3568895417,3,2,1561841636.303388,1561841239.621676,31,1.858098,0,0,29.67847,0,0,1561841636.303662,169450.891907,0,0.4863281,75.18838,0,182478453,3,1,1,-37.46157,-40.81255,1
1561841637.639046,28,0,0,1561841636.994522,4.634673949335362,-74.15106346837631,2555.74,0.36,169.1015625,4,30,-9999,1561841637.626035,-14.72715759277344,-17.82960510253906,19.55743408203125,133.1082916259766,140.6015014648438,15,169453.93706375,-0.9622344970703125,0.2381744384765625,0.1197662353515625,169453.93706375,0.01135438730755283,-0.009801498075927628,-0.001837581152154674,169453.91966875,-89.23588562011719,-44.06423950195312,-543.1400146484375,169453.93199875,0.02531630794121643,-1.68509809479002,-0.247277585268574,-0.003454692661762238,-0.01624264754354954,0.004776283167302608,0.001433014869689941,-0.002257317304611206,0.01096773147583008,1,-0.07269833236932755,-0.7416244745254517,0.1003948003053665,0.6592639684677124,-0.9632555246353149,0.2447652667760849,0.1105838194489479,0,0,0,-1,169452.3568895417,3,2,1561841636.303388,1561841239.621676,31,1.858098,0,0,29.67847,0,0,1561841636.303662,169450.891907,0,0.4863281,75.18838,0,182478453,3,1,1,-37.46157,-41.40436,1
1561841637.659411,29,0,0,1561841636.994522,4.634673949335362,-74.15106346837631,2555.74,0.36,169.1015625,4,30,-9999,1561841637.64714,-14.79224395751953,-17.72546768188477,19.62921142578125,133.1094055175781,140.6026153564453,15,169453.95732775,-0.9673614501953125,0.2347564697265625,0.1172943115234375,169453.95732775,0.03512789372647217,0.007029413697264149,-0.01658829779788556,169453.93974975,-89.23539733886719,-44.19073486328125,-543.013671875,169453.95226175,0.02565101517599716,-1.685320059734183,-0.2470785111018527,0.02767233550548553,-0.005731683690100908,-0.02393312379717827,-0.003364801406860352,-0.007710069417953491,0.007879734039306641,1,-0.07249721884727478,-0.7417181134223938,0.1004395484924316,0.6591740846633911,-0.9632795453071594,0.2445722371339798,0.1108032166957855,0,0,0,-1,169452.3568895417,3,2,1561841636.303388,1561841239.621676,31,1.858098,0,0,29.67847,0,0,1561841636.303662,169450.891907,0,0.4863281,75.18838,0,182478453,3,1,1,-37.46157,-41.40436,1
1561841637.679243,30,0,0,1561841636.994522,4.634673949335362,-74.15106346837631,2555.74,0.36,169.1015625,4,30,-9999,1561841637.674008,-14.87548065185547,-17.8109245300293,19.78857421875,133.0599365234375,140.5531463623047,15,169453.97760125,-0.9615325927734375,0.23724365234375,0.1132049560546875,169453.97760125,0.03119280689977109,0.02920928451988008,0.02465634432028061,169453.95986075,-89.42266845703125,-44.51986694335938,-543.1727905273438,169453.97253525,0.02636333406053075,-1.685034904689122,-0.2469531558766226,0.03558964654803276,0.02058727107942104,0.007415209896862507,-0.0002205967903137207,-0.01027405261993408,0.004320979118347168,1,-0.07220592349767685,-0.7416551113128662,0.1006176769733429,0.6592496633529663,-0.9633413553237915,0.2444506883621216,0.1105320006608963,0,0,0,-1,169452.3568895417,3,2,1561841636.303388,1561841239.621676,31,1.858098,0,0,29.67847,0,0,1561841636.303662,169450.891907,0,0.4863281,75.18838,0,182478453,3,1,1,-35.60376,-41.65842,1
1561841637.699475,31,0,0,1561841636.994522,4.634673949335362,-74.15106346837631,2555.74,0.36,169.1015625,4,30,-9999,1561841637.697833,-14.69108581542969,-17.76320648193359,19.51116943359375,133.0360870361328,140.529296875,15,169453.99786425,-0.96002197265625,0.2446441650390625,0.110687255859375,169453.99786425,0.004600078150893868,0.02930009831305178,0.04033916734753923,169453.97995125,-89.22819519042969,-44.26377868652344,-543.3291015625,169453.99279925,0.0267462676716712,-1.684481605274637,-0.2476058246639932,0.008523939177393913,0.02588536404073238,0.03978034108877182,0.002183914184570312,-0.003170669078826904,0.00165247917175293,1,-0.0723077803850174,-0.7414593696594238,0.1009652242064476,0.6594054102897644,-0.9632434844970703,0.2450835108757019,0.1099808216094971,0,0,0,-1,169452.3568895417,3,2,1561841636.303388,1561841239.621676,31,1.858098,0,0,29.67847,0,0,1561841636.303662,169450.891907,0,0.4863281,75.18838,0,182478453,3,1,1,-35.60376,-41.65112,1
1561841637.721243,32,0,0,1561841636.994522,4.634673949335362,-74.15106346837631,2555.74,0.36,169.1015625,4,30,-9999,1561841637.697833,-14.69108581542969,-17.76320648193359,19.51116943359375,133.0360870361328,140.529296875,15,169454.01812825,-0.9662017822265625,0.239837646484375,0.1146087646484375,169454.01812825,-0.004447479020432328,0.01859312546649721,0.00538997173021137,169454.00006225,-89.47456359863281,-44.54069519042969,-543.1200561523438,169454.01306225,0.02666121844697739,-1.68412523399407,-0.2481674672800777,-0.004179072566330433,0.01804688200354576,0.01034069247543812,0.001246988773345947,-0.001487359404563904,0.002301335334777832,1,-0.0725431963801384,-0.7413153648376465,0.1011318489909172,0.6595159769058228,-0.9631457924842834,0.2456279844045639,0.1096219718456268,0,0,0,-1,169452.3568895417,3,2,1561841636.303388,1561841239.621676,31,1.858098,0,0,29.67847,0,0,1561841636.303662,169450.891907,0,0.4863281,75.18838,0,182478453,3,1,1,-35.60376,-42.24464,1
1561841637.747927,33,0,0,1561841636.994522,4.634673949335362,-74.15106346837631,2555.74,0.36,169.1015625,4,30,-9999,1561841637.723941,-14.79616546630859,-17.92401885986328,19.47894287109375,133.0442504882812,140.5374603271484,15,169454.03839225,-0.96624755859375,0.2322845458984375,0.1172332763671875,169454.03839225,0.003061303673046084,0.0001752359997272139,-0.0133799876326671,169454.02014225,-89.12142944335938,-44.52212524414062,-543.0230102539062,169454.03332625,0.0265748662457264,-1.684045981473715,-0.2480162750178553,-0.002212327904999256,-0.001774226315319538,-0.01560275815427303,-0.003086507320404053,-0.009504228830337524,0.005943894386291504,1,-0.07252916693687439,-0.741292417049408,0.1010446101427078,0.6595568060874939,-0.9631915688514709,0.2454814165830612,0.1095498576760292,0,0,0,-1,169452.3568895417,3,2,1561841636.303388,1561841239.621676,31,1.858098,0,0,29.67847,0,0,1561841636.303662,169450.891907,0,0.4863281,75.18838,0,182478453,3,1,1,-35.60376,-42.76805,1
1561841637.760281,34,0,0,1561841636.994522,4.634673949335362,-74.15106346837631,2555.74,0.36,169.1015625,4,30,-9999,1561841637.74853,-14.90252685546875,-17.91658782958984,19.65142822265625,133.0451049804688,140.5383148193359,15,169454.05865525,-0.964508056640625,0.2291107177734375,0.1163330078125,169454.05865525,0.01112881756322312,-0.01131177673011156,-0.02589764370436654,169454.04025325,-88.9483642578125,-44.53497314453125,-543.1976928710938,169454.05355925,0.02661931854931762,-1.684255212102091,-0.247609645498214,0.004796046763658524,-0.01544076949357986,-0.02371980622410774,-0.00243067741394043,-0.01657158136367798,0.007516384124755859,1,-0.07236753404140472,-0.741379976272583,0.1009165793657303,0.6594956517219543,-0.9632675647735596,0.245087206363678,0.1097626611590385,0,0,0,-1,169452.3568895417,3,2,1561841636.303388,1561841239.621676,31,1.858098,0,0,29.67847,0,0,1561841636.303662,169450.891907,0,0.4863281,75.18838,0,182478453,3,1,1,-35.60376,-41.15191,1
1561841637.781051,35,0,0,1561841636.994522,4.634673949335362,-74.15106346837631,2555.74,0.36,169.1015625,4,30,-9999,1561841637.774814,-14.80809783935547,-17.75198745727539,19.69427490234375,133.0267791748047,140.5199890136719,15,169454.07891925,-0.9600067138671875,0.2342376708984375,0.11553955078125,169454.07891925,0.01771588020342511,0.0001936118112487606,-0.009469668204103755,169454.06036425,-89.14530944824219,-44.45240783691406,-542.8617553710938,169454.07382325,0.02691164332450938,-1.684507622640052,-0.2470541120997135,0.01688919588923454,-0.009738676249980927,-0.02373818308115005,0.002483189105987549,-0.01420190930366516,0.006830573081970215,1,-0.07206257432699203,-0.7414968609809875,0.1008167490363121,0.6594128608703613,-0.9633749127388,0.2445485889911652,0.1100212186574936,0,0,0,-1,169452.3568895417,3,2,1561841636.303388,1561841239.621676,31,1.858098,0,0,29.67847,0,0,1561841636.303662,169450.891907,0,0.4863281,75.18838,0,182478453,3,1,1,-35.60376,-41.4866,1
1561841637.80076,36,0,0,1561841636.994522,4.634673949335362,-74.15106346837631,2555.74,0.36,169.1015625,4,30,-9999,1561841637.799077,-14.66727447509766,-17.83768081665039,19.66021728515625,133.0087585449219,140.5019683837891,15,169454.09915225,-0.9560699462890625,0.2384796142578125,0.108734130859375,169454.09915225,0.009930927704905479,0.01333311599748171,0.04086567429504789,169454.08044525,-89.13197326660156,-44.4193115234375,-543.2195434570312,169454.09408625,0.02716707441615151,-1.684518581209792,-0.2471001397809869,0.008899444714188576,0.003112674225121737,0.02735642716288567,0.003645837306976318,-0.007898867130279541,0.001648545265197754,1,-0.07198255509138107,-0.7415077686309814,0.100918360054493,0.6593939065933228,-0.9633626937866211,0.2445932179689407,0.1100305169820786,0,0,0,-1,169452.3568895417,3,2,1561841636.303388,1561841239.621676,31,1.858098,0,0,29.67847,0,0,1561841636.303662,169450.891907,0,0.4863281,75.18838,0,182478453,3,1,1,-35.60376,-42.13864,1
1561841637.829525,37,0,0,1561841636.994522,4.634673949335362,-74.15106346837631,2555.74,0.36,169.1015625,4,30,-9999,1561841637.825835,-14.78497314453125,-17.76466369628906,19.62060546875,133.0093078613281,140.5025177001953,15,169454.11941625,-0.9605255126953125,0.2392578125,0.10614013671875,169454.11941625,0.00477558046673009,0.02597460905986983,0.06362771213195514,169454.10055625,-89.2607421875,-44.39201354980469,-543.1959838867188,169454.11435025,0.02719742460009917,-1.684285979967076,-0.2479915634327777,0.004992854781448841,0.0178063977509737,0.05729834735393524,0.007711470127105713,-0.005787670612335205,-0.002130866050720215,1,-0.07227808237075806,-0.741395115852356,0.1012494713068008,0.659437358379364,-0.9631710648536682,0.2454574555158615,0.1097816750407219,0,0,0,-1,169452.3568895417,3,2,1561841636.303388,1561841239.621676,31,1.858098,0,0,29.67847,0,0,1561841636.303662,169450.891907,0,0.4863281,75.18838,0,182478453,3,1,1,-35.60376,-42.56393,1
1561841637.841441,38,0,0,1561841636.994522,4.634673949335362,-74.15106346837631,2555.74,0.36,169.1015625,4,30,-9999,1561841637.825835,-14.78497314453125,-17.76466369628906,19.62060546875,133.0093078613281,140.5025177001953,15,169454.13968025,-0.964202880859375,0.238037109375,0.1066436767578125,169454.13968025,0.03597451263700836,0.01765808960777039,0.02708035354447073,169454.12063725,-89.26496887207031,-44.03125,-543.1112060546875,169454.13461425,0.02726868195457087,-1.683849867304774,-0.2490211392705175,0.02574899978935719,0.02053960040211678,0.03784449025988579,-0.001372873783111572,-0.008631914854049683,-0.003803253173828125,1,-0.07261458784341812,-0.7412109375,0.1016376167535782,0.6595478057861328,-0.9629673361778259,0.2464554160833359,0.1093330681324005,0,0,0,-1,169452.3568895417,3,2,1561841636.303388,1561841239.621676,31,1.858098,0,0,29.67847,0,0,1561841636.303662,169450.891907,0,0.4863281,75.18838,0,182478453,3,1,1,-35.60376,-42.56393,1
1561841637.861527,39,0,0,1561841636.994522,4.634673949335362,-74.15106346837631,2555.74,0.36,169.1015625,4,30,-9999,1561841637.849768,-14.92961883544922,-17.57537841796875,19.74664306640625,132.9730377197266,140.4662475585938,15,169454.15994325,-0.9734649658203125,0.23565673828125,0.1146697998046875,169454.15994325,0.05619722637452506,-0.01077408450602457,-0.02219824663413747,169454.14074825,-89.149169921875,-44.38955688476562,-543.1754760742188,169454.15487725,0.02812486680910373,-1.683596763803964,-0.2492241835636901,0.05482112988829613,-0.0113650681450963,-0.01834368333220482,-0.005072414875030518,-0.008904993534088135,0.001527309417724609,1,-0.07237739861011505,-0.7411500215530396,0.1019858196377754,0.6595885157585144,-0.9629451632499695,0.2466521859169006,0.1090836822986603,0,0,0,-1,169452.3568895417,3,2,1561841636.303388,1561841239.621676,31,1.858098,0,0,29.67847,0,0,1561841636.303662,169450.891907,0,0.4863281,75.18838,0,182478453,3,1,1,-35.60376,-42.37246,1
1561841637.881818,40,0,0,1561841636.994522,4.634673949335362,-74.15106346837631,2555.74,0.36,169.1015625,4,30,-9999,1561841637.876092,-14.99791717529297,-17.70160675048828,19.849609375,132.8885192871094,140.3817291259766,15,169454.18020725,-0.9688568115234375,0.2362060546875,0.118804931640625,169454.18020725,0.03726934155900489,-0.0187172287732949,-0.03473720799455755,169454.16085925,-89.40681457519531,-44.51197814941406,-543.1021728515625,169454.17514125,0.02929631415223218,-1.683650363607276,-0.2486629972596279,0.04725189507007599,-0.01842484250664711,-0.04088600724935532,-0.01182252168655396,-0.009276628494262695,0.007929801940917969,1,-0.07175471633672714,-0.741233229637146,0.1021667569875717,0.6595351099967957,-0.9630767703056335,0.2461082935333252,0.1091508790850639,0,0,0,-1,169452.3568895417,3,2,1561841636.303388,1561841239.621676,31,1.858098,0,0,29.67847,0,0,1561841636.303662,169450.891907,0,0.4863281,75.18838,0,182478453,3,1,1,-35.60376,-42.65701,1
1561841637.909713,41,0,0,1561841636.994522,4.634673949335362,-74.15106346837631,2555.74,0.36,169.1015625,4,30,-9999,1561841637.900932,-14.86510467529297,-17.73326110839844,19.85491943359375,132.8497009277344,140.3429107666016,15,169454.20047125,-0.956878662109375,0.2368927001953125,0.1144561767578125,169454.20047125,-0.002245577431154814,-0.01246918653986,0.0002844256044204626,169454.18093925,-89.26303100585938,-44.13693237304688,-543.00439453125,169454.19540525,0.02988569781104566,-1.684029432334904,-0.2480707168901393,0.004816818982362747,-0.02505158632993698,-0.01703953370451927,6.031990051269531e-05,-0.01045727729797363,0.007182121276855469,1,-0.0713207870721817,-0.7414037585258484,0.1021558567881584,0.6593920588493347,-0.9631798267364502,0.2455341964960098,0.1095323786139488,0,0,0,-1,169452.3568895417,3,2,1561841636.303388,1561841239.621676,31,1.858098,0,0,29.67847,0,0,1561841636.303662,169450.891907,0,0.4863281,75.18838,0,182478453,3,1,1,-35.60376,-43.4504,1
1561841637.922553,42,0,0,1561841636.994522,4.634673949335362,-74.15106346837631,2555.74,0.36,169.1015625,4,30,-9999,1561841637.900932,-14.86510467529297,-17.73326110839844,19.85491943359375,132.8497009277344,140.3429107666016,15,169454.22073425,-0.954437255859375,0.244171142578125,0.1085052490234375,169454.22073425,-0.02006958197483714,0.02949078064710145,0.04151388770437318,169454.20105025,-89.60687255859375,-44.27821350097656,-542.9976806640625,169454.21563825,0.02967070014505528,-1.684271530629453,-0.2481652135324639,-0.01882938668131828,0.0101772416383028,0.02856363728642464,0.00803685188293457,-0.004582703113555908,0.003213167190551758,1,-0.07141941040754318,-0.7414720058441162,0.1021285280585289,0.659308910369873,-0.9631302952766418,0.2456257939338684,0.1097629368305206,0,0,0,-1,169452.3568895417,3,2,1561841636.303388,1561841239.621676,31,1.858098,0,0,29.67847,0,0,1561841636.303662,169450.891907,0,0.4863281,75.18838,0,182478453,3,1,1,-35.60376,-43.9942,1
1561841637.942674,43,0,0,1561841636.994522,4.634673949335362,-74.15106346837631,2555.74,0.36,169.1015625,4,30,-9999,1561841637.926626,-14.98634338378906,-17.75468063354492,19.89312744140625,132.8758239746094,140.3690338134766,15,169454.24099825,-0.9589080810546875,0.2549896240234375,0.109893798828125,169454.24099825,-0.01768019384481805,0.06236297693027652,0.04135436435507744,169454.22116225,-89.34979248046875,-44.33126831054688,-542.9139404296875,169454.23590225,0.02910727119059252,-1.683710817807444,-0.2489025266291992,-0.02227551676332951,0.05409969389438629,0.04251567274332047,0.006834745407104492,0.004391968250274658,-0.001170158386230469,1,-0.07190100103616714,-0.7412364482879639,0.1021950766444206,0.6595111489295959,-0.9630115628242493,0.2463404536247253,0.1092024520039558,0,0,0,-1,169452.3568895417,3,2,1561841636.303388,1561841239.621676,31,1.858098,0,0,29.67847,0,0,1561841636.303662,169450.891907,0,0.4863281,75.18838,0,182478453,3,1,1,-35.60376,-44.87585,1
1561841637.96281,44,0,0,1561841636.994522,4.634673949335362,-74.15106346837631,2555.74,0.36,169.1015625,4,30,-9999,1561841637.951034,-14.96246337890625,-17.66461563110352,19.68292236328125,132.9128265380859,140.4060363769531,15,169454.26123125,-0.959808349609375,0.246551513671875,0.1069488525390625,169454.26123125,-0.006882673521200783,0.04865755101240173,0.01436162881047031,169454.24124225,-89.2119140625,-44.30165100097656,-543.1640625,169454.25616525,0.02865305941605976,-1.682806698637423,-0.2494049119655863,-0.01244632340967655,0.0439772829413414,0.01608246564865112,0.004506170749664307,0.00434759259223938,0.0007977485656738281,1,-0.07228188216686249,-0.740900993347168,0.1021982058882713,0.6598460078239441,-0.962986946105957,0.2468273341655731,0.1083179041743279,0,0,0,-1,169452.3568895417,3,2,1561841636.303388,1561841239.621676,31,1.858098,0,0,29.67847,0,0,1561841636.303662,169451.835765,0,0.4624023,75.18858,0,182478453,3,1,1,-35.60376,-44.87585,1
1561841637.990163,45,0,0,1561841636.994522,4.634673949335362,-74.15106346837631,2555.74,0.36,169.1015625,4,30,-9999,1561841637.977431,-14.94032287597656,-17.79999542236328,19.6854248046875,132.9283905029297,140.4216003417969,15,169454.28149525,-0.958953857421875,0.2445068359375,0.107330322265625,169454.28149525,-0.003424558845732892,0.055522913986517,0.01216132511784684,169454.26135325,-89.1407470703125,-44.58023071289062,-543.2191162109375,169454.27642925,0.02848028811934969,-1.681961154113465,-0.2495317359429466,-0.00428266916424036,0.04691288620233536,0.008335331454873085,0.004352390766143799,-0.002138212323188782,-0.001253247261047363,1,-0.07243108749389648,-0.7406104207038879,0.1021574437618256,0.6601619124412537,-0.9630468487739563,0.2469502240419388,0.1075001135468483,0,0,0,-1,169452.3568895417,3,2,1561841636.303388,1561841239.621676,31,1.858098,0,0,29.67847,0,0,1561841636.303662,169451.835765,0,0.4624023,75.18858,0,182478453,3,1,1,-35.60376,-42.6285,1
1561841638.004619,46,0,0,1561841636.994522,4.634673949335362,-74.15106346837631,2555.74,0.36,169.1015625,4,30,-9999,1561841638.001776,-14.88089752197266,-17.70726776123047,19.828125,132.9472961425781,140.4405059814453,15,169454.30175825,-0.9619293212890625,0.2410125732421875,0.1109619140625,169454.30175825,-0.02565982341902247,0.07810652003038894,0.01482448620792608,169454.28146425,-89.41873168945312,-44.39773559570312,-543.0653686523438,169454.29669325,0.02824505778087102,-1.680944458950705,-0.2496331717110897,-0.01898891106247902,0.06639870256185532,0.007384050637483597,0.002299964427947998,-0.004067569971084595,0.002200722694396973,1,-0.07260370999574661,-0.740261971950531,0.1020803526043892,0.6605455279350281,-0.9631306529045105,0.2470485121011734,0.1065181717276573,0,0,0,-1,169452.3568895417,3,2,1561841636.303388,1561841239.621676,31,1.858098,0,0,29.67847,0,0,1561841636.303662,169451.835765,0,0.4624023,75.18858,0,182478453,3,1,1,-35.60376,-42.6285,1
1561841638.023736,47,0,0,1561841636.994522,4.634673949335362,-74.15106346837631,2555.74,0.36,169.1015625,4,30,-9999,1561841638.001776,-14.88089752197266,-17.70726776123047,19.828125,132.9472961425781,140.4405059814453,15,169454.32202225,-0.9578857421875,0.243682861328125,0.10150146484375,169454.32202225,-0.04547800298695612,0.07387475705825303,0.03217231754870224,169454.30154525,-89.40354919433594,-44.29061889648438,-543.0103759765625,169454.31695625,0.0274590497947632,-1.679741184601915,-0.2499015854628634,-0.04789033159613609,0.07010741531848907,0.02326794341206551,0.0005762577056884766,-0.008096575736999512,0.0005744695663452148,1,-0.07304493337869644,-0.7398245930671692,0.1018758490681648,0.6610183715820312,-0.9631922841072083,0.2473085969686508,0.105351984500885,0,0,0,-1,169452.3568895417,3,2,1561841636.303388,1561841239.621676,31,1.858098,0,0,29.67847,0,0,1561841636.303662,169451.835765,0,0.4624023,75.18858,0,182478453,3,1,1,-35.60376,-43.09368,1
1561841638.043887,48,0,0,1561841636.994522,4.634673949335362,-74.15106346837631,2555.74,0.36,169.1015625,4,30,-9999,1561841638.027917,-14.84869384765625,-17.68992233276367,19.64007568359375,133.0130615234375,140.5062713623047,15,169454.34228625,-0.9608917236328125,0.25506591796875,0.1010589599609375,169454.34228625,-0.02887931886081926,0.07804553364142612,0.06160370970349492,169454.32165625,-89.39157104492188,-44.4305419921875,-543.2071533203125,169454.33722025,0.02647921213502085,-1.678561521298086,-0.2505867444006857,-0.03264027461409569,0.07214660197496414,0.0517086386680603,0.005276799201965332,0.002500608563423157,-0.001185417175292969,1,-0.07369472086429596,-0.7393698692321777,0.10176120698452,0.6614726185798645,-0.9631473422050476,0.2479724138975143,0.1041974276304245,0,0,0,-1,169452.3568895417,3,2,1561841636.303388,1561841239.621676,31,1.858098,0,0,29.67847,0,0,1561841636.303662,169451.835765,0,0.4624023,75.18858,0,182478453,3,1,1,-35.60376,-43.61335,1
1561841638.069105,49,0,0,1561841637.994508,4.634656389248217,-74.15105248808315,2556.001,0.31,160.3125,4,30,-9999,1561841638.053024,-15.01387023925781,-17.76248168945312,19.62750244140625,133.0708618164062,140.5640716552734,15,169454.36254925,-0.9644317626953125,0.2557373046875,0.097869873046875,169454.36254925,-0.009757023285723304,0.09179516803339623,0.04209951682808161,169454.34176725,-89.40473937988281,-44.42515563964844,-543.04345703125,169454.35748425,0.02579069459384934,-1.677192294858884,-0.2516474844627204,-0.01793057098984718,0.083561971783638,0.04791363328695297,0.0008990168571472168,0.007103621959686279,-0.004721283912658691,1,-0.07437111437320709,-0.7388465404510498,0.1018735840916634,0.6619639992713928,-0.9630267024040222,0.2489998936653137,0.1028505489230156,0,0,0,-1,169452.3568895417,3,2,1561841636.303388,1561841239.621676,31,1.858098,0,0,29.67847,0,0,1561841636.303662,169451.835765,0,0.4624023,75.18858,0,182478453,3,1,1,-35.60376,-43.71883,1
1561841638.084469,50,0,0,1561841637.994508,4.634656389248217,-74.15105248808315,2556.001,0.31,160.3125,4,30,-9999,1561841638.078726,-15.07249450683594,-17.67412567138672,19.54339599609375,133.0814514160156,140.5746612548828,15,169454.38281325,-0.9637908935546875,0.2503509521484375,0.1038665771484375,169454.38281325,0.05691920934604554,0.03543708672903038,0.02570376557700877,169454.36184825,-89.31932067871094,-44.33543395996094,-543.16162109375,169454.37774725,0.02577440617923326,-1.675707543749775,-0.2522894590899894,0.03443184494972229,0.04975510388612747,0.02347676642239094,-0.0006799101829528809,0.002682477235794067,-0.0002839565277099609,1,-0.07466616481542587,-0.7383270859718323,0.1020492315292358,0.662483274936676,-0.9630194306373596,0.2496215999126434,0.1014038473367691,0,0,0,-1,169452.3568895417,3,2,1561841636.303388,1561841239.621676,31,1.858098,0,0,29.67847,0,0,1561841636.303662,169451.835765,0,0.4624023,75.18858,0,182478453,3,1,1,-34.84616,-41.51106,1
1561841638.104835,51,0,0,1561841637.994508,4.634656389248217,-74.15105248808315,2556.001,0.31,160.3125,4,30,-9999,1561841638.103228,-14.9007568359375,-17.70977020263672,19.59088134765625,132.96484375,140.4580535888672,15,169454.40307725,-0.96441650390625,0.25,0.1112823486328125,169454.40307725,0.128926291531826,-0.02266536508933737,0.02875122081238645,169454.38195925,-89.54733276367188,-44.0789794921875,-542.9427490234375,169454.39798025,0.02726111377051451,-1.675093678335883,-0.2529000751256089,0.1120874956250191,-0.01562763005495071,0.02714820019900799,-0.001075029373168945,-0.0009910464286804199,0.006792902946472168,1,-0.07435185462236404,-0.7381532192230225,0.1027435958385468,0.6626048684120178,-0.9629294872283936,0.2502128481864929,0.1007967442274094,0,0,0,-1,169452.3568895417,3,2,1561841636.303388,1561841239.621676,31,1.858098,0,0,29.67847,0,0,1561841636.303662,169451.835765,0,0.4624023,75.18858,0,182478453,3,1,1,-34.84616,-36.01186,1
1561841638.125127,52,0,0,1561841637.994508,4.634656389248217,-74.15105248808315,2556.001,0.31,160.3125,4,30,-9999,1561841638.103228,-14.9007568359375,-17.70977020263672,19.59088134765625,132.96484375,140.4580535888672,15,169454.42331025,-0.9646148681640625,0.250701904296875,0.1116180419921875,169454.42331025,0.1406252918844351,-0.0678275171710101,-0.003945473154952392,169454.40207025,-89.57389831542969,-44.21897888183594,-543.1219482421875,169454.41824425,0.0299690610731814,-1.675284119057257,-0.2536048898266632,0.1416784077882767,-0.06915636360645294,0.007164904847741127,-0.002215802669525146,-0.001307159662246704,0.01244163513183594,1,-0.07357689738273621,-0.7382867336273193,0.1039069145917892,0.6623612642288208,-0.9627347588539124,0.2508951723575592,0.100961722433567,0,0,0,-1,169452.3568895417,3,2,1561841636.303388,1561841239.621676,31,1.858098,0,0,29.67847,0,0,1561841636.303662,169451.835765,0,0.4624023,75.18858,0,182478453,3,1,1,-34.84616,-36.01186,1
1561841638.148042,53,0,0,1561841637.994508,4.634656389248217,-74.15105248808315,2556.001,0.31,160.3125,4,30,-9999,1561841638.129207,-15.16148376464844,-17.6059455871582,19.49981689453125,132.7622375488281,140.2554473876953,15,169454.44357425,-0.9694671630859375,0.248809814453125,0.111785888671875,169454.44357425,0.1016075850697932,-0.01834651674955587,-0.02035613810812966,169454.42215025,-89.41847229003906,-44.23063659667969,-543.2694702148438,169454.43850825,0.03274647324128922,-1.675909082265051,-0.253608424634113,0.1142225563526154,-0.04399961605668068,-0.02655470930039883,-0.005362153053283691,-0.001173257827758789,0.01110756397247314,1,-0.07251998037099838,-0.7385949492454529,0.104850597679615,0.661985456943512,-0.9626706838607788,0.2508985996246338,0.1015632897615433,0,0,0,-1,169452.3568895417,3,2,1561841636.303388,1561841239.621676,31,1.858098,0,0,29.67847,0,0,1561841636.303662,169451.835765,0,0.4624023,75.18858,0,182478453,3,1,1,-34.84616,-36.81789,1
1561841638.165478,54,0,0,1561841637.994508,4.634656389248217,-74.15105248808315,2556.001,0.31,160.3125,4,30,-9999,1561841638.153714,-15.01152038574219,-17.63731002807617,19.71044921875,132.6015472412109,140.0947570800781,15,169454.46383725,-0.966033935546875,0.2571258544921875,0.1071319580078125,169454.46383725,0.01191391745257848,0.06327963697748179,0.002621083144855986,169454.44226125,-89.36692810058594,-44.06768798828125,-543.1192016601562,169454.45877125,0.0343572898169521,-1.675566361098255,-0.2534392109669049,0.03084137476980686,0.03953735530376434,-0.005053944420069456,-0.005819141864776611,0.001584529876708984,0.007206439971923828,1,-0.07188685983419418,-0.7385466694831848,0.1053091585636139,0.6620356440544128,-0.9627477526664734,0.2507347762584686,0.1012378036975861,0,0,0,-1,169452.3568895417,3,2,1561841636.303388,1561841239.621676,31,1.858098,0,0,29.67847,0,0,1561841636.303662,169451.835765,0,0.4624023,75.18858,0,182478453,3,1,1,-34.84616,-37.03283,1
1561841638.185749,55,0,0,1561841637.994508,4.634656389248217,-74.15105248808315,2556.001,0.31,160.3125,4,30,-9999,1561841638.180028,-14.80947113037109,-17.62760543823242,19.78118896484375,132.5935516357422,140.0867614746094,15,169454.48410125,-0.9579010009765625,0.25958251953125,0.110076904296875,169454.48410125,-0.04055195391863656,0.05965960210773708,0.01867381924752661,169454.46237225,-89.26789855957031,-44.08992004394531,-543.2931518554688,169454.47903525,0.0341710978471902,-1.674409607354896,-0.2535263867708242,-0.03858963400125504,0.06404642760753632,0.01503055170178413,0.003079831600189209,0.007283240556716919,0.008322358131408691,1,-0.07204549014568329,-0.738153338432312,0.1052379459142685,0.6624681949615479,-0.9628424048423767,0.2508191764354706,0.1001218110322952,0,0,0,-1,169452.3568895417,3,2,1561841636.303388,1561841239.621676,31,1.858098,0,0,29.67847,0,0,1561841636.303662,169451.835765,0,0.4624023,75.18858,0,182478453,3,1,1,-34.84616,-37.36465,1
1561841638.206045,56,0,0,1561841637.994508,4.634656389248217,-74.15105248808315,2556.001,0.31,160.3125,4,30,-9999,1561841638.205063,-14.96273803710938,-17.52036285400391,19.50543212890625,132.6538696289062,140.1470794677734,15,169454.50436525,-0.95928955078125,0.2581787109375,0.10809326171875,169454.50436525,-0.02226189618419037,0.005895173388999401,0.005220861000991338,169454.48245325,-89.57328796386719,-44.1141357421875,-543.38427734375,169454.49929925,0.03328431132848425,-1.673872945453669,-0.2537276534287135,-0.03348515182733536,0.01171344704926014,0.01115245558321476,0.004914283752441406,0.008049726486206055,0.01003456115722656,1,-0.07246793806552887,-0.7379351854324341,0.1049987524747849,0.6627030968666077,-0.9628458023071289,0.2510139942169189,0.09959988296031952,0,0,0,-1,169452.3568895417,3,2,1561841636.303388,1561841239.621676,31,1.858098,0,0,29.67847,0,0,1561841636.303662,169451.835765,0,0.4624023,75.18858,0,182478453,3,1,1,-34.84616,-38.1536,1
1561841638.229251,57,0,0,1561841637.994508,4.634656389248217,-74.15105248808315,2556.001,0.31,160.3125,4,30,-9999,1561841638.205063,-14.96273803710938,-17.52036285400391,19.50543212890625,132.6538696289062,140.1470794677734,15,169454.52462825,-0.96588134765625,0.2552337646484375,0.1081390380859375,169454.52462825,-0.00172785891524341,0.004348675743990388,-0.03213529960955014,169454.50256425,-89.49740600585938,-44.05232238769531,-543.22021484375,169454.51956225,0.03289104305532187,-1.674021965082237,-0.253523810089881,-0.008400304242968559,-0.004634900018572807,-0.02678613737225533,-0.0009548664093017578,0.006568580865859985,0.009580612182617188,1,-0.0725373700261116,-0.7379787564277649,0.1047989204525948,0.662678599357605,-0.9628818035125732,0.25081667304039,0.09974862635135651,0,0,0,-1,169452.3568895417,3,2,1561841636.303388,1561841239.621676,31,1.858098,0,0,29.67847,0,0,1561841636.303662,169451.835765,0,0.4624023,75.18858,0,182478453,3,1,1,-34.84616,-38.71851,1
1561841638.246565,58,0,0,1561841637.994508,4.634656389248217,-74.15105248808315,2556.001,0.31,160.3125,4,30,-9999,1561841638.2312,-14.90799713134766,-17.4803581237793,19.57708740234375,132.6688842773438,140.1620941162109,15,169454.54489225,-0.9616241455078125,0.25823974609375,0.1053619384765625,169454.54489225,0.01638509860671251,0.01256958771295599,-0.04457918611905438,169454.52267525,-89.21791076660156,-44.21705627441406,-543.2145385742188,169454.53982625,0.0329863114455564,-1.674002778953803,-0.252685913190365,0.008602380752563477,0.007386608980596066,-0.04978439956903458,-0.0008206367492675781,0.006372690200805664,0.005228638648986816,1,-0.07222428917884827,-0.7380105257034302,0.104521781206131,0.6627211570739746,-0.9630923271179199,0.2500054836273193,0.09975177049636841,0,0,0,-1,169452.3568895417,3,2,1561841636.303388,1561841239.621676,31,1.858098,0,0,29.67847,0,0,1561841636.303662,169451.835765,0,0.4624023,75.18858,0,182478453,3,1,1,-34.84616,-38.63063,1
1561841638.266742,59,0,0,1561841637.994508,4.634656389248217,-74.15105248808315,2556.001,0.31,160.3125,4,30,-9999,1561841638.255173,-14.97028350830078,-17.60854721069336,19.60491943359375,132.6470489501953,140.1402587890625,15,169454.56515625,-0.9532318115234375,0.2595367431640625,0.1066131591796875,169454.56515625,0.02310585193363648,0.009700830586722633,-0.01946131598186304,169454.54275625,-89.28038024902344,-44.31044006347656,-543.0836791992188,169454.56005925,0.03339735371506491,-1.673817775464074,-0.2519013805851862,0.02178210020065308,0.003578554838895798,-0.02928471565246582,0.00651848316192627,0.008444651961326599,0.004944324493408203,1,-0.07182107865810394,-0.7379963397979736,0.1043629348278046,0.6628057956695557,-0.9633055925369263,0.2492457777261734,0.09959372878074646,0,0,0,-1,169452.3568895417,3,2,1561841636.303388,1561841239.621676,31,1.858098,0,0,29.67847,0,0,1561841636.303662,169451.835765,0,0.4624023,75.18858,0,182478453,3,1,1,-34.84616,-39.54844,1
1561841638.287947,60,0,0,1561841637.994508,4.634656389248217,-74.15105248808315,2556.001,0.31,160.3125,4,30,-9999,1561841638.281317,-14.79955291748047,-17.81679916381836,19.47381591796875,132.6151123046875,140.1083221435547,15,169454.58538925,-0.949493408203125,0.258697509765625,0.1053314208984375,169454.58538925,0.01068380334507088,0.003042927861524537,-0.001149420326478199,169454.56286725,-89.25758361816406,-44.26165771484375,-543.3551635742188,169454.58032325,0.03382470315323206,-1.673711019880806,-0.2516492942383567,0.01500062644481659,-0.001053747721016407,-0.004946885164827108,0.0123288631439209,0.01228985190391541,0.006963253021240234,1,-0.07158502191305161,-0.7379866242408752,0.1044080704450607,0.6628350615501404,-0.9633787274360657,0.2490016371011734,0.09949734807014465,0,0,0,-1,169452.3568895417,3,2,1561841636.303388,1561841239.621676,31,1.858098,0,0,29.67847,0,0,1561841636.303662,169451.835765,0,0.4624023,75.18858,0,182478453,3,1,1,-34.84616,-39.88938,1
1561841638.30977,61,0,0,1561841637.994508,4.634656389248217,-74.15105248808315,2556.001,0.31,160.3125,4,30,-9999,1561841638.305743,-14.96163177490234,-17.66436386108398,19.63519287109375,132.6076507568359,140.1008605957031,15,169454.60565325,-0.95684814453125,0.2589111328125,0.1091156005859375,169454.60565325,-0.001287372070944304,0.004682636144686324,-0.004918858533376353,169454.58297825,-89.77384948730469,-44.28547668457031,-543.2088012695312,169454.60058725,0.03394253965838544,-1.673761425932316,-0.2515824160956957,-0.001597791910171509,-0.002223674207925797,-0.008663859218358994,0.01153182983398438,0.009806409478187561,0.007813215255737305,1,-0.07151664048433304,-0.7380102872848511,0.1044243350625038,0.6628136038780212,-0.9633903503417969,0.2489368766546249,0.0995476245880127,0,0,0,-1,169452.3568895417,3,2,1561841636.303388,1561841239.621676,31,1.858098,0,0,29.67847,0,0,1561841636.303662,169451.835765,0,0.4624023,75.18858,0,182478453,3,1,1,-34.84616,-39.88938,1
1561841638.327566,62,0,0,1561841637.994508,4.634656389248217,-74.15105248808315,2556.001,0.31,160.3125,4,30,-9999,1561841638.305743,-14.96163177490234,-17.66436386108398,19.63519287109375,132.6076507568359,140.1008605957031,15,169454.62591625,-0.95550537109375,0.2576446533203125,0.1065673828125,169454.62591625,-0.011561581240361,0.008802546351038906,-0.002940396159556487,169454.60305925,-89.21070861816406,-44.04924011230469,-542.9359741210938,169454.62085025,0.03383662520080457,-1.673839416069437,-0.2514309132078869,-0.01110341213643551,0.002838462591171265,-0.007395661436021328,0.005885064601898193,0.009037628769874573,0.008741378784179688,1,-0.07150120288133621,-0.7380385398864746,0.1043363511562347,0.6627975106239319,-0.9634198546409607,0.2487901300191879,0.09962661564350128,0,0,0,-1,169452.3568895417,3,2,1561841636.303388,1561841239.621676,31,1.858098,0,0,29.67847,0,0,1561841636.303662,169451.835765,0,0.4624023,75.18858,0,182478453,3,1,1,-34.84616,-40.81851,1
1561841638.347795,63,0,0,1561841637.994508,4.634656389248217,-74.15105248808315,2556.001,0.31,160.3125,4,30,-9999,1561841638.332608,-14.93032073974609,-17.60436630249023,19.5428466796875,132.6189117431641,140.1121215820312,15,169454.64618025,-0.9512939453125,0.2534332275390625,0.1045989990234375,169454.64618025,-0.003323891356527897,-0.003513242110032531,0.004198207142400911,169454.62317025,-89.22554016113281,-44.25325012207031,-543.082763671875,169454.64111425,0.0335768640375041,-1.673891882775284,-0.2513623336476281,-0.008954774588346481,-0.0006087333895266056,-0.0008605308830738068,0.008445143699645996,0.007547646760940552,0.006384849548339844,1,-0.07157149165868759,-0.7380494475364685,0.1042269244790077,0.6627950668334961,-0.963431715965271,0.2487237155437469,0.09967893362045288,0,0,0,-1,169452.3568895417,3,2,1561841636.303388,1561841239.621676,31,1.858098,0,0,29.67847,0,0,1561841636.303662,169451.835765,0,0.4624023,75.18858,0,182478453,3,1,1,-34.84616,-41.44012,1
1561841638.368081,64,0,0,1561841637.994508,4.634656389248217,-74.15105248808315,2556.001,0.31,160.3125,4,30,-9999,1561841638.356277,-15.12857055664062,-17.69661712646484,19.79034423828125,132.6279754638672,140.1211853027344,15,169454.66644425,-0.9490966796875,0.2575531005859375,0.108917236328125,169454.66644425,0.01451822268256697,-0.02359294409701197,0.002316151200041913,169454.64328125,-89.4019775390625,-44.2557373046875,-543.3742065429688,169454.66137825,0.03360644201505274,-1.67423139915616,-0.251413676017366,0.01278727315366268,-0.02867445722222328,-0.00268586166203022,0.01598221063613892,0.005117550492286682,0.005387783050537109,1,-0.07155997306108475,-0.7381609082221985,0.1042677462100983,0.6626657843589783,-0.9633851647377014,0.2487734407186508,0.1000047102570534,0,0,0,-1,169452.3568895417,3,2,1561841636.303388,1561841239.621676,31,1.858098,0,0,29.67847,0,0,1561841636.303662,169451.835765,0,0.4624023,75.18858,0,182478453,3,1,1,-34.84616,-40.86299,1
1561841638.389427,65,0,0,1561841637.994508,4.634656389248217,-74.15105248808315,2556.001,0.31,160.3125,4,30,-9999,1561841638.383451,-14.95862579345703,-17.69132232666016,19.6282958984375,132.6181335449219,140.1113433837891,15,169454.68670725,-0.959381103515625,0.262420654296875,0.1060791015625,169454.68670725,-0.02320039415233429,-0.01411129166800286,0.0008250473057065479,169454.66336125,-89.35432434082031,-44.25714111328125,-543.10888671875,169454.68164125,0.03368914604718573,-1.674824103866677,-0.2514220492465897,-0.01473915949463844,-0.02633540146052837,-0.003047518897801638,0.008184373378753662,0.01244892179965973,0.01006603240966797,1,-0.07150132209062576,-0.7383598685264587,0.1043194308876991,0.6624422073364258,-0.9633235335350037,0.2487815469503403,0.1005754694342613,0,0,0,-1,169452.3568895417,3,2,1561841636.303388,1561841239.621676,31,1.858098,0,0,29.67847,0,0,1561841636.303662,169451.835765,0,0.4624023,75.18858,0,182478453,3,1,1,-34.84616,-41.51117,1
1561841638.408607,66,0,0,1561841637.994508,4.634656389248217,-74.15105248808315,2556.001,0.31,160.3125,4,30,-9999,1561841638.406924,-15.04039764404297,-17.72361755371094,19.55401611328125,132.6689605712891,140.1621704101562,15,169454.70697125,-0.9553375244140625,0.25848388671875,0.0996551513671875,169454.70697125,-0.0483843106845596,0.001219461463147283,0.02378096326997156,169454.68347225,-89.292724609375,-44.3050537109375,-543.01513671875,169454.70190525,0.03300738577802474,-1.675322765432791,-0.2514295463614424,-0.04373406246304512,-0.006438126787543297,0.01098707318305969,0.004500627517700195,0.01103784143924713,0.003467082977294922,1,-0.07172954827547073,-0.7385002970695496,0.104114256799221,0.6622932553291321,-0.9632713794708252,0.2487888038158417,0.1010556370019913,0,0,0,-1,169452.3568895417,3,2,1561841636.303388,1561841239.621676,31,1.858098,0,0,29.67847,0,0,1561841636.303662,169451.835765,0,0.4624023,75.18858,0,182478453,3,1,1,-34.84616,-41.86049,1
1561841638.428872,67,0,0,1561841637.994508,4.634656389248217,-74.15105248808315,2556.001,0.31,160.3125,4,30,-9999,1561841638.406924,-15.04039764404297,-17.72361755371094,19.55401611328125,132.6689605712891,140.1621704101562,15,169454.72723525,-0.95928955078125,0.254425048828125,0.096038818359375,169454.72723525,-0.04294427152585474,0.009742109583618862,0.04803277342066914,169454.70355325,-89.48776245117188,-44.20207214355469,-543.06640625,169454.72213825,0.03192998818782953,-1.675702925905063,-0.2519600661816483,-0.04837115854024887,0.0002935454249382019,0.04345633462071419,0.005383610725402832,0.00794529914855957,-0.004468917846679688,1,-0.07228408753871918,-0.7385655045509338,0.1039663776755333,0.6621834635734558,-0.9631015062332153,0.2493026107549667,0.101407989859581,0,0,0,-1,169452.3568895417,3,2,1561841636.303388,1561841239.621676,31,1.858098,0,0,29.67847,0,0,1561841636.303662,169451.835765,0,0.4624023,75.18858,0,182478453,3,1,1,-34.84616,-35.46413,1
1561841638.449115,68,0,0,1561841637.994508,4.634656389248217,-74.15105248808315,2556.001,0.31,160.3125,4,30,-9999,1561841638.433097,-15.07432556152344,-17.71105194091797,19.64068603515625,132.7457427978516,140.2389526367188,15,169454.74746825,-0.95782470703125,0.24969482421875,0.0964508056640625,169454.74746825,-0.02902712430131866,0.009073656150008972,0.03207111742727923,169454.72366425,-89.2381591796875,-44.291259765625,-543.3291015625,169454.74240225,0.03099604059273395,-1.67586432027343,-0.252717723204221,-0.03516107797622681,0.00506699550896883,0.03171978145837784,0.006018579006195068,0.002176254987716675,-0.004268884658813477,1,-0.07287254929542542,-0.7385535836219788,0.1039417907595634,0.6621362566947937,-0.9628971815109253,0.2500362694263458,0.1015436053276062,0,0,0,-1,169452.3568895417,3,2,1561841636.303388,1561841239.621676,31,1.858098,0,0,29.67847,0,0,1561841636.303662,169451.835765,0,0.4624023,75.18858,0,182478453,3,1,1,-34.84616,-35.46413,1
1561841638.469381,69,0,0,1561841637.994508,4.634656389248217,-74.15105248808315,2556.001,0.31,160.3125,4,30,-9999,1561841638.457574,-15.01219177246094,-17.4996452331543,19.811279296875,132.7998504638672,140.2930603027344,15,169454.76773125,-0.9613494873046875,0.246337890625,0.0952301025390625,169454.76773125,-0.0134337834866867,0.005206213614995903,0.02390586552509628,169454.74377525,-89.220458984375,-44.04879760742188,-543.3248291015625,169454.76266525,0.03034616820971952,-1.676063814175334,-0.2532277668401418,-0.02063832804560661,-0.001476391218602657,0.02257448807358742,0.003231406211853027,-0.002483218908309937,-0.005714058876037598,1,-0.07327175140380859,-0.7385745644569397,0.1039216369390488,0.6620718836784363,-0.9627498388290405,0.2505300939083099,0.1017222702503204,0,0,0,-1,169452.3568895417,3,2,1561841636.303388,1561841239.621676,31,1.858098,0,0,29.67847,0,0,1561841636.303662,169451.835765,0,0.4624023,75.18858,0,182478453,3,1,1,-34.84616,-36.05994,1
1561841638.489657,70,0,0,1561841637.994508,4.634656389248217,-74.15105248808315,2556.001,0.31,160.3125,4,30,-9999,1561841638.483905,-15.15171813964844,-17.60950088500977,19.6732177734375,132.8259887695312,140.3191986083984,15,169454.78799525,-0.963836669921875,0.24737548828125,0.0938873291015625,169454.78799525,0.001545965012790998,0.0138740040148768,0.007706122930253283,169454.76385625,-89.54379272460938,-44.29713439941406,-543.1286010742188,169454.78292925,0.03003310154980234,-1.676118369073414,-0.2536117053153491,-0.004654568154364824,0.006476872600615025,0.01137642748653889,-0.0006387233734130859,-0.003602564334869385,-0.007068634033203125,1,-0.07351216673851013,-0.7385650277137756,0.1039612963795662,0.6620496511459351,-0.9626485705375671,0.2509017586708069,0.1017646789550781,0,0,0,-1,169452.3568895417,3,2,1561841636.303388,1561841239.621676,31,1.858098,0,0,29.67847,0,0,1561841636.303662,169451.835765,0,0.4624023,75.18858,0,182478453,3,1,1,-33.17821,-36.6259,1
1561841638.509865,71,0,0,1561841637.994508,4.634656389248217,-74.15105248808315,2556.001,0.31,160.3125,4,30,-9999,1561841638.508199,-15.19287872314453,-17.89121246337891,19.4716796875,132.8207092285156,140.3139190673828,15,169454.80825925,-0.9591827392578125,0.251739501953125,0.098541259765625,169454.80825925,0.01864159499833665,0.006995058919202127,-0.01261672566425039,169454.78396725,-89.59757995605469,-44.24581909179688,-543.2048950195312,169454.80319325,0.03009697078080278,-1.675931952650203,-0.2535833756906173,0.01055554300546646,0.003446461632847786,-0.01612736843526363,0.0006537437438964844,-0.001850903034210205,-0.006508469581604004,1,-0.07348885387182236,-0.7385068535804749,0.103965163230896,0.662116527557373,-0.962674617767334,0.2508743405342102,0.1015859693288803,0,0,0,-1,169452.3568895417,3,2,1561841636.303388,1561841239.621676,31,1.858098,0,0,29.67847,0,0,1561841636.303662,169451.835765,0,0.4624023,75.18858,0,182478453,3,1,1,-33.17821,-33.17821,1
1561841638.530117,72,0,0,1561841637.994508,4.634656389248217,-74.15105248808315,2556.001,0.31,160.3125,4,30,-9999,1561841638.508199,-15.19287872314453,-17.89121246337891,19.4716796875,132.8207092285156,140.3139190673828,15,169454.82852225,-0.9565887451171875,0.2534027099609375,0.1012420654296875,169454.82852225,0.02656849398295751,0.001205613025478871,-0.005613410945669018,169454.80407825,-89.43032836914062,-44.06948852539062,-542.8107299804688,169454.82345625,0.03052077390062288,-1.675861814387258,-0.2533491308876451,0.02260315231978893,-0.005109475459903479,-0.01065803412348032,0.005647718906402588,0.002175301313400269,-0.002357721328735352,1,-0.07325812429189682,-0.7385089993476868,0.1040167137980461,0.6621314883232117,-0.9627400040626526,0.2506475746631622,0.1015245914459229,0,0,0,-1,169452.3568895417,3,2,1561841636.303388,1561841239.621676,31,1.858098,0,0,29.67847,0,0,1561841636.303662,169451.835765,0,0.4624023,75.18858,0,182478453,3,1,1,-33.17821,-34.11597,1
1561841638.550855,73,0,0,1561841637.994508,4.634656389248217,-74.15105248808315,2556.001,0.31,160.3125,4,30,-9999,1561841638.534382,-15.00462341308594,-17.58528518676758,19.884033203125,132.7867431640625,140.2799530029297,15,169454.84878625,-0.952667236328125,0.2529144287109375,0.1017303466796875,169454.84878625,-0.008994027633415603,0.01912549136840405,0.003756122401447758,169454.82415825,-88.97630310058594,-44.24749755859375,-543.3021850585938,169454.84372025,0.03092835077747416,-1.675751557809701,-0.2532562609657656,0.005091802217066288,0.004093343392014503,-0.001005673315376043,0.009008586406707764,0.002310991287231445,0.001392841339111328,1,-0.07308248430490494,-0.7384912967681885,0.1041134372353554,0.6621555089950562,-0.962774395942688,0.2505576610565186,0.1014208868145943,0,0,0,-1,169452.3568895417,3,2,1561841636.303388,1561841239.621676,31,1.858098,0,0,29.67847,0,0,1561841636.303662,169451.835765,0,0.4624023,75.18858,0,182478453,3,1,1,-33.17821,-34.60774,1
1561841638.571264,74,0,0,1561841637.994508,4.634656389248217,-74.15105248808315,2556.001,0.31,160.3125,4,30,-9999,1561841638.558874,-14.84079742431641,-17.84746932983398,19.49951171875,132.7914428710938,140.2846527099609,15,169454.86905025,-0.960601806640625,0.252899169921875,0.1001739501953125,169454.86905025,-0.1130365408878682,0.093501987976028,-0.008771653682393988,169454.84426925,-89.42292785644531,-44.30281066894531,-543.3125,169454.86398425,0.03023738118737913,-1.675342899584292,-0.2531728964091308,-0.08610228449106216,0.0611044354736805,-0.00263100047595799,0.007987380027770996,0.003566622734069824,0.0004565715789794922,1,-0.07333111763000488,-0.7383341789245605,0.1038390025496483,0.662346363067627,-0.9628366827964783,0.2504769563674927,0.1010296270251274,0,0,0,-1,169452.3568895417,3,2,1561841636.303388,1561841239.621676,31,1.858098,0,0,29.67847,0,0,1561841636.303662,169451.835765,0,0.4624023,75.18858,0,182478453,3,1,1,-33.17821,-35.55058,1
1561841638.590942,75,0,0,1561841637.994508,4.634656389248217,-74.15105248808315,2556.001,0.31,160.3125,4,30,-9999,1561841638.586122,-14.98770141601562,-17.91119003295898,19.494140625,132.9756011962891,140.4688110351562,15,169454.88931325,-0.96710205078125,0.2455291748046875,0.0927581787109375,169454.88931325,-0.2177736065546135,0.2125695234684897,-0.04178925856108737,169454.86438125,-89.48468017578125,-44.38728332519531,-543.341552734375,169454.88421725,0.02725106122405298,-1.673671107462567,-0.252387310868905,-0.2031974792480469,0.1776645928621292,-0.04023563489317894,-0.00358206033706665,0.000176846981048584,-0.00208890438079834,1,-0.07425795495510101,-0.7377030253410339,0.1024987921118736,0.6631546020507812,-0.9631996154785156,0.2497163414955139,0.09943999350070953,0,0,0,-1,169452.3568895417,3,2,1561841636.303388,1561841239.621676,31,1.858098,0,0,29.67847,0,0,1561841636.303662,169451.835765,0,0.4624023,75.18858,0,182478453,3,1,1,-33.17821,-36.58102,1
1561841638.611687,76,0,0,1561841637.994508,4.634656389248217,-74.15105248808315,2556.001,0.31,160.3125,4,30,-9999,1561841638.609512,-15.11233520507812,-17.93780517578125,19.46917724609375,133.32080078125,140.8140106201172,15,169454.90957725,-0.9677276611328125,0.2426300048828125,0.0930633544921875,169454.90957725,-0.254256516643718,0.2875787871511165,-0.03771701893824721,169454.88446125,-89.76498413085938,-44.13536071777344,-543.18505859375,169454.90448125,0.02249333226478786,-1.670208235299026,-0.2510483850335339,-0.2537791728973389,0.2738494575023651,-0.04126441478729248,-0.001553595066070557,-0.005911678075790405,-0.006323814392089844,1,-0.07574086636304855,-0.7364318370819092,0.1002974659204483,0.664734423160553,-0.9638699293136597,0.2484196126461029,0.09613706171512604,0,0,0,-1,169452.3568895417,3,2,1561841636.303388,1561841239.621676,31,1.858098,0,0,29.67847,0,0,1561841636.303662,169451.835765,0,0.4624023,75.18858,0,182478453,3,1,1,-33.17821,-36.58102,1
1561841638.631508,77,0,0,1561841637.994508,4.634656389248217,-74.15105248808315,2556.001,0.31,160.3125,4,30,-9999,1561841638.609512,-15.11233520507812,-17.93780517578125,19.46917724609375,133.32080078125,140.8140106201172,15,169454.92981025,-0.9668121337890625,0.2467498779296875,0.0903778076171875,169454.92981025,-0.1764448085460008,0.2329576195097003,-0.02539696941943165,169454.90457225,-89.57333374023438,-44.46102905273438,-543.2060546875,169454.92474425,0.01746468326633882,-1.665886108922296,-0.2498077015114764,-0.2116295844316483,0.2567964196205139,-0.03431915491819382,-0.003694534301757812,0.001225963234901428,0.002025246620178223,1,-0.07739068567752838,-0.734853982925415,0.09800295531749725,0.6666300296783447,-0.9645824432373047,0.2472176402807236,0.09199938923120499,0,0,0,-1,169452.3568895417,3,2,1561841636.303388,1561841239.621676,31,1.858098,0,0,29.67847,0,0,1561841636.303662,169451.835765,0,0.4624023,75.18858,0,182478453,3,1,1,-33.17821,-37.40085,1
1561841638.651656,78,0,0,1561841637.994508,4.634656389248217,-74.15105248808315,2556.001,0.31,160.3125,4,30,-9999,1561841638.635715,-15.24020385742188,-18.17414474487305,19.132568359375,133.64501953125,141.1382293701172,15,169454.95007425,-0.9611358642578125,0.247467041015625,0.090087890625,169454.95007425,-0.03820890479158485,0.1022041331539709,-0.001745169462328925,169454.92465325,-89.45759582519531,-44.94729614257812,-543.655029296875,169454.94500825,0.01454637252410555,-1.662803900724756,-0.2491546670764495,-0.06840451806783676,0.1191919595003128,-0.007281945087015629,0.002223074436187744,-0.00221531093120575,0.0002231597900390625,1,-0.07839378714561462,-0.7337402701377869,0.09666991233825684,0.6679330468177795,-0.965022087097168,0.2465848177671432,0.08904074132442474,0,0,0,-1,169452.3568895417,3,2,1561841636.303388,1561841239.621676,31,1.858098,0,0,29.67847,0,0,1561841636.303662,169451.835765,0,0.4624023,75.18858,0,182478453,3,1,1,-33.17821,-38.2513,1
1561841638.672542,79,0,0,1561841637.994508,4.634656389248217,-74.15105248808315,2556.001,0.31,160.3125,4,30,-9999,1561841638.660176,-15.35453033447266,-18.07621002197266,19.17327880859375,133.7445373535156,141.2377471923828,15,169454.97033825,-0.9559783935546875,0.2475738525390625,0.0887908935546875,169454.97033825,-0.02046293086784184,0.094308393154104,-0.01453127217190836,169454.94476425,-89.72528076171875,-44.5804443359375,-544.0320434570312,169454.96527225,0.01398135417550417,-1.661163477154845,-0.2489479578288444,-0.0115249902009964,0.08087334036827087,-0.01405356451869011,0.005989134311676025,0.001952320337295532,0.004258394241333008,1,-0.07861094921827316,-0.733178973197937,0.09634105116128922,0.6685711145401001,-0.965217649936676,0.2463844865560532,0.0874621793627739,0,0,0,-1,169454.95010425,3,2,1561841638.896603,1561841239.621676,31,1.858098,0,0,29.67847,0,0,1561841638.896939,169451.835765,0,0.4624023,75.18858,0,182478453,3,1,1,-33.17821,-39.16545,1
1561841638.692249,80,0,0,1561841637.994508,4.634656389248217,-74.15105248808315,2556.001,0.31,160.3125,4,30,-9999,1561841638.687276,-15.25613403320312,-18.19223403930664,19.01318359375,133.7910919189453,141.2843017578125,15,169454.9906055,-0.9600830078125,0.2443389892578125,0.081024169921875,169454.9906055,-0.09645330309605382,0.1545773265192512,-0.01106516801317023,169454.9648795,-89.58676147460938,-44.74678039550781,-543.9312744140625,169454.9855395,0.01314048452415274,-1.659288259868023,-0.2484954421891541,-0.08156639337539673,0.1330470591783524,-0.01762060262262821,0.008886754512786865,0.0002394020557403564,-0.003264427185058594,1,-0.07885751873254776,-0.7325383424758911,0.09582043439149857,0.6693186163902283,-0.9654907584190369,0.2459459006786346,0.0856618657708168,0,0,0,-1,169454.95010425,3,2,1561841638.896603,1561841239.621676,31,1.858098,0,0,29.67847,0,0,1561841638.896939,169451.835765,0,0.4624023,75.18858,0,182478453,3,1,1,-33.17821,-39.97863,1
1561841638.712455,81,0,0,1561841637.994508,4.634656389248217,-74.15105248808315,2556.001,0.31,160.3125,4,30,-9999,1561841638.687276,-15.25613403320312,-18.19223403930664,19.01318359375,133.7910919189453,141.2843017578125,15,169455.0108695,-0.952789306640625,0.2399749755859375,0.0831451416015625,169455.0108695,-0.1249893404923619,0.1685027295431665,0.008811867414854183,169454.9849605,-89.91305541992188,-44.74366760253906,-544.075927734375,169455.0058035,0.01083722039298642,-1.65673477137876,-0.2480463980492087,-0.1305179595947266,0.1644172370433807,-0.003531947731971741,0.00803762674331665,-0.00362829864025116,-0.001800179481506348,1,-0.07967163622379303,-0.731611430644989,0.09478364884853363,0.6703829765319824,-0.9658165574073792,0.2455106228590012,0.08320570737123489,0,0,0,-1,169454.95010425,3,2,1561841638.896603,1561841239.621676,31,1.858098,0,0,29.67847,0,0,1561841638.896939,169451.835765,0,0.4624023,75.18858,0,182478453,3,1,1,-33.17821,-40.67326,1
1561841638.733304,82,0,0,1561841637.994508,4.634656389248217,-74.15105248808315,2556.001,0.31,160.3125,4,30,-9999,1561841638.712615,-15.45557403564453,-18.22230529785156,18.87225341796875,133.9588012695312,141.4520111083984,15,169455.0311335,-0.9517364501953125,0.239288330078125,0.08209228515625,169455.0311335,-0.06146442637848377,0.09782563000577164,0.05309411107236473,169455.0050715,-89.90080261230469,-44.56874084472656,-544.0418090820312,169455.0260675,0.008404704800520113,-1.654356924749399,-0.248234357317046,-0.08693265914916992,0.1155141443014145,0.04257535934448242,0.01502251625061035,-0.005885690450668335,0.00216376781463623,1,-0.08073623478412628,-0.7307080030441284,0.09394098818302155,0.6713587641716003,-0.9659655690193176,0.2456928193569183,0.08090505003929138,0,0,0,-1,169454.95010425,3,2,1561841638.896603,1561841239.621676,31,1.858098,0,0,29.67847,0,0,1561841638.896939,169451.835765,0,0.4624023,75.18858,0,182478453,3,1,1,-33.17821,-41.37192,1
1561841638.754548,83,0,0,1561841637.994508,4.634656389248217,-74.15105248808315,2556.001,0.31,160.3125,4,30,-9999,1561841638.737206,-15.53302764892578,-18.20934295654297,18.81756591796875,134.1034545898438,141.5966644287109,15,169455.0513965,-0.950103759765625,0.2436676025390625,0.0818023681640625,169455.0513965,0.03699769912781681,-0.0008412925883560313,0.05493009432786536,169455.0251825,-89.74650573730469,-44.89300537109375,-543.99169921875,169455.0463305,0.00751878901514383,-1.653236743949982,-0.249228410940337,0.01326504349708557,0.01848613098263741,0.05543230101466179,0.01537215709686279,-0.005277499556541443,0.002350568771362305,1,-0.081446573138237,-0.7302519083023071,0.09396083652973175,0.6717662811279297,-0.9658116698265076,0.2466562837362289,0.07980278879404068,0,0,0,-1,169454.95010425,3,2,1561841638.896603,1561841239.621676,31,1.858098,0,0,29.67847,0,0,1561841638.896939,169451.835765,0,0.4624023,75.18858,0,182478453,3,1,1,-33.17821,-41.41621,1
1561841638.773318,84,0,0,1561841637.994508,4.634656389248217,-74.15105248808315,2556.001,0.31,160.3125,4,30,-9999,1561841638.761886,-15.52754974365234,-18.18929290771484,18.92218017578125,134.0820465087891,141.5752563476562,15,169455.0716605,-0.9592437744140625,0.244903564453125,0.080169677734375,169455.0716605,0.1067898302349784,-0.06234007374490183,0.04091121434968825,169455.0452625,-90.07853698730469,-44.75546264648438,-544.015380859375,169455.0665645,0.008586362637638128,-1.653519032302224,-0.2502909959404281,0.0922890231013298,-0.06097007915377617,0.04020807519555092,0.0123564600944519,-0.002202495932579041,0.00243532657623291,1,-0.08140067756175995,-0.7303429245948792,0.09471850097179413,0.6715664267539978,-0.9655272960662842,0.247685894370079,0.08005371689796448,0,0,0,-1,169454.95010425,3,2,1561841638.896603,1561841239.621676,31,1.858098,0,0,29.67847,0,0,1561841638.896939,169451.835765,0,0.4624023,75.18858,0,182478453,3,1,1,-33.17821,-41.41621,1
1561841638.793556,85,0,0,1561841637.994508,4.634656389248217,-74.15105248808315,2556.001,0.31,160.3125,4,30,-9999,1561841638.788128,-15.39328765869141,-18.18388366699219,18.927978515625,133.9368896484375,141.4300994873047,15,169455.0918935,-0.97076416015625,0.2452392578125,0.0824432373046875,169455.0918935,0.08285307204123717,-0.005214469414375148,0.02689286700372916,169455.0653735,-89.98823547363281,-44.74185180664062,-544.0514526367188,169455.0868275,0.01070482362427509,-1.654224545477972,-0.2511603819234435,0.09685607999563217,-0.0343102365732193,0.02885155752301216,-0.0005035996437072754,-0.004631608724594116,-0.001996755599975586,1,-0.08088555186986923,-0.7306271195411682,0.09577543288469315,0.6711695790290833,-0.9652556777000427,0.2485281080007553,0.08071692287921906,0,0,0,-1,169454.95010425,3,2,1561841638.896603,1561841239.621676,31,1.858098,0,0,29.67847,0,0,1561841638.896939,169451.835765,0,0.4624023,75.18858,0,182478453,3,1,1,-33.17821,-36.12227,1
1561841638.813774,86,0,0,1561841637.994508,4.634656389248217,-74.15105248808315,2556.001,0.31,160.3125,4,30,-9999,1561841638.81212,-15.40360260009766,-17.99406051635742,19.0169677734375,133.8542022705078,141.347412109375,15,169455.1121575,-0.971527099609375,0.24169921875,0.0838623046875,169455.1121575,0.0119549301333657,0.06520829823891718,0.00986035393601838,169455.0854845,-90.01412963867188,-44.65182495117188,-544.00634765625,169455.1070915,0.01196682974866848,-1.653719252624515,-0.2516019653190634,0.02424925193190575,0.04700832068920135,0.008905813097953796,-0.008613884449005127,-0.004876226186752319,0.00355076789855957,1,-0.08059726655483246,-0.7304889559745789,0.09633967280387878,0.6712738275527954,-0.9651868343353271,0.2489558011293411,0.080220066010952,0,0,0,-1,169454.95010425,3,2,1561841638.896603,1561841239.621676,31,1.858098,0,0,29.67847,0,0,1561841638.896939,169451.835765,0,0.4624023,75.18858,0,182478453,3,1,1,-33.17821,-36.56332,1
1561841638.834011,87,0,0,1561841637.994508,4.634656389248217,-74.15105248808315,2556.001,0.31,160.3125,4,30,-9999,1561841638.81212,-15.40360260009766,-17.99406051635742,19.0169677734375,133.8542022705078,141.347412109375,15,169455.1324205,-0.9682464599609375,0.2413177490234375,0.0885162353515625,169455.1324205,-0.02716237890604517,0.0728017694550601,0.009019860295989371,169455.1055655,-89.83795166015625,-44.62739562988281,-543.75732421875,169455.1273555,0.01189929581254436,-1.652484346062397,-0.2517575303257202,-0.02353158593177795,0.0674574077129364,0.008294085040688515,-0.005288600921630859,-0.009329855442047119,0.006256341934204102,1,-0.08073372393846512,-0.7300647497177124,0.0963238999247551,0.6717211604118347,-0.9652467370033264,0.2491064667701721,0.07902494817972183,0,0,0,-1,169454.95010425,3,2,1561841638.896603,1561841239.621676,31,1.858098,0,0,29.67847,0,0,1561841638.896939,169451.835765,0,0.4624023,75.18858,0,182478453,3,1,1,-33.17821,-37.46063,1
1561841638.854542,88,0,0,1561841637.994508,4.634656389248217,-74.15105248808315,2556.001,0.31,160.3125,4,30,-9999,1561841638.838514,-15.47444152832031,-18.28582382202148,18.882568359375,133.877685546875,141.3708953857422,15,169455.1526845,-0.962371826171875,0.2451629638671875,0.0917205810546875,169455.1526845,-0.01984667539159751,0.05031723300373911,-0.002861033959072126,169455.1256765,-89.79426574707031,-44.70112609863281,-543.9520263671875,169455.1476185,0.01126699856727539,-1.651389244406716,-0.2517620291429095,-0.02854738384485245,0.05158310011029243,-0.003717570099979639,0.0004724860191345215,-0.005321145057678223,0.01347815990447998,1,-0.08101865649223328,-0.7296710610389709,0.09606882929801941,0.6721509695053101,-0.965331494808197,0.2491108328104019,0.07796776294708252,0,0,0,-1,169454.95010425,3,2,1561841638.896603,1561841239.621676,31,1.858098,0,0,29.67847,0,0,1561841638.896939,169451.835765,0,0.4624023,75.18858,0,182478453,3,1,1,-33.17821,-37.99127,1
1561841638.874616,89,0,0,1561841637.994508,4.634656389248217,-74.15105248808315,2556.001,0.31,160.3125,4,30,-9999,1561841638.862893,-15.49853515625,-18.0870361328125,18.89312744140625,133.9130249023438,141.4062347412109,15,169455.1729485,-0.959197998046875,0.2515869140625,0.0859832763671875,169455.1729485,0.02388908761022878,-0.01168408665050464,0.007293066645181994,169455.1457575,-89.6639404296875,-44.71694946289062,-544.150390625,169455.1678825,0.01101327576780794,-1.650849103188155,-0.2516601962187463,0.008534204214811325,0.001784649677574635,0.0006201865617185831,0.004003405570983887,-0.001224726438522339,0.01007604598999023,1,-0.08110285550355911,-0.7294837236404419,0.09592456370592117,0.6723646521568298,-0.9653986096382141,0.2490122020244598,0.07744835317134857,0,0,0,-1,169454.95010425,3,2,1561841638.896603,1561841239.621676,31,1.858098,0,0,29.67847,0,0,1561841638.896939,169451.835765,0,0.4624023,75.18858,0,182478453,3,1,1,-33.17821,-38.32381,1
1561841638.894897,90,0,0,1561841637.994508,4.634656389248217,-74.15105248808315,2556.001,0.31,160.3125,4,30,-9999,1561841638.8893,-15.46587371826172,-18.20284271240234,18.87066650390625,133.8772735595703,141.3704833984375,15,169455.1932115,-0.9639434814453125,0.2544097900390625,0.0834197998046875,169455.1932115,0.06362797844806416,-0.04933426024539087,0.006338589710497595,169455.1658685,-90.07553100585938,-44.65101623535156,-544.0155029296875,169455.1881465,0.01166125027942754,-1.651360102143948,-0.251780167044321,0.05280978977680206,-0.05732873827219009,0.00531800277531147,0.004819154739379883,0.005266129970550537,0.007204771041870117,1,-0.08088232576847076,-0.7296764254570007,0.09620674699544907,0.6721419095993042,-0.9653293490409851,0.2491283863782883,0.07793927192687988,0,0,0,-1,169454.95010425,3,2,1561841638.896603,1561841239.621676,31,1.858098,0,0,29.67847,0,0,1561841638.896939,169452.779586,0,0.4755859,75.18847,0,182478453,3,1,1,-33.17821,-38.60028,1
1561841638.915135,91,0,0,1561841637.994508,4.634656389248217,-74.15105248808315,2556.001,0.31,160.3125,4,30,-9999,1561841638.913401,-15.52367401123047,-18.3997688293457,18.906982421875,133.7896423339844,141.2828521728516,15,169455.2134755,-0.9638214111328125,0.248870849609375,0.079864501953125,169455.2134755,0.05204509191898252,-0.005535912957947712,-0.000150202285480469,169455.1859795,-90.03266906738281,-44.94737243652344,-544.2357788085938,169455.2084095,0.01290957601226948,-1.652032993803068,-0.2518527166179565,0.05634406954050064,-0.0303069744259119,-0.0058736652135849,0.00233757495880127,0.001121789216995239,0.00329136848449707,1,-0.08041877299547195,-0.7299496531486511,0.09667974710464478,0.6718329191207886,-0.9652586579322815,0.2491986602544785,0.07858735322952271,0,0,0,-1,169454.95010425,3,2,1561841638.896603,1561841239.621676,31,1.858098,0,0,29.67847,0,0,1561841638.896939,169452.779586,0,0.4755859,75.18847,0,182478453,3,1,1,-33.17821,-39.13643,1
1561841638.935365,92,0,0,1561841637.994508,4.634656389248217,-74.15105248808315,2556.001,0.31,160.3125,4,30,-9999,1561841638.913401,-15.52367401123047,-18.3997688293457,18.906982421875,133.7896423339844,141.2828521728516,15,169455.2337395,-0.9622650146484375,0.2488250732421875,0.0847320556640625,169455.2337395,-0.004887699548622426,0.08058725458579775,0.003205647004128379,169455.2060595,-90.01681518554688,-44.47271728515625,-544.1348876953125,169455.2286425,0.01364580420401505,-1.651632999611196,-0.2518111503629184,0.007915019989013672,0.05556532368063927,-0.001740972045809031,0.0007922649383544922,-0.0004706680774688721,0.004134297370910645,1,-0.08015545457601547,-0.7298466563224792,0.09689588099718094,0.6719450950622559,-0.9653003215789795,0.2491583973169327,0.07820207625627518,0,0,0,-1,169454.95010425,3,2,1561841638.896603,1561841239.621676,31,1.858098,0,0,29.67847,0,0,1561841638.896939,169452.779586,0,0.4755859,75.18847,0,182478453,3,1,1,-33.17821,-39.13643,1
1561841638.955805,93,0,0,1561841637.994508,4.634656389248217,-74.15105248808315,2556.001,0.31,160.3125,4,30,-9999,1561841638.940568,-15.71109771728516,-18.15751266479492,18.911865234375,133.7625122070312,141.2557220458984,15,169455.2539725,-0.9592437744140625,0.2497711181640625,0.086822509765625,169455.2539725,-0.07252533333390988,0.1384279176690107,0.02097079568771995,169455.2261705,-90.18391418457031,-44.44047546386719,-544.0803833007812,169455.2489065,0.01309929568028667,-1.649948061822724,-0.2518421163029261,-0.06097696349024773,0.1241310685873032,0.01200519967824221,0.005919694900512695,0.0001859962940216064,0.007317900657653809,1,-0.0804467648267746,-0.7292569875717163,0.09665582329034805,0.6725846529006958,-0.9654228091239929,0.2491883933544159,0.07657486945390701,0,0,0,-1,169454.95010425,3,2,1561841638.896603,1561841239.621676,31,1.858098,0,0,29.67847,0,0,1561841638.896939,169452.779586,0,0.4755859,75.18847,0,182478453,3,1,1,-33.17821,-39.95071,1
1561841638.975824,94,0,0,1561841637.994508,4.634656389248217,-74.15105248808315,2556.001,0.31,160.3125,4,30,-9999,1561841638.964063,-15.65335845947266,-18.13907623291016,18.6929931640625,133.8602142333984,141.3534240722656,15,169455.2742365,-0.9556732177734375,0.2564544677734375,0.0873260498046875,169455.2742365,-0.1114937716683853,0.1574085330741145,0.01358425208827618,169455.2462825,-90.04168701171875,-44.76475524902344,-544.2930908203125,169455.2691705,0.01124846347887232,-1.647601483596375,-0.2520498569072827,-0.1091815084218979,0.1496657133102417,0.0145594384521246,0.01014959812164307,0.001220777630805969,0.01443982124328613,1,-0.08130428194999695,-0.7283833026885986,0.09601368010044098,0.6735195517539978,-0.9655481576919556,0.249389573931694,0.07430524379014969,0,0,0,-1,169454.95010425,3,2,1561841638.896603,1561841239.621676,31,1.858098,0,0,29.67847,0,0,1561841638.896939,169452.779586,0,0.4755859,75.18847,0,182478453,3,1,1,-33.17821,-40.75065,1
1561841638.996177,95,0,0,1561841637.994508,4.634656389248217,-74.15105248808315,2556.001,0.31,160.3125,4,30,-9999,1561841638.990373,-15.72342681884766,-18.01752090454102,18.8062744140625,134.0368957519531,141.5301055908203,15,169455.2944995,-0.9611968994140625,0.2535400390625,0.0836334228515625,169455.2944995,-0.1534497441137117,0.1879193044187162,0.01390010299355958,169455.2663625,-90.00221252441406,-44.53353881835938,-544.1314697265625,169455.2894335,0.008666899561388376,-1.645034544542144,-0.2520840481708743,-0.1426140367984772,0.1758698970079422,0.01181212067604065,0.007551789283752441,0.006436705589294434,0.01376068592071533,1,-0.08237799257040024,-0.7274110317230225,0.09505099803209305,0.6745757460594177,-0.9657274484634399,0.2494226843118668,0.07182588428258896,0,0,0,-1,169454.95010425,3,2,1561841638.896603,1561841239.621676,31,1.858098,0,0,29.67847,0,0,1561841638.896939,169452.779586,0,0.4755859,75.18847,0,182478453,3,1,1,-33.17821,-41.53277,1
1561841639.01637,96,0,0,1561841637.994508,4.634656389248217,-74.15105248808315,2556.001,0.31,160.3125,4,30,-9999,1561841639.014696,-15.62843322753906,-18.04964828491211,18.5709228515625,134.2964324951172,141.7896423339844,15,169455.3147635,-0.9638519287109375,0.2541961669921875,0.0788421630859375,169455.3147635,-0.2042665861379496,0.1968241161556142,-0.007498130049118095,169455.2864735,-89.90190124511719,-44.63653564453125,-544.12060546875,169455.3096975,0.005121709708527416,-1.642291992647297,-0.2519258511866627,-0.1949326246976852,0.1829025000333786,-0.006953311152756214,0.001680970191955566,0.006742477416992188,0.008884072303771973,1,-0.0837424024939537,-0.7263450622558594,0.09368286281824112,0.675746738910675,-0.9659601449966431,0.2492694854736328,0.06917987763881683,0,0,0,-1,169454.95010425,3,2,1561841638.896603,1561841239.621676,31,1.858098,0,0,29.67847,0,0,1561841638.896939,169452.779586,0,0.4755859,75.18847,0,182478453,3,1,1,-33.17821,-42.44246,1
1561841639.038095,97,0,0,1561841637.994508,4.634656389248217,-74.15105248808315,2556.001,0.31,160.3125,4,30,-9999,1561841639.014696,-15.62843322753906,-18.04964828491211,18.5709228515625,134.2964324951172,141.7896423339844,15,169455.3350275,-0.9644622802734375,0.24969482421875,0.073150634765625,169455.3350275,-0.2427481986251586,0.1981530335395637,-0.009635583140015691,169455.3065845,-89.98753356933594,-44.69038391113281,-544.4745483398438,169455.3299615,0.0005322478363508401,-1.63955741734672,-0.2513456734328184,-0.2407611012458801,0.1972524076700211,-0.01597530208528042,0.002193689346313477,0.001277148723602295,0.01324009895324707,1,-0.08533844351768494,-0.725252628326416,0.09180473536252975,0.6769769787788391,-0.9662896990776062,0.248707577586174,0.06654804944992065,0,0,0,-1,169454.95010425,3,2,1561841638.896603,1561841239.621676,31,1.858098,0,0,29.67847,0,0,1561841638.896939,169452.779586,0,0.4755859,75.18847,0,182478453,3,1,1,-33.17821,-41.39589,1
1561841639.056919,98,0,0,1561841638.994494,4.634639751170422,-74.15104108869484,2556.157,0.38,152.578125,4,30,-9999,1561841639.040894,-15.86775970458984,-18.44063568115234,18.4564208984375,134.6425476074219,142.1357574462891,15,169455.3552905,-0.960357666015625,0.25152587890625,0.068756103515625,169455.3552905,-0.1947697536907271,0.1728833632202379,0.01664955050295738,169455.3266655,-90.08914184570312,-44.95498657226562,-544.2972412109375,169455.3502245,-0.004384635388937522,-1.637050703468419,-0.250893755504551,-0.213573157787323,0.1800720989704132,0.0074498625472188,0.004117310047149658,0.001989573240280151,0.005340218544006348,1,-0.0870809480547905,-0.7242122888565063,0.08986716717481613,0.6781277656555176,-0.9665654897689819,0.2482698261737823,0.06413306295871735,0,0,0,-1,169454.95010425,3,2,1561841638.896603,1561841239.621676,31,1.858098,0,0,29.67847,0,0,1561841638.896939,169452.779586,0,0.4755859,75.18847,0,182478453,3,1,1,-33.17821,-41.78256,1
1561841639.0772,99,0,0,1561841638.994494,4.634639751170422,-74.15104108869484,2556.157,0.38,152.578125,4,30,-9999,1561841639.065496,-15.90666961669922,-18.41072082519531,18.0787353515625,134.9526977539062,142.4459075927734,15,169455.3755545,-0.959075927734375,0.256103515625,0.059967041015625,169455.3755545,-0.1061863579319664,0.1098141159688723,0.04620185017123966,169455.3467765,-90.52372741699219,-44.96311950683594,-544.5227661132812,169455.3704885,-0.008088202466891303,-1.635027590728456,-0.2511221945397456,-0.1323408335447311,0.1173478364944458,0.03573931008577347,0.007881343364715576,0.006239116191864014,0.0002498626708984375,1,-0.08858894556760788,-0.7233525514602661,0.08860446512699127,0.6790157556533813,-0.9666367769241333,0.248491108417511,0.06217382848262787,0,0,0,-1,169454.95010425,3,2,1561841638.896603,1561841239.621676,31,1.858098,0,0,29.67847,0,0,1561841638.896939,169452.779586,0,0.4755859,75.18847,0,182478453,3,1,1,-33.17821,-41.78256,1
1561841639.097473,100,0,0,1561841638.994494,4.634639751170422,-74.15104108869484,2556.157,0.38,152.578125,4,30,-9999,1561841639.095764,-16.12159729003906,-18.60017013549805,17.95458984375,135.1117248535156,142.6049346923828,15,169455.3958185,-0.958160400390625,0.2555999755859375,0.0552215576171875,169455.3958185,-0.02517992179059019,0.04730040412089735,0.06230571896683981,169455.3668565,-90.44779968261719,-45.10531616210938,-544.9979858398438,169455.3907215,-0.009987668648317469,-1.633835261321891,-0.2519811494893592,-0.04503603279590607,0.05095123499631882,0.05594391375780106,0.009053468704223633,0.006582111120223999,-0.0006440877914428711,1,-0.08961976319551468,-0.722822368144989,0.08821713179349899,0.6794952154159546,-0.9664967060089111,0.2493230402469635,0.06100775673985481,0,0,0,-1,169454.95010425,3,2,1561841638.896603,1561841239.621676,31,1.858098,0,0,29.67847,0,0,1561841638.896939,169452.779586,0,0.4755859,75.18847,0,182478453,3,1,1,-33.17821,-42.26063,1
1561841639.117729,101,0,0,1561841638.994494,4.634639751170422,-74.15104108869484,2556.157,0.38,152.578125,4,30,-9999,1561841639.115963,-16.01272583007812,-18.33870697021484,18.10650634765625,135.1333618164062,142.6265716552734,15,169455.4160515,-0.9639129638671875,0.2515716552734375,0.055755615234375,169455.4160515,0.01821921764945008,0.04518851737646452,0.05679803551644694,169455.3869685,-90.37411499023438,-44.6258544921875,-544.6853637695312,169455.4109855,-0.01037522256978913,-1.633141262031991,-0.2531853664220629,0.01252499967813492,0.03971775248646736,0.05743155628442764,0.003653287887573242,0.00366133451461792,-0.004898309707641602,1,-0.09019909054040909,-0.7225117683410645,0.08848986774682999,0.6797136068344116,-0.9662387371063232,0.2504890263080597,0.06031826138496399,0,0,0,-1,169454.95010425,3,2,1561841638.896603,1561841239.621676,31,1.858098,0,0,29.67847,0,0,1561841638.896939,169452.779586,0,0.4755859,75.18847,0,182478453,3,1,1,-33.17821,-42.95604,1
1561841639.138604,102,0,0,1561841638.994494,4.634639751170422,-74.15104108869484,2556.157,0.38,152.578125,4,30,-9999,1561841639.115963,-16.01272583007812,-18.33870697021484,18.10650634765625,135.1333618164062,142.6265716552734,15,169455.4363145,-0.9738616943359375,0.249267578125,0.06207275390625,169455.4363145,0.0251700680945569,0.0560068103565844,0.02987187899909179,169455.4271595,-90.51481628417969,-44.87106323242188,-544.9609375,169455.4312495,-0.01000102332961354,-1.632236025767738,-0.2541438573004473,0.02999826520681381,0.05085402727127075,0.03235363215208054,-1.174211502075195e-05,-0.001386344432830811,-0.002772808074951172,1,-0.09042945504188538,-0.722175121307373,0.08892280608415604,0.6799840927124023,-0.9660527110099792,0.2514168620109558,0.05942878499627113,0,0,0,-1,169454.95010425,3,2,1561841638.896603,1561841239.621676,31,1.858098,0,0,29.67847,0,0,1561841638.896939,169452.779586,0,0.4755859,75.18847,0,182478453,3,1,1,-33.17821,-43.04744,1
1561841639.157981,103,0,0,1561841638.994494,4.634639751170422,-74.15104108869484,2556.157,0.38,152.578125,4,30,-9999,1561841639.142208,-16.12162780761719,-18.21549606323242,18.024169921875,135.1007385253906,142.5939483642578,15,169455.4565785,-0.970001220703125,0.2453765869140625,0.06646728515625,169455.4565785,0.01132828832887006,0.03354624235507411,0.002507099850200595,169455.4472705,-90.43153381347656,-44.94949340820312,-544.752685546875,169455.4515125,-0.009594801142153164,-1.631249792609284,-0.2545553121655902,0.01610002666711807,0.03461647033691406,0.004121198318898678,-0.007442116737365723,-0.005965471267700195,0.005632400512695312,1,-0.0904664546251297,-0.7218384146690369,0.08916505426168442,0.6803049445152283,-0.9660075902938843,0.2518150806427002,0.0584697537124157,0,0,0,-1,169454.95010425,3,2,1561841638.896603,1561841239.621676,31,1.858098,0,0,29.67847,0,0,1561841638.896939,169452.779586,0,0.4755859,75.18847,0,182478453,3,1,1,-33.17821,-37.60991,1
1561841639.17839,104,0,0,1561841638.994494,4.634639751170422,-74.15104108869484,2556.157,0.38,152.578125,4,30,-9999,1561841639.166632,-16.0721435546875,-18.41482543945312,18.13922119140625,135.0817565917969,142.5749664306641,15,169455.4768425,-0.9661712646484375,0.2456512451171875,0.07159423828125,169455.4768425,-0.003288471314029843,0.0206195247399385,-0.01061669168560088,169455.4673515,-90.43080139160156,-44.99729919433594,-544.8493041992188,169455.4717765,-0.009458597872149685,-1.630705969130356,-0.2544623168175353,-0.002357542980462313,0.01938691549003124,-0.01517047360539436,-0.002321183681488037,-0.005951762199401855,0.01229047775268555,1,-0.09040994942188263,-0.7216640114784241,0.08915320038795471,0.6804990172386169,-0.966062605381012,0.2517250776290894,0.05794581025838852,0,0,0,-1,169454.95010425,3,2,1561841638.896603,1561841239.621676,31,1.858098,0,0,29.67847,0,0,1561841638.896939,169452.779586,0,0.4755859,75.18847,0,182478453,3,1,1,-33.17821,-37.38817,1
1561841639.199162,105,0,0,1561841638.994494,4.634639751170422,-74.15104108869484,2556.157,0.38,152.578125,4,30,-9999,1561841639.193,-15.997314453125,-18.52448654174805,17.87640380859375,135.0834045410156,142.5766143798828,15,169455.4971055,-0.9639129638671875,0.2476806640625,0.065338134765625,169455.4971055,0.003176884864355523,0.01233922427866413,0.0208581439736096,169455.4874625,-90.39407348632812,-44.918212890625,-544.7791748046875,169455.4920405,-0.009514677905790872,-1.630474009982169,-0.2543228569844228,0.0008315923623740673,0.007837053388357162,0.006277293432503939,0.002213239669799805,-0.007006973028182983,0.009598016738891602,1,-0.09039312601089478,-0.721589207649231,0.08907327055931091,0.6805909276008606,-0.96611088514328,0.2515901029109955,0.05772380530834198,0,0,0,-1,169454.95010425,3,2,1561841638.896603,1561841239.621676,31,1.858098,0,0,29.67847,0,0,1561841638.896939,169452.779586,0,0.4755859,75.18847,0,182478453,3,1,1,-33.17821,-38.29165,1
1561841639.218946,106,0,0,1561841638.994494,4.634639751170422,-74.15104108869484,2556.157,0.38,152.578125,4,30,-9999,1561841639.217399,-16.17575836181641,-18.41925430297852,17.97784423828125,135.0796661376953,142.5728759765625,15,169455.5173695,-0.9584503173828125,0.2509613037109375,0.0599365234375,169455.5173695,0.01362047107910126,-0.0138873198203272,0.03513055688756225,169455.5075735,-90.61607360839844,-44.55751037597656,-544.6915283203125,169455.5123035,-0.009484175739103198,-1.630425280095163,-0.2547703765126518,0.007587232626974583,-0.00920584611594677,0.03121566586196423,0.004300892353057861,-0.0007719993591308594,0.004875779151916504,1,-0.09053638577461243,-0.7215526103973389,0.089243084192276,0.6805884838104248,-0.9660012722015381,0.2520231902599335,0.05767001211643219,0,0,0,-1,169454.95010425,3,2,1561841638.896603,1561841239.621676,31,1.858098,0,0,29.67847,0,0,1561841638.896939,169452.779586,0,0.4755859,75.18847,0,182478453,3,1,1,-33.17821,-38.66528,1
1561841639.239371,107,0,0,1561841638.994494,4.634639751170422,-74.15104108869484,2556.157,0.38,152.578125,4,30,-9999,1561841639.217399,-16.17575836181641,-18.41925430297852,17.97784423828125,135.0796661376953,142.5728759765625,15,169455.5376335,-0.95904541015625,0.2469024658203125,0.0598907470703125,169455.5376335,0.0536272759225986,-0.03785710121158538,0.02506460691538976,169455.5276545,-90.62539672851562,-44.87821960449219,-544.7680053710938,169455.5325675,-0.009092035807476088,-1.630918470470702,-0.2554017417449516,0.04035583138465881,-0.04312865808606148,0.02743344567716122,0.008278787136077881,-0.003122419118881226,0.001891255378723145,1,-0.09058738499879837,-0.7217079401016235,0.08962690830230713,0.6803664565086365,-0.9658136367797852,0.2526341378688812,0.05813685059547424,0,0,0,-1,169454.95010425,3,2,1561841638.896603,1561841239.621676,31,1.858098,0,0,29.67847,0,0,1561841638.896939,169452.779586,0,0.4755859,75.18847,0,182478453,3,1,1,-33.17821,-38.66528,1
1561841639.260348,108,0,0,1561841638.994494,4.634639751170422,-74.15104108869484,2556.157,0.38,152.578125,4,30,-9999,1561841639.243524,-16.07858276367188,-18.21099472045898,18.2476806640625,135.0309906005859,142.5242004394531,15,169455.5578975,-0.9645538330078125,0.2420196533203125,0.0626983642578125,169455.5578975,0.0794735206179266,-0.0323760493720933,0.002708434828610585,169455.5477655,-90.61482238769531,-44.978515625,-544.8912353515625,169455.5528005,-0.007921642933269685,-1.631520124897098,-0.2557816695416756,0.07157207280397415,-0.04131158441305161,0.005356638226658106,0.001739203929901123,-0.00731995701789856,0.003497958183288574,1,-0.09026699513196945,-0.7219473123550415,0.09018942713737488,0.680080771446228,-0.9656826853752136,0.2530017197132111,0.05871210619807243,0,0,0,-1,169454.95010425,3,2,1561841638.896603,1561841239.621676,31,1.858098,0,0,29.67847,0,0,1561841638.896939,169452.779586,0,0.4755859,75.18847,0,182478453,3,1,1,-33.17821,-39.5954,1
1561841639.279702,109,0,0,1561841638.994494,4.634639751170422,-74.15104108869484,2556.157,0.38,152.578125,4,30,-9999,1561841639.267982,-16.03353881835938,-18.34304428100586,18.13580322265625,134.9248657226562,142.4180755615234,15,169455.5781305,-0.971405029296875,0.24676513671875,0.0662384033203125,169455.5781305,0.07742102236580255,-0.0369974328117078,0.002633600001979359,169455.5678765,-90.46783447265625,-44.65447998046875,-544.7706909179688,169455.5730645,-0.006318292496038316,-1.631938873399839,-0.2558112795344933,0.07813623547554016,-0.04172304272651672,-0.002181438729166985,0.0004558563232421875,-0.01102596521377563,0.006283044815063477,1,-0.08967925608158112,-0.7221603989601135,0.09076407551765442,0.6798558235168457,-0.9656506180763245,0.2530303597450256,0.05911602079868317,0,0,0,-1,169454.95010425,3,2,1561841638.896603,1561841239.621676,31,1.858098,0,0,29.67847,0,0,1561841638.896939,169452.779586,0,0.4755859,75.18847,0,182478453,3,1,1,-33.17821,-40.5075,1
1561841639.299973,110,0,0,1561841638.994494,4.634639751170422,-74.15104108869484,2556.157,0.38,152.578125,4,30,-9999,1561841639.294241,-15.97492218017578,-18.14897918701172,18.073974609375,134.8126220703125,142.3058319091797,15,169455.5983935,-0.9683837890625,0.2525634765625,0.06829833984375,169455.5983935,0.06259467194511341,-0.03269403080624876,0.01255280979808849,169455.5879565,-90.13441467285156,-44.74249267578125,-544.4537353515625,169455.5933275,-0.004775772571079973,-1.632478289975708,-0.255970535062831,0.07097046822309494,-0.04396728798747063,0.009629946202039719,-0.005994558334350586,-0.00193321704864502,0.00648188591003418,1,-0.08915171027183533,-0.7224051356315613,0.09136998653411865,0.6795839667320251,-0.9655783176422119,0.25318443775177,0.05963441357016563,0,0,0,-1,169454.95010425,3,2,1561841638.896603,1561841239.621676,31,1.858098,0,0,29.67847,0,0,1561841638.896939,169452.779586,0,0.4755859,75.18847,0,182478453,3,1,1,-33.17821,-41.37913,1
1561841639.321253,111,0,0,1561841638.994494,4.634639751170422,-74.15104108869484,2556.157,0.38,152.578125,4,30,-9999,1561841639.318602,-16.01934814453125,-18.10181427001953,18.0933837890625,134.7467193603516,142.2399291992188,15,169455.6186575,-0.9651031494140625,0.2518157958984375,0.065155029296875,169455.6186575,0.0139211419661712,-0.01215786300842974,0.01468200708960684,169455.6080675,-90.33247375488281,-44.95425415039062,-544.7420654296875,169455.6135915,-0.00377682583761968,-1.632904020297531,-0.256213281346202,0.0247904546558857,-0.02234615013003349,0.008125526830554008,-0.0005577802658081055,0.0005785226821899414,0.007158041000366211,1,-0.08885376900434494,-0.7225827574729919,0.09181605279445648,0.6793739795684814,-0.9654914140701294,0.2534192800521851,0.06004166603088379,0,0,0,-1,169454.95010425,3,2,1561841638.896603,1561841239.621676,31,1.858098,0,0,29.67847,0,0,1561841638.896939,169452.779586,0,0.4755859,75.18847,0,182478453,3,1,1,-33.17821,-41.46453,1
1561841639.348264,112,0,0,1561841638.994494,4.634639751170422,-74.15104108869484,2556.157,0.38,152.578125,4,30,-9999,1561841639.344854,-16.15885925292969,-18.1651496887207,18.12939453125,134.757568359375,142.2507781982422,15,169455.6389215,-0.9581146240234375,0.246063232421875,0.064697265625,169455.6389215,-0.01998968714213476,0.01330222332883679,0.02117106540169391,169455.6281485,-90.29783630371094,-44.77677917480469,-544.7584838867188,169455.6338555,-0.003688030509688803,-1.633107866625173,-0.2564908369653,-0.01130363345146179,0.005626096855849028,0.0179509948939085,0.003449082374572754,-0.007059931755065918,0.00582122802734375,1,-0.08890654891729355,-0.7226428389549255,0.09195560216903687,0.6792842745780945,-0.9654089212417603,0.2536877691745758,0.06023409590125084,0,0,0,-1,169454.95010425,3,2,1561841638.896603,1561841239.621676,31,1.858098,0,0,29.67847,0,0,1561841638.896939,169452.779586,0,0.4755859,75.18847,0,182478453,3,1,1,-33.17821,-41.47622,1
1561841639.360776,113,0,0,1561841638.994494,4.634639751170422,-74.15104108869484,2556.157,0.38,152.578125,4,30,-9999,1561841639.344854,-16.15885925292969,-18.1651496887207,18.12939453125,134.757568359375,142.2507781982422,15,169455.6591845,-0.9631500244140625,0.2471466064453125,0.061065673828125,169455.6591845,-0.02042005397429157,0.02492718780314167,0.008432100643408883,169455.6482595,-90.67341613769531,-44.50860595703125,-544.5430297851562,169455.6541185,-0.00422412378535346,-1.633030994841878,-0.2567258703253147,-0.02743306756019592,0.01728754676878452,0.00873858667910099,0.005469322204589844,-0.007439881563186646,0.001214742660522461,1,-0.08918356150388718,-0.7225817441940308,0.09185505658388138,0.6793265342712402,-0.9653539657592773,0.2539151012897491,0.06015617027878761,0,0,0,-1,169454.95010425,3,2,1561841638.896603,1561841239.621676,31,1.858098,0,0,29.67847,0,0,1561841638.896939,169452.779586,0,0.4755859,75.18847,0,182478453,3,1,1,-33.17821,-42.35628,1
1561841639.38104,114,0,0,1561841638.994494,4.634639751170422,-74.15104108869484,2556.157,0.38,152.578125,4,30,-9999,1561841639.369243,-16.07072448730469,-18.07238006591797,18.2906494140625,134.7911987304688,142.2844085693359,15,169455.6794485,-0.9697723388671875,0.2494659423828125,0.0638580322265625,169455.6794485,0.02135908457465351,-0.01571265043146751,-0.005821936459022223,169455.6683705,-90.52957153320312,-44.53205871582031,-544.8886108398438,169455.6743825,-0.004493456180526905,-1.632961036962048,-0.2567430760665305,0.004993314389139414,-0.01201361697167158,-0.005152461118996143,-0.0003902912139892578,-0.005640715360641479,0.003617048263549805,1,-0.08928991854190826,-0.7225451469421387,0.09176667779684067,0.6793633699417114,-0.9653537273406982,0.2539317309856415,0.06008835881948471,0,0,0,-1,169454.95010425,3,2,1561841638.896603,1561841239.621676,31,1.858098,0,0,29.67847,0,0,1561841638.896939,169452.779586,0,0.4755859,75.18847,0,182478453,3,1,1,-33.17821,-43.22038,1
1561841639.401292,115,0,0,1561841638.994494,4.634639751170422,-74.15104108869484,2556.157,0.38,152.578125,4,30,-9999,1561841639.396082,-16.05004119873047,-17.97404861450195,18.0908203125,134.7560119628906,142.2492218017578,15,169455.6997125,-0.965545654296875,0.2474517822265625,0.0635833740234375,169455.6997125,0.06443651415501221,-0.04521967636121844,-0.01735688608848243,169455.6884515,-90.68649291992188,-44.58645629882812,-544.4613037109375,169455.6946465,-0.003832699737223645,-1.633421848146928,-0.2565187346992512,0.05383329093456268,-0.04777241498231888,-0.01920090243220329,-0.004114687442779541,-0.00502699613571167,0.004770755767822266,1,-0.08895386010408401,-0.7227417230606079,0.09193050861358643,0.6791763305664062,-0.965382993221283,0.2537147402763367,0.06053677573800087,0,0,0,-1,169454.95010425,3,2,1561841638.896603,1561841239.621676,31,1.858098,0,0,29.67847,0,0,1561841638.896939,169452.779586,0,0.4755859,75.18847,0,182478453,3,1,1,-33.17821,-43.22038,1
1561841639.429697,116,0,0,1561841638.994494,4.634639751170422,-74.15104108869484,2556.157,0.38,152.578125,4,30,-9999,1561841639.42127,-16.04898071289062,-18.03132629394531,18.138671875,134.6642303466797,142.1574401855469,15,169455.7199755,-0.962432861328125,0.2505645751953125,0.0622100830078125,169455.7199755,0.05036596885168756,-0.00700491261523542,-0.004877845852589133,169455.7085625,-90.38499450683594,-44.48692321777344,-544.615234375,169455.7148795,-0.002530793553763576,-1.633986659848404,-0.2562083167401664,0.05643173679709435,-0.02542556263506413,-0.01389828324317932,0.001758396625518799,-0.006374657154083252,-0.0005706548690795898,1,-0.08835194259881973,-0.7230058312416077,0.09228533506393433,0.678925633430481,-0.9654272198677063,0.2534144818782806,0.0610869973897934,0,0,0,-1,169454.95010425,3,2,1561841638.896603,1561841239.621676,31,1.858098,0,0,29.67847,0,0,1561841638.896939,169452.779586,0,0.4755859,75.18847,0,182478453,3,1,1,-34.29277,-44.40397,1
1561841639.441908,117,0,0,1561841638.994494,4.634639751170422,-74.15104108869484,2556.157,0.38,152.578125,4,30,-9999,1561841639.42127,-16.04898071289062,-18.03132629394531,18.138671875,134.6642303466797,142.1574401855469,15,169455.7402395,-0.9610748291015625,0.2570648193359375,0.0586700439453125,169455.7402395,0.003893275197586838,0.0322953555910639,0.0112526545539118,169455.7286735,-90.62275695800781,-44.71478271484375,-544.4811401367188,169455.7351435,-0.001776755135668143,-1.633904638440279,-0.2561687448691953,0.01272846572101116,0.01595969311892986,0.005840534809976816,0.004779398441314697,0.001064121723175049,-0.002582550048828125,1,-0.08806971460580826,-0.7230131030082703,0.09252337366342545,0.678922176361084,-0.9654422402381897,0.2533761858940125,0.06100844219326973,0,0,0,-1,169454.95010425,3,2,1561841638.896603,1561841239.621676,31,1.858098,0,0,29.67847,0,0,1561841638.896939,169452.779586,0,0.4755859,75.18847,0,182478453,3,1,1,-34.29277,-44.40397,1
1561841639.462043,118,0,0,1561841638.994494,4.634639751170422,-74.15104108869484,2556.157,0.38,152.578125,4,30,-9999,1561841639.446111,-16.11370086669922,-18.19113159179688,18.25677490234375,134.63134765625,142.1245574951172,15,169455.7604725,-0.958892822265625,0.25762939453125,0.0586395263671875,169455.7604725,-0.007291468748527946,0.03702832548035272,0.02580523201454079,169455.7487535,-90.62532043457031,-44.85435485839844,-544.5179443359375,169455.7554065,-0.001884052874920766,-1.633351176452695,-0.256359538184536,-0.01337317656725645,0.03450594842433929,0.01822476647794247,0.004550933837890625,0.005380898714065552,0.0008234977722167969,1,-0.08819886296987534,-0.7228115200996399,0.09253154695034027,0.679118812084198,-0.9654274582862854,0.2535607516765594,0.0604710653424263,0,0,0,-1,169454.95010425,3,2,1561841638.896603,1561841239.621676,31,1.858098,0,0,29.67847,0,0,1561841638.896939,169452.779586,0,0.4755859,75.18847,0,182478453,3,1,1,-34.85005,-45.23898,1
1561841639.482304,119,0,0,1561841638.994494,4.634639751170422,-74.15104108869484,2556.157,0.38,152.578125,4,30,-9999,1561841639.472724,-16.17282867431641,-18.23432540893555,18.17034912109375,134.6468505859375,142.1400604248047,15,169455.7807365,-0.959686279296875,0.260101318359375,0.0650177001953125,169455.7807365,0.01109153330796201,0.02217933819039791,0.01245187599277449,169455.7688655,-90.26119995117188,-44.99288940429688,-544.6044311523438,169455.7756705,-0.002019669695464781,-1.632825208775928,-0.2567629974183535,0.00633634626865387,0.0233616828918457,0.01526306569576263,0.006815075874328613,0.003846228122711182,0.0002084970474243164,1,-0.0884091928601265,-0.7226079702377319,0.09260809421539307,0.6792976260185242,-0.9653569459915161,0.2539510130882263,0.05995692685246468,0,0,0,-1,169454.95010425,3,2,1561841638.896603,1561841239.621676,31,1.858098,0,0,29.67847,0,0,1561841638.896939,169452.779586,0,0.4755859,75.18847,0,182478453,3,1,1,-35.40733,-45.3174,1
1561841639.510173,120,0,0,1561841638.994494,4.634639751170422,-74.15104108869484,2556.157,0.38,152.578125,4,30,-9999,1561841639.496846,-15.94080352783203,-18.22927856445312,18.19512939453125,134.6315002441406,142.1247100830078,15,169455.8010005,-0.961669921875,0.2500152587890625,0.060333251953125,169455.8010005,0.03101677195171686,0.004445082175451256,-0.005128715627274597,169455.7889455,-90.45011901855469,-44.73056030273438,-544.3518676757812,169455.7959345,-0.001728033335980218,-1.632644085612267,-0.2568519354062762,0.02316193282604218,-0.009392000734806061,-0.004929821006953716,0.003370225429534912,0.000952601432800293,0.003482222557067871,1,-0.08834242075681686,-0.7225551605224609,0.0927312821149826,0.6793457269668579,-0.9653453230857849,0.2540370225906372,0.05978068709373474,0,0,0,-1,169454.95010425,3,2,1561841638.896603,1561841239.621676,31,1.858098,0,0,29.67847,0,0,1561841638.896939,169452.779586,0,0.4755859,75.18847,0,182478453,3,1,1,-35.96461,-45.93146,1
1561841639.522866,121,0,0,1561841638.994494,4.634639751170422,-74.15104108869484,2556.157,0.38,152.578125,4,30,-9999,1561841639.496846,-15.94080352783203,-18.22927856445312,18.19512939453125,134.6315002441406,142.1247100830078,15,169455.8212635,-0.9595489501953125,0.2538909912109375,0.0605010986328125,169455.8212635,0.03385037535156116,0.001112668703435106,-0.003988882680720683,169455.8090565,-90.49676513671875,-44.98866271972656,-544.4681396484375,169455.8161975,-0.0010861696370054,-1.632462147648306,-0.2567210765059856,0.03194716572761536,0.002201538067311049,-0.007737325504422188,0.004817962646484375,-0.001713186502456665,0.004754424095153809,1,-0.08807453513145447,-0.722527801990509,0.09289401024580002,0.6793873310089111,-0.9653892517089844,0.2539104521274567,0.05960709601640701,0,0,0,-1,169454.95010425,3,2,1561841638.896603,1561841239.621676,31,1.858098,0,0,29.67847,0,0,1561841638.896939,169452.779586,0,0.4755859,75.18847,0,182478453,3,1,1,-36.52188,-46.17039,1
