loggingTime,loggingSample,identifierForVendor,deviceID,locationTimestamp_since1970,locationLatitude,locationLongitude,locationAltitude,locationSpeed,locationCourse,locationVerticalAccuracy,locationHorizontalAccuracy,locationFloor,locationHeadingTimestamp_since1970,locationHeadingX,locationHeadingY,locationHeadingZ,locationTrueHeading,locationMagneticHeading,locationHeadingAccuracy,accelerometerTimestamp_sinceReboot,accelerometerAccelerationX,accelerometerAccelerationY,accelerometerAccelerationZ,gyroTimestamp_sinceReboot,gyroRotationX,gyroRotationY,gyroRotationZ,magnetometerTimestamp_sinceReboot,magnetometerX,magnetometerY,magnetometerZ,motionTimestamp_sinceReboot,motionYaw,motionRoll,motionPitch,motionRotationRateX,motionRotationRateY,motionRotationRateZ,motionUserAccelerationX,motionUserAccelerationY,motionUserAccelerationZ,motionAttitudeReferenceFrame,motionQuaternionX,motionQuaternionY,motionQuaternionZ,motionQuaternionW,motionGravityX,motionGravityY,motionGravityZ,motionMagneticFieldX,motionMagneticFieldY,motionMagneticFieldZ,motionMagneticFieldCalibrationAccuracy,activityTimestamp_sinceReboot,activity,activityActivityConfidence,activityActivityStartDate,pedometerStartDate,pedometerNumberofSteps,pedometerAverageActivePace,pedometerCurrentPace,pedometerCurrentCadence,pedometerDistance,pedometerFloorAscended,pedometerFloorDescended,pedometerEndDate,altimeterTimestamp_sinceReboot,altimeterReset,altimeterRelativeAltitude,altimeterPressure,IP_en0,IP_pdp_ip0,deviceOrientation,batteryState,batteryLevel,avAudioRecorderPeakPower,avAudioRecorderAveragePower,label
1561841644.836158,1,0,0,1561841643.994422,4.634634386752392,-74.15102600126913,2555.09,0,108.984375,4,30,-9999,1561841644.814366,-18.34796905517578,-19.9117546081543,13.842529296875,135.5984497070312,143.0916595458984,15,169461.1293901667,-0.9560089111328125,0.218505859375,-0.1487884521484375,169461.1293901667,-0.116693327380656,-0.03851863042636106,0.2020220739712308,169461.1151381667,-92.94488525390625,-46.1715087890625,-548.8050537109375,169461.1243241667,-0.02025013549902898,-1.401873102536208,-0.1767887512183189,-0.1107475385069847,-0.05858295410871506,0.1984806060791016,0.02058780193328857,0.04652756452560425,0.01350778341293335,1,-0.07396738231182098,-0.6416997313499451,0.04922376945614815,0.7617920637130737,-0.9704016447067261,0.1758692860603333,-0.1655005663633347,0,0,0,-1,169459.1546855,3,1,1561841643.101184,1561841239.621676,31,1.858098,0,0,29.67847,0,0,1561841644.083,169458.443304,0,0.05297852,75.19244,0,182478453,3,1,1,-36.27985,-41.2388,2
1561841644.851936,2,0,0,1561841643.994422,4.634634386752392,-74.15102600126913,2555.09,0,108.984375,4,30,-9999,1561841644.842682,-18.62721252441406,-19.69190979003906,13.93499755859375,135.7120513916016,143.2052612304688,15,169461.1496541667,-0.9490966796875,0.20721435546875,-0.1495208740234375,169461.1496541667,-0.1456088652323004,-0.00165089355974012,0.1821210700933957,169461.1352501667,-92.74478149414062,-46.18098449707031,-549.0897827148438,169461.1445881667,-0.022156670868532,-1.402894601359337,-0.1811778742654039,-0.1411195695400238,-0.008973058313131332,0.1859794557094574,0.01441669464111328,0.03103911876678467,0.01516294479370117,1,-0.07622250914573669,-0.6418728828430176,0.04994773492217064,0.7613767981529236,-0.9697999358177185,0.1801882982254028,-0.1643786579370499,0,0,0,-1,169459.1546855,3,1,1561841643.101184,1561841239.621676,31,1.858098,0,0,29.67847,0,0,1561841644.083,169458.443304,0,0.05297852,75.19244,0,182478453,3,1,1,-36.27985,-41.2388,2
1561841644.877818,3,0,0,1561841643.994422,4.634634386752392,-74.15102600126913,2555.09,0,108.984375,4,30,-9999,1561841644.868937,-18.55928802490234,-19.64049530029297,13.87335205078125,135.8804016113281,143.3736114501953,15,169461.1699181667,-0.9449920654296875,0.210205078125,-0.15179443359375,169461.1699181667,-0.1473553662751743,-0.04051493597948446,0.1769489449403528,169461.1553301667,-93.00576782226562,-46.1776123046875,-549.1783447265625,169461.1648521667,-0.02460526822587837,-1.403643323853223,-0.1852932294981246,-0.1549150049686432,-0.03100325912237167,0.1764184385538101,0.02345883846282959,0.02207933366298676,0.0124351978302002,1,-0.07855311781167984,-0.6419233083724976,0.05036892369389534,0.7610695958137512,-0.9691833257675171,0.1842347532510757,-0.1635277420282364,0,0,0,-1,169459.1546855,3,1,1561841643.101184,1561841239.621676,31,1.858098,0,0,29.67847,0,0,1561841644.083,169458.443304,0,0.05297852,75.19244,0,182478453,3,1,1,-36.27985,-39.91,2
1561841644.891923,4,0,0,1561841643.994422,4.634634386752392,-74.15102600126913,2555.09,0,108.984375,4,30,-9999,1561841644.890476,-18.57761383056641,-19.64925384521484,13.66363525390625,136.0433654785156,143.5365753173828,15,169461.1901811667,-0.9495391845703125,0.2131805419921875,-0.149932861328125,169461.1901811667,-0.110240221743285,-0.07921519399218892,0.1446069840302125,169461.1754411667,-92.85330200195312,-46.3489990234375,-548.9776611328125,169461.1851151667,-0.02695179643817831,-1.405259201660376,-0.1891926484706437,-0.1248524412512779,-0.07866452634334564,0.1515759378671646,0.0208696722984314,0.02657938003540039,0.01006269454956055,1,-0.0807458832859993,-0.6423076987266541,0.05079620704054832,0.7604871988296509,-0.9687303900718689,0.1880660057067871,-0.1618418395519257,0,0,0,-1,169459.1546855,3,1,1561841643.101184,1561841239.621676,31,1.858098,0,0,29.67847,0,0,1561841644.083,169458.443304,0,0.05297852,75.19244,0,182478453,3,1,1,-36.27985,-40.07535,2
1561841644.912227,5,0,0,1561841643.994422,4.634634386752392,-74.15102600126913,2555.09,0,108.984375,4,30,-9999,1561841644.890476,-18.57761383056641,-19.64925384521484,13.66363525390625,136.0433654785156,143.5365753173828,15,169461.2104451667,-0.9564666748046875,0.211456298828125,-0.146697998046875,169461.2104451667,-0.07117111591960458,-0.1159132874973718,0.1411978715188021,169461.1955521667,-93.037841796875,-46.0726318359375,-549.384521484375,169461.2053791667,-0.02855641482181065,-1.407519971597356,-0.1923843228153972,-0.08078911155462265,-0.1151727363467216,0.1349663436412811,0.01814854145050049,0.02112628519535065,0.0121530294418335,1,-0.08241403847932816,-0.6429863572120667,0.05130738765001297,0.7596998810768127,-0.9684964418411255,0.1911997646093369,-0.1595529466867447,0,0,0,-1,169459.1546855,3,1,1561841643.101184,1561841239.621676,31,1.858098,0,0,29.67847,0,0,1561841644.083,169458.443304,0,0.05297852,75.19244,0,182478453,3,1,1,-36.27985,-40.75644,2
1561841644.932701,6,0,0,1561841643.994422,4.634634386752392,-74.15102600126913,2555.09,0,108.984375,4,30,-9999,1561841644.916466,-18.61918640136719,-19.57369232177734,13.6090087890625,136.1407470703125,143.6339569091797,15,169461.2307091667,-0.9635772705078125,0.22052001953125,-0.1461029052734375,169461.2307091667,-0.05839087216442333,-0.08670639982247282,0.1578719231037882,169461.2156331667,-93.125,-45.97158813476562,-548.9862670898438,169461.2256431667,-0.02948020493384563,-1.41010905673935,-0.1955136248220357,-0.05989927798509598,-0.1047475263476372,0.1502036154270172,0.007144689559936523,0.02333518862724304,0.01121175289154053,1,-0.08382941037416458,-0.6438155174255371,0.05207433551549911,0.7587901949882507,-0.968311071395874,0.1942704021930695,-0.1569484174251556,0,0,0,-1,169459.1546855,3,1,1561841643.101184,1561841239.621676,31,1.858098,0,0,29.67847,0,0,1561841644.083,169458.443304,0,0.05297852,75.19244,0,182478453,3,1,1,-36.27985,-41.46959,2
1561841644.962169,7,0,0,1561841643.994422,4.634634386752392,-74.15102600126913,2555.09,0,108.984375,4,30,-9999,1561841644.942019,-18.61348724365234,-19.440185546875,13.87396240234375,136.1983032226562,143.6915130615234,15,169461.2509721667,-0.968292236328125,0.208099365234375,-0.1497955322265625,169461.2509721667,-0.08185944663852859,-0.02154071216099691,0.190500173831112,169461.2357441667,-93.218505859375,-45.94349670410156,-549.0321655273438,169461.2458761667,-0.03033316617616818,-1.411819616674946,-0.1989822789748469,-0.07935605943202972,-0.04295339435338974,0.1757622361183167,0.000362396240234375,0.0185147225856781,0.007601261138916016,1,-0.08537130057811737,-0.6442977786064148,0.0529441125690937,0.7581484913825989,-0.9679069519042969,0.1976718008518219,-0.1551842242479324,0,0,0,-1,169459.1546855,3,1,1561841643.101184,1561841239.621676,31,1.858098,0,0,29.67847,0,0,1561841644.083,169458.443304,0,0.05297852,75.19244,0,182478453,3,1,1,-36.27985,-40.92488,2
1561841644.973078,8,0,0,1561841643.994422,4.634634386752392,-74.15102600126913,2555.09,0,108.984375,4,30,-9999,1561841644.967058,-18.79291534423828,-19.31534194946289,13.7952880859375,136.2769012451172,143.7701110839844,15,169461.2712051667,-0.9676971435546875,0.2086029052734375,-0.146026611328125,169461.2712051667,-0.105802862734995,0.01752200207606734,0.2275780341077402,169461.2558241667,-93.06858825683594,-45.91310119628906,-548.9796142578125,169461.2661391667,-0.03150595534275108,-1.412339778735966,-0.2033104398440388,-0.1013718843460083,0.009602224454283714,0.2222093641757965,-0.0007161498069763184,0.005484774708747864,0.005679488182067871,1,-0.08737124502658844,-0.6442779898643494,0.05392149463295937,0.7578684687614441,-0.9671335816383362,0.2019126862287521,-0.1545442789793015,0,0,0,-1,169459.1546855,3,1,1561841643.101184,1561841239.621676,31,1.858098,0,0,29.67847,0,0,1561841644.083,169458.443304,0,0.05297852,75.19244,0,182478453,3,1,1,-36.27985,-40.92488,2
1561841644.993206,9,0,0,1561841643.994422,4.634634386752392,-74.15102600126913,2555.09,0,108.984375,4,30,-9999,1561841644.991609,-18.81987762451172,-19.50075912475586,13.71551513671875,136.3919982910156,143.8852081298828,15,169461.2914691667,-0.9741058349609375,0.2077789306640625,-0.1406707763671875,169461.2914691667,-0.1113425041184688,-0.008480037543030311,0.1955860125648363,169461.2759361667,-93.05535888671875,-45.93052673339844,-549.0191040039062,169461.2864031667,-0.03311601848430532,-1.412501885479251,-0.2081041708810868,-0.1189082637429237,3.561703488230705e-05,0.2045795023441315,-0.001627445220947266,0.0002733170986175537,0.01060217618942261,1,-0.08969656378030777,-0.6440791487693787,0.05486868694424629,0.7576978802680969,-0.9661917686462402,0.2066053450107574,-0.1542331576347351,0,0,0,-1,169459.1546855,3,1,1561841643.101184,1561841239.621676,31,1.858098,0,0,29.67847,0,0,1561841644.083,169458.443304,0,0.05297852,75.19244,0,182478453,3,1,1,-36.27985,-40.93244,2
1561841645.013418,10,0,0,1561841643.994422,4.634634386752392,-74.15102600126913,2555.09,0,108.984375,4,30,-9999,1561841644.991609,-18.81987762451172,-19.50075912475586,13.71551513671875,136.3919982910156,143.8852081298828,15,169461.3117331667,-0.9795684814453125,0.2028656005859375,-0.1406707763671875,169461.3117331667,-0.0325507527396025,-0.06159572022022469,0.148420630711206,169461.2960471667,-93.47216796875,-46.03770446777344,-549.1742553710938,169461.3066671667,-0.03449504386143304,-1.413399581148576,-0.2120062702237,-0.05860178545117378,-0.05808041617274284,0.1531988680362701,-0.01417964696884155,-0.00361931324005127,0.01235377788543701,1,-0.09158934652805328,-0.6441989541053772,0.05564907565712929,0.757312536239624,-0.9655261635780334,0.2104216665029526,-0.1532381922006607,0,0,0,-1,169459.1546855,3,1,1561841643.101184,1561841239.621676,31,1.858098,0,0,29.67847,0,0,1561841644.083,169458.443304,0,0.05297852,75.19244,0,182478453,3,1,1,-36.27985,-41.26096,2
1561841645.046371,11,0,0,1561841643.994422,4.634634386752392,-74.15102600126913,2555.09,0,108.984375,4,30,-9999,1561841645.044129,-19.10811614990234,-19.40902328491211,13.8673095703125,136.4145660400391,143.9077758789062,15,169461.3319961667,-0.9703369140625,0.2049102783203125,-0.14080810546875,169461.3319961667,0.01818646076804211,-0.0557415595120125,0.1513192152416483,169461.3161271667,-93.28041076660156,-45.94093322753906,-549.0296630859375,169461.3269301667,-0.03445470518699879,-1.414837725516652,-0.2149464271567504,0.006467762403190136,-0.0699051171541214,0.1410559266805649,-0.009769082069396973,-0.01221476495265961,0.01141762733459473,1,-0.09264534711837769,-0.6446242928504944,0.05668202415108681,0.7567453384399414,-0.9651302099227905,0.2132950872182846,-0.1517527252435684,0,0,0,-1,169459.1546855,3,1,1561841643.101184,1561841239.621676,31,1.858098,0,0,29.67847,0,0,1561841644.083,169458.443304,0,0.05297852,75.19244,0,182478453,3,1,1,-36.27985,-42.17147,2
1561841645.053916,12,0,0,1561841643.994422,4.634634386752392,-74.15102600126913,2555.09,0,108.984375,4,30,-9999,1561841645.044129,-19.10811614990234,-19.40902328491211,13.8673095703125,136.4145660400391,143.9077758789062,15,169461.3522601667,-0.9711151123046875,0.207305908203125,-0.1484832763671875,169461.3522601667,0.02325818474798901,-0.01118421131389677,0.1714801436418751,169461.3362381667,-93.47007751464844,-45.97344970703125,-548.9970703125,169461.3471941667,-0.03359541699217104,-1.415756949602116,-0.2179927148929102,0.01981073245406151,-0.03385257348418236,0.1689120531082153,-0.006980657577514648,-0.01001723110675812,0.00621795654296875,1,-0.09349063783884048,-0.6448854804039001,0.05803615599870682,0.7563160061836243,-0.9646227359771729,0.2162702828645706,-0.1507644355297089,0,0,0,-1,169459.1546855,3,1,1561841643.101184,1561841239.621676,31,1.858098,0,0,29.67847,0,0,1561841644.083,169458.443304,0,0.05297852,75.19244,0,182478453,3,1,1,-36.27985,-42.17147,2
1561841645.074329,13,0,0,1561841644.994408,4.634634386752392,-74.15102600126913,2555.115,0,35.15625,4,30,-9999,1561841645.068459,-19.05887603759766,-19.28206253051758,13.76605224609375,136.3444061279297,143.8376159667969,15,169461.3725241667,-0.9780120849609375,0.2081756591796875,-0.149200439453125,169461.3725241667,0.02402890356745794,0.03041383228092292,0.1682033902366416,169461.3563191667,-93.50096130371094,-45.78776550292969,-548.93798828125,169461.3674581667,-0.03263497546408799,-1.415639286217504,-0.221232982239379,0.02300972118973732,0.02065221220254898,0.1648280918598175,-0.00893169641494751,-0.01058566570281982,0.001309037208557129,1,-0.09440585970878601,-0.6447504162788391,0.05944294854998589,0.7562083005905151,-0.9639077186584473,0.2194327265024185,-0.1507688760757446,0,0,0,-1,169459.1546855,3,1,1561841643.101184,1561841239.621676,31,1.858098,0,0,29.67847,0,0,1561841644.083,169458.443304,0,0.05297852,75.19244,0,182478453,3,1,1,-36.27985,-36.27985,2
1561841645.094512,14,0,0,1561841644.994408,4.634634386752392,-74.15102600126913,2555.115,0,35.15625,4,30,-9999,1561841645.092866,-19.29696655273438,-19.05970764160156,13.71575927734375,136.2757415771484,143.7689514160156,15,169461.3927871667,-0.9772796630859375,0.207763671875,-0.14666748046875,169461.3927871667,0.02553625274444279,0.02128691290911236,0.141226367342466,169461.3764301667,-93.72744750976562,-45.806396484375,-548.9823608398438,169461.3877211667,-0.03168101446203023,-1.414999926482226,-0.2243518367065232,0.02209619246423244,0.01927888207137585,0.1513407081365585,-0.01306599378585815,-0.01405468583106995,0.003039002418518066,1,-0.09529329836368561,-0.6444222927093506,0.06078276038169861,0.756270170211792,-0.9631303548812866,0.2224744856357574,-0.1512781977653503,0,0,0,-1,169459.1546855,3,1,1561841643.101184,1561841239.621676,31,1.858098,0,0,29.67847,0,0,1561841644.083,169458.443304,0,0.05297852,75.19244,0,182478453,3,1,1,-35.45714,-37.17365,2
1561841645.118004,15,0,0,1561841644.994408,4.634634386752392,-74.15102600126913,2555.115,0,35.15625,4,30,-9999,1561841645.092866,-19.29696655273438,-19.05970764160156,13.71575927734375,136.2757415771484,143.7689514160156,15,169461.4130511667,-0.976531982421875,0.2008819580078125,-0.1365814208984375,169461.4130511667,0.02196974741260867,0.005149488283777215,0.08971550553815334,169461.3965411667,-93.57856750488281,-45.80189514160156,-548.9755859375,169461.4079551667,-0.03079427560130226,-1.414606481294527,-0.2266614849923257,0.02560064569115639,0.004031752701848745,0.09668811410665512,-0.01510053873062134,-0.01844209432601929,0.01128745079040527,1,-0.09589041769504547,-0.644217848777771,0.06184642761945724,0.75628262758255,-0.9625605940818787,0.2247256636619568,-0.1515767872333527,0,0,0,-1,169459.1546855,3,1,1561841643.101184,1561841239.621676,31,1.858098,0,0,29.67847,0,0,1561841644.083,169458.443304,0,0.05297852,75.19244,0,182478453,3,1,1,-35.45714,-37.56472,2
1561841645.135119,16,0,0,1561841644.994408,4.634634386752392,-74.15102600126913,2555.115,0,35.15625,4,30,-9999,1561841645.119304,-19.18747711181641,-19.16736221313477,13.73199462890625,136.2170257568359,143.7102355957031,15,169461.4332841667,-0.976531982421875,0.1983795166015625,-0.137847900390625,169461.4332841667,-0.02053270568840192,0.0134470992921371,0.07161479855721178,169461.4166221667,-93.77931213378906,-45.80715942382812,-549.4644775390625,169461.4282181667,-0.03031053207721744,-1.414560355218589,-0.2281385776020798,-0.008906198665499687,0.0008612596429884434,0.0657120868563652,-0.01441413164138794,-0.02859392762184143,0.01442337036132812,1,-0.09629290550947189,-0.6441606879234314,0.0625048354268074,0.7562260627746582,-0.9622246623039246,0.2261647284030914,-0.1515693664550781,0,0,0,-1,169459.1546855,3,1,1561841643.101184,1561841239.621676,31,1.858098,0,0,29.67847,0,0,1561841644.083,169458.443304,0,0.05297852,75.19244,0,182478453,3,1,1,-35.45714,-37.56472,2
1561841645.157088,17,0,0,1561841644.994408,4.634634386752392,-74.15102600126913,2555.115,0,35.15625,4,30,-9999,1561841645.143502,-19.13899230957031,-19.01498413085938,13.605712890625,136.2196655273438,143.7128753662109,15,169461.4535481667,-0.972930908203125,0.2012786865234375,-0.14398193359375,169461.4535481667,-0.06509165178317169,0.04962028374646538,0.08927129026832813,169461.4367331667,-93.59843444824219,-45.64082336425781,-549.2395629882812,169461.4484821667,-0.03074965245166498,-1.41436861983415,-0.2296760786553396,-0.05425503477454185,0.03048146888613701,0.08687276393175125,-0.01347553730010986,-0.02900794148445129,0.01043367385864258,1,-0.09701994061470032,-0.6440010666847229,0.06282670050859451,0.7562424540519714,-0.9618510007858276,0.2276621162891388,-0.1516995131969452,0,0,0,-1,169459.1546855,3,1,1561841643.101184,1561841239.621676,31,1.858098,0,0,29.67847,0,0,1561841644.083,169458.443304,0,0.05297852,75.19244,0,182478453,3,1,1,-34.92799,-38.02322,2
1561841645.175711,18,0,0,1561841644.994408,4.634634386752392,-74.15102600126913,2555.115,0,35.15625,4,30,-9999,1561841645.169781,-19.306396484375,-18.96419525146484,13.69525146484375,136.2953186035156,143.7885284423828,15,169461.4738121667,-0.9733123779296875,0.2113494873046875,-0.1483917236328125,169461.4738121667,-0.06386207030788212,0.09709006491269176,0.08674128723275285,169461.4568131667,-93.84648132324219,-45.7008056640625,-549.1963500976562,169461.4687461667,-0.03191375916410166,-1.413489215096549,-0.2314924108233713,-0.0705578401684761,0.08143839240074158,0.08279892802238464,-0.01209670305252075,-0.01917952299118042,0.00643843412399292,1,-0.09810707718133926,-0.6435331106185913,0.06293069571256638,0.7564918398857117,-0.9613072276115417,0.2294303774833679,-0.152480274438858,0,0,0,-1,169459.1546855,3,1,1561841643.101184,1561841239.621676,31,1.858098,0,0,29.67847,0,0,1561841644.083,169458.443304,0,0.05297852,75.19244,0,182478453,3,1,1,-34.92799,-38.4082,2
1561841645.197284,19,0,0,1561841644.994408,4.634634386752392,-74.15102600126913,2555.115,0,35.15625,4,30,-9999,1561841645.169781,-19.306396484375,-18.96419525146484,13.69525146484375,136.2953186035156,143.7885284423828,15,169461.4940751667,-0.9609222412109375,0.2147064208984375,-0.15478515625,169461.4940751667,-0.02558179279908315,0.0886182831690407,0.07189070204614399,169461.4769241667,-93.55918884277344,-45.69645690917969,-549.25634765625,169461.4890091667,-0.03282373029808043,-1.411871208760683,-0.2332104862946054,-0.03766327723860741,0.0909527987241745,0.07473913580179214,-0.007333755493164062,-0.01923400163650513,0.002239465713500977,1,-0.09909864515066147,-0.6428009271621704,0.06306158751249313,0.7569739818572998,-0.9606685042381287,0.2311022877693176,-0.1539728492498398,0,0,0,-1,169459.1546855,3,1,1561841643.101184,1561841239.621676,31,1.858098,0,0,29.67847,0,0,1561841644.083,169458.443304,0,0.05297852,75.19244,0,182478453,3,1,1,-34.92799,-39.34417,2
1561841645.216187,20,0,0,1561841644.994408,4.634634386752392,-74.15102600126913,2555.115,0,35.15625,4,30,-9999,1561841645.198648,-19.29299926757812,-19.07698440551758,13.55682373046875,136.3560180664062,143.8492279052734,15,169461.5143391667,-0.9542388916015625,0.2197113037109375,-0.150146484375,169461.5143391667,0.02406512255828302,0.02421639010819952,0.02702043241994395,169461.4970351667,-93.72207641601562,-45.6925048828125,-549.302001953125,169461.5092731667,-0.03295677995685991,-1.410583549903192,-0.2343092671998276,0.009109287522733212,0.03767173737287521,0.03584180399775505,0.006101369857788086,-0.01586258411407471,0.001848816871643066,1,-0.09959667921066284,-0.6422584652900696,0.06330186128616333,0.757348895072937,-0.9602181911468506,0.2321711778640747,-0.1551691293716431,0,0,0,-1,169459.1546855,3,1,1561841643.101184,1561841239.621676,31,1.858098,0,0,29.67847,0,0,1561841644.083,169458.443304,0,0.05297852,75.19244,0,182478453,3,1,1,-34.92799,-39.96022,2
1561841645.236335,21,0,0,1561841644.994408,4.634634386752392,-74.15102600126913,2555.115,0,35.15625,4,30,-9999,1561841645.220922,-19.45664978027344,-19.06772994995117,13.54638671875,136.3444213867188,143.8376312255859,15,169461.5346031667,-0.95831298828125,0.21697998046875,-0.1476287841796875,169461.5346031667,0.04838457700066861,-0.02899330215547465,0.007797735671752009,169461.5171161667,-93.55422973632812,-45.48973083496094,-549.3760375976562,169461.5295371667,-0.03226455457454925,-1.410394839072536,-0.2344321177624455,0.04644148051738739,-0.02541987784206867,0.006658088881522417,0.002915918827056885,-0.01343385875225067,0.007900118827819824,1,-0.0994267463684082,-0.6422160267829895,0.06359422206878662,0.7573828101158142,-0.9601608514785767,0.2322906702756882,-0.1553457975387573,0,0,0,-1,169459.1546855,3,1,1561841643.101184,1561841239.621676,31,1.858098,0,0,29.67847,0,0,1561841644.083,169458.443304,0,0.05297852,75.19244,0,182478453,3,1,1,-34.92799,-40.29559,2
1561841645.256842,22,0,0,1561841644.994408,4.634634386752392,-74.15102600126913,2555.115,0,35.15625,4,30,-9999,1561841645.245225,-19.31454467773438,-19.01807403564453,13.52239990234375,136.283935546875,143.7771453857422,15,169461.5548661667,-0.9613494873046875,0.21905517578125,-0.153228759765625,169461.5548661667,-0.01645700395614465,-0.01059565271298926,0.004885835335859371,169461.5372271667,-93.78099060058594,-45.64846801757812,-549.1852416992188,169461.5498001667,-0.03157651766856293,-1.410964679132048,-0.2343032469914389,0.003314781235530972,-0.02889237366616726,0.001654807943850756,0.002423465251922607,-0.01527689397335052,0.00564873218536377,1,-0.09913897514343262,-0.6424716114997864,0.06384146213531494,0.7571828961372375,-0.9602786898612976,0.2321653217077255,-0.1548033803701401,0,0,0,-1,169459.1546855,3,1,1561841643.101184,1561841239.621676,31,1.858098,0,0,29.67847,0,0,1561841644.083,169458.443304,0,0.05297852,75.19244,0,182478453,3,1,1,-34.92799,-41.00108,2
1561841645.280107,23,0,0,1561841644.994408,4.634634386752392,-74.15102600126913,2555.115,0,35.15625,4,30,-9999,1561841645.271906,-19.13938140869141,-19.17473602294922,13.65521240234375,136.3178558349609,143.8110656738281,15,169461.5751301667,-0.964599609375,0.2152862548828125,-0.1627960205078125,169461.5751301667,-0.07837177087496083,0.03501710622512488,0.00146234175456251,169461.5573381667,-93.72148132324219,-45.79397583007812,-549.2083129882812,169461.5700331667,-0.03234294360825434,-1.411230920914648,-0.2344153408462548,-0.07207398116588593,0.02075613848865032,0.002349626738578081,-0.004839420318603516,-0.01602679491043091,-0.004727661609649658,1,-0.099419005215168,-0.6425294280052185,0.06360068917274475,0.7571174502372742,-0.960294246673584,0.2322743535041809,-0.1545435935258865,0,0,0,-1,169459.1546855,3,1,1561841643.101184,1561841239.621676,31,1.858098,0,0,29.67847,0,0,1561841644.083,169458.443304,0,0.05297852,75.19244,0,182478453,3,1,1,-34.92799,-41.76985,2
1561841645.297125,24,0,0,1561841644.994408,4.634634386752392,-74.15102600126913,2555.115,0,35.15625,4,30,-9999,1561841645.295458,-19.41432952880859,-19.19138336181641,13.6380615234375,136.4187927246094,143.9120025634766,15,169461.5953631667,-0.9597930908203125,0.2274169921875,-0.160125732421875,169461.5953631667,-0.030719030541846,0.02833763189509714,-0.02720871790901255,169461.5774191667,-93.65913391113281,-45.73912048339844,-549.2174072265625,169461.5902971667,-0.03383968733774668,-1.411014577834361,-0.2344228785182239,-0.05220893025398254,0.02634238451719284,-0.02383643575012684,-7.152557373046875e-06,-0.01246356964111328,-0.007220983505249023,1,-0.09990949183702469,-0.6423726081848145,0.06302569806575775,0.7572339773178101,-0.9602590203285217,0.2322816848754883,-0.1547510474920273,0,0,0,-1,169459.1546855,3,1,1561841643.101184,1561841239.621676,31,1.858098,0,0,29.67847,0,0,1561841644.083,169458.443304,0,0.05297852,75.19244,0,182478453,3,1,1,-34.92799,-41.76985,2
1561841645.317537,25,0,0,1561841644.994408,4.634634386752392,-74.15102600126913,2555.115,0,35.15625,4,30,-9999,1561841645.295458,-19.41432952880859,-19.19138336181641,13.6380615234375,136.4187927246094,143.9120025634766,15,169461.6156271667,-0.961578369140625,0.232696533203125,-0.1573638916015625,169461.6156271667,0.03906404581760929,0.02485368455705548,-0.009684585304073149,169461.5975301667,-93.80499267578125,-45.74453735351562,-549.1998291015625,169461.6105611667,-0.03424156803448051,-1.410652164410707,-0.2338617530462619,0.02093585208058357,0.02248985692858696,-0.02226543799042702,-0.001460671424865723,-0.0001532286405563354,-0.001084387302398682,1,-0.09983819723129272,-0.6422401666641235,0.06267437338829041,0.7573848366737366,-0.9603313207626343,0.2317358702421188,-0.1551198065280914,0,0,0,-1,169459.1546855,3,1,1561841643.101184,1561841239.621676,31,1.858098,0,0,29.67847,0,0,1561841644.083,169458.443304,0,0.05297852,75.19244,0,182478453,3,1,1,-34.92799,-42.67499,2
1561841645.338671,26,0,0,1561841644.994408,4.634634386752392,-74.15102600126913,2555.115,0,35.15625,4,30,-9999,1561841645.322,-19.32160186767578,-19.26282501220703,13.466064453125,136.4118041992188,143.9050140380859,15,169461.6358901667,-0.94683837890625,0.2297210693359375,-0.1587371826171875,169461.6358901667,0.07357275459063804,-0.01848580007456702,0.01642398075862767,169461.6176101667,-93.43109130859375,-45.66351318359375,-549.3863525390625,169461.6308241667,-0.03325927091996196,-1.410255051715933,-0.2335346077745563,0.0692189633846283,-0.007690150756388903,0.008073292672634125,0.006944894790649414,0.0008364021778106689,-0.004993915557861328,1,-0.09941177070140839,-0.6421531438827515,0.06292106211185455,0.757494330406189,-0.9603445529937744,0.2314176261425018,-0.1555132865905762,0,0,0,-1,169459.1546855,3,1,1561841643.101184,1561841239.621676,31,1.858098,0,0,29.67847,0,0,1561841644.083,169458.443304,0,0.05297852,75.19244,0,182478453,3,1,1,-34.92799,-40.64827,2
1561841645.364465,27,0,0,1561841644.994408,4.634634386752392,-74.15102600126913,2555.115,0,35.15625,4,30,-9999,1561841645.347061,-19.08863067626953,-19.25713729858398,13.54681396484375,136.3117218017578,143.804931640625,15,169461.6561541667,-0.9488525390625,0.2296600341796875,-0.1591644287109375,169461.6561541667,0.05032282564202828,-0.03313425133443886,-0.004857073196086515,169461.6377211667,-93.69744873046875,-45.53932189941406,-549.1572265625,169461.6510881667,-0.03181509756883372,-1.410551209228559,-0.2334544439247229,0.05870001018047333,-0.04058924317359924,0.0005509278271347284,0.01459288597106934,-0.003266513347625732,-0.001933693885803223,1,-0.09890839457511902,-0.6423404216766357,0.06345681101083755,0.7573567628860474,-0.9604089260101318,0.2313396334648132,-0.1552318185567856,0,0,0,-1,169459.1546855,3,1,1561841643.101184,1561841239.621676,31,1.858098,0,0,29.67847,0,0,1561841644.083,169458.443304,0,0.05297852,75.19244,0,182478453,3,1,1,-34.92799,-41.58565,2
1561841645.378189,28,0,0,1561841644.994408,4.634634386752392,-74.15102600126913,2555.115,0,35.15625,4,30,-9999,1561841645.37276,-19.33754730224609,-18.96989822387695,13.5699462890625,136.2425079345703,143.7357177734375,15,169461.6764181667,-0.9555206298828125,0.2275543212890625,-0.158416748046875,169461.6764181667,0.03160426528818833,-0.001904426495515663,-0.01350542252000983,169461.6578331667,-93.8172607421875,-45.63818359375,-549.083740234375,169461.6713521667,-0.03099631070401565,-1.410922168308714,-0.2330196466810986,0.03085586242377758,-0.01155413128435612,-0.02063185535371304,0.006952166557312012,-0.002156853675842285,-0.003769397735595703,1,-0.09846948087215424,-0.6425402760505676,0.0636448934674263,0.7572284936904907,-0.960565447807312,0.2309166043996811,-0.1548915058374405,0,0,0,-1,169459.1546855,3,1,1561841643.101184,1561841239.621676,31,1.858098,0,0,29.67847,0,0,1561841644.083,169458.443304,0,0.05297852,75.19244,0,182478453,3,1,1,-34.92799,-42.27674,2
1561841645.3985,29,0,0,1561841644.994408,4.634634386752392,-74.15102600126913,2555.115,0,35.15625,4,30,-9999,1561841645.396926,-19.25300598144531,-19.24619293212891,13.76611328125,136.2001647949219,143.6933746337891,15,169461.6966811667,-0.9482421875,0.2320556640625,-0.1606292724609375,169461.6966811667,0.04477546109139322,-0.005116465086260232,-0.01195706066223776,169461.6779131667,-93.54815673828125,-45.93373107910156,-549.2190551757812,169461.6916161667,-0.0304253731287726,-1.410966072399738,-0.232604717000317,0.03421730548143387,-0.01365642994642258,-0.01324398070573807,0.009418785572052002,-0.001142755150794983,-0.006054580211639404,1,-0.09812802821397781,-0.6426029801368713,0.06372932344675064,0.7572126388549805,-0.9606669545173645,0.230512872338295,-0.1548645943403244,0,0,0,-1,169459.1546855,3,1,1561841643.101184,1561841239.621676,31,1.858098,0,0,29.67847,0,0,1561841644.083,169458.443304,0,0.05297852,75.19244,0,182478453,3,1,1,-34.92799,-42.71002,2
1561841645.418848,30,0,0,1561841644.994408,4.634634386752392,-74.15102600126913,2555.115,0,35.15625,4,30,-9999,1561841645.396926,-19.25300598144531,-19.24619293212891,13.76611328125,136.2001647949219,143.6933746337891,15,169461.7169451667,-0.9512786865234375,0.233062744140625,-0.151947021484375,169461.7169451667,0.06831833775991171,0.01066942227518445,-0.01120125554487328,169461.6980241667,-93.73918151855469,-45.96354675292969,-548.94482421875,169461.7118791667,-0.02941627241699587,-1.410922438029079,-0.2321145601704288,0.06515338271856308,-0.003253324422985315,-0.01831330731511116,0.009752154350280762,0.003988161683082581,-0.0004100203514099121,1,-0.0976201593875885,-0.6426570415496826,0.06395111232995987,0.7572135925292969,-0.9607714414596558,0.2300358861684799,-0.1549244672060013,0,0,0,-1,169459.1546855,3,1,1561841643.101184,1561841239.621676,31,1.858098,0,0,29.67847,0,0,1561841644.083,169458.443304,0,0.05297852,75.19244,0,182478453,3,1,1,-34.92799,-43.16098,2
1561841645.446657,31,0,0,1561841644.994408,4.634634386752392,-74.15102600126913,2555.115,0,35.15625,4,30,-9999,1561841645.42331,-19.40738677978516,-19.20220565795898,13.7691650390625,136.1168060302734,143.6100158691406,15,169461.7372091667,-0.949676513671875,0.2338714599609375,-0.15191650390625,169461.7372091667,0.02781405442478756,0.03377873631823804,0.007051784250420814,169461.7181351667,-93.82893371582031,-45.70556640625,-549.434814453125,169461.7321121667,-0.02826122543953627,-1.410388729996851,-0.2317455840434088,0.03740537539124489,0.02654372155666351,3.587245009839535e-05,0.01080584526062012,0.003431737422943115,0.004983842372894287,1,-0.09712684154510498,-0.6425270438194275,0.06424346566200256,0.7573625445365906,-0.9607722759246826,0.2296767979860306,-0.1554507464170456,0,0,0,-1,169459.1546855,3,1,1561841643.101184,1561841239.621676,31,1.858098,0,0,29.67847,0,0,1561841644.083,169458.443304,0,0.05297852,75.19244,0,182478453,3,1,1,-34.92799,-43.20871,2
1561841645.459094,32,0,0,1561841644.994408,4.634634386752392,-74.15102600126913,2555.115,0,35.15625,4,30,-9999,1561841645.447575,-19.29878997802734,-19.18425750732422,13.76727294921875,136.0642700195312,143.5574798583984,15,169461.7574421667,-0.94354248046875,0.2302398681640625,-0.14892578125,169461.7574421667,0.006255232768378115,0.01424871078025095,0.009949569832536033,169461.7382161667,-93.79536437988281,-45.57380676269531,-549.0695190429688,169461.7523761667,-0.02784926836618895,-1.409789169285032,-0.2317731446954309,0.007593948394060135,0.01428705453872681,0.005793360527604818,0.01363599300384521,0.002687752246856689,0.00641334056854248,1,-0.09702420234680176,-0.6423187851905823,0.0643792599439621,0.7575408816337585,-0.9606727957725525,0.2297036200761795,-0.156025767326355,0,0,0,-1,169459.1546855,3,1,1561841643.101184,1561841239.621676,31,1.858098,0,0,29.67847,0,0,1561841644.083,169458.443304,0,0.05297852,75.19244,0,182478453,3,1,1,-34.92799,-43.20871,2
1561841645.479597,33,0,0,1561841644.994408,4.634634386752392,-74.15102600126913,2555.115,0,35.15625,4,30,-9999,1561841645.473775,-19.45545959472656,-19.30810928344727,13.6424560546875,136.0535125732422,143.5467224121094,15,169461.7777061667,-0.9481353759765625,0.229766845703125,-0.1534576416015625,169461.7777061667,0.01719203641700652,-0.02512186487882646,0.01407640425772282,169461.7583271667,-93.6829833984375,-45.7376708984375,-549.143798828125,169461.7726401667,-0.02771213975032448,-1.409831722459081,-0.2319083841355021,0.008474655449390411,-0.02396925538778305,0.008152121677994728,0.01686221361160278,-0.0005261600017547607,0.004887402057647705,1,-0.09702987223863602,-0.6423357725143433,0.0644768550992012,0.7575175166130066,-0.9606488347053528,0.2298352420330048,-0.1559799164533615,0,0,0,-1,169459.1546855,3,1,1561841643.101184,1561841239.621676,31,1.858098,0,0,29.67847,0,0,1561841644.083,169458.443304,0,0.05297852,75.19244,0,182478453,3,1,1,-34.92799,-43.86718,2
1561841645.522815,34,0,0,1561841644.994408,4.634634386752392,-74.15102600126913,2555.115,0,35.15625,4,30,-9999,1561841645.498262,-19.41506195068359,-19.17090606689453,13.6673583984375,136.0131225585938,143.5063323974609,15,169461.7979691667,-0.9608001708984375,0.23223876953125,-0.1573028564453125,169461.7979691667,0.05145679963418402,-0.02176974401474372,0.02616742192279157,169461.7784071667,-93.76393127441406,-45.83332824707031,-549.16796875,169461.7929031667,-0.02721386026246575,-1.410368102119413,-0.2321324728120528,0.03876012563705444,-0.03533323109149933,0.0198226273059845,0.007358014583587646,-0.001217275857925415,0.0008085966110229492,1,-0.09693711996078491,-0.6425535082817078,0.06476383656263351,0.7573201060295105,-0.9606813192367554,0.2300533205270767,-0.1554563641548157,0,0,0,-1,169459.1546855,3,1,1561841643.101184,1561841239.621676,31,1.858098,0,0,29.67847,0,0,1561841644.083,169459.387365,0,0.05297852,75.19244,0,182478453,3,1,1,-34.92799,-45.08714,2
1561841645.525759,35,0,0,1561841644.994408,4.634634386752392,-74.15102600126913,2555.115,0,35.15625,4,30,-9999,1561841645.498262,-19.41506195068359,-19.17090606689453,13.6673583984375,136.0131225585938,143.5063323974609,15,169461.8182331667,-0.9658660888671875,0.236297607421875,-0.1536102294921875,169461.8182331667,0.09071419094693306,0.001048752837273204,0.02875787871511164,169461.7985191667,-93.63526916503906,-45.85757446289062,-549.1509399414062,169461.8131671667,-0.02589862971546348,-1.410494575471076,-0.2324517747345239,0.08060956746339798,-0.007409986108541489,0.02802036888897419,-0.002277255058288574,0.006299763917922974,-0.001888155937194824,1,-0.0966309979557991,-0.6426514387130737,0.06537090241909027,0.7572240829467773,-0.9606285691261292,0.2303640395402908,-0.1553231626749039,0,0,0,-1,169459.1546855,3,1,1561841643.101184,1561841239.621676,31,1.858098,0,0,29.67847,0,0,1561841644.083,169459.387365,0,0.05297852,75.19244,0,182478453,3,1,1,-34.92799,-45.08714,2
1561841645.540404,36,0,0,1561841644.994408,4.634634386752392,-74.15102600126913,2555.115,0,35.15625,4,30,-9999,1561841645.527606,-19.48487091064453,-19.20029067993164,13.77386474609375,135.9004364013672,143.3936462402344,15,169461.8384971667,-0.9541778564453125,0.2302703857421875,-0.15362548828125,169461.8384971667,0.08504964730833452,0.0008777778952901169,0.02419641640002393,169461.8186301667,-93.68296813964844,-45.73831176757812,-549.0320434570312,169461.8334311667,-0.02400590417070391,-1.410185288964005,-0.2326680548754433,0.08706320822238922,-0.007238478399813175,0.02155740931630135,-0.001306533813476562,0.001816853880882263,0.003512680530548096,1,-0.09611468762159348,-0.6426163911819458,0.06614235788583755,0.7572525143623352,-0.9605312347412109,0.2305745035409927,-0.1556122750043869,0,0,0,-1,169459.1546855,3,1,1561841643.101184,1561841239.621676,31,1.858098,0,0,29.67847,0,0,1561841644.083,169459.387365,0,0.05297852,75.19244,0,182478453,3,1,1,-34.92799,-39.03988,2
1561841645.56051,37,0,0,1561841644.994408,4.634634386752392,-74.15102600126913,2555.115,0,35.15625,4,30,-9999,1561841645.54885,-19.17694854736328,-19.13672256469727,13.74285888671875,135.7729949951172,143.2662048339844,15,169461.8587601667,-0.9551544189453125,0.229736328125,-0.149078369140625,169461.8587601667,0.04441247223481543,0.01258796352447753,0.02470268332324799,169461.8387101667,-93.9180908203125,-45.63198852539062,-549.3388061523438,169461.8536941667,-0.0224644081106213,-1.409850674817326,-0.2329000731324576,0.05098829418420792,0.006886927876621485,0.02254144847393036,0.007789671421051025,-0.001063942909240723,0.003291428089141846,1,-0.09571818262338638,-0.6425538659095764,0.06678475439548492,0.7572994828224182,-0.960426390171051,0.2308002710342407,-0.1559251248836517,0,0,0,-1,169459.1546855,3,1,1561841643.101184,1561841239.621676,31,1.858098,0,0,29.67847,0,0,1561841644.083,169459.387365,0,0.05297852,75.19244,0,182478453,3,1,1,-34.92799,-39.64074,2
1561841645.602159,38,0,0,1561841644.994408,4.634634386752392,-74.15102600126913,2555.115,0,35.15625,4,30,-9999,1561841645.599567,-19.44886779785156,-18.95462799072266,13.64373779296875,135.6919860839844,143.1851959228516,15,169461.8790241667,-0.9592742919921875,0.2269439697265625,-0.1455535888671875,169461.8790241667,0.02106400632587273,0.02036466022361792,0.01483460622006838,169461.8588211667,-93.9178466796875,-45.59622192382812,-549.0218505859375,169461.8739581667,-0.02165098419205861,-1.40947950301772,-0.2331476062841687,0.02353962510824203,0.01269155368208885,0.01350614242255688,0.003555238246917725,-0.001320034265518188,0.009284436702728271,1,-0.09556283056735992,-0.6424418687820435,0.06715480238199234,0.75738126039505,-0.9603118300437927,0.2310411036014557,-0.1562723815441132,0,0,0,-1,169459.1546855,3,1,1561841643.101184,1561841239.621676,31,1.858098,0,0,29.67847,0,0,1561841644.083,169459.387365,0,0.05297852,75.19244,0,182478453,3,1,1,-34.92799,-41.48708,2
1561841645.60581,39,0,0,1561841644.994408,4.634634386752392,-74.15102600126913,2555.115,0,35.15625,4,30,-9999,1561841645.599567,-19.44886779785156,-18.95462799072266,13.64373779296875,135.6919860839844,143.1851959228516,15,169461.8992881667,-0.963287353515625,0.2266082763671875,-0.148223876953125,169461.8992881667,0.002480468239299803,0.02063843318367806,0.01299915559678577,169461.8789021667,-93.78439331054688,-45.51829528808594,-549.0065307617188,169461.8941911667,-0.021415407985942,-1.409115361417043,-0.2332991001620185,-0.00120699976105243,0.01677950657904148,0.005059659015387297,-0.0007476210594177246,-0.004427641630172729,0.0106661319732666,1,-0.09555665403604507,-0.6423088908195496,0.06727541983127594,0.7574841380119324,-0.9602203369140625,0.2311885058879852,-0.1566164344549179,0,0,0,-1,169459.1546855,3,1,1561841643.101184,1561841239.621676,31,1.858098,0,0,29.67847,0,0,1561841644.083,169459.387365,0,0.05297852,75.19244,0,182478453,3,1,1,-34.92799,-41.48708,2
1561841645.621497,40,0,0,1561841644.994408,4.634634386752392,-74.15102600126913,2555.115,0,35.15625,4,30,-9999,1561841645.599567,-19.44886779785156,-18.95462799072266,13.64373779296875,135.6919860839844,143.1851959228516,15,169461.9195211667,-0.9630126953125,0.2255859375,-0.1496124267578125,169461.9195211667,0.03882835606113728,0.01460850384352065,0.02086400292800777,169461.8990131667,-93.84938049316406,-45.59127807617188,-549.1583251953125,169461.9144551667,-0.02121553602093191,-1.408809758373149,-0.2335308707951234,0.02549145556986332,0.01106196641921997,0.01821620762348175,-0.005761802196502686,-0.005171924829483032,0.007761836051940918,1,-0.09559036046266556,-0.6421930193901062,0.06741116940975189,0.7575660347938538,-0.9601195454597473,0.2314139902591705,-0.1569012105464935,0,0,0,-1,169459.1546855,3,1,1561841643.101184,1561841239.621676,31,1.858098,0,0,29.67847,0,0,1561841644.083,169459.387365,0,0.05297852,75.19244,0,182478453,3,1,1,-34.92799,-41.48708,2
1561841645.641726,41,0,0,1561841644.994408,4.634634386752392,-74.15102600126913,2555.115,0,35.15625,4,30,-9999,1561841645.630014,-19.32465362548828,-19.00836563110352,13.9158935546875,135.6603088378906,143.1535186767578,15,169461.9397841667,-0.9698028564453125,0.221038818359375,-0.1370849609375,169461.9397841667,0.07248059222759655,0.03683178419190487,0.021913288397499,169461.9190941667,-93.58224487304688,-45.56692504882812,-549.0691528320312,169461.9347191667,-0.02014786707141174,-1.408280840226726,-0.2337061038307023,0.06874598562717438,0.02339080348610878,0.01662230677902699,-0.002863705158233643,-0.006746202707290649,0.01230663061141968,1,-0.09533170610666275,-0.6420363187789917,0.06784678995609283,0.7576925754547119,-0.9599964022636414,0.2315844595432281,-0.1574024558067322,0,0,0,-1,169459.1546855,3,1,1561841643.101184,1561841239.621676,31,1.858098,0,0,29.67847,0,0,1561841644.083,169459.387365,0,0.05297852,75.19244,0,182478453,3,1,1,-34.92799,-39.00939,2
1561841645.675846,42,0,0,1561841644.994408,4.634634386752392,-74.15102600126913,2555.115,0,35.15625,4,30,-9999,1561841645.650067,-19.29462432861328,-18.86111450195312,13.8328857421875,135.5626678466797,143.0558776855469,15,169461.9600481667,-0.979522705078125,0.20867919921875,-0.122161865234375,169461.9600481667,0.01787540355272085,0.05337400930293206,-0.0003398193550941108,169461.9392051667,-93.73335266113281,-45.46510314941406,-549.205322265625,169461.9549821667,-0.01883453659847518,-1.407292226263044,-0.2338337471497864,0.04021101444959641,0.04726018384099007,0.008537216112017632,-0.01887238025665283,-0.01652918756008148,0.02944034337997437,1,-0.09499213844537735,-0.6417189240455627,0.06833846867084503,0.7579598426818848,-0.9598110914230347,0.2317086309194565,-0.1583466380834579,0,0,0,-1,169459.1546855,3,1,1561841643.101184,1561841239.621676,31,1.858098,0,0,29.67847,0,0,1561841644.083,169459.387365,0,0.05297852,75.19244,0,182478453,3,1,1,-34.92799,-40.1693,2
1561841645.681965,43,0,0,1561841644.994408,4.634634386752392,-74.15102600126913,2555.115,0,35.15625,4,30,-9999,1561841645.67698,-19.27854156494141,-18.9190559387207,13.7425537109375,135.5709991455078,143.064208984375,15,169461.980327,-0.9746551513671875,0.2011566162109375,-0.1185455322265625,169461.980327,-0.1508651462757898,0.04933079813597376,-0.07726629270646894,169461.9592851667,-93.77313232421875,-45.44554138183594,-549.074951171875,169461.9752461667,-0.01940928195342772,-1.406494462191586,-0.2334306301427596,-0.102969579398632,0.04517812281847,-0.06179473921656609,-0.01646560430526733,-0.02938166260719299,0.04068881273269653,1,-0.09505117684602737,-0.6414058804512024,0.06795305758714676,0.758251965045929,-0.9597765207290649,0.2313164621591568,-0.1591275334358215,0,0,0,-1,169459.1546855,3,1,1561841643.101184,1561841239.621676,31,1.858098,0,0,29.67847,0,0,1561841644.083,169459.387365,0,0.05297852,75.19244,0,182478453,3,1,1,-34.92799,-40.1693,2
1561841645.702311,44,0,0,1561841644.994408,4.634634386752392,-74.15102600126913,2555.115,0,35.15625,4,30,-9999,1561841645.70065,-19.27425384521484,-18.97006988525391,13.6287841796875,135.9010467529297,143.3942565917969,15,169462.00059,-0.9753570556640625,0.202972412109375,-0.130767822265625,169462.00059,-0.3035913095213269,0.07864820699611105,-0.1184986842836207,169461.979411,-93.45927429199219,-45.59613037109375,-549.2255859375,169461.995525,-0.02377334979683144,-1.406607802224521,-0.2321957804219632,-0.2788322269916534,0.0571863166987896,-0.1152334660291672,-0.01558655500411987,-0.02877521514892578,0.0337144136428833,1,-0.09597961604595184,-0.6412918567657471,0.0659065917134285,0.7584121227264404,-0.9600756764411926,0.2301149368286133,-0.1590653359889984,0,0,0,-1,169459.1546855,3,1,1561841643.101184,1561841239.621676,31,1.858098,0,0,29.67847,0,0,1561841644.083,169459.387365,0,0.05297852,75.19244,0,182478453,3,1,1,-34.92799,-40.95259,2
1561841645.722645,45,0,0,1561841644.994408,4.634634386752392,-74.15102600126913,2555.115,0,35.15625,4,30,-9999,1561841645.70065,-19.27425384521484,-18.97006988525391,13.6287841796875,135.9010467529297,143.3942565917969,15,169462.020854,-0.970245361328125,0.2182464599609375,-0.1389617919921875,169462.020854,-0.3399301425954581,0.123380524877845,-0.1202907253811351,169461.999492,-93.42366027832031,-45.59182739257812,-549.219970703125,169462.015788,-0.03079211830015723,-1.406473758394536,-0.230770410336311,-0.3457923531532288,0.1165899857878685,-0.1274480521678925,-0.01133328676223755,-0.01949906349182129,0.02582466602325439,1,-0.09769471734762192,-0.640961766242981,0.06277933716773987,0.7587373852729797,-0.9603769183158875,0.2287275791168213,-0.1592475175857544,0,0,0,-1,169459.1546855,3,1,1561841643.101184,1561841239.621676,31,1.858098,0,0,29.67847,0,0,1561841644.083,169459.387365,0,0.05297852,75.19244,0,182478453,3,1,1,-34.92799,-40.97714,2
1561841645.758512,46,0,0,1561841644.994408,4.634634386752392,-74.15102600126913,2555.115,0,35.15625,4,30,-9999,1561841645.752008,-19.14434814453125,-19.15069961547852,13.1968994140625,136.8339080810547,144.3271179199219,15,169462.041118,-0.95953369140625,0.2318267822265625,-0.149200439453125,169462.041118,-0.2390040604486162,0.0653169552113924,-0.09313393911337906,169462.019603,-93.58506774902344,-45.58631896972656,-549.6238403320312,169462.036052,-0.03784531811582219,-1.406000447510553,-0.2294541556684748,-0.2772420644760132,0.08062080293893814,-0.1053978800773621,-0.005192339420318604,-0.0003799796104431152,0.01499110460281372,1,-0.09947098791599274,-0.6404919028282166,0.05965585261583328,0.7591552138328552,-0.9605974555015564,0.2274460196495056,-0.159751296043396,0,0,0,-1,169459.1546855,3,1,1561841643.101184,1561841239.621676,31,1.858098,0,0,29.67847,0,0,1561841644.083,169459.387365,0,0.05297852,75.19244,0,182478453,3,1,1,-34.92799,-41.663,2
1561841645.76303,47,0,0,1561841644.994408,4.634634386752392,-74.15102600126913,2555.115,0,35.15625,4,30,-9999,1561841645.752008,-19.14434814453125,-19.15069961547852,13.1968994140625,136.8339080810547,144.3271179199219,15,169462.061381,-0.9546661376953125,0.2386932373046875,-0.16143798828125,169462.061381,-0.0890518457945056,-0.01940379170231733,-0.05827768781809496,169462.039714,-93.43232727050781,-45.60635375976562,-549.4271850585938,169462.056285,-0.04232227429549492,-1.406454579761394,-0.2283459268284438,-0.1270344406366348,-0.01064439490437508,-0.06839218735694885,0.007152259349822998,0.007886230945587158,0.005822241306304932,1,-0.1004723682999611,-0.6404898166656494,0.05762231722474098,0.7591822743415833,-0.960918128490448,0.2263666987419128,-0.1593561917543411,0,0,0,-1,169459.1546855,3,1,1561841643.101184,1561841239.621676,31,1.858098,0,0,29.67847,0,0,1561841644.083,169459.387365,0,0.05297852,75.19244,0,182478453,3,1,1,-34.92799,-41.663,2
1561841645.783338,48,0,0,1561841644.994408,4.634634386752392,-74.15102600126913,2555.115,0,35.15625,4,30,-9999,1561841645.777661,-19.04185485839844,-19.31459045410156,13.4066162109375,136.9705047607422,144.4637145996094,15,169462.081615,-0.95758056640625,0.2343902587890625,-0.164825439453125,169462.081615,0.03261892966350852,-0.03358352661033522,-0.0263767463844718,169462.059795,-93.3931884765625,-45.7615966796875,-549.37548828125,169462.076549,-0.04371897445961301,-1.40747589835518,-0.2274164816978511,0.005507362075150013,-0.04003424197435379,-0.03578950464725494,0.004118919372558594,0.01124830543994904,-0.006279289722442627,1,-0.1005392745137215,-0.6408489942550659,0.05684409290552139,0.7589288949966431,-0.9612874984741211,0.2254612743854523,-0.1584088355302811,0,0,0,-1,169459.1546855,3,1,1561841643.101184,1561841239.621676,31,1.858098,0,0,29.67847,0,0,1561841644.083,169459.387365,0,0.05297852,75.19244,0,182478453,3,1,1,-34.92799,-42.00137,2
1561841645.803929,49,0,0,1561841644.994408,4.634634386752392,-74.15102600126913,2555.115,0,35.15625,4,30,-9999,1561841645.802057,-19.20598602294922,-19.30842590332031,13.5067138671875,136.8903045654297,144.3835144042969,15,169462.101878,-0.9571685791015625,0.2374267578125,-0.1618194580078125,169462.101878,0.1161463140927537,-0.03771169261606705,-0.01306839778512783,169462.079906,-93.35104370117188,-45.71490478515625,-549.5394287109375,169462.096812,-0.04273016102538851,-1.408140290107731,-0.2266487518980025,0.096549391746521,-0.04211710020899773,-0.01904594339430332,0.004363894462585449,0.01185899972915649,-0.008278548717498779,1,-0.09991337358951569,-0.6411850452423096,0.05700506269931793,0.7587155699729919,-0.9615629911422729,0.2247132509946823,-0.1577981114387512,0,0,0,-1,169459.1546855,3,1,1561841643.101184,1561841239.621676,31,1.858098,0,0,29.67847,0,0,1561841644.083,169459.387365,0,0.05297852,75.19244,0,182478453,3,1,1,-34.92799,-42.6946,2
1561841645.844675,50,0,0,1561841644.994408,4.634634386752392,-74.15102600126913,2555.115,0,35.15625,4,30,-9999,1561841645.828903,-19.07089996337891,-19.39236068725586,13.38336181640625,136.6911468505859,144.1843566894531,15,169462.122142,-0.956146240234375,0.239715576171875,-0.1522064208984375,169462.122142,0.1514808691198161,-0.06604106871178494,0.008150338200078501,169462.099986,-93.48118591308594,-45.93577575683594,-549.7313232421875,169462.117076,-0.04021871646503818,-1.408648791794676,-0.2260186935356303,0.1440484672784805,-0.06588847935199738,0.001884372439235449,0.005346536636352539,0.01370896399021149,0.001127719879150391,1,-0.09885538369417191,-0.6415306925773621,0.05777975916862488,0.7585033774375916,-0.961782693862915,0.224099263548851,-0.1573319733142853,0,0,0,-1,169459.1546855,3,1,1561841643.101184,1561841239.621676,31,1.858098,0,0,29.67847,0,0,1561841644.083,169459.387365,0,0.05297852,75.19244,0,182478453,3,1,1,-34.92799,-42.25279,2
1561841645.846749,51,0,0,1561841644.994408,4.634634386752392,-74.15102600126913,2555.115,0,35.15625,4,30,-9999,1561841645.828903,-19.07089996337891,-19.39236068725586,13.38336181640625,136.6911468505859,144.1843566894531,15,169462.142406,-0.954986572265625,0.23724365234375,-0.1495513916015625,169462.142406,0.1326802834044017,-0.07863089644902554,0.01727166493359989,169462.120097,-93.62797546386719,-45.88032531738281,-549.370849609375,169462.13734,-0.03719481847681193,-1.409564733297535,-0.2257027115987376,0.1390385329723358,-0.08539586514234543,0.009213658049702644,0.00690305233001709,0.01653462648391724,0.007429778575897217,1,-0.09773895889520645,-0.6420404314994812,0.0588693730533123,0.7581330537796021,-0.9619964957237244,0.2237913012504578,-0.1564623564481735,0,0,0,-1,169459.1546855,3,1,1561841643.101184,1561841239.621676,31,1.858098,0,0,29.67847,0,0,1561841644.083,169459.387365,0,0.05297852,75.19244,0,182478453,3,1,1,-34.92799,-42.25279,2
1561841645.864448,52,0,0,1561841644.994408,4.634634386752392,-74.15102600126913,2555.115,0,35.15625,4,30,-9999,1561841645.852605,-19.11101531982422,-19.23425674438477,13.64508056640625,136.4900360107422,143.9832458496094,15,169462.162669,-0.9531707763671875,0.2321319580078125,-0.1540679931640625,169462.162669,0.09509429199178639,-0.05941405865523177,0.02585663102357932,169462.140208,-93.77334594726562,-45.97659301757812,-549.2318725585938,169462.157603,-0.03466292329952578,-1.410580618743881,-0.2256902708375527,0.09951561689376831,-0.07099668681621552,0.02178084850311279,0.007201552391052246,0.01091626286506653,0.003065407276153564,1,-0.09689099341630936,-0.6425491571426392,0.05987429991364479,0.7577320337295532,-0.9621576070785522,0.2237791866064072,-0.1554854363203049,0,0,0,-1,169459.1546855,3,1,1561841643.101184,1561841239.621676,31,1.858098,0,0,29.67847,0,0,1561841644.083,169459.387365,0,0.05297852,75.19244,0,182478453,3,1,1,-34.92799,-42.99062,2
1561841645.884806,53,0,0,1561841644.994408,4.634634386752392,-74.15102600126913,2555.115,0,35.15625,4,30,-9999,1561841645.879087,-19.22547912597656,-19.39260482788086,13.80224609375,136.3470916748047,143.8403015136719,15,169462.182933,-0.9486846923828125,0.2263031005859375,-0.1548919677734375,169462.182933,0.08394736493315072,-0.06348949407138003,0.02185256832464519,169462.160289,-93.46400451660156,-46.05070495605469,-549.0226440429688,169462.177867,-0.03275121296683162,-1.411460635749531,-0.2258649407632328,0.08551617711782455,-0.06438219547271729,0.01913553103804588,0.01357066631317139,0.005954757332801819,-0.0002442598342895508,1,-0.09631603211164474,-0.6429673433303833,0.06069732084870338,0.7573849558830261,-0.9622553586959839,0.2239494174718857,-0.1546324342489243,0,0,0,-1,169459.1546855,3,1,1561841643.101184,1561841239.621676,31,1.858098,0,0,29.67847,0,0,1561841644.083,169459.387365,0,0.05297852,75.19244,0,182478453,3,1,1,-34.92799,-43.07816,2
1561841645.926011,54,0,0,1561841644.994408,4.634634386752392,-74.15102600126913,2555.115,0,35.15625,4,30,-9999,1561841645.916549,-19.20165252685547,-19.24797439575195,13.7867431640625,136.2224273681641,143.7156372070312,15,169462.203197,-0.95440673828125,0.2256317138671875,-0.153076171875,169462.203197,0.08224027867440993,-0.045708899053466,0.01271526262458332,169462.1804,-93.68536376953125,-46.07905578613281,-548.977294921875,169462.198131,-0.03100677625944349,-1.412383436890071,-0.2259430947463491,0.08089905977249146,-0.05816557630896568,0.01009196788072586,0.01061344146728516,0.001072078943252563,-0.001058757305145264,1,-0.09575635939836502,-0.6433971524238586,0.06142731755971909,0.757032036781311,-0.9623804092407227,0.2240255922079086,-0.153741642832756,0,0,0,-1,169459.1546855,3,1,1561841643.101184,1561841239.621676,31,1.858098,0,0,29.67847,0,0,1561841644.083,169459.387365,0,0.05297852,75.19244,0,182478453,3,1,1,-34.92799,-43.84659,2
1561841645.928487,55,0,0,1561841644.994408,4.634634386752392,-74.15102600126913,2555.115,0,35.15625,4,30,-9999,1561841645.916549,-19.20165252685547,-19.24797439575195,13.7867431640625,136.2224273681641,143.7156372070312,15,169462.22346,-0.950927734375,0.2294769287109375,-0.150360107421875,169462.22346,0.06316059367675525,-0.02981142524234699,0.01057195057928755,169462.200481,-93.44601440429688,-45.712890625,-549.0440673828125,169462.218364,-0.02937962119018979,-1.412974122713861,-0.2259145622866033,0.06993003189563751,-0.038557518273592,0.00739791477099061,0.008955657482147217,0.004227936267852783,0.002585172653198242,1,-0.09520377963781357,-0.643699586391449,0.0620621033012867,0.7567928433418274,-0.9624773859977722,0.2239977717399597,-0.1531741619110107,0,0,0,-1,169459.1546855,3,1,1561841643.101184,1561841239.621676,31,1.858098,0,0,29.67847,0,0,1561841644.083,169459.387365,0,0.05297852,75.19244,0,182478453,3,1,1,-34.92799,-44.02051,2
1561841645.945778,56,0,0,1561841644.994408,4.634634386752392,-74.15102600126913,2555.115,0,35.15625,4,30,-9999,1561841645.916549,-19.20165252685547,-19.24797439575195,13.7867431640625,136.2224273681641,143.7156372070312,15,169462.243693,-0.94384765625,0.2296142578125,-0.153533935546875,169462.243693,0.005205680982777887,-0.01861549601965387,-0.003124420590880962,169462.220592,-93.67744445800781,-45.69842529296875,-549.1867065429688,169462.238628,-0.0284356631797169,-1.413433998389899,-0.2258802763656268,0.01692912727594376,-0.02756079472601414,-0.003450205316767097,0.0155184268951416,0.00438341498374939,0.0003584623336791992,1,-0.09487266838550568,-0.6439198851585388,0.06243003532290459,0.7566166520118713,-0.9625552296638489,0.2239643633365631,-0.152732715010643,0,0,0,-1,169459.1546855,3,1,1561841643.101184,1561841239.621676,31,1.858098,0,0,29.67847,0,0,1561841644.083,169459.387365,0,0.05297852,75.19244,0,182478453,3,1,1,-34.92799,-44.02051,2
1561841645.965796,57,0,0,1561841644.994408,4.634634386752392,-74.15102600126913,2555.115,0,35.15625,4,30,-9999,1561841645.955711,-19.18429565429688,-19.16571807861328,13.7249755859375,136.0956878662109,143.5888977050781,15,169462.263957,-0.94708251953125,0.2288818359375,-0.1579132080078125,169462.263957,-0.02056599520202791,0.002394980768308259,-0.002628806312017216,169462.240703,-93.57810974121094,-45.6795654296875,-549.0848999023438,169462.258891,-0.02856128749793161,-1.413866314700145,-0.2257718675975008,-0.01936017163097858,-0.01098794303834438,-0.008620732463896275,0.01841598749160767,0.00615227222442627,-0.004189014434814453,1,-0.09485873579978943,-0.6440820097923279,0.06236797943711281,0.7564855217933655,-0.9626451134681702,0.2238587141036987,-0.1523203700780869,0,0,0,-1,169459.1546855,3,1,1561841643.101184,1561841239.621676,31,1.858098,0,0,29.67847,0,0,1561841644.083,169459.387365,0,0.05297852,75.19244,0,182478453,3,1,1,-34.92799,-44.79266,2
1561841646.006916,58,0,0,1561841644.994408,4.634634386752392,-74.15102600126913,2555.115,0,35.15625,4,30,-9999,1561841645.980436,-19.22750091552734,-19.18588638305664,13.79449462890625,136.1294097900391,143.6226196289062,15,169462.284221,-0.9508209228515625,0.23431396484375,-0.1613922119140625,169462.284221,-0.02520921656258106,0.02036705706859899,0.00566188047750846,169462.260783,-93.53346252441406,-45.92367553710938,-548.9487915039062,169462.279155,-0.02907612173150361,-1.413904059530246,-0.2258135875896864,-0.02927671745419502,0.01260819658637047,0.001722718589007854,0.01401805877685547,0.006126880645751953,-0.007034420967102051,1,-0.09503909200429916,-0.6440700888633728,0.062188521027565,0.7564878463745117,-0.962641716003418,0.2238993644714355,-0.1522825807332993,0,0,0,-1,169459.1546855,3,1,1561841643.101184,1561841239.621676,31,1.858098,0,0,29.67847,0,0,1561841644.083,169459.387365,0,0.05297852,75.19244,0,182478453,3,1,1,-34.92799,-37.33175,2
1561841646.009398,59,0,0,1561841644.994408,4.634634386752392,-74.15102600126913,2555.115,0,35.15625,4,30,-9999,1561841645.980436,-19.22750091552734,-19.18588638305664,13.79449462890625,136.1294097900391,143.6226196289062,15,169462.304485,-0.956268310546875,0.2346343994140625,-0.163818359375,169462.304485,-0.007037403180534387,0.01081056981295865,0.02376098956179597,169462.280894,-93.60589599609375,-45.45732116699219,-549.107177734375,169462.299419,-0.02953924747479982,-1.413756255454421,-0.226034675882966,-0.01401227712631226,0.008931169286370277,0.01507607474923134,0.007461667060852051,0.01131302118301392,-0.009036123752593994,1,-0.09527620673179626,-0.6439828276634216,0.06207777559757233,0.7565414309501648,-0.9625703096389771,0.2241148352622986,-0.1524171233177185,0,0,0,-1,169459.1546855,3,1,1561841643.101184,1561841239.621676,31,1.858098,0,0,29.67847,0,0,1561841644.083,169459.387365,0,0.05297852,75.19244,0,182478453,3,1,1,-34.92799,-37.33175,2
1561841646.026502,60,0,0,1561841644.994408,4.634634386752392,-74.15102600126913,2555.115,0,35.15625,4,30,-9999,1561841646.009594,-19.22372436523438,-19.08636856079102,13.79229736328125,136.1596984863281,143.6529083251953,15,169462.324748,-0.955474853515625,0.2343292236328125,-0.1661529541015625,169462.324748,0.004146808133362382,0.01313897155401493,0.03255820959065472,169462.301006,-93.66482543945312,-45.86996459960938,-549.194091796875,169462.319682,-0.02957822981661888,-1.413685651684117,-0.2265210727068237,0.002118755830451846,0.005192092154175043,0.02796231210231781,0.008594393730163574,0.01073220372200012,-0.01434105634689331,1,-0.09547441452741623,-0.6439337134361267,0.06221688538789749,0.7565468549728394,-0.9624518156051636,0.2245888411998749,-0.1524680107831955,0,0,0,-1,169459.1546855,3,1,1561841643.101184,1561841239.621676,31,1.858098,0,0,29.67847,0,0,1561841644.083,169459.387365,0,0.05297852,75.19244,0,182478453,3,1,1,-34.92799,-38.32498,2
1561841646.047025,61,0,0,1561841644.994408,4.634634386752392,-74.15102600126913,2555.115,0,35.15625,4,30,-9999,1561841646.030912,-19.13970184326172,-19.17945098876953,13.84344482421875,136.1557312011719,143.6489410400391,15,169462.345012,-0.959808349609375,0.2268524169921875,-0.1697540283203125,169462.345012,-0.01035144084102899,0.02886946516478597,0.0299563012056473,169462.321086,-93.54371643066406,-45.51272583007812,-549.1947631835938,169462.339946,-0.02947613996842647,-1.413385952629066,-0.2271095564195395,-0.005007330328226089,0.02260996401309967,0.02695510536432266,0.003718197345733643,0.004513055086135864,-0.01512622833251953,1,-0.09567286819219589,-0.6438003182411194,0.06243138760328293,0.7566176056861877,-0.9622753262519836,0.2251622527837753,-0.152735710144043,0,0,0,-1,169459.1546855,3,1,1561841643.101184,1561841239.621676,31,1.858098,0,0,29.67847,0,0,1561841644.083,169459.387365,0,0.05297852,75.19244,0,182478453,3,1,1,-34.92799,-38.64822,2
1561841646.083028,62,0,0,1561841645.994394,4.634639248256232,-74.15099230601838,2555.132,1.88,39.0234375,4,30,-9999,1561841646.073153,-19.32370758056641,-18.96125793457031,13.79302978515625,136.1598968505859,143.6531066894531,15,169462.365276,-0.967620849609375,0.226287841796875,-0.16778564453125,169462.365276,-0.0007041397922169506,0.02751551406658968,0.007932757939019026,169462.341197,-93.71395874023438,-45.46018981933594,-549.0159912109375,169462.36021,-0.02969663802185622,-1.41293778571484,-0.2276140522004521,-0.01244767010211945,0.02304219640791416,0.01091062463819981,0.0003178119659423828,0.0005425363779067993,-0.0173373818397522,1,-0.09594815224409103,-0.6435987949371338,0.06248950213193893,0.7567494511604309,-0.9620945453643799,0.2256537526845932,-0.1531490832567215,0,0,0,-1,169459.1546855,3,1,1561841643.101184,1561841239.621676,31,1.858098,0,0,29.67847,0,0,1561841644.083,169459.387365,0,0.05297852,75.19244,0,182478453,3,1,1,-35.48527,-39.42624,2
1561841646.090717,63,0,0,1561841645.994394,4.634639248256232,-74.15099230601838,2555.132,1.88,39.0234375,4,30,-9999,1561841646.073153,-19.32370758056641,-18.96125793457031,13.79302978515625,136.1598968505859,143.6531066894531,15,169462.385539,-0.9748687744140625,0.2236480712890625,-0.168853759765625,169462.385539,0.03720169726731688,0.0263365326520116,0.006630472165970279,169462.361308,-93.67927551269531,-45.69148254394531,-549.0916748046875,169462.380443,-0.02948765527108201,-1.412455429673457,-0.2276645562216507,0.02991150505840778,0.01670467108488083,-0.0003854397218674421,-0.01194405555725098,-0.001078337430953979,-0.01220595836639404,1,-0.0959150493144989,-0.6434241533279419,0.0625617727637291,0.7568960785865784,-0.9620091915130615,0.2257029563188553,-0.1536113172769547,0,0,0,-1,169459.1546855,3,1,1561841643.101184,1561841239.621676,31,1.858098,0,0,29.67847,0,0,1561841644.083,169459.387365,0,0.05297852,75.19244,0,182478453,3,1,1,-36.04255,-36.04255,2
1561841646.108425,64,0,0,1561841645.994394,4.634639248256232,-74.15099230601838,2555.132,1.88,39.0234375,4,30,-9999,1561841646.073153,-19.32370758056641,-18.96125793457031,13.79302978515625,136.1598968505859,143.6531066894531,15,169462.405772,-0.984039306640625,0.2255096435546875,-0.1760101318359375,169462.405772,0.03131637757435077,0.05419159975758639,0.04887246811237112,169462.381389,-93.6007080078125,-45.51951599121094,-549.0272216796875,169462.400706,-0.0286758074980604,-1.411671455532814,-0.2278196361128779,0.03461654111742973,0.04114577174186707,0.03077476285398006,-0.01525789499282837,-0.001473546028137207,-0.01809489727020264,1,-0.0957370400428772,-0.6431597471237183,0.06288157403469086,0.7571167945861816,-0.9618539214134216,0.2258540391921997,-0.1543599218130112,0,0,0,-1,169459.1546855,3,1,1561841643.101184,1561841239.621676,31,1.858098,0,0,29.67847,0,0,1561841644.083,169459.387365,0,0.05297852,75.19244,0,182478453,3,1,1,-36.04255,-36.04255,2
1561841646.128324,65,0,0,1561841645.994394,4.634639248256232,-74.15099230601838,2555.132,1.88,39.0234375,4,30,-9999,1561841646.095689,-19.23311614990234,-18.83624649047852,13.83795166015625,136.1534423828125,143.6466522216797,15,169462.426036,-1.002853393554688,0.2142333984375,-0.1903076171875,169462.426036,-0.02477964867875128,0.1021087919869461,0.1339098648796913,169462.4015,-93.48556518554688,-45.82376098632812,-549.0194091796875,169462.42097,-0.02808838574658589,-1.410324030057803,-0.2291082238185229,-0.00939219631254673,0.07804094254970551,0.1065989583730698,-0.03261584043502808,-0.004956424236297607,-0.02711480855941772,1,-0.09607734531164169,-0.6426231861114502,0.06345518678426743,0.7574813365936279,-0.9613569378852844,0.2271091341972351,-0.1556091755628586,0,0,0,-1,169459.1546855,3,1,1561841643.101184,1561841239.621676,31,1.858098,0,0,29.67847,0,0,1561841644.083,169459.387365,0,0.05297852,75.19244,0,182478453,3,1,1,-36.59982,-36.60897,2
1561841646.158431,66,0,0,1561841645.994394,4.634639248256232,-74.15099230601838,2555.132,1.88,39.0234375,4,30,-9999,1561841646.132106,-19.24295806884766,-19.08417892456055,13.7293701171875,136.0730438232422,143.5662536621094,15,169462.4463,-1.055389404296875,0.180694580078125,-0.21832275390625,169462.4463,-0.1616733192437673,0.162702631005083,0.2722498982327294,169462.421611,-93.56047058105469,-45.64076232910156,-549.0328979492188,169462.441234,-0.028739113400168,-1.408116159398371,-0.2325202691703465,-0.1233190298080444,0.1477784663438797,0.2280521392822266,-0.05970239639282227,-0.02919778227806091,-0.04350590705871582,1,-0.09764590114355087,-0.6416095495223999,0.06420141458511353,0.7580769658088684,-0.9602408409118652,0.2304306924343109,-0.1576049327850342,0,0,0,-1,169459.1546855,3,1,1561841643.101184,1561841239.621676,31,1.858098,0,0,29.67847,0,0,1561841644.083,169459.387365,0,0.05297852,75.19244,0,182478453,3,1,1,-36.82529,-36.82529,2
1561841646.168292,67,0,0,1561841645.994394,4.634639248256232,-74.15099230601838,2555.132,1.88,39.0234375,4,30,-9999,1561841646.158929,-19.37630462646484,-19.08779144287109,13.67230224609375,136.2177581787109,143.7109680175781,15,169462.466563,-1.19915771484375,0.1576995849609375,-0.2732391357421875,169462.466563,-0.3039114214843544,0.05741056256716516,0.4037344223076855,169462.441692,-93.95889282226562,-45.74217224121094,-549.049560546875,169462.461497,-0.03193998693044075,-1.40613486897463,-0.2394736856688147,-0.2865372598171234,0.08115044981241226,0.3918099403381348,-0.1542106866836548,-0.07737080752849579,-0.08515936136245728,1,-0.1013642251491547,-0.640394389629364,0.06512726843357086,0.7585372924804688,-0.9583228826522827,0.2371913641691208,-0.1592406332492828,0,0,0,-1,169459.1546855,3,1,1561841643.101184,1561841239.621676,31,1.858098,0,0,29.67847,0,0,1561841644.083,169459.387365,0,0.05297852,75.19244,0,182478453,3,1,1,-36.82529,-37.84299,2
1561841646.18897,68,0,0,1561841645.994394,4.634639248256232,-74.15099230601838,2555.132,1.88,39.0234375,4,30,-9999,1561841646.182643,-19.64243316650391,-18.86923599243164,13.6773681640625,136.5496978759766,144.0429077148438,15,169462.486827,-1.362167358398438,0.17620849609375,-0.295562744140625,169462.486827,-0.1357202817887271,-0.2259766753442756,0.258489611196399,169462.461803,-93.93199157714844,-45.69207763671875,-549.438232421875,169462.481761,-0.03667921307298761,-1.407243797154307,-0.2479565250770986,-0.2379643768072128,-0.1151255890727043,0.3159908056259155,-0.3278835415840149,-0.07261770963668823,-0.126136839389801,1,-0.1060497537255287,-0.6401805877685547,0.06611721217632294,0.7579913139343262,-0.9564792513847351,0.2454234957695007,-0.1578445285558701,0,0,0,-1,169459.1546855,3,1,1561841643.101184,1561841239.621676,31,1.858098,0,0,29.67847,0,0,1561841644.083,169459.387365,0,0.05297852,75.19244,0,182478453,3,1,1,-36.82529,-38.54342,2
1561841646.20862,69,0,0,1561841645.994394,4.634639248256232,-74.15099230601838,2555.132,1.88,39.0234375,4,30,-9999,1561841646.206964,-19.44186401367188,-18.93441772460938,13.3929443359375,136.3660888671875,143.8592987060547,15,169462.507091,-1.529617309570312,0.2064208984375,-0.3261566162109375,169462.507091,0.655120051296298,-0.910046885586389,-0.08354416234411273,169462.481914,-93.71592712402344,-45.53248596191406,-549.6148681640625,169462.502025,-0.03536544718429292,-1.414777473631212,-0.2513158039725452,0.4115456938743591,-0.7190120220184326,0.005694977007806301,-0.4951592683792114,-0.06223151087760925,-0.1591565608978271,1,-0.1066416278481483,-0.6429423689842224,0.06809819489717484,0.7553908228874207,-0.9568213224411011,0.2486786395311356,-0.1505053490400314,0,0,0,-1,169459.1546855,3,1,1561841643.101184,1561841239.621676,31,1.858098,0,0,29.67847,0,0,1561841644.083,169459.387365,0,0.05297852,75.19244,0,182478453,3,1,1,-36.82529,-37.66877,2
1561841646.229846,70,0,0,1561841645.994394,4.634639248256232,-74.15099230601838,2555.132,1.88,39.0234375,4,30,-9999,1561841646.206964,-19.44186401367188,-18.93441772460938,13.3929443359375,136.3660888671875,143.8592987060547,15,169462.527354,-1.701889038085938,0.2455596923828125,-0.33770751953125,169462.527354,1.621538333992503,-1.368791563370751,-0.4929021156096096,169462.501994,-94.11955261230469,-45.23707580566406,-549.0933227539062,169462.522288,-0.01718797711494436,-1.432109315894417,-0.2448636007054296,1.402671217918396,-1.348327398300171,-0.393110990524292,-0.6465819478034973,-0.01525114476680756,-0.2065333127975464,1,-0.09772765636444092,-0.6506840586662292,0.07372758537530899,0.7494156360626221,-0.9608551859855652,0.2424239963293076,-0.1341191232204437,0,0,0,-1,169459.1546855,3,1,1561841643.101184,1561841239.621676,31,1.858098,0,0,29.67847,0,0,1561841644.083,169459.387365,0,0.05297852,75.19244,0,182478453,3,1,1,-36.19556,-37.94698,2
1561841646.249161,71,0,0,1561841645.994394,4.634639248256232,-74.15099230601838,2555.132,1.88,39.0234375,4,30,-9999,1561841646.233984,-18.95370483398438,-18.57414627075195,14.87109375,134.6278228759766,142.1210327148438,15,169462.547618,-1.8380126953125,0.2989044189453125,-0.2985992431640625,169462.547618,1.973488654168034,-0.8068603123062879,-0.8830711942727584,169462.522105,-93.60855102539062,-45.13166809082031,-548.1221923828125,169462.542522,0.01750864579846475,-1.449727241686331,-0.2283312869227494,1.985019564628601,-1.03006637096405,-0.7943702936172485,-0.8129002451896667,0.03615978360176086,-0.1940218806266785,1,-0.07950789481401443,-0.65943843126297,0.08203907310962677,0.7430268526077271,-0.9669154286384583,0.2263524383306503,-0.1176389008760452,0,0,0,-1,169459.1546855,3,1,1561841643.101184,1561841239.621676,31,1.858098,0,0,29.67847,0,0,1561841644.083,169459.387365,0,0.05297852,75.19244,0,182478453,3,1,1,-36.19556,-37.94698,2
1561841646.269392,72,0,0,1561841645.994394,4.634639248256232,-74.15099230601838,2555.132,1.88,39.0234375,4,30,-9999,1561841646.257699,-18.18450164794922,-18.29892349243164,15.88031005859375,131.9634552001953,139.4566650390625,15,169462.567851,-1.895904541015625,0.4001312255859375,-0.3842315673828125,169462.567851,1.253889478139282,0.107382117261412,-1.296374887009317,169462.542216,-92.6658935546875,-44.97789001464844,-546.9940185546875,169462.562785,0.05277783462474027,-1.45380401010658,-0.2042266968763233,1.496174216270447,-0.1224279701709747,-1.180808067321777,-0.9136298298835754,0.1464331746101379,-0.2140693068504333,1,-0.05870020762085915,-0.6628758311271667,0.08733255416154861,0.7412981390953064,-0.9725243449211121,0.2028099894523621,-0.1142998337745667,0,0,0,-1,169459.1546855,3,1,1561841643.101184,1561841239.621676,31,1.858098,0,0,29.67847,0,0,1561841644.083,169459.387365,0,0.05297852,75.19244,0,182478453,3,1,1,-35.84682,-38.01344,2
1561841646.289489,73,0,0,1561841645.994394,4.634639248256232,-74.15099230601838,2555.132,1.88,39.0234375,4,30,-9999,1561841646.283895,-17.89276123046875,-18.04824447631836,16.50299072265625,130.4358520507812,137.9290618896484,15,169462.588115,-1.763046264648438,0.481292724609375,-0.32708740234375,169462.588115,0.6465867505314662,1.116704457751012,-1.656436663233011,169462.562297,-92.27998352050781,-44.74607849121094,-546.4564208984375,169462.583049,0.07078607894004357,-1.44322293329802,-0.1731680114660654,0.7099385261535645,0.8586099743843079,-1.621489882469177,-0.8752253651618958,0.2793868184089661,-0.2668566107749939,1,-0.04159239307045937,-0.6600058078765869,0.08355575054883957,0.7454401254653931,-0.9770390391349792,0.1723038405179977,-0.1253248155117035,0,0,0,-1,169459.1546855,3,1,1561841643.101184,1561841239.621676,31,1.858098,0,0,29.67847,0,0,1561841644.083,169459.387365,0,0.05297852,75.19244,0,182478453,3,1,1,-34.45676,-34.45676,2
1561841646.309899,74,0,0,1561841645.994394,4.634639248256232,-74.15099230601838,2555.132,1.88,39.0234375,4,30,-9999,1561841646.308934,-17.63248443603516,-18.36701965332031,16.26190185546875,129.8084411621094,137.3016510009766,15,169462.608379,-1.592514038085938,0.4842529296875,-0.2440643310546875,169462.608379,0.7106387042250709,1.761835524430641,-1.369074923710736,169462.582408,-91.97456359863281,-44.67742919921875,-546.6345825195312,169462.603313,0.07944718381952361,-1.415393784030057,-0.1390123104391691,0.6766053438186646,1.659732222557068,-1.4879070520401,-0.697072446346283,0.3455353379249573,-0.1122182011604309,1,-0.02697627618908882,-0.6500999331474304,0.07521656155586243,0.7556353807449341,-0.9784188866615295,0.1385650187730789,-0.1532847136259079,0,0,0,-1,169459.1546855,3,1,1561841643.101184,1561841239.621676,31,1.858098,0,0,29.67847,0,0,1561841644.083,169459.387365,0,0.05297852,75.19244,0,182478453,3,1,1,-33.70063,-34.86776,2
1561841646.330164,75,0,0,1561841645.994394,4.634639248256232,-74.15099230601838,2555.132,1.88,39.0234375,4,30,-9999,1561841646.308934,-17.63248443603516,-18.36701965332031,16.26190185546875,129.8084411621094,137.3016510009766,15,169462.628642,-1.363937377929688,0.474395751953125,-0.218353271484375,169462.628642,0.7855994983758583,1.86715395816335,-0.8535963925921974,169462.602519,-92.14627075195312,-45.23541259765625,-546.7813110351562,169462.623576,0.08989737374289385,-1.377536854117407,-0.1116906838479734,0.7818710803985596,1.883647322654724,-0.9774524569511414,-0.511547863483429,0.3723518252372742,-0.04500836133956909,1,-0.01453366223722696,-0.635891318321228,0.07007622718811035,0.7684532403945923,-0.975268542766571,0.1114586070179939,-0.1908620148897171,0,0,0,-1,169459.1546855,3,1,1561841643.101184,1561841239.621676,31,1.858098,0,0,29.67847,0,0,1561841644.083,169459.387365,0,0.05297852,75.19244,0,182478453,3,1,1,-32.80892,-35.19693,2
1561841646.350403,76,0,0,1561841645.994394,4.634639248256232,-74.15099230601838,2555.132,1.88,39.0234375,4,30,-9999,1561841646.334539,-17.96934509277344,-19.00378036499023,15.550048828125,129.0090942382812,136.5023040771484,15,169462.648906,-1.145904541015625,0.4724578857421875,-0.194091796875,169462.648906,0.6418532480099594,1.427205605036658,-0.6236010071629923,169462.62263,-92.20869445800781,-45.38603210449219,-546.9998168945312,169462.64384,0.1017053915460593,-1.340576709748035,-0.09296070728337416,0.7006379961967468,1.546712398529053,-0.6550477743148804,-0.2787411212921143,0.3835677802562714,0.02376067638397217,1,-0.004821217153221369,-0.6215896606445312,0.068616583943367,0.7803171873092651,-0.9694125652313232,0.09282687306404114,-0.2272060960531235,0,0,0,-1,169459.1546855,3,1,1561841643.101184,1561841239.621676,31,1.858098,0,0,29.67847,0,0,1561841644.083,169459.387365,0,0.05297852,75.19244,0,182478453,3,1,1,-32.26434,-35.18155,2
1561841646.371836,77,0,0,1561841645.994394,4.634639248256232,-74.15099230601838,2555.132,1.88,39.0234375,4,30,-9999,1561841646.358972,-17.99842834472656,-18.98394775390625,15.13238525390625,128.2822570800781,135.7754669189453,15,169462.66917,-0.9785919189453125,0.4043731689453125,-0.1555938720703125,169462.66917,0.3175233704479674,1.244971883229152,-0.4254892526203248,169462.642741,-92.50625610351562,-45.6448974609375,-547.4490966796875,169462.664104,0.1099295575657091,-1.312562975889545,-0.07867090415550906,0.4039282500743866,1.236287474632263,-0.4955305755138397,-0.09130829572677612,0.3553701639175415,0.08968126773834229,1,0.002386243082582951,-0.6104938983917236,0.06745025515556335,0.789139986038208,-0.9638522267341614,0.0785897821187973,-0.2545830011367798,0,0,0,-1,169459.1546855,3,1,1561841643.101184,1561841239.621676,31,1.858098,0,0,29.67847,0,0,1561841644.083,169459.387365,0,0.05297852,75.19244,0,182478453,3,1,1,-31.96171,-31.96171,2
1561841646.391034,78,0,0,1561841645.994394,4.634639248256232,-74.15099230601838,2555.132,1.88,39.0234375,4,30,-9999,1561841646.385282,-18.26594543457031,-18.64044952392578,15.12005615234375,128.0244445800781,135.5176544189453,15,169462.689433,-0.7449798583984375,0.36578369140625,-0.18072509765625,169462.689433,0.02749394246176004,1.411578708392291,-0.1035940369268833,169462.662822,-92.28291320800781,-45.28691101074219,-547.69482421875,169462.684367,0.112595417492717,-1.286516971310538,-0.07056287078154595,0.08156673610210419,1.3591228723526,-0.1944405138492584,0.08651882410049438,0.3179844319820404,0.1076487302780151,1,0.005549152381718159,-0.6000710725784302,0.06611865758895874,0.7971901297569275,-0.9574753046035767,0.070504330098629,-0.2797678411006927,0,0,0,-1,169459.1546855,3,1,1561841643.101184,1561841239.621676,31,1.858098,0,0,29.67847,0,0,1561841644.083,169459.387365,0,0.05297852,75.19244,0,182478453,3,1,1,-31.96171,-31.96171,2
1561841646.411213,79,0,0,1561841645.994394,4.634639248256232,-74.15099230601838,2555.132,1.88,39.0234375,4,30,-9999,1561841646.409599,-18.4498291015625,-18.79010772705078,14.519287109375,128.0480651855469,135.5412750244141,15,169462.709697,-0.53155517578125,0.31036376953125,-0.2060546875,169462.709697,-0.08100696877359423,1.593509895099964,0.2044660569035966,169462.682933,-92.87588500976562,-45.51641845703125,-547.9195556640625,169462.7046,0.1122535672000907,-1.257353558998922,-0.07017357952127784,-0.07461567223072052,1.530510067939758,0.135592520236969,0.3261183500289917,0.266691267490387,0.1150869727134705,1,0.0046412143856287,-0.5883792638778687,0.06594089418649673,0.8058784008026123,-0.9489363431930542,0.07011599838733673,-0.307576596736908,0,0,0,-1,169459.1546855,3,1,1561841643.101184,1561841239.621676,31,1.858098,0,0,29.67847,0,0,1561841644.083,169459.387365,0,0.05297852,75.19244,0,182478453,3,1,1,-31.96171,-32.62185,2
1561841646.431472,80,0,0,1561841645.994394,4.634639248256232,-74.15099230601838,2555.132,1.88,39.0234375,4,30,-9999,1561841646.409599,-18.4498291015625,-18.79010772705078,14.519287109375,128.0480651855469,135.5412750244141,15,169462.72993,-0.364471435546875,0.24298095703125,-0.1830596923828125,169462.72993,0.05700016944318395,1.744818191381143,0.4290517632105237,169462.703044,-93.32257080078125,-45.55027770996094,-548.7536010742188,169462.724864,0.1127229288630056,-1.22399572300082,-0.07556230542538364,-0.009702187962830067,1.738149762153625,0.3763079345226288,0.4889440536499023,0.202158510684967,0.1394425630569458,1,0.001472150324843824,-0.5749238729476929,0.06774044036865234,0.8153965473175049,-0.9377813339233398,0.07549042254686356,-0.3389207422733307,0,0,0,-1,169462.728709,3,2,1561841646.675208,1561841239.621676,31,1.858098,0,0,29.67847,0,0,1561841646.67533,169459.387365,0,0.05297852,75.19244,0,182478453,3,1,1,-31.96171,-33.32328,2
1561841646.4518,81,0,0,1561841645.994394,4.634639248256232,-74.15099230601838,2555.132,1.88,39.0234375,4,30,-9999,1561841646.435704,-19.65909576416016,-18.70206451416016,13.07342529296875,127.9135360717773,135.40673828125,15,169462.750194,-0.23834228515625,0.1705780029296875,-0.1372528076171875,169462.750194,0.3792637003153834,1.431127376057909,0.6470701142693156,169462.723155,-93.77737426757812,-45.35466003417969,-549.4920654296875,169462.745128,0.118793745577353,-1.18945466046494,-0.08364234429026739,0.2988108992576599,1.54394519329071,0.5901935696601868,0.6357824206352234,0.1264466047286987,0.2078095674514771,1,-0.001338952220976353,-0.5608615875244141,0.07251014560461044,0.8247269988059998,-0.9249212145805359,0.08354485034942627,-0.3708649873733521,0,0,0,-1,169462.728709,3,2,1561841646.675208,1561841239.621676,31,1.858098,0,0,29.67847,0,0,1561841646.67533,169460.331197,0,0.0925293,75.19207,0,182478453,3,1,1,-31.36379,-33.37182,2
1561841646.472138,82,0,0,1561841645.994394,4.634639248256232,-74.15099230601838,2555.132,1.88,39.0234375,4,30,-9999,1561841646.46071,-20.16915893554688,-18.36516952514648,12.5982666015625,127.1570510864258,134.6502532958984,15,169462.770457,-0.217529296875,0.1017913818359375,-0.097381591796875,169462.770457,0.6430095925552718,0.8487795331285711,0.7310153486735942,169462.743236,-94.31494140625,-45.28501892089844,-550.0852661132812,169462.765391,0.1324347324855857,-1.162324810994423,-0.09270383985794739,0.5815305113792419,0.9939742088317871,0.7195299863815308,0.6890721321105957,0.04985442012548447,0.2756437063217163,1,-0.002355866134166718,-0.5497669577598572,0.08062844723463058,0.8314143419265747,-0.913788378238678,0.09257111698389053,-0.3955014944076538,0,0,0,-1,169462.728709,3,2,1561841646.675208,1561841239.621676,31,1.858098,0,0,29.67847,0,0,1561841646.67533,169460.331197,0,0.0925293,75.19207,0,182478453,3,1,1,-31.18268,-33.64149,2
1561841646.49228,83,0,0,1561841645.994394,4.634639248256232,-74.15099230601838,2555.132,1.88,39.0234375,4,30,-9999,1561841646.486506,-20.82266235351562,-17.8797492980957,12.31512451171875,125.8745346069336,133.3677368164062,15,169462.790721,-0.2257232666015625,0.0100250244140625,-0.077301025390625,169462.790721,0.6990081471124769,0.1670755415149931,0.728756455436989,169462.763347,-94.84162902832031,-44.84791564941406,-550.5328369140625,169462.785655,0.1510248930562379,-1.146777049378625,-0.1007044585101487,0.7225883007049561,0.3505063056945801,0.7376493811607361,0.6985577344894409,-0.05300320684909821,0.3327130079269409,1,-0.001287579070776701,-0.5434399843215942,0.09052078425884247,0.8345521688461304,-0.9068249464035034,0.1005343273282051,-0.4093426465988159,0,0,0,-1,169462.728709,3,2,1561841646.675208,1561841239.621676,31,1.858098,0,0,29.67847,0,0,1561841646.67533,169460.331197,0,0.0925293,75.19207,0,182478453,3,1,1,-31.18268,-33.74734,2
1561841646.512514,84,0,0,1561841645.994394,4.634639248256232,-74.15099230601838,2555.132,1.88,39.0234375,4,30,-9999,1561841646.510843,-21.28455352783203,-17.68437576293945,12.306640625,124.5667953491211,132.0599975585938,15,169462.810985,-0.2646942138671875,-0.0120849609375,-0.1174163818359375,169462.810985,0.5703223390270851,-0.3282444580482994,0.8318101369786952,169462.783458,-95.55648803710938,-44.54876708984375,-550.5565185546875,169462.805919,0.1693685586784482,-1.144590460614974,-0.1089886129226826,0.5797163844108582,-0.2637669742107391,0.7943776249885559,0.6330282688140869,-0.09832070022821426,0.3107463717460632,1,0.0001146416179835796,-0.5426941514015198,0.1003918796777725,0.8339091539382935,-0.9051382541656494,0.1087729707360268,-0.4109660983085632,0,0,0,-1,169462.728709,3,2,1561841646.675208,1561841239.621676,31,1.858098,0,0,29.67847,0,0,1561841646.67533,169460.331197,0,0.0925293,75.19207,0,182478453,3,1,1,-31.18268,-34.06219,2
1561841646.532831,85,0,0,1561841645.994394,4.634639248256232,-74.15099230601838,2555.132,1.88,39.0234375,4,30,-9999,1561841646.510843,-21.28455352783203,-17.68437576293945,12.306640625,124.5667953491211,132.0599975585938,15,169462.831248,-0.332855224609375,-0.023468017578125,-0.073333740234375,169462.831248,0.6016275313248575,-0.5046032464910907,0.9793905403659813,169462.803569,-95.5450439453125,-44.02378845214844,-550.5257568359375,169462.826183,0.1872379871612425,-1.15009339297417,-0.1200328121830013,0.5880855917930603,-0.4645147323608398,0.9219451546669006,0.6364282369613647,-0.1495451927185059,0.3100961446762085,1,0.0006379156257025898,-0.5452226996421814,0.1107849329710007,0.8309382796287537,-0.9062341451644897,0.119744785130024,-0.4054636061191559,0,0,0,-1,169462.728709,3,2,1561841646.675208,1561841239.621676,31,1.858098,0,0,29.67847,0,0,1561841646.67533,169460.331197,0,0.0925293,75.19207,0,182478453,3,1,1,-31.18268,-32.59305,2
1561841646.553086,86,0,0,1561841645.994394,4.634639248256232,-74.15099230601838,2555.132,1.88,39.0234375,4,30,-9999,1561841646.538033,-21.32466125488281,-16.73029327392578,12.8526611328125,123.2468795776367,130.7400817871094,15,169462.851512,-0.441070556640625,-0.0167694091796875,-0.094512939453125,169462.851512,0.5629318006860061,-0.5014031921252514,1.183956199494347,169462.82368,-95.9788818359375,-43.50335693359375,-550.0663452148438,169462.846446,0.2071023235239433,-1.158190759118186,-0.1344133609738208,0.5961648225784302,-0.5355343222618103,1.160212278366089,0.5161992907524109,-0.1495576947927475,0.3144032955169678,1,0.0005354569293558598,-0.5489165782928467,0.1228733286261559,0.8267964124679565,-0.9078161120414734,0.13400898873806,-0.3973806202411652,0,0,0,-1,169462.728709,3,2,1561841646.675208,1561841239.621676,31,1.858098,0,0,29.67847,0,0,1561841646.67533,169460.331197,0,0.0925293,75.19207,0,182478453,3,1,1,-31.18268,-32.59305,2
1561841646.573351,87,0,0,1561841645.994394,4.634639248256232,-74.15099230601838,2555.132,1.88,39.0234375,4,30,-9999,1561841646.565726,-21.58857727050781,-15.95629501342773,13.366943359375,121.8215103149414,129.3147125244141,15,169462.871776,-0.55084228515625,-0.0116729736328125,-0.1433868408203125,169462.871776,0.2517904294743046,-0.4279926240449993,0.9626211476139703,169462.843791,-96.07748413085938,-42.753173828125,-549.7228393554688,169462.866679,0.2255835698816034,-1.165297892240295,-0.1516712452327939,0.3387444615364075,-0.4351848065853119,1.04570484161377,0.409424901008606,-0.1625192314386368,0.2749427556991577,1,-0.001107898657210171,-0.5522903800010681,0.1351350992918015,0.822625458240509,-0.9083568453788757,0.1510903984308243,-0.3899482190608978,0,0,0,-1,169462.728709,3,2,1561841646.675208,1561841239.621676,31,1.858098,0,0,29.67847,0,0,1561841646.67533,169460.331197,0,0.0925293,75.19207,0,182478453,3,1,1,-31.18268,-33.08633,2
1561841646.593513,88,0,0,1561841645.994394,4.634639248256232,-74.15099230601838,2555.132,1.88,39.0234375,4,30,-9999,1561841646.588085,-22.01513671875,-15.37545013427734,13.614501953125,120.9655380249023,128.458740234375,15,169462.892009,-0.625732421875,-0.0357818603515625,-0.1841278076171875,169462.892009,-0.02623666411113363,-0.5553822716278495,0.6853477286170244,169462.863902,-96.14299011230469,-42.01106262207031,-549.2215576171875,169462.886943,0.2359821919757784,-1.172912038144358,-0.1665997426833561,0.03833005204796791,-0.513962984085083,0.7251271605491638,0.3211517333984375,-0.1929755210876465,0.2106562256813049,1,-0.003898529568687081,-0.5558172464370728,0.1434335559606552,0.8188276290893555,-0.90911865234375,0.165830135345459,-0.3821039795875549,0,0,0,-1,169462.728709,3,2,1561841646.675208,1561841239.621676,31,1.858098,0,0,29.67847,0,0,1561841646.67533,169460.331197,0,0.0925293,75.19207,0,182478453,3,1,1,-31.18268,-33.37113,2
1561841646.613739,89,0,0,1561841645.994394,4.634639248256232,-74.15099230601838,2555.132,1.88,39.0234375,4,30,-9999,1561841646.612111,-22.28897094726562,-14.7321891784668,14.0028076171875,120.7709884643555,128.2641906738281,15,169462.912273,-0.7313232421875,-0.0161285400390625,-0.183624267578125,169462.912273,-0.3708363933619366,-0.5974650105410636,0.6498310133714007,169462.883983,-96.47021484375,-41.58270263671875,-549.0548095703125,169462.907207,0.2392108483264777,-1.184102559334164,-0.1799398335557678,-0.27207151055336,-0.6026837825775146,0.6463916301727295,0.2350754737854004,-0.2095489948987961,0.1855536103248596,1,-0.007704335730522871,-0.5607324838638306,0.148394450545311,0.8145543932914734,-0.9112076759338379,0.1789703816175461,-0.3710394501686096,0,0,0,-1,169462.728709,3,2,1561841646.675208,1561841239.621676,31,1.858098,0,0,29.67847,0,0,1561841646.67533,169460.331197,0,0.0925293,75.19207,0,182478453,3,1,1,-31.18268,-33.81123,2
1561841646.634159,90,0,0,1561841645.994394,4.634639248256232,-74.15099230601838,2555.132,1.88,39.0234375,4,30,-9999,1561841646.612111,-22.28897094726562,-14.7321891784668,14.0028076171875,120.7709884643555,128.2641906738281,15,169462.932536,-0.8603515625,0.0005340576171875,-0.2380218505859375,169462.932536,-0.710439499775533,-0.5504176067237239,0.5166399356699218,169462.904094,-96.74510192871094,-40.9844970703125,-548.5870361328125,169462.92747,0.2350455823108966,-1.197102210756962,-0.1953197609824368,-0.6499550938606262,-0.5905030369758606,0.5772562026977539,0.1203600764274597,-0.1998175382614136,0.1552959084510803,1,-0.01424751337617636,-0.5663383603096008,0.1509665697813034,0.8101029992103577,-0.9132829904556274,0.1940802186727524,-0.3581157326698303,0,0,0,-1,169462.728709,3,2,1561841646.675208,1561841239.621676,31,1.858098,0,0,29.67847,0,0,1561841646.67533,169460.331197,0,0.0925293,75.19207,0,182478453,3,1,1,-31.18268,-34.68084,2
1561841646.65645,91,0,0,1561841645.994394,4.634639248256232,-74.15099230601838,2555.132,1.88,39.0234375,4,30,-9999,1561841646.638532,-22.19400787353516,-14.65372467041016,14.12933349609375,121.2472457885742,128.7404479980469,15,169462.9528,-0.924835205078125,0.00616455078125,-0.28814697265625,169462.9528,-0.7317658274687785,-0.2808851980673113,0.1634898614233104,169462.924205,-96.80503845214844,-40.86233520507812,-548.6839599609375,169462.947734,0.2240546357865323,-1.20931677248958,-0.2087894155218794,-0.7633959054946899,-0.3638187348842621,0.2563426494598389,0.01085525751113892,-0.1997684240341187,0.07759112119674683,1,-0.02198554016649723,-0.5714259743690491,0.1503384411334991,0.8064659237861633,-0.9150605797767639,0.2072757631540298,-0.3459779918193817,0,0,0,-1,169462.728709,3,2,1561841646.675208,1561841239.621676,31,1.858098,0,0,29.67847,0,0,1561841646.67533,169460.331197,0,0.0925293,75.19207,0,182478453,3,1,1,-31.18268,-31.90633,2
1561841646.674749,92,0,0,1561841645.994394,4.634639248256232,-74.15099230601838,2555.132,1.88,39.0234375,4,30,-9999,1561841646.663173,-22.24170684814453,-14.4989128112793,14.24853515625,122.140022277832,129.6332244873047,15,169462.973064,-0.968902587890625,0.0506744384765625,-0.2720794677734375,169462.973064,-0.4145998532390998,-0.09538777234391312,-0.08459051833640487,169462.944316,-96.76376342773438,-41.14700317382812,-548.55322265625,169462.967998,0.2117276711602217,-1.216641889248896,-0.2150918162324186,-0.5181102752685547,-0.137031152844429,-0.05532336980104446,-0.02723085880279541,-0.1944704502820969,0.04777520895004272,1,-0.02755162678658962,-0.5743151307106018,0.1472092717885971,0.8048182725906372,-0.9163269400596619,0.2134371250867844,-0.3388060629367828,0,0,0,-1,169462.728709,3,2,1561841646.675208,1561841239.621676,31,1.858098,0,0,29.67847,0,0,1561841646.67533,169460.331197,0,0.0925293,75.19207,0,182478453,3,1,1,-31.18268,-32.57204,2
1561841646.69506,93,0,0,1561841645.994394,4.634639248256232,-74.15099230601838,2555.132,1.88,39.0234375,4,30,-9999,1561841646.689321,-22.27283477783203,-14.94613647460938,13.8724365234375,122.7064590454102,130.1996612548828,15,169462.993357,-1.011474609375,0.1211395263671875,-0.200836181640625,169462.993357,-0.04227501914391783,0.2029624361521378,-0.03862888529549034,169462.964427,-96.48817443847656,-41.61689758300781,-548.7545776367188,169462.988291,0.2050842418138493,-1.218821985489829,-0.2156440748707095,-0.1118876785039902,0.1086100414395332,-0.07299397140741348,-0.08101791143417358,-0.1230952888727188,0.1029106974601746,1,-0.02952728606760502,-0.5751040577888489,0.1447209268808365,0.8046361804008484,-0.9169526100158691,0.2139766365289688,-0.3367669284343719,0,0,0,-1,169462.728709,3,2,1561841646.675208,1561841239.621676,31,1.858098,0,0,29.67847,0,0,1561841646.67533,169460.331197,0,0.0925293,75.19207,0,182478453,3,1,1,-31.18268,-33.00397,2
1561841646.717534,94,0,0,1561841645.994394,4.634639248256232,-74.15099230601838,2555.132,1.88,39.0234375,4,30,-9999,1561841646.715181,-22.20594787597656,-15.00090789794922,13.94879150390625,122.7654190063477,130.2586212158203,15,169463.013621,-1.010894775390625,0.1400909423828125,-0.2569732666015625,169463.013621,-0.08066395362519203,0.3491457452315683,0.04067685617376127,169462.984568,-96.69549560546875,-41.53475952148438,-548.882568359375,169463.008555,0.204365921291652,-1.213825657757799,-0.21560510301824,-0.03210203722119331,0.3467597663402557,0.0323721282184124,-0.1021744608879089,-0.08013424277305603,0.1353076100349426,1,-0.03007860295474529,-0.5730809569358826,0.1443463861942291,0.8061250448226929,-0.9152663350105286,0.2139385640621185,-0.3413469791412354,0,0,0,-1,169462.728709,3,2,1561841646.675208,1561841239.621676,31,1.858098,0,0,29.67847,0,0,1561841646.67533,169460.331197,0,0.0925293,75.19207,0,182478453,3,1,1,-31.18268,-34.02785,2
1561841646.73546,95,0,0,1561841645.994394,4.634639248256232,-74.15099230601838,2555.132,1.88,39.0234375,4,30,-9999,1561841646.715181,-22.20594787597656,-15.00090789794922,13.94879150390625,122.7654190063477,130.2586212158203,15,169463.033885,-0.948974609375,0.1550445556640625,-0.3415069580078125,169463.033885,-0.3393631555993802,0.1917012594827378,-0.01570412831597925,169463.004649,-96.5511474609375,-41.42802429199219,-548.936767578125,169463.028788,0.2016096558040751,-1.208153745137658,-0.2171747116502467,-0.2834820747375488,0.2321796417236328,0.000416858121752739,-0.06868898868560791,-0.07084876298904419,0.034950852394104,1,-0.03191816434264183,-0.5707666873931885,0.1435810774564743,0.8078311085700989,-0.9130004644393921,0.2154715657234192,-0.3464132249355316,0,0,0,-1,169462.728709,3,2,1561841646.675208,1561841239.621676,31,1.858098,0,0,29.67847,0,0,1561841646.67533,169460.331197,0,0.0925293,75.19207,0,182478453,3,1,1,-31.18268,-34.02785,2
1561841646.756481,96,0,0,1561841645.994394,4.634639248256232,-74.15099230601838,2555.132,1.88,39.0234375,4,30,-9999,1561841646.739838,-22.16966247558594,-14.89056777954102,13.5118408203125,123.0881118774414,130.5813140869141,15,169463.054148,-0.9409332275390625,0.1905975341796875,-0.3679962158203125,169463.054148,-0.5043132282483811,0.1604085840420887,-0.1027588696090344,169463.044871,-96.66705322265625,-41.79426574707031,-549.4183349609375,169463.049052,0.1936946266629386,-1.206437090714457,-0.2191159675859373,-0.4784920513629913,0.1427906304597855,-0.09241294860839844,-0.02463352680206299,-0.04337084293365479,-0.007089078426361084,1,-0.03509386256337166,-0.5699589848518372,0.1408899426460266,0.8087430596351624,-0.912011981010437,0.2173668146133423,-0.3478303551673889,0,0,0,-1,169462.728709,3,2,1561841646.675208,1561841239.621676,31,1.858098,0,0,29.67847,0,0,1561841646.67533,169460.331197,0,0.0925293,75.19207,0,182478453,3,1,1,-31.18268,-34.87501,2
1561841646.776314,97,0,0,1561841645.994394,4.634639248256232,-74.15099230601838,2555.132,1.88,39.0234375,4,30,-9999,1561841646.764288,-22.14307403564453,-15.20441818237305,13.43670654296875,123.7987289428711,131.2919311523438,15,169463.074381,-0.9645233154296875,0.237213134765625,-0.4002227783203125,169463.074381,-0.4259292068324059,0.2007615998272964,-0.1491346241994563,169463.064982,-96.48719787597656,-41.84803771972656,-549.4222412109375,169463.069316,0.1830259439969698,-1.205552957620947,-0.2202687344009948,-0.480461984872818,0.1919802874326706,-0.141835629940033,-0.04399025440216064,-0.007142394781112671,-0.03550165891647339,1,-0.03866731002926826,-0.5694132447242737,0.1368756741285324,0.8096532821655273,-0.9114693999290466,0.218491867184639,-0.3485468029975891,0,0,0,-1,169462.728709,3,2,1561841646.675208,1561841239.621676,31,1.858098,0,0,29.67847,0,0,1561841646.67533,169460.331197,0,0.0925293,75.19207,0,182478453,3,1,1,-31.18268,-35.19123,2
1561841646.796819,98,0,0,1561841645.994394,4.634639248256232,-74.15099230601838,2555.132,1.88,39.0234375,4,30,-9999,1561841646.790754,-22.28723907470703,-15.13044738769531,13.1046142578125,124.4285049438477,131.9217071533203,15,169463.094645,-0.9516143798828125,0.2598419189453125,-0.396484375,169463.094645,-0.1105227831349424,0.2561982273944948,-0.1137971396951949,169463.085093,-96.5936279296875,-42.01129150390625,-549.69189453125,169463.089579,0.1749755931302762,-1.203476231394521,-0.2198009901683042,-0.1987751722335815,0.2327452898025513,-0.1374049335718155,-0.04860329627990723,0.03281909227371216,-0.05685776472091675,1,-0.04090553149580956,-0.5684091448783875,0.1334437429904938,0.8108208775520325,-0.9108388423919678,0.2180353999137878,-0.350475549697876,0,0,0,-1,169462.728709,3,2,1561841646.675208,1561841239.621676,31,1.858098,0,0,29.67847,0,0,1561841646.67533,169460.331197,0,0.0925293,75.19207,0,182478453,3,1,1,-31.18268,-35.67702,2
1561841646.81656,99,0,0,1561841645.994394,4.634639248256232,-74.15099230601838,2555.132,1.88,39.0234375,4,30,-9999,1561841646.814931,-22.22871398925781,-15.45685958862305,13.18609619140625,124.502067565918,131.9952697753906,15,169463.114909,-0.931396484375,0.262725830078125,-0.369720458984375,169463.114909,0.136657980808544,0.2497821396962759,0.01702558884887657,169463.105174,-96.66230773925781,-42.13658142089844,-549.7600708007812,169463.109843,0.1735477395073478,-1.198783562918965,-0.2183642213812303,0.09234587848186493,0.2591921091079712,-0.01462440937757492,-0.03124457597732544,0.05042634904384613,-0.02096450328826904,1,-0.04103173315525055,-0.5664685964584351,0.1323718428611755,0.8123468160629272,-0.9094750285148621,0.2166329771280289,-0.3548594415187836,0,0,0,-1,169462.728709,3,2,1561841646.675208,1561841239.621676,31,1.858098,0,0,29.67847,0,0,1561841646.67533,169460.331197,0,0.0925293,75.19207,0,182478453,3,1,1,-31.18268,-35.75599,2
1561841646.836621,100,0,0,1561841645.994394,4.634639248256232,-74.15099230601838,2555.132,1.88,39.0234375,4,30,-9999,1561841646.814931,-22.22871398925781,-15.45685958862305,13.18609619140625,124.502067565918,131.9952697753906,15,169463.135172,-0.88787841796875,0.2379608154296875,-0.3699493408203125,169463.135172,0.228076045231585,0.1005385922082354,0.06529431834212673,169463.125285,-96.50538635253906,-41.88838195800781,-550.0538330078125,169463.130107,0.1768764725243095,-1.193870917167299,-0.217634535186536,0.2105492353439331,0.1352855861186981,0.05829693749547005,-0.001190006732940674,0.03780257701873779,-0.01659530401229858,1,-0.04011646658182144,-0.5645352602005005,0.1334246397018433,0.8135653734207153,-0.9078676104545593,0.2159205675125122,-0.359381228685379,0,0,0,-1,169462.728709,3,2,1561841646.675208,1561841239.621676,31,1.858098,0,0,29.67847,0,0,1561841646.67533,169460.331197,0,0.0925293,75.19207,0,182478453,3,1,1,-31.18268,-36.58325,2
1561841646.857691,101,0,0,1561841645.994394,4.634639248256232,-74.15099230601838,2555.132,1.88,39.0234375,4,30,-9999,1561841646.841316,-22.15161895751953,-15.2651481628418,12.72772216796875,124.2125930786133,131.7057952880859,15,169463.155436,-0.8884735107421875,0.205841064453125,-0.3310699462890625,169463.155436,0.2311157772998015,-0.00211641411828597,0.05810937603720195,169463.145396,-96.932373046875,-42.02671813964844,-549.8598022460938,169463.15037,0.1818314431062319,-1.191459819696513,-0.2170062542732029,0.2401856780052185,0.01199321448802948,0.05951666086912155,0.02359467744827271,0.005579173564910889,0.01187258958816528,1,-0.03862180560827255,-0.5636476874351501,0.1352211087942123,0.8139563798904419,-0.9071242809295654,0.2153070569038391,-0.3616192936897278,0,0,0,-1,169462.728709,3,2,1561841646.675208,1561841239.621676,31,1.858098,0,0,29.67847,0,0,1561841646.67533,169460.331197,0,0.0925293,75.19207,0,182478453,3,1,1,-31.18268,-37.384,2
1561841646.87847,102,0,0,1561841645.994394,4.634639248256232,-74.15099230601838,2555.132,1.88,39.0234375,4,30,-9999,1561841646.866143,-22.39053344726562,-15.30079650878906,12.983642578125,123.8694534301758,131.3626556396484,15,169463.1757,-0.9113311767578125,0.18878173828125,-0.3123626708984375,169463.1757,0.11393535775577,0.03372334256756439,-0.01314775998561219,169463.165507,-96.70649719238281,-41.82666015625,-549.738037109375,169463.170634,0.1860264622196656,-1.190652709433267,-0.2162166173720602,0.1459483951330185,0.004810668993741274,0.002289326628670096,0.008536934852600098,-0.02012364566326141,0.04335302114486694,1,-0.03716892004013062,-0.563392698764801,0.1366970986127853,0.8139539957046509,-0.9069896936416626,0.2145358771085739,-0.3624142706394196,0,0,0,-1,169462.728709,3,2,1561841646.675208,1561841239.621676,31,1.858098,0,0,29.67847,0,0,1561841646.67533,169460.331197,0,0.0925293,75.19207,0,182478453,3,1,1,-31.18268,-37.384,2
1561841646.897486,103,0,0,1561841645.994394,4.634639248256232,-74.15099230601838,2555.132,1.88,39.0234375,4,30,-9999,1561841646.891777,-22.46174621582031,-15.28020858764648,13.06304931640625,123.7422561645508,131.2354583740234,15,169463.195963,-0.93121337890625,0.193145751953125,-0.3305816650390625,169463.195963,-0.01201671547065554,0.1331181070876107,-0.05642279611885477,169463.185618,-96.81600952148438,-41.90570068359375,-549.776611328125,169463.190867,0.1872678488601709,-1.18925261477651,-0.2151749528790303,0.0098342290148139,0.1058198437094688,-0.05312333256006241,-0.01533931493759155,-0.02516385912895203,0.04470551013946533,1,-0.03648526966571808,-0.5628369450569153,0.1368920207023621,0.8143365383148193,-0.9066882729530334,0.213518351316452,-0.3637667894363403,0,0,0,-1,169462.728709,3,2,1561841646.675208,1561841239.621676,31,1.858098,0,0,29.67847,0,0,1561841646.67533,169460.331197,0,0.0925293,75.19207,0,182478453,3,1,1,-31.18268,-37.70609,2
1561841646.917775,104,0,0,1561841645.994394,4.634639248256232,-74.15099230601838,2555.132,1.88,39.0234375,4,30,-9999,1561841646.916147,-22.56643676757812,-15.27666854858398,12.98577880859375,123.8166580200195,131.3098602294922,15,169463.216227,-0.9198455810546875,0.216094970703125,-0.3420562744140625,169463.216227,-0.04322630028529413,0.174401897673801,-0.05721482022704433,169463.205699,-97.09585571289062,-41.66380310058594,-549.8402099609375,169463.211131,0.1862831128711057,-1.186638751341176,-0.2143041922471599,-0.04789245128631592,0.1603930741548538,-0.06553579121828079,-0.02306395769119263,-0.006902828812599182,0.02874171733856201,1,-0.03658097982406616,-0.5617466568946838,0.1362055093050003,0.8151997327804565,-0.9059063792228699,0.2126675844192505,-0.3662050366401672,0,0,0,-1,169462.728709,3,2,1561841646.675208,1561841239.621676,31,1.858098,0,0,29.67847,0,0,1561841646.67533,169460.331197,0,0.0925293,75.19207,0,182478453,3,1,1,-31.18268,-38.06792,2
1561841646.941793,105,0,0,1561841645.994394,4.634639248256232,-74.15099230601838,2555.132,1.88,39.0234375,4,30,-9999,1561841646.916147,-22.56643676757812,-15.27666854858398,12.98577880859375,123.8166580200195,131.3098602294922,15,169463.23646,-0.9172515869140625,0.2236480712890625,-0.35406494140625,169463.23646,-0.03009265505345936,0.1852098043256696,0.02158864906061834,169463.22581,-97.01838684082031,-42.00752258300781,-550.0538330078125,169463.231394,0.1851352040984073,-1.183393968837945,-0.2138556996807165,-0.03353907912969589,0.1800386756658554,-0.005295089911669493,-0.01287728548049927,0.01184597611427307,0.02185803651809692,1,-0.03693805634975433,-0.5603983402252197,0.1355555653572083,0.8162192702293396,-0.9048015475273132,0.2122293412685394,-0.3691785633563995,0,0,0,-1,169462.728709,3,2,1561841646.675208,1561841239.621676,31,1.858098,0,0,29.67847,0,0,1561841646.67533,169460.331197,0,0.0925293,75.19207,0,182478453,3,1,1,-31.18268,-35.6452,2
1561841646.9599,106,0,0,1561841645.994394,4.634639248256232,-74.15099230601838,2555.132,1.88,39.0234375,4,30,-9999,1561841646.949201,-22.39594268798828,-15.31486129760742,12.7918701171875,123.8814926147461,131.3746948242188,15,169463.256724,-0.8898162841796875,0.2095794677734375,-0.363494873046875,169463.256724,-0.02023017058856892,0.1715741532283549,0.09232566972254001,169463.245921,-97.07392883300781,-41.8389892578125,-549.9439697265625,169463.251658,0.1848045067637386,-1.180005178609413,-0.2148023515587521,-0.02708171121776104,0.1721618473529816,0.07413901388645172,-0.001700639724731445,0.003749355673789978,0.010822594165802,1,-0.03765210509300232,-0.5590164065361023,0.1356144845485687,0.81712406873703,-0.9033591747283936,0.2131543308496475,-0.3721659481525421,0,0,0,-1,169462.728709,3,2,1561841646.675208,1561841239.621676,31,1.858098,0,0,29.67847,0,0,1561841646.67533,169460.331197,0,0.0925293,75.19207,0,182478453,3,1,1,-31.18268,-36.01468,2
1561841646.978578,107,0,0,1561841645.994394,4.634639248256232,-74.15099230601838,2555.132,1.88,39.0234375,4,30,-9999,1561841646.949201,-22.39594268798828,-15.31486129760742,12.7918701171875,123.8814926147461,131.3746948242188,15,169463.276988,-0.8972320556640625,0.1997528076171875,-0.357452392578125,169463.276988,0.02324992894860977,0.1945218133932407,0.08020642254991642,169463.266032,-96.73135375976562,-41.82014465332031,-550.3526611328125,169463.271922,0.1852539689616988,-1.176719139817054,-0.216535553809124,0.008956717327237129,0.1748279333114624,0.09082292020320892,0.01435297727584839,-0.009326756000518799,0.01352459192276001,1,-0.03846795856952667,-0.5576963424682617,0.1362052112817764,0.8178895115852356,-0.9017888903617859,0.2148473709821701,-0.3749900162220001,0,0,0,-1,169462.728709,3,2,1561841646.675208,1561841239.621676,31,1.858098,0,0,29.67847,0,0,1561841646.67533,169460.331197,0,0.0925293,75.19207,0,182478453,3,1,1,-31.18268,-36.91472,2
1561841646.998817,108,0,0,1561841645.994394,4.634639248256232,-74.15099230601838,2555.132,1.88,39.0234375,4,30,-9999,1561841646.994074,-22.54311370849609,-15.20121383666992,12.65087890625,123.8147048950195,131.3079071044922,15,169463.297251,-0.9059600830078125,0.184844970703125,-0.3657989501953125,169463.297251,0.0011057444846009,0.2153791584185233,-0.01975745949507985,169463.286112,-97.02717590332031,-41.89840698242188,-550.43408203125,169463.292185,0.1860708801499768,-1.172563900283762,-0.2172883160783853,0.01610384322702885,0.2238290309906006,0.00354101206175983,-0.004360556602478027,-0.02562582492828369,0.02060836553573608,1,-0.03883618488907814,-0.5560181736946106,0.1366624981164932,0.8189377188682556,-0.9000735878944397,0.2155825048685074,-0.3786710798740387,0,0,0,-1,169462.728709,3,2,1561841646.675208,1561841239.621676,31,1.858098,0,0,29.67847,0,0,1561841646.67533,169460.331197,0,0.0925293,75.19207,0,182478453,3,1,1,-31.18268,-37.42653,2
1561841647.037914,109,0,0,1561841645.994394,4.634639248256232,-74.15099230601838,2555.132,1.88,39.0234375,4,30,-9999,1561841647.01793,-22.52521514892578,-15.20406341552734,12.3907470703125,123.8627853393555,131.3559875488281,15,169463.317515,-0.89874267578125,0.199554443359375,-0.37945556640625,169463.317515,-0.02121154545026312,0.1248388718907724,-0.0663217658906793,169463.306223,-96.79045104980469,-41.60421752929688,-550.3408813476562,169463.312449,0.1854669548104225,-1.169046069875579,-0.2166750160373618,-0.0317574217915535,0.1391080170869827,-0.06847645342350006,-0.006980597972869873,-0.02461493015289307,0.005162358283996582,1,-0.0389891155064106,-0.5545597672462463,0.1361814737319946,0.8199986815452576,-0.8988573551177979,0.2149835824966431,-0.3818866312503815,0,0,0,-1,169462.728709,3,2,1561841646.675208,1561841239.621676,31,1.858098,0,0,29.67847,0,0,1561841646.67533,169460.331197,0,0.0925293,75.19207,0,182478453,3,1,1,-31.18268,-37.56198,2
1561841647.041314,110,0,0,1561841645.994394,4.634639248256232,-74.15099230601838,2555.132,1.88,39.0234375,4,30,-9999,1561841647.01793,-22.52521514892578,-15.20406341552734,12.3907470703125,123.8627853393555,131.3559875488281,15,169463.337779,-0.88531494140625,0.219390869140625,-0.38055419921875,169463.337779,0.003279150250214566,0.09848422974334825,-0.02346750920966924,169463.326335,-96.99911499023438,-41.6861572265625,-550.6182861328125,169463.332713,0.1847213985269522,-1.167110317719153,-0.2156732937974922,0.003666613949462771,0.08917189389467239,-0.04068503901362419,0.007124543190002441,-0.007370650768280029,0.008984982967376709,1,-0.03891083225607872,-0.553742527961731,0.1355687379837036,0.8206560611724854,-0.8983141183853149,0.214005172252655,-0.3837103247642517,0,0,0,-1,169462.728709,3,2,1561841646.675208,1561841239.621676,31,1.858098,0,0,29.67847,0,0,1561841646.67533,169460.331197,0,0.0925293,75.19207,0,182478453,3,1,1,-31.18268,-37.56198,2
1561841647.059431,111,0,0,1561841646.99438,4.634647588249887,-74.1509773024117,2554.455,1.88,42.1875,4,30,-9999,1561841647.043987,-22.64679718017578,-15.26607894897461,12.46978759765625,123.898811340332,131.3920135498047,15,169463.358042,-0.8838348388671875,0.233306884765625,-0.404083251953125,169463.358042,-0.02058623522631251,0.1067038101317688,0.0282553402174137,169463.346446,-96.98622131347656,-41.68589782714844,-550.25244140625,169463.352946,0.1844526100636953,-1.165281467385383,-0.2154966085878961,-0.02261585555970669,0.09737949073314667,0.01633989810943604,0.01547396183013916,0.01710918545722961,-0.01334464550018311,1,-0.03903559222817421,-0.5529850721359253,0.1353753507137299,0.8211926221847534,-0.8976455926895142,0.2138325721025467,-0.3853674530982971,0,0,0,-1,169462.728709,3,2,1561841646.675208,1561841239.621676,31,1.858098,0,0,29.67847,0,0,1561841646.67533,169460.331197,0,0.0925293,75.19207,0,182478453,3,1,1,-31.18268,-38.00245,2
1561841647.07982,112,0,0,1561841646.99438,4.634647588249887,-74.1509773024117,2554.455,1.88,42.1875,4,30,-9999,1561841647.068056,-22.76066589355469,-15.15861511230469,12.40887451171875,123.9167098999023,131.409912109375,15,169463.378306,-0.8884124755859375,0.2301788330078125,-0.386383056640625,169463.378306,0.01126756825601625,0.1025506104117902,0.05566539310483624,169463.366557,-96.78465270996094,-41.84957885742188,-550.3724365234375,169463.37321,0.184350986484072,-1.163317147220759,-0.2161511773022253,-0.002605929272249341,0.1025026142597198,0.04377525299787521,0.009734213352203369,0.0181635320186615,-0.01117992401123047,1,-0.03946908935904503,-0.5521820187568665,0.1354704946279526,0.821696400642395,-0.8967581391334534,0.2144719660282135,-0.3870744109153748,0,0,0,-1,169462.728709,3,2,1561841646.675208,1561841239.621676,31,1.858098,0,0,29.67847,0,0,1561841646.67533,169460.331197,0,0.0925293,75.19207,0,182478453,3,1,1,-31.18268,-38.24471,2
1561841647.112745,113,0,0,1561841646.99438,4.634647588249887,-74.1509773024117,2554.455,1.88,42.1875,4,30,-9999,1561841647.094369,-22.61979675292969,-15.21866989135742,12.47802734375,123.862174987793,131.3553771972656,15,169463.398539,-0.89007568359375,0.22467041015625,-0.377105712890625,169463.398539,0.07641834221538771,0.06848212216695158,0.07425825225522444,169463.386637,-97.27397155761719,-41.9169921875,-550.7105712890625,169463.393473,0.1853227877935811,-1.161389828898886,-0.2169849131812065,0.06102079525589943,0.06964965164661407,0.07247843593358994,0.008837342262268066,0.01216129958629608,0.008664727210998535,1,-0.03967897966504097,-0.5514165759086609,0.1360548138618469,0.8221035599708557,-0.8958460092544556,0.2152862250804901,-0.3887306749820709,0,0,0,-1,169462.728709,3,2,1561841646.675208,1561841239.621676,31,1.858098,0,0,29.67847,0,0,1561841646.67533,169460.331197,0,0.0925293,75.19207,0,182478453,3,1,1,-31.18268,-39.5113,2
1561841647.122175,114,0,0,1561841646.99438,4.634647588249887,-74.1509773024117,2554.455,1.88,42.1875,4,30,-9999,1561841647.118716,-22.90087890625,-15.17867660522461,12.42608642578125,123.7243270874023,131.217529296875,15,169463.418803,-0.902618408203125,0.217742919921875,-0.3733673095703125,169463.418803,0.0795305122652543,0.09896173452679945,0.003197391204749133,169463.406748,-97.33091735839844,-41.42448425292969,-550.3877563476562,169463.413737,0.1873250534787749,-1.159619809662897,-0.2173455635102663,0.08591549843549728,0.08387625962495804,0.02303125709295273,-0.002985894680023193,0.003721952438354492,0.01409453153610229,1,-0.03939835354685783,-0.5507317185401917,0.1369393467903137,0.8224292397499084,-0.8950853943824768,0.2156383991241455,-0.3902846872806549,0,0,0,-1,169462.728709,3,2,1561841646.675208,1561841239.621676,31,1.858098,0,0,29.67847,0,0,1561841646.67533,169460.331197,0,0.0925293,75.19207,0,182478453,3,1,1,-31.18268,-39.5113,2
1561841647.140619,115,0,0,1561841646.99438,4.634647588249887,-74.1509773024117,2554.455,1.88,42.1875,4,30,-9999,1561841647.118716,-22.90087890625,-15.17867660522461,12.42608642578125,123.7243270874023,131.217529296875,15,169463.439067,-0.8996124267578125,0.227203369140625,-0.38555908203125,169463.439067,0.005686647875646197,0.08431301695081861,-0.054850732127381,169463.426859,-97.28437805175781,-41.82203674316406,-550.5428466796875,169463.434001,0.1882946423217168,-1.157502163972954,-0.2165622846849517,0.02305637486279011,0.09038183093070984,-0.05112419649958611,-0.008558094501495361,0.00645524263381958,0.01532435417175293,1,-0.03895008191466331,-0.5498721599578857,0.1370878517627716,0.8230007886886597,-0.8944112658500671,0.2148734778165817,-0.3922469913959503,0,0,0,-1,169462.728709,3,2,1561841646.675208,1561841239.621676,31,1.858098,0,0,29.67847,0,0,1561841646.67533,169460.331197,0,0.0925293,75.19207,0,182478453,3,1,1,-31.18268,-37.31086,2
1561841647.160868,116,0,0,1561841646.99438,4.634647588249887,-74.1509773024117,2554.455,1.88,42.1875,4,30,-9999,1561841647.14488,-22.973388671875,-15.16021728515625,12.22235107421875,123.697868347168,131.1910705566406,15,169463.45933,-0.880828857421875,0.2407684326171875,-0.3937530517578125,169463.45933,0.0009904296094004686,0.01255893506859567,-0.02622521251844629,169463.446971,-97.48432922363281,-41.99337768554688,-550.6500854492188,169463.454264,0.1877453234485321,-1.156345945299603,-0.2156157916415515,-0.01140306517481804,0.02323288470506668,-0.04598136618733406,0.003670573234558105,0.02102109789848328,-9.000301361083984e-06,1,-0.03878533095121384,-0.549376368522644,0.1365871876478195,0.8234228491783142,-0.8941429257392883,0.2139489948749542,-0.3933626115322113,0,0,0,-1,169462.728709,3,2,1561841646.675208,1561841239.621676,31,1.858098,0,0,29.67847,0,0,1561841646.67533,169460.331197,0,0.0925293,75.19207,0,182478453,3,1,1,-31.18268,-37.19606,2
1561841647.193449,117,0,0,1561841646.99438,4.634647588249887,-74.1509773024117,2554.455,1.88,42.1875,4,30,-9999,1561841647.169304,-22.85358428955078,-15.31123733520508,12.18646240234375,123.7259902954102,131.2191925048828,15,169463.479594,-0.87103271484375,0.239013671875,-0.3848419189453125,169463.479594,0.06435475510954677,-0.002000832926976532,0.05049459953233839,169463.467082,-97.08328247070312,-41.91059875488281,-550.9010009765625,169463.474528,0.1879801756866507,-1.156301990117563,-0.2153324364557892,0.05063260719180107,-0.00753328250721097,0.02677379734814167,0.01962363719940186,0.02787443995475769,0.004785001277923584,1,-0.03860560059547424,-0.5493600368499756,0.1366075873374939,0.823438823223114,-0.8941811323165894,0.2136722058057785,-0.3934263288974762,0,0,0,-1,169462.728709,3,2,1561841646.675208,1561841239.621676,31,1.858098,0,0,29.67847,0,0,1561841646.67533,169460.331197,0,0.0925293,75.19207,0,182478453,3,1,1,-31.18268,-37.55703,2
1561841647.201375,118,0,0,1561841646.99438,4.634647588249887,-74.1509773024117,2554.455,1.88,42.1875,4,30,-9999,1561841647.196126,-22.74345397949219,-15.34445190429688,12.09063720703125,123.6083450317383,131.1015472412109,15,169463.499858,-0.8762359619140625,0.221099853515625,-0.3793182373046875,169463.499858,0.09016105238852361,0.004561195998978711,0.1224313742653408,169463.487193,-97.27598571777344,-41.83523559570312,-550.4052734375,169463.494792,0.1899136733073772,-1.156055767062816,-0.2160246628216173,0.08475542813539505,-0.003731353674083948,0.1071732938289642,0.02212244272232056,0.01743263006210327,0.00998079776763916,1,-0.03838023170828819,-0.5493028163909912,0.1375831067562103,0.8233250379562378,-0.8939485549926758,0.2143483906984329,-0.3935867547988892,0,0,0,-1,169462.728709,3,2,1561841646.675208,1561841239.621676,31,1.858098,0,0,29.67847,0,0,1561841646.67533,169460.331197,0,0.0925293,75.19207,0,182478453,3,1,1,-31.18268,-37.55703,2
1561841647.222468,119,0,0,1561841646.99438,4.634647588249887,-74.1509773024117,2554.455,1.88,42.1875,4,30,-9999,1561841647.196126,-22.74345397949219,-15.34445190429688,12.09063720703125,123.6083450317383,131.1015472412109,15,169463.520121,-0.89617919921875,0.2026824951171875,-0.3680572509765625,169463.520121,0.007587612261744757,0.0935826817570574,0.0870653939374155,169463.507273,-97.23092651367188,-41.71681213378906,-550.5670166015625,169463.515025,0.1923024237213836,-1.155360833653128,-0.2176147954302544,0.03966677561402321,0.05189115926623344,0.1061264052987099,0.01079362630844116,-0.005040079355239868,0.0223962664604187,1,-0.03843587636947632,-0.5490790009498596,0.1389759480953217,0.8232378959655762,-0.8933619856834412,0.2159012854099274,-0.3940698802471161,0,0,0,-1,169462.728709,3,2,1561841646.675208,1561841239.621676,31,1.858098,0,0,29.67847,0,0,1561841646.67533,169460.331197,0,0.0925293,75.19207,0,182478453,3,1,1,-31.18268,-37.9535,2
1561841647.241956,120,0,0,1561841646.99438,4.634647588249887,-74.1509773024117,2554.455,1.88,42.1875,4,30,-9999,1561841647.221895,-22.78572082519531,-15.06208038330078,12.33514404296875,123.4504623413086,130.9436645507812,15,169463.540385,-0.91668701171875,0.194854736328125,-0.3820343017578125,169463.540385,-0.1597329400735356,0.1591590288586235,-0.02812431269178179,169463.527384,-97.28756713867188,-41.63533020019531,-550.7775268554688,169463.535288,0.1919870875854821,-1.153151034730597,-0.2189878213946083,-0.1251719743013382,0.1534430831670761,-0.004810227081179619,-0.01951080560684204,-0.02189870178699493,0.02470660209655762,1,-0.03924920782446861,-0.5481772422790527,0.1391678154468536,0.8237678408622742,-0.8922170996665955,0.2172417342662811,-0.3959224224090576,0,0,0,-1,169462.728709,3,2,1561841646.675208,1561841239.621676,31,1.858098,0,0,29.67847,0,0,1561841646.67533,169460.331197,0,0.0925293,75.19207,0,182478453,3,1,1,-31.18268,-38.59723,2
1561841647.276706,121,0,0,1561841646.99438,4.634647588249887,-74.1509773024117,2554.455,1.88,42.1875,4,30,-9999,1561841647.271518,-22.89727020263672,-15.12229919433594,11.95477294921875,123.8609085083008,131.3541107177734,15,169463.560618,-0.9109954833984375,0.21588134765625,-0.393157958984375,169463.560618,-0.175373418839462,0.1113177367203311,-0.1016211671913526,169463.547495,-97.30754089355469,-41.65129089355469,-550.7721557617188,169463.555552,0.1881736654907313,-1.15108648093185,-0.2194997210472423,-0.1957896947860718,0.1220127195119858,-0.09551989287137985,-0.02362072467803955,-0.01075589656829834,0.004896044731140137,1,-0.04065029323101044,-0.5472553372383118,0.1376908421516418,0.824560821056366,-0.8912962675094604,0.2177413702011108,-0.3977183103561401,0,0,0,-1,169462.728709,3,2,1561841646.675208,1561841239.621676,31,1.858098,0,0,29.67847,0,0,1561841646.67533,169460.331197,0,0.0925293,75.19207,0,182478453,3,1,1,-31.18268,-39.54622,2
1561841647.282426,122,0,0,1561841646.99438,4.634647588249887,-74.1509773024117,2554.455,1.88,42.1875,4,30,-9999,1561841647.271518,-22.89727020263672,-15.12229919433594,11.95477294921875,123.8609085083008,131.3541107177734,15,169463.580882,-0.8931121826171875,0.2337188720703125,-0.385894775390625,169463.580882,0.008648881956141333,0.04666896862643957,-0.08073213054909806,169463.567607,-97.20236206054688,-41.60211181640625,-550.94140625,169463.575816,0.1847116737051573,-1.150077100155602,-0.2187311295171779,-0.04796906933188438,0.05366136506199837,-0.09917694330215454,-0.01108342409133911,0.005832940340042114,0.01239442825317383,1,-0.04134498536586761,-0.5467610359191895,0.1360387206077576,0.8251280784606934,-0.8910467028617859,0.2169911563396454,-0.3986859321594238,0,0,0,-1,169462.728709,3,2,1561841646.675208,1561841239.621676,31,1.858098,0,0,29.67847,0,0,1561841646.67533,169460.331197,0,0.0925293,75.19207,0,182478453,3,1,1,-31.18268,-39.54622,2
1561841647.302707,123,0,0,1561841646.99438,4.634647588249887,-74.1509773024117,2554.455,1.88,42.1875,4,30,-9999,1561841647.297027,-22.98328399658203,-15.23149108886719,12.0596923828125,123.883674621582,131.3768768310547,15,169463.601145,-0.878570556640625,0.2333526611328125,-0.385284423828125,169463.601145,0.1525245619510181,0.04504257614872817,-0.007341802493130444,169463.587718,-97.27548217773438,-41.84494018554688,-550.8770141601562,169463.596079,0.1851471958179788,-1.149382935812884,-0.2171098010912197,0.135189026594162,0.02747609838843346,-0.02742659114301205,0.00464552640914917,0.02302566170692444,0.0125916600227356,1,-0.04059526324272156,-0.5464687943458557,0.1357747465372086,0.8254023790359497,-0.8910896778106689,0.2154081761837006,-0.3994477689266205,0,0,0,-1,169462.728709,3,2,1561841646.675208,1561841239.621676,31,1.858098,0,0,29.67847,0,0,1561841646.67533,169460.331197,0,0.0925293,75.19207,0,182478453,3,1,1,-31.18268,-39.0274,2
