loggingTime,loggingSample,identifierForVendor,deviceID,locationTimestamp_since1970,locationLatitude,locationLongitude,locationAltitude,locationSpeed,locationCourse,locationVerticalAccuracy,locationHorizontalAccuracy,locationFloor,locationHeadingTimestamp_since1970,locationHeadingX,locationHeadingY,locationHeadingZ,locationTrueHeading,locationMagneticHeading,locationHeadingAccuracy,accelerometerTimestamp_sinceReboot,accelerometerAccelerationX,accelerometerAccelerationY,accelerometerAccelerationZ,gyroTimestamp_sinceReboot,gyroRotationX,gyroRotationY,gyroRotationZ,magnetometerTimestamp_sinceReboot,magnetometerX,magnetometerY,magnetometerZ,motionTimestamp_sinceReboot,motionYaw,motionRoll,motionPitch,motionRotationRateX,motionRotationRateY,motionRotationRateZ,motionUserAccelerationX,motionUserAccelerationY,motionUserAccelerationZ,motionAttitudeReferenceFrame,motionQuaternionX,motionQuaternionY,motionQuaternionZ,motionQuaternionW,motionGravityX,motionGravityY,motionGravityZ,motionMagneticFieldX,motionMagneticFieldY,motionMagneticFieldZ,motionMagneticFieldCalibrationAccuracy,activityTimestamp_sinceReboot,activity,activityActivityConfidence,activityActivityStartDate,pedometerStartDate,pedometerNumberofSteps,pedometerAverageActivePace,pedometerCurrentPace,pedometerCurrentCadence,pedometerDistance,pedometerFloorAscended,pedometerFloorDescended,pedometerEndDate,altimeterTimestamp_sinceReboot,altimeterReset,altimeterRelativeAltitude,altimeterPressure,IP_en0,IP_pdp_ip0,deviceOrientation,batteryState,batteryLevel,avAudioRecorderPeakPower,avAudioRecorderAveragePower,label
1561841651.25582,1,0,0,1561841650.994323,4.634688072842206,-74.15093472234359,2554.131,1.04,287.2265625,4,50,-9999,1561841651.248615,-22.99822235107422,-14.77490234375,12.5279541015625,118.9952926635742,126.4884948730469,15,169467.5518472917,-0.867095947265625,0.1417694091796875,-0.4581756591796875,169467.5518472917,0.04880881856231823,-0.03032115427498816,0.03103754460821948,169467.5286842917,-97.44718933105469,-41.20268249511719,-550.3304443359375,169467.5467512917,0.2730332791267773,-1.083230950743639,-0.1338998865622512,0.03972596302628517,-0.04367556050419807,0.02759445086121559,0.01045554876327515,0.01016137003898621,0.00328439474105835,1,0.01320993900299072,-0.5173819065093994,0.1505211442708969,0.8423092365264893,-0.8755678534507751,0.1335001289844513,-0.4642829298973083,0,0,0,-1,169467.2587872917,3,2,1561841651.205286,1561841239.621676,31,1.858098,0,0,29.67847,0,0,1561841649.26955,169465.050972,0,0.2353516,75.19073,0,182478453,3,1,1,-36.28218,-42.79193,3
1561841651.273615,2,0,0,1561841650.994323,4.634688072842206,-74.15093472234359,2554.131,1.04,287.2265625,4,50,-9999,1561841651.271955,-22.75606536865234,-14.82374572753906,12.48468017578125,118.9216766357422,126.4148788452148,15,169467.5720802917,-0.86785888671875,0.1339263916015625,-0.443939208984375,169467.5720802917,0.0150436643656396,0.003175286967701476,0.02963592292651077,169467.5487952917,-97.39552307128906,-41.5198974609375,-550.2076416015625,169467.5670142917,0.2741296619591426,-1.083656195760907,-0.1339066699168664,0.03640846535563469,-0.008603328838944435,0.02744291722774506,0.00937044620513916,0.002860948443412781,0.01411157846450806,1,0.01352277118712664,-0.5175539255142212,0.1509816944599152,0.8421161770820618,-0.8757644295692444,0.1335068494081497,-0.4639101326465607,0,0,0,-1,169467.2587872917,3,2,1561841651.205286,1561841239.621676,31,1.858098,0,0,29.67847,0,0,1561841649.26955,169465.050972,0,0.2353516,75.19073,0,182478453,3,1,1,-36.28218,-41.66203,3
1561841651.293869,3,0,0,1561841650.994323,4.634688072842206,-74.15093472234359,2554.131,1.04,287.2265625,4,50,-9999,1561841651.271955,-22.75606536865234,-14.82374572753906,12.48468017578125,118.9216766357422,126.4148788452148,15,169467.5923442917,-0.8760833740234375,0.131103515625,-0.456298828125,169467.5923442917,-0.07455732524564034,0.01278983113510554,0.03307912389987422,169467.5689062917,-97.21212768554688,-41.24771118164062,-550.3208618164062,169467.5872782917,0.2741165656955317,-1.083679860329693,-0.1344648004583459,-0.06336020678281784,0.005580135155469179,0.02470758184790611,0.001411378383636475,0.0006446242332458496,0.01138561964035034,1,0.01328352838754654,-0.5175870060920715,0.1511160731315613,0.8420755863189697,-0.8757094740867615,0.1340599656105042,-0.4638544917106628,0,0,0,-1,169467.2587872917,3,2,1561841651.205286,1561841239.621676,31,1.858098,0,0,29.67847,0,0,1561841649.26955,169465.050972,0,0.2353516,75.19073,0,182478453,3,1,1,-36.28218,-42.4333,3
1561841651.314027,4,0,0,1561841650.994323,4.634688072842206,-74.15093472234359,2554.131,1.04,287.2265625,4,50,-9999,1561841651.298072,-22.85234069824219,-14.81200408935547,12.4451904296875,118.9591217041016,126.4523239135742,15,169467.6126072917,-0.8714599609375,0.129791259765625,-0.4471282958984375,169467.6126072917,-0.0699652365780167,-0.002501773528020437,0.07036843916705471,169467.5890172917,-97.19949340820312,-41.30633544921875,-550.4041748046875,169467.6075422917,0.2730597232190721,-1.083742313856483,-0.1359243013521227,-0.08080124855041504,-0.004777165129780769,0.0593116283416748,0.002075135707855225,-0.006920337677001953,0.01316136121749878,1,0.01239330414682627,-0.5176799893379211,0.1510369479656219,0.8420460820198059,-0.8755645155906677,0.1355061382055283,-0.4637076556682587,0,0,0,-1,169467.2587872917,3,2,1561841651.205286,1561841239.621676,31,1.858098,0,0,29.67847,0,0,1561841649.26955,169465.050972,0,0.2353516,75.19073,0,182478453,3,1,1,-36.28218,-42.4333,3
1561841651.334291,5,0,0,1561841650.994323,4.634688072842206,-74.15093472234359,2554.131,1.04,287.2265625,4,50,-9999,1561841651.323103,-22.784423828125,-14.75060272216797,12.3564453125,119.0171508789062,126.5103530883789,15,169467.6328712917,-0.8675689697265625,0.139923095703125,-0.452728271484375,169467.6328712917,-0.0411783294070232,0.008469384898669993,0.05295695827622565,169467.6091282917,-97.35652160644531,-41.18699645996094,-550.47900390625,169467.6278052917,0.2725886727280872,-1.08402142816856,-0.1377465140638768,-0.04685446619987488,-0.009623851627111435,0.06207998842000961,0.005219757556915283,-0.0006993860006332397,0.01551687717437744,1,0.01151657849550247,-0.5178743600845337,0.1512942016124725,0.8418928980827332,-0.8754742741584778,0.1373113244771957,-0.4633470177650452,0,0,0,-1,169467.2587872917,3,2,1561841651.205286,1561841239.621676,31,1.858098,0,0,29.67847,0,0,1561841649.26955,169465.050972,0,0.2353516,75.19073,0,182478453,3,1,1,-36.28218,-42.07713,3
1561841651.355257,6,0,0,1561841650.994323,4.634688072842206,-74.15093472234359,2554.131,1.04,287.2265625,4,50,-9999,1561841651.348844,-22.8642578125,-14.57576751708984,12.52850341796875,119.0500030517578,126.5432052612305,15,169467.6531352917,-0.8671875,0.1413421630859375,-0.4635467529296875,169467.6531352917,-0.07165927334741611,0.02063550370647898,0.008007326449541245,169467.6292402917,-97.09220886230469,-41.12120056152344,-550.42529296875,169467.6480692917,0.2720663355943687,-1.083955417383956,-0.1389480150934201,-0.06312691420316696,0.01614595949649811,0.01732024177908897,0.007316291332244873,0.002734005451202393,0.002664446830749512,1,0.01086474861949682,-0.5178979635238647,0.1513761579990387,0.8418723344802856,-0.8752972483634949,0.1385013461112976,-0.4633273184299469,0,0,0,-1,169467.2587872917,3,2,1561841651.205286,1561841239.621676,31,1.858098,0,0,29.67847,0,0,1561841649.26955,169465.050972,0,0.2353516,75.19073,0,182478453,3,1,1,-36.28218,-39.77458,3
1561841651.374894,7,0,0,1561841650.994323,4.634688072842206,-74.15093472234359,2554.131,1.04,287.2265625,4,50,-9999,1561841651.373252,-22.76081848144531,-14.61333084106445,12.23590087890625,119.1838302612305,126.6770324707031,15,169467.6733982917,-0.866180419921875,0.14520263671875,-0.461181640625,169467.6733982917,-0.1346158688846713,0.01163108974481207,-0.03506024943478416,169467.6493202917,-97.5587158203125,-41.09823608398438,-550.3720703125,169467.6683332917,0.2703379959803907,-1.083986960806862,-0.1396739962069608,-0.1221127361059189,0.002238133456557989,-0.03161454573273659,0.01046133041381836,0.002854287624359131,0.001964032649993896,1,0.01011043693870306,-0.5179493427276611,0.1508305966854095,0.8419479727745056,-0.8752227425575256,0.1392202973365784,-0.4632525146007538,0,0,0,-1,169467.2587872917,3,2,1561841651.205286,1561841239.621676,31,1.858098,0,0,29.67847,0,0,1561841649.26955,169465.050972,0,0.2353516,75.19073,0,182478453,3,1,1,-36.28218,-40.34926,3
1561841651.395193,8,0,0,1561841650.994323,4.634688072842206,-74.15093472234359,2554.131,1.04,287.2265625,4,50,-9999,1561841651.373252,-22.76081848144531,-14.61333084106445,12.23590087890625,119.1838302612305,126.6770324707031,15,169467.6936622917,-0.8704681396484375,0.1467132568359375,-0.4638671875,169467.6936622917,-0.1406785551062367,-0.00899962027170477,-0.02382437279573986,169467.6694312917,-97.11135864257812,-41.25495910644531,-550.617919921875,169467.6885962917,0.2674743599084338,-1.084511728620257,-0.1403310731092629,-0.1448444128036499,-0.01702823862433434,-0.03006218746304512,0.00709843635559082,0.005835235118865967,0.004803478717803955,1,0.009128292091190815,-0.5182099342346191,0.1497874706983566,0.8419849872589111,-0.8753845691680908,0.1398709416389465,-0.4627502858638763,0,0,0,-1,169467.2587872917,3,2,1561841651.205286,1561841239.621676,31,1.858098,0,0,29.67847,0,0,1561841649.26955,169465.050972,0,0.2353516,75.19073,0,182478453,3,1,1,-36.28218,-41.27337,3
1561841651.41538,9,0,0,1561841650.994323,4.634688072842206,-74.15093472234359,2554.131,1.04,287.2265625,4,50,-9999,1561841651.399341,-23.00202941894531,-14.69033432006836,12.33758544921875,119.3921966552734,126.8853988647461,15,169467.7139262917,-0.8703460693359375,0.158355712890625,-0.46197509765625,169467.7139262917,-0.08386161114605017,0.0005470132879022755,0.01457441538156764,169467.6895422917,-97.13870239257812,-41.31939697265625,-550.341064453125,169467.7088292917,0.2649143354206567,-1.085041785255492,-0.1412557923259604,-0.1074951738119125,0.004524191375821829,0.0006001163274049759,0.00516897439956665,0.01318994164466858,-0.002282381057739258,1,0.008110626600682735,-0.5184798836708069,0.1489396989345551,0.8419796824455261,-0.8755150437355042,0.1407865136861801,-0.4622256457805634,0,0,0,-1,169467.2587872917,3,2,1561841651.205286,1561841239.621676,31,1.858098,0,0,29.67847,0,0,1561841649.26955,169465.050972,0,0.2353516,75.19073,0,182478453,3,1,1,-36.28218,-41.53202,3
1561841651.435679,10,0,0,1561841650.994323,4.634688072842206,-74.15093472234359,2554.131,1.04,287.2265625,4,50,-9999,1561841651.423941,-22.85951995849609,-14.7992057800293,12.4468994140625,119.5168304443359,127.0100326538086,15,169467.7341592917,-0.8670654296875,0.156707763671875,-0.4523162841796875,169467.7341592917,-0.01223589362836906,-0.01661199993158726,0.03580327137891627,169467.7096532917,-97.08100891113281,-41.44046020507812,-550.3822021484375,169467.7290932917,0.2639642111294317,-1.085334599632978,-0.1422120701695652,-0.02227428928017616,-0.01705886423587799,0.03260065987706184,0.007229447364807129,0.01735493540763855,0.004478216171264648,1,0.007478899788111448,-0.5186433792114258,0.148778885602951,0.8419132232666016,-0.8755308389663696,0.1417331993579865,-0.461906224489212,0,0,0,-1,169467.2587872917,3,2,1561841651.205286,1561841239.621676,31,1.858098,0,0,29.67847,0,0,1561841649.26955,169465.050972,0,0.2353516,75.19073,0,182478453,3,1,1,-36.20639,-36.20639,3
1561841651.456007,11,0,0,1561841650.994323,4.634688072842206,-74.15093472234359,2554.131,1.04,287.2265625,4,50,-9999,1561841651.450153,-22.92488098144531,-14.75743103027344,12.4112548828125,119.5269546508789,127.0201568603516,15,169467.7544232917,-0.8844451904296875,0.14642333984375,-0.460113525390625,169467.7544232917,-0.04642662096724235,0.005334311663428714,0.02426912069778309,169467.7297642917,-97.39569091796875,-41.32077026367188,-550.4414672851562,169467.7493572917,0.2638551070466248,-1.085744565474113,-0.142936275995301,-0.03446783870458603,-0.01213228330016136,0.02417122200131416,0.003100991249084473,0.01151113212108612,0.002041876316070557,1,0.007172774523496628,-0.5188438296318054,0.1489134877920151,0.8417685627937317,-0.8756290674209595,0.1424500495195389,-0.4614992737770081,0,0,0,-1,169467.2587872917,3,2,1561841651.205286,1561841239.621676,31,1.858098,0,0,29.67847,0,0,1561841649.26955,169465.050972,0,0.2353516,75.19073,0,182478453,3,1,1,-36.20639,-36.9096,3
1561841651.476162,12,0,0,1561841650.994323,4.634688072842206,-74.15093472234359,2554.131,1.04,287.2265625,4,50,-9999,1561841651.474502,-22.90225982666016,-14.69699478149414,12.4400634765625,119.5897369384766,127.0829391479492,15,169467.7746862917,-0.8952484130859375,0.1212158203125,-0.4530487060546875,169467.7746862917,-0.06098372580172447,0.008731706266042798,-0.008688296740274506,169467.7498762917,-97.2138671875,-41.16452026367188,-550.2570190429688,169467.7696202917,0.2630170708524279,-1.085784106554026,-0.1437455178885117,-0.06538713723421097,0.008209740743041039,0.0001745431218296289,-0.01825374364852905,-0.007539331912994385,0.005859613418579102,1,0.006613767705857754,-0.5188938975334167,0.1487640589475632,0.841768741607666,-0.8755450844764709,0.1432510018348694,-0.4614107608795166,0,0,0,-1,169467.2587872917,3,2,1561841651.205286,1561841239.621676,31,1.858098,0,0,29.67847,0,0,1561841649.26955,169465.050972,0,0.2353516,75.19073,0,182478453,3,1,1,-36.20639,-36.9096,3
1561841651.496401,13,0,0,1561841650.994323,4.634688072842206,-74.15093472234359,2554.131,1.04,287.2265625,4,50,-9999,1561841651.474502,-22.90225982666016,-14.69699478149414,12.4400634765625,119.5897369384766,127.0829391479492,15,169467.7949502917,-0.87237548828125,0.1192626953125,-0.4569244384765625,169467.7949502917,-0.01910631660855548,-0.004050401701901513,-0.03921078599367266,169467.7699562917,-97.43502807617188,-41.55177307128906,-550.369873046875,169467.7898842917,0.2618209943058457,-1.085998433677966,-0.1438935132337157,-0.03657839447259903,-0.01192642096430063,-0.03933851048350334,-0.01028478145599365,-0.02875818312168121,0.009659886360168457,1,0.006256327033042908,-0.5189934968948364,0.1482971608638763,0.8417924642562866,-0.8756251931190491,0.1433974653482437,-0.461213231086731,0,0,0,-1,169467.2587872917,3,2,1561841651.205286,1561841239.621676,31,1.858098,0,0,29.67847,0,0,1561841649.26955,169465.050972,0,0.2353516,75.19073,0,182478453,3,1,1,-36.20639,-37.78504,3
1561841651.516746,14,0,0,1561841650.994323,4.634688072842206,-74.15093472234359,2554.131,1.04,287.2265625,4,50,-9999,1561841651.500913,-22.92263031005859,-14.81568145751953,12.2005615234375,119.6659774780273,127.1591796875,15,169467.8152142917,-0.86395263671875,0.13421630859375,-0.46893310546875,169467.8152142917,0.05169328833898305,0.008248076212084409,-0.01033546187448852,169467.7900672917,-97.25846862792969,-41.3472900390625,-550.7560424804688,169467.8101482917,0.2613855859928948,-1.086167483254382,-0.143304513309827,0.03053805790841579,0.001544380560517311,-0.02455344051122665,0.01031452417373657,-0.01514424383640289,-0.002518534660339355,1,0.00640660896897316,-0.519044041633606,0.1479652225971222,0.841818630695343,-0.8757777810096741,0.1428145319223404,-0.4611044824123383,0,0,0,-1,169467.2587872917,3,2,1561841651.205286,1561841239.621676,31,1.858098,0,0,29.67847,0,0,1561841649.26955,169465.050972,0,0.2353516,75.19073,0,182478453,3,1,1,-36.20639,-38.32408,3
1561841651.538529,15,0,0,1561841650.994323,4.634688072842206,-74.15093472234359,2554.131,1.04,287.2265625,4,50,-9999,1561841651.525172,-22.89607238769531,-14.89557647705078,12.10772705078125,119.6349945068359,127.1281967163086,15,169467.8354772917,-0.86590576171875,0.14483642578125,-0.4683380126953125,169467.8354772917,0.1206172289307788,-0.01517975189734265,0.03123781432219343,169467.8101782917,-97.49771118164062,-41.44670104980469,-550.583251953125,169467.8304112917,0.2625747310270121,-1.086026557430743,-0.1427285555962114,0.101901188492775,-0.01095223613083363,0.02445618063211441,0.0118023157119751,-0.002275586128234863,-0.0101999044418335,1,0.006949950009584427,-0.5189591646194458,0.148321345448494,0.841804027557373,-0.8757854700088501,0.1422444581985474,-0.4612661600112915,0,0,0,-1,169467.2587872917,3,2,1561841651.205286,1561841239.621676,31,1.858098,0,0,29.67847,0,0,1561841649.26955,169465.050972,0,0.2353516,75.19073,0,182478453,3,1,1,-36.20639,-38.3428,3
1561841651.557245,16,0,0,1561841650.994323,4.634688072842206,-74.15093472234359,2554.131,1.04,287.2265625,4,50,-9999,1561841651.551404,-22.92464447021484,-14.60080718994141,12.2796630859375,119.4652328491211,126.9584350585938,15,169467.8557412917,-0.8653717041015625,0.146240234375,-0.4589385986328125,169467.8557412917,0.1722745645950458,-0.02240277740585556,0.008351140546270475,169467.8302892917,-97.21615600585938,-41.1982421875,-550.6981201171875,169467.8506752917,0.2651749248176026,-1.086206405167254,-0.1418667836004684,0.1614255011081696,-0.03126602992415428,0.01021173130720854,0.0104522705078125,0.005962744355201721,-0.00170975923538208,1,0.008004896342754364,-0.5189924240112305,0.1491982638835907,0.8416191339492798,-0.8759765625,0.141391396522522,-0.461165577173233,0,0,0,-1,169467.2587872917,3,2,1561841651.205286,1561841239.621676,31,1.858098,0,0,29.67847,0,0,1561841649.26955,169465.050972,0,0.2353516,75.19073,0,182478453,3,1,1,-36.20639,-39.07181,3
1561841651.577465,17,0,0,1561841650.994323,4.634688072842206,-74.15093472234359,2554.131,1.04,287.2265625,4,50,-9999,1561841651.57576,-22.87496185302734,-14.51830291748047,12.151611328125,119.2497329711914,126.7429351806641,15,169467.8760052917,-0.8671875,0.1513824462890625,-0.44927978515625,169467.8760052917,0.1591851278373063,-0.01679442646625769,-0.002588326263448011,169467.8504002917,-97.28094482421875,-41.25025939941406,-550.5660400390625,169467.8709082917,0.2682405426392785,-1.086333200348841,-0.1402627316631862,0.1628630757331848,-0.02212819270789623,-0.0006963105406612158,0.01037460565567017,0.007444038987159729,0.00746995210647583,1,0.009492585435509682,-0.518970251083374,0.1500842571258545,0.8414598107337952,-0.8762345910072327,0.1398032754659653,-0.4611595273017883,0,0,0,-1,169467.2587872917,3,2,1561841651.205286,1561841239.621676,31,1.858098,0,0,29.67847,0,0,1561841649.26955,169465.050972,0,0.2353516,75.19073,0,182478453,3,1,1,-36.20639,-39.93013,3
1561841651.597703,18,0,0,1561841650.994323,4.634688072842206,-74.15093472234359,2554.131,1.04,287.2265625,4,50,-9999,1561841651.57576,-22.87496185302734,-14.51830291748047,12.151611328125,119.2497329711914,126.7429351806641,15,169467.8962382917,-0.866180419921875,0.1408843994140625,-0.433746337890625,169467.8962382917,0.09988824827003802,-0.003262638651456075,-0.00750398900351627,169467.8705122917,-97.16194152832031,-41.35789489746094,-550.287109375,169467.8911722917,0.2707949927843554,-1.08636218419944,-0.1387300094854002,0.11725964397192,-0.01593447849154472,-0.01076811924576759,0.01042389869689941,0.01080818474292755,0.02156662940979004,1,0.01080981642007828,-0.5189089179039001,0.1507733762264252,0.841358482837677,-0.8764365315437317,0.1382854431867599,-0.461233377456665,0,0,0,-1,169467.2587872917,3,2,1561841651.205286,1561841239.621676,31,1.858098,0,0,29.67847,0,0,1561841649.26955,169465.050972,0,0.2353516,75.19073,0,182478453,3,1,1,-36.20639,-40.78693,3
1561841651.617869,19,0,0,1561841650.994323,4.634688072842206,-74.15093472234359,2554.131,1.04,287.2265625,4,50,-9999,1561841651.601957,-22.90070343017578,-14.50768280029297,12.26513671875,119.0931777954102,126.5863800048828,15,169467.9165022917,-0.8728485107421875,0.1350250244140625,-0.4610595703125,169467.9165022917,0.02251223332665781,0.04303615058346247,-0.04811293456948053,169467.8905922917,-97.19715881347656,-40.90478515625,-550.35400390625,169467.9114362917,0.272016665555383,-1.086116089683557,-0.1376766509299873,0.03800316527485847,0.02325074002146721,-0.03414082154631615,0.006685078144073486,-0.0004623383283615112,0.01818782091140747,1,0.01155639532953501,-0.5187563300132751,0.1510238647460938,0.8413977026939392,-0.8764513731002808,0.1372421234846115,-0.4615166485309601,0,0,0,-1,169467.2587872917,3,2,1561841651.205286,1561841239.621676,31,1.858098,0,0,29.67847,0,0,1561841649.26955,169465.050972,0,0.2353516,75.19073,0,182478453,3,1,1,-36.20639,-40.89998,3
1561841651.638645,20,0,0,1561841650.994323,4.634688072842206,-74.15093472234359,2554.131,1.04,287.2265625,4,50,-9999,1561841651.626418,-22.91096496582031,-14.27824783325195,12.48388671875,119.0756530761719,126.5688552856445,15,169467.9367652917,-0.8675079345703125,0.1495819091796875,-0.4659271240234375,169467.9367652917,0.001178981414578079,0.0272507958542358,-0.06768397278825483,169467.9107032917,-97.33641052246094,-41.05189514160156,-550.5455932617188,169467.9316992917,0.271678848808166,-1.085342152115809,-0.1365260140207335,-0.0001910912105813622,0.04187822341918945,-0.07381553202867508,0.00692451000213623,0.006750509142875671,-0.005825698375701904,1,0.01190012693405151,-0.5183862447738647,0.1505970656871796,0.8416973948478699,-0.8762329816818237,0.1361022889614105,-0.4622681736946106,0,0,0,-1,169467.9162572917,1,2,1561841651.862756,1561841239.621676,31,1.858098,0,0,29.67847,0,0,1561841651.863123,169465.050972,0,0.2353516,75.19073,0,182478453,3,1,1,-36.20639,-40.89998,3
1561841651.658533,21,0,0,1561841650.994323,4.634688072842206,-74.15093472234359,2554.131,1.04,287.2265625,4,50,-9999,1561841651.652683,-22.88948822021484,-14.55610275268555,12.61053466796875,119.1188888549805,126.6120910644531,15,169467.9570292917,-0.8526458740234375,0.162872314453125,-0.474029541015625,169467.9570292917,0.00724353184890652,-0.1151388402523768,-0.0119045963887632,169467.9308142917,-97.32908630371094,-40.96281433105469,-550.3082275390625,169467.9519632917,0.2711157069168653,-1.08566478217413,-0.1355291249350563,0.001591362524777651,-0.08132919669151306,-0.03319326788187027,0.01454794406890869,0.02232557535171509,-0.002139091491699219,1,0.0122026726603508,-0.5184851288795471,0.1501075476408005,0.8417196869850159,-0.8765016794204712,0.1351145952939987,-0.4620485305786133,0,0,0,-1,169467.9162572917,1,2,1561841651.862756,1561841239.621676,31,1.858098,0,0,29.67847,0,0,1561841651.863123,169465.050972,0,0.2353516,75.19073,0,182478453,3,1,1,-36.20639,-41.47441,3
1561841651.678756,22,0,0,1561841650.994323,4.634688072842206,-74.15093472234359,2554.131,1.04,287.2265625,4,50,-9999,1561841651.677107,-22.72468566894531,-14.60969924926758,12.54901123046875,119.0919494628906,126.5851516723633,15,169467.9772932917,-0.8668670654296875,0.146728515625,-0.4731597900390625,169467.9772932917,0.03808027411093402,-0.1744453071995694,0.06999399871778957,169467.9509252917,-97.20246887207031,-40.99331665039062,-550.2742919921875,169467.9722272917,0.2713959707947451,-1.088521658304544,-0.1356159037191497,0.02627353928983212,-0.1806392818689346,0.05479917302727699,0.02517706155776978,0.02410118281841278,-0.0196651816368103,1,0.01245301868766546,-0.5196887254714966,0.1502296924591064,0.8409515023231506,-0.8778076767921448,0.1352005898952484,-0.4595370888710022,0,0,0,-1,169467.9162572917,1,2,1561841651.862756,1561841239.621676,31,1.858098,0,0,29.67847,0,0,1561841651.863123,169465.050972,0,0.2353516,75.19073,0,182478453,3,1,1,-36.20639,-42.33275,3
1561841651.699492,23,0,0,1561841650.994323,4.634688072842206,-74.15093472234359,2554.131,1.04,287.2265625,4,50,-9999,1561841651.677107,-22.72468566894531,-14.60969924926758,12.54901123046875,119.0919494628906,126.5851516723633,15,169467.997576125,-0.88092041015625,0.1243743896484375,-0.454742431640625,169467.997576125,0.0426574490764532,-0.1765193770565231,0.04821706416810263,169467.9710362917,-97.05470275878906,-41.28248596191406,-550.1809692382812,169467.992510125,0.2726967112674718,-1.09199487954249,-0.1364168278220934,0.04417264461517334,-0.1787020862102509,0.05687190964818001,0.00155562162399292,-0.001930400729179382,-0.006409287452697754,1,0.01271260622888803,-0.5211723446846008,0.1509565114974976,0.8398988246917725,-0.8793022036552429,0.1359941065311432,-0.4564355611801147,0,0,0,-1,169467.9162572917,1,2,1561841651.862756,1561841239.621676,31,1.858098,0,0,29.67847,0,0,1561841651.863123,169465.050972,0,0.2353516,75.19073,0,182478453,3,1,1,-36.20639,-43.02857,3
1561841651.719239,24,0,0,1561841650.994323,4.634688072842206,-74.15093472234359,2554.131,1.04,287.2265625,4,50,-9999,1561841651.703346,-22.62786865234375,-14.50116348266602,12.5013427734375,119.0027084350586,126.4959106445312,15,169468.017840125,-0.8892059326171875,0.1065521240234375,-0.442169189453125,169468.017840125,0.006172941090694667,-0.1429781947075201,-0.009192166818517498,169467.991168125,-96.93222045898438,-41.17463684082031,-550.4154052734375,169468.012774125,0.2735985150950649,-1.095424599994346,-0.1366632389031705,0.01846089027822018,-0.1609792858362198,0.0009449957869946957,-0.00248342752456665,-0.01993574202060699,0.003557384014129639,1,0.01310255378484726,-0.5226159691810608,0.1513752192258835,0.8389198184013367,-0.8808326125144958,0.136238232254982,-0.4534017443656921,0,0,0,-1,169467.9162572917,1,2,1561841651.862756,1561841239.621676,31,1.858098,0,0,29.67847,0,0,1561841651.863123,169465.050972,0,0.2353516,75.19073,0,182478453,3,1,1,-36.20639,-40.03841,3
1561841651.748006,25,0,0,1561841650.994323,4.634688072842206,-74.15093472234359,2554.131,1.04,287.2265625,4,50,-9999,1561841651.728172,-22.72714996337891,-14.61386108398438,12.63836669921875,118.9884185791016,126.4816207885742,15,169468.038104125,-0.8891448974609375,0.1073760986328125,-0.4374542236328125,169468.038104125,-0.03044259442069577,-0.1099398171723241,-0.04178766066443333,169468.011248125,-97.27275085449219,-41.01969909667969,-550.253662109375,169468.033007125,0.2732840316499277,-1.098300017953392,-0.136420053240211,-0.02808264270424843,-0.126871645450592,-0.03799521550536156,-0.01084327697753906,-0.03391601145267487,0.01010149717330933,1,0.01334091182798147,-0.5238138437271118,0.1511626690626144,0.838206946849823,-0.8821620941162109,0.1359973102807999,-0.4508821666240692,0,0,0,-1,169467.9162572917,1,2,1561841651.862756,1561841239.621676,31,1.858098,0,0,29.67847,0,0,1561841651.863123,169465.050972,0,0.2353516,75.19073,0,182478453,3,1,1,-36.20639,-40.35329,3
1561841651.760238,26,0,0,1561841650.994323,4.634688072842206,-74.15093472234359,2554.131,1.04,287.2265625,4,50,-9999,1561841651.754208,-22.71937561035156,-14.44145202636719,12.84942626953125,119.0523910522461,126.5455932617188,15,169468.058337125,-0.8763427734375,0.1349029541015625,-0.4282379150390625,169468.058337125,-0.01198928491142772,-0.0850017104087131,-0.02071646380361739,169468.031359125,-97.30123901367188,-41.16877746582031,-550.1375732421875,169468.053271125,0.2723619165842223,-1.100452824389434,-0.1359894430660741,-0.0207272581756115,-0.09287054091691971,-0.03579597547650337,0.001575767993927002,-0.01516358554363251,0.01925992965698242,1,0.01344413962215185,-0.5247046947479248,0.1506524235010147,0.8377398252487183,-0.8831828236579895,0.13557069003582,-0.4490084648132324,0,0,0,-1,169467.9162572917,1,2,1561841651.862756,1561841239.621676,31,1.858098,0,0,29.67847,0,0,1561841651.863123,169465.050972,0,0.2353516,75.19073,0,182478453,3,1,1,-36.20639,-41.20589,3
1561841651.78005,27,0,0,1561841650.994323,4.634688072842206,-74.15093472234359,2554.131,1.04,287.2265625,4,50,-9999,1561841651.778402,-22.80884552001953,-14.59441757202148,12.86688232421875,119.0651397705078,126.5583419799805,15,169468.078600125,-0.8676300048828125,0.14495849609375,-0.4302215576171875,169468.078600125,0.01202923232777891,-0.08365601510989605,0.02326431001849619,169468.051470125,-97.00898742675781,-41.26594543457031,-550.0111083984375,169468.073534125,0.2721311275996532,-1.102266803413781,-0.1358478946683637,0.007398384623229504,-0.08932294696569443,0.01174917351454496,0.01406371593475342,0.005408182740211487,0.0185965895652771,1,0.01358007080852985,-0.5254601836204529,0.150507465004921,0.8372901082038879,-0.8840130567550659,0.1354304403066635,-0.447414368391037,0,0,0,-1,169467.9162572917,1,2,1561841651.862756,1561841239.621676,31,1.858098,0,0,29.67847,0,0,1561841651.863123,169465.050972,0,0.2353516,75.19073,0,182478453,3,1,1,-36.20639,-39.41846,3
1561841651.800272,28,0,0,1561841650.994323,4.634688072842206,-74.15093472234359,2554.131,1.04,287.2265625,4,50,-9999,1561841651.778402,-22.80884552001953,-14.59441757202148,12.86688232421875,119.0651397705078,126.5583419799805,15,169468.098864125,-0.8673248291015625,0.138519287109375,-0.43353271484375,169468.098864125,-0.009708553753883863,-0.07841597934905614,0.03117203424326848,169468.071581125,-97.04006958007812,-41.20466613769531,-549.8855590820312,169468.093798125,0.2724715166787218,-1.103939888274005,-0.1361709800190603,-0.002766634337604046,-0.08141601830720901,0.02979288622736931,0.01619094610214233,0.007209047675132751,0.01184821128845215,1,0.01365877967327833,-0.5261710286140442,0.150720939040184,0.8368038535118103,-0.8847212195396423,0.1357505470514297,-0.4459149837493896,0,0,0,-1,169467.9162572917,1,2,1561841651.862756,1561841239.621676,31,1.858098,0,0,29.67847,0,0,1561841651.863123,169465.050972,0,0.2353516,75.19073,0,182478453,3,1,1,-36.20639,-39.41846,3
1561841651.829371,29,0,0,1561841650.994323,4.634688072842206,-74.15093472234359,2554.131,1.04,287.2265625,4,50,-9999,1561841651.805117,-22.61139678955078,-14.70045852661133,13.0106201171875,119.0484466552734,126.5416488647461,15,169468.119128125,-0.873565673828125,0.1327362060546875,-0.422515869140625,169468.119128125,-0.04748655908109389,-0.05861218085100892,0.04161162571637909,169468.091692125,-97.09764099121094,-41.24021911621094,-549.9383544921875,169468.114062125,0.2723628174371292,-1.105567054756993,-0.1368126924812255,-0.04191616922616959,-0.06824775040149689,0.0335620604455471,0.01493000984191895,-0.001788511872291565,0.01578575372695923,1,0.01348128262907267,-0.5268779993057251,0.1508283019065857,0.8363425135612488,-0.8853676319122314,0.1363862901926041,-0.4444356560707092,0,0,0,-1,169467.9162572917,1,2,1561841651.862756,1561841239.621676,31,1.858098,0,0,29.67847,0,0,1561841651.863123,169465.050972,0,0.2353516,75.19073,0,182478453,3,1,1,-36.20639,-39.89054,3
1561841651.840937,30,0,0,1561841650.994323,4.634688072842206,-74.15093472234359,2554.131,1.04,287.2265625,4,50,-9999,1561841651.829127,-22.52719879150391,-14.72589874267578,13.01031494140625,119.080192565918,126.5733947753906,15,169468.139391125,-0.873992919921875,0.1287841796875,-0.4190216064453125,169468.139391125,-0.07319165623864771,-0.03440830759993276,0.06551882282202041,169468.111803125,-97.02630615234375,-41.38961791992188,-549.9190673828125,169468.134325125,0.2717900165206024,-1.106912274048723,-0.1381285213737846,-0.06687024980783463,-0.04945142567157745,0.06370770931243896,0.0129091739654541,-0.005655407905578613,0.02270764112472534,1,0.01287522539496422,-0.5274963974952698,0.1509163826704025,0.835946261882782,-0.8858034610748291,0.1376897096633911,-0.4431635439395905,0,0,0,-1,169467.9162572917,1,2,1561841651.862756,1561841239.621676,31,1.858098,0,0,29.67847,0,0,1561841651.863123,169465.050972,0,0.2353516,75.19073,0,182478453,3,1,1,-36.20639,-39.89054,3
1561841651.861115,31,0,0,1561841650.994323,4.634688072842206,-74.15093472234359,2554.131,1.04,287.2265625,4,50,-9999,1561841651.855643,-22.75547027587891,-14.74061584472656,13.24871826171875,119.1456756591797,126.6388778686523,15,169468.159655125,-0.887420654296875,0.121734619140625,-0.4263916015625,169468.159655125,-0.09656355796518309,0.006219812725880061,0.03924966814558781,169468.131884125,-97.18850708007812,-41.12702941894531,-549.9384155273438,169468.154589125,0.2707558188833979,-1.107643742349115,-0.1399350243041463,-0.1002580374479294,-0.005074639804661274,0.04375903680920601,0.005257546901702881,-0.01572999358177185,0.02307677268981934,1,0.0118936887010932,-0.5278794765472412,0.150941863656044,0.8357142210006714,-0.8859032988548279,0.1394787728786469,-0.4424035847187042,0,0,0,-1,169467.9162572917,1,2,1561841651.862756,1561841239.621676,31,1.858098,0,0,29.67847,0,0,1561841651.863123,169465.050972,0,0.2353516,75.19073,0,182478453,3,1,1,-36.20639,-40.52309,3
1561841651.881842,32,0,0,1561841650.994323,4.634688072842206,-74.15093472234359,2554.131,1.04,287.2265625,4,50,-9999,1561841651.879621,-22.82008361816406,-14.56848526000977,12.8590087890625,119.2549209594727,126.7481231689453,15,169468.179919125,-0.8730316162109375,0.138885498046875,-0.4398040771484375,169468.179919125,-0.09536620073908347,-0.03731594687808128,0.03804565301676299,169468.151995125,-97.02058410644531,-41.27470397949219,-549.9983520507812,169468.174853125,0.2692375259273695,-1.107947775968856,-0.1414812067811068,-0.09962020814418793,-0.02326616086065769,0.0319652296602726,-2.056360244750977e-05,-0.01396501064300537,0.01201421022415161,1,0.01086205150932074,-0.528075098991394,0.1507014632225037,0.8356480598449707,-0.8858436942100525,0.1410096734762192,-0.4420374035835266,0,0,0,-1,169467.9162572917,1,2,1561841651.862756,1561841239.621676,31,1.858098,0,0,29.67847,0,0,1561841651.863123,169465.050972,0,0.2353516,75.19073,0,182478453,3,1,1,-36.20639,-39.96564,3
1561841651.909186,33,0,0,1561841650.994323,4.634688072842206,-74.15093472234359,2554.131,1.04,287.2265625,4,50,-9999,1561841651.90598,-22.64572906494141,-14.41415405273438,12.89007568359375,119.2915954589844,126.784797668457,15,169468.200182125,-0.877166748046875,0.1604766845703125,-0.4457855224609375,169468.200182125,0.00855966605962368,-0.06272942789627142,0.03280455199148705,169468.172106125,-96.81890869140625,-40.95889282226562,-549.9420166015625,169468.195086125,0.2681709210835909,-1.109039588523418,-0.1427592636282184,-0.02657582610845566,-0.05338411405682564,0.02879899740219116,0.01957136392593384,0.01214410364627838,-0.007634341716766357,1,0.01012221723794937,-0.5285857319831848,0.1505774408578873,0.8353568315505981,-0.8861637711524963,0.1422748416662216,-0.4409893155097961,0,0,0,-1,169467.9162572917,1,2,1561841651.862756,1561841239.621676,31,1.858098,0,0,29.67847,0,0,1561841651.863123,169465.050972,0,0.2353516,75.19073,0,182478453,3,1,1,-36.20639,-39.97968,3
1561841651.92234,34,0,0,1561841650.994323,4.634688072842206,-74.15093472234359,2554.131,1.04,287.2265625,4,50,-9999,1561841651.90598,-22.64572906494141,-14.41415405273438,12.89007568359375,119.2915954589844,126.784797668457,15,169468.220416125,-0.8816680908203125,0.1486663818359375,-0.4407958984375,169468.220416125,0.05427122827417975,-0.1367732956837445,0.1102141227646023,169468.192217125,-97.03605651855469,-40.81488037109375,-550.1207275390625,169468.215350125,0.269034086080597,-1.11078514523041,-0.1432501336419449,0.05322020128369331,-0.1357778012752533,0.07489831745624542,0.004423141479492188,0.01284842193126678,-0.001980245113372803,1,0.01027471013367176,-0.5293288826942444,0.151054784655571,0.8347979784011841,-0.8868694305419922,0.1427607089281082,-0.4394107162952423,0,0,0,-1,169467.9162572917,1,2,1561841651.862756,1561841239.621676,31,1.858098,0,0,29.67847,0,0,1561841651.863123,169465.050972,0,0.2353516,75.19073,0,182478453,3,1,1,-36.20639,-40.90202,3
1561841651.942186,35,0,0,1561841650.994323,4.634688072842206,-74.15093472234359,2554.131,1.04,287.2265625,4,50,-9999,1561841651.930323,-22.55012512207031,-14.33401870727539,13.07373046875,119.1723022460938,126.6655044555664,15,169468.240679125,-0.872222900390625,0.14532470703125,-0.452789306640625,169468.240679125,0.04201642620207113,-0.17584373308797,0.1474768064208819,169468.212328125,-97.14207458496094,-40.89910888671875,-550.0177612304688,169468.235613125,0.2710367926338194,-1.113614991130889,-0.1449032353466078,0.04763448610901833,-0.1736303716897964,0.139911949634552,0.01457488536834717,0.002942189574241638,-0.01295828819274902,1,0.01032194402068853,-0.530562162399292,0.1523000597953796,0.8337876200675964,-0.8878964185714722,0.1443966776132584,-0.4367944896221161,0,0,0,-1,169467.9162572917,1,2,1561841651.862756,1561841239.621676,31,1.858098,0,0,29.67847,0,0,1561841651.863123,169465.050972,0,0.2353516,75.19073,0,182478453,3,1,1,-36.20639,-41.402,3
1561841651.962377,36,0,0,1561841650.994323,4.634688072842206,-74.15093472234359,2554.131,1.04,287.2265625,4,50,-9999,1561841651.956635,-22.70860290527344,-14.56259155273438,13.0731201171875,119.0244522094727,126.5176544189453,15,169468.260943125,-0.8870086669921875,0.133148193359375,-0.43243408203125,169468.260943125,0.04945037406891832,-0.1621878419663706,0.1559619039699834,169468.232439125,-96.97038269042969,-41.024658203125,-549.8267822265625,169468.255877125,0.2730962147512531,-1.117036740851761,-0.1471954021464873,0.0395967997610569,-0.180478423833847,0.1541739702224731,0.009615302085876465,-0.009152233600616455,-0.006593167781829834,1,0.01016392093151808,-0.5320647358894348,0.1537301391363144,0.832568883895874,-0.8890860676765442,0.1466644406318665,-0.4336076378822327,0,0,0,-1,169467.9162572917,1,2,1561841651.862756,1561841239.621676,31,1.858098,0,0,29.67847,0,0,1561841651.863123,169465.050972,0,0.2353516,75.19073,0,182478453,3,1,1,-36.20639,-41.402,3
1561841651.989632,37,0,0,1561841650.994323,4.634688072842206,-74.15093472234359,2554.131,1.04,287.2265625,4,50,-9999,1561841651.981005,-22.8323974609375,-14.498291015625,13.135009765625,118.8619003295898,126.3551025390625,15,169468.281207125,-0.881439208984375,0.125579833984375,-0.4297332763671875,169468.281207125,0.07175940820440309,-0.1076873155223351,0.1104998799495678,169468.252551125,-97.15869140625,-40.98446655273438,-549.794677734375,169468.276141125,0.2753990486563983,-1.119690761040195,-0.1493044543481089,0.06876241415739059,-0.1189711168408394,0.1201843023300171,0.002258002758026123,-0.01696020364761353,0.001255273818969727,1,0.01009347289800644,-0.5332380533218384,0.1552183479070663,0.8315422534942627,-0.8899533152580261,0.148750364780426,-0.4311105906963348,0,0,0,-1,169467.9162572917,1,2,1561841651.862756,1561841239.621676,31,1.858098,0,0,29.67847,0,0,1561841651.863123,169465.050972,0,0.2353516,75.19073,0,182478453,3,1,1,-36.20639,-42.04406,3
1561841652.002873,38,0,0,1561841650.994323,4.634688072842206,-74.15093472234359,2554.131,1.04,287.2265625,4,50,-9999,1561841651.981005,-22.8323974609375,-14.498291015625,13.135009765625,118.8619003295898,126.3551025390625,15,169468.301470125,-0.8924407958984375,0.1258544921875,-0.412017822265625,169468.301470125,0.08787925596654371,-0.1172222311731458,0.1210896737081588,169468.272662125,-97.05451965332031,-40.92446899414062,-549.6158447265625,169468.296404125,0.2777043184082262,-1.121670087566081,-0.1505989635644107,0.08134212344884872,-0.1222566589713097,0.1038564592599869,0.005270004272460938,-0.02535077929496765,0.005878686904907227,1,0.01031778287142515,-0.5340986847877502,0.1565003544092178,0.8307464718818665,-0.8906306624412537,0.1500303447246552,-0.4292642772197723,0,0,0,-1,169467.9162572917,1,2,1561841651.862756,1561841239.621676,31,1.858098,0,0,29.67847,0,0,1561841651.863123,169465.050972,0,0.2353516,75.19073,0,182478453,3,1,1,-36.20639,-42.04406,3
1561841652.02324,39,0,0,1561841650.994323,4.634688072842206,-74.15093472234359,2554.131,1.04,287.2265625,4,50,-9999,1561841652.00719,-22.51020050048828,-14.31587600708008,13.19158935546875,118.6904449462891,126.1836471557617,15,169468.321734125,-0.9029541015625,0.117828369140625,-0.40631103515625,169468.321734125,0.05544488336657768,-0.09814174722716405,0.2345030518902733,169468.292742125,-97.01171875,-40.73146057128906,-549.7288208007812,169468.316668125,0.2804628486839969,-1.123550399406194,-0.1524724898012466,0.06745293736457825,-0.1014677584171295,0.1956010311841965,-0.005806624889373779,-0.03052924573421478,0.02048414945602417,1,0.01041460037231445,-0.5349376201629639,0.1581198573112488,0.8298984169960022,-0.8911812901496887,0.1518823951482773,-0.4274665713310242,0,0,0,-1,169467.9162572917,1,2,1561841651.862756,1561841239.621676,31,1.858098,0,0,29.67847,0,0,1561841651.863123,169465.050972,0,0.2353516,75.19073,0,182478453,3,1,1,-36.20639,-42.65578,3
1561841652.043457,40,0,0,1561841650.994323,4.634688072842206,-74.15093472234359,2554.131,1.04,287.2265625,4,50,-9999,1561841652.032087,-22.83461761474609,-14.10468673706055,13.3861083984375,118.4785614013672,125.9717636108398,15,169468.341998125,-0.8980560302734375,0.138641357421875,-0.4299774169921875,169468.341998125,-0.006437392986939535,-0.2231862151540906,0.3853032170354651,169468.312853125,-97.16986083984375,-40.51466369628906,-549.6898803710938,169468.336901125,0.2835231610839568,-1.125589453713846,-0.157073806129169,0.003957580775022507,-0.1844361424446106,0.3480318486690521,-0.01143646240234375,-0.03322924673557281,0.01063966751098633,1,0.009461677633225918,-0.535946786403656,0.1605683267116547,0.8287878632545471,-0.8914108872413635,0.1564287096261978,-0.4253430366516113,0,0,0,-1,169467.9162572917,1,2,1561841651.862756,1561841239.621676,31,1.858098,0,0,29.67847,0,0,1561841651.863123,169465.050972,0,0.2353516,75.19073,0,182478453,3,1,1,-36.20639,-43.0934,3
1561841652.067161,41,0,0,1561841651.994308,4.634704208005811,-74.15094201459935,2554.077,1.04,288.984375,4,50,-9999,1561841652.058022,-23.13201904296875,-13.83885192871094,13.487060546875,118.256591796875,125.7497940063477,15,169468.362261125,-0.920745849609375,0.1615447998046875,-0.4726715087890625,169468.362261125,-0.04888285444062243,-0.2885521725295404,0.3656126028837463,169468.353075125,-97.08061218261719,-40.36613464355469,-549.14892578125,169468.357165125,0.2865746345656696,-1.130390208891466,-0.1643189538596588,-0.04278409108519554,-0.3095842003822327,0.390484482049942,-0.008225679397583008,-0.00968034565448761,-0.02866953611373901,1,0.007627496961504221,-0.538200318813324,0.1636865586042404,0.8267338275909424,-0.8923938274383545,0.1635804921388626,-0.4205644726753235,0,0,0,-1,169467.9162572917,1,2,1561841651.862756,1561841239.621676,31,1.858098,0,0,29.67847,0,0,1561841651.863123,169465.050972,0,0.2353516,75.19073,0,182478453,3,1,1,-36.20639,-41.18914,3
1561841652.083766,42,0,0,1561841651.994308,4.634704208005811,-74.15094201459935,2554.077,1.04,288.984375,4,50,-9999,1561841652.082305,-22.86219787597656,-13.77537155151367,13.74664306640625,118.0926132202148,125.5858154296875,15,169468.382494125,-0.9720916748046875,0.1367950439453125,-0.532440185546875,169468.382494125,0.02534716830704717,-0.2705832920225578,0.280270540487721,169468.373187125,-97.09159851074219,-40.15196228027344,-549.168212890625,169468.377428125,0.2887763563455434,-1.135639120808884,-0.1707443343789075,-0.01154414750635624,-0.2624872624874115,0.2949148118495941,-0.05357187986373901,-0.01712964475154877,-0.08434814214706421,1,0.005960165522992611,-0.540604293346405,0.166245624423027,0.8246658444404602,-0.8936175107955933,0.1699158996343613,-0.4154229462146759,0,0,0,-1,169467.9162572917,1,2,1561841651.862756,1561841239.621676,31,1.858098,0,0,29.67847,0,0,1561841651.863123,169465.050972,0,0.2353516,75.19073,0,182478453,3,1,1,-36.20639,-41.19181,3
1561841652.105266,43,0,0,1561841651.994308,4.634704208005811,-74.15094201459935,2554.077,1.04,288.984375,4,50,-9999,1561841652.082305,-22.86219787597656,-13.77537155151367,13.74664306640625,118.0926132202148,125.5858154296875,15,169468.402758125,-0.9615936279296875,0.15875244140625,-0.5048065185546875,169468.402758125,0.3104694556686745,-0.2996194710715827,0.1618946279303529,169468.393267125,-97.09922790527344,-39.93879699707031,-549.286376953125,169468.397692125,0.2924756153790479,-1.140747108508157,-0.1744553870181357,0.2137915045022964,-0.2976223528385162,0.1857747733592987,-0.07950657606124878,-0.03598330914974213,-0.1274070739746094,1,0.005836562719196081,-0.5428372621536255,0.1687202155590057,0.8226950764656067,-0.8951485753059387,0.1735718101263046,-0.4105872809886932,0,0,0,-1,169467.9162572917,1,2,1561841651.862756,1561841239.621676,31,1.858098,0,0,29.67847,0,0,1561841651.863123,169465.995023,0,0.2644043,75.19045,0,182478453,3,1,1,-36.20639,-41.80713,3
1561841652.12443,44,0,0,1561841651.994308,4.634704208005811,-74.15094201459935,2554.077,1.04,288.984375,4,50,-9999,1561841652.108523,-22.66844177246094,-13.49893951416016,13.91729736328125,117.7281951904297,125.2213973999023,15,169468.423022125,-0.943115234375,0.1802825927734375,-0.3991241455078125,169468.423022125,0.7464425082362053,-0.3294852248001673,0.1602876765285991,169468.413378125,-97.08192443847656,-39.67295837402344,-548.576904296875,169468.417956125,0.301653767321065,-1.145521189036184,-0.1736178326657846,0.6456040143966675,-0.3305905163288116,0.1446510404348373,-0.05423116683959961,-0.0001852661371231079,-0.0415375828742981,1,0.009088938124477863,-0.5447319746017456,0.1722545325756073,0.8206782937049866,-0.8972306251525879,0.1727469116449356,-0.4063689410686493,0,0,0,-1,169467.9162572917,1,2,1561841651.862756,1561841239.621676,31,1.858098,0,0,29.67847,0,0,1561841651.863123,169465.995023,0,0.2644043,75.19045,0,182478453,3,1,1,-36.20639,-41.80713,3
1561841652.148932,45,0,0,1561841651.994308,4.634704208005811,-74.15094201459935,2554.077,1.04,288.984375,4,50,-9999,1561841652.1329,-22.61930847167969,-13.23274230957031,14.24774169921875,116.7370376586914,124.2302398681641,15,169468.443285125,-0.95697021484375,0.202850341796875,-0.356109619140625,169468.443285125,0.8997969111828921,-0.5361113716639272,0.2293716731019086,169468.433489125,-97.08210754394531,-39.59498596191406,-548.3529052734375,169468.438220125,0.3187972613933231,-1.150455394906382,-0.1702659991016787,0.9479537606239319,-0.4847494661808014,0.2502110004425049,-0.04098653793334961,0.0257001519203186,0.03586840629577637,1,0.01559581235051155,-0.5465083122253418,0.1783705949783325,0.8180887699127197,-0.8997482657432556,0.1694445013999939,-0.402170866727829,0,0,0,-1,169467.9162572917,1,2,1561841651.862756,1561841239.621676,31,1.858098,0,0,29.67847,0,0,1561841651.863123,169465.995023,0,0.2644043,75.19045,0,182478453,3,1,1,-36.20639,-41.08941,3
1561841652.16502,46,0,0,1561841651.994308,4.634704208005811,-74.15094201459935,2554.077,1.04,288.984375,4,50,-9999,1561841652.159219,-22.68811798095703,-12.88713455200195,14.5484619140625,115.5467834472656,123.0399856567383,15,169468.463549125,-0.916473388671875,0.1505889892578125,-0.4310455322265625,169468.463549125,0.2515254449458417,-0.6365538237568107,0.04842585599756483,169468.453600125,-96.70147705078125,-39.20359802246094,-548.044921875,169468.458483125,0.3341674236263873,-1.160060976834948,-0.1674185298762042,0.4185948073863983,-0.6881089806556702,0.082530677318573,-0.01690518856048584,0.01689517498016357,-0.01895779371261597,1,0.02186293341219425,-0.5501559376716614,0.1838051676750183,0.8142886757850647,-0.9040085673332214,0.1666375249624252,-0.3937009274959564,0,0,0,-1,169467.9162572917,1,2,1561841651.862756,1561841239.621676,31,1.858098,0,0,29.67847,0,0,1561841651.863123,169465.995023,0,0.2644043,75.19045,0,182478453,3,1,1,-36.20639,-41.68767,3
1561841652.185274,47,0,0,1561841651.994308,4.634704208005811,-74.15094201459935,2554.077,1.04,288.984375,4,50,-9999,1561841652.184052,-22.39894866943359,-12.95949935913086,14.94415283203125,115.4088516235352,122.9020538330078,15,169468.483813125,-1.031280517578125,0.115875244140625,-0.378814697265625,169468.483813125,-0.3073777919592016,0.09986827456186242,0.07352641558767066,169468.473711125,-96.60859680175781,-38.96330261230469,-547.4830322265625,169468.478747125,0.3368666075791818,-1.168634299338233,-0.1675265134605869,-0.1727894097566605,-0.00476768845692277,0.09394977986812592,-0.06193482875823975,-0.04078270494937897,0.003955841064453125,1,0.02335315570235252,-0.5536154508590698,0.1848339885473251,0.8116654753684998,-0.90733402967453,0.1667440086603165,-0.385929137468338,0,0,0,-1,169467.9162572917,1,2,1561841651.862756,1561841239.621676,31,1.858098,0,0,29.67847,0,0,1561841651.863123,169465.995023,0,0.2644043,75.19045,0,182478453,3,1,1,-36.20639,-42.37384,3
1561841652.205593,48,0,0,1561841651.994308,4.634704208005811,-74.15094201459935,2554.077,1.04,288.984375,4,50,-9999,1561841652.184052,-22.39894866943359,-12.95949935913086,14.94415283203125,115.4088516235352,122.9020538330078,15,169468.504076125,-0.8714447021484375,0.1118316650390625,-0.34991455078125,169468.504076125,-0.3769467501670145,-0.08635832466799946,0.01041056301722875,169468.493823125,-96.63385009765625,-39.2037353515625,-547.6639404296875,169468.498980125,0.3303701420686613,-1.168765588382653,-0.1711973847055227,-0.4331552088260651,-0.02558615244925022,0.008239934220910072,-0.0101158618927002,-0.05097758769989014,-0.03638339042663574,1,0.02004803903400898,-0.5539080500602722,0.1831690520048141,0.8119316101074219,-0.9068152904510498,0.1703623533248901,-0.3855679035186768,0,0,0,-1,169467.9162572917,1,2,1561841651.862756,1561841239.621676,31,1.858098,0,0,29.67847,0,0,1561841651.863123,169465.995023,0,0.2644043,75.19045,0,182478453,3,1,1,-36.20639,-42.86286,3
1561841652.229797,49,0,0,1561841651.994308,4.634704208005811,-74.15094201459935,2554.077,1.04,288.984375,4,50,-9999,1561841652.209748,-22.28670501708984,-12.66127777099609,14.98834228515625,115.9232330322266,123.4164352416992,15,169468.524340125,-0.977874755859375,0.097076416015625,-0.2970733642578125,169468.524340125,0.06360454263047145,-0.3338991479908647,0.1469865184641984,169468.513934125,-96.9747314453125,-39.64248657226562,-548.0979614257812,169468.519244125,0.3255781725999161,-1.172695257237228,-0.1740468659271157,-0.04852951318025589,-0.2738808989524841,0.1088411062955856,-0.01742058992385864,-0.04678092896938324,0.08162558078765869,1,0.01789911836385727,-0.555674135684967,0.1819444447755814,0.8110500574111938,-0.9078723788261414,0.1731694787740707,-0.3818117678165436,0,0,0,-1,169467.9162572917,1,2,1561841651.862756,1561841239.621676,31,1.858098,0,0,29.67847,0,0,1561841651.863123,169465.995023,0,0.2644043,75.19045,0,182478453,3,1,1,-36.20639,-41.06538,3
1561841652.246017,50,0,0,1561841651.994308,4.634704208005811,-74.15094201459935,2554.077,1.04,288.984375,4,50,-9999,1561841652.234235,-22.33666229248047,-12.90055465698242,15.03704833984375,115.8969650268555,123.3901672363281,15,169468.544573125,-1.041824340820312,0.007415771484375,-0.3192291259765625,169468.544573125,0.3625659465966956,-0.532879359365007,0.1020030644916699,169468.534045125,-96.78408813476562,-39.55307006835938,-547.8295288085938,169468.539507125,0.329541768572393,-1.18058197128372,-0.1755018456664084,0.3149032890796661,-0.5627358555793762,0.1244674697518349,-0.0906757116317749,-0.1173665821552277,0.05963265895843506,1,0.01912426389753819,-0.5588939785957336,0.1838643401861191,0.8083722591400146,-0.9106213450431824,0.1746022999286652,-0.3745435774326324,0,0,0,-1,169467.9162572917,1,2,1561841651.862756,1561841239.621676,31,1.858098,0,0,29.67847,0,0,1561841651.863123,169465.995023,0,0.2644043,75.19045,0,182478453,3,1,1,-36.20639,-41.95237,3
1561841652.266231,51,0,0,1561841651.994308,4.634704208005811,-74.15094201459935,2554.077,1.04,288.984375,4,50,-9999,1561841652.260502,-22.29518890380859,-12.72586059570312,15.262939453125,115.3936614990234,122.8868637084961,15,169468.564837125,-1.1680908203125,-0.1185455322265625,-0.3525238037109375,169468.564837125,0.3130444661266721,-0.3185116695284958,-0.1917702353549708,169468.554156125,-96.61488342285156,-39.37959289550781,-547.286376953125,169468.559771125,0.3367410430501439,-1.188955263588955,-0.1734799728774226,0.3448284268379211,-0.3551635146141052,-0.08804585784673691,-0.2124747633934021,-0.2390173822641373,0.05650478601455688,1,0.02274851500988007,-0.5621070265769958,0.1861390322446823,0.8055248856544495,-0.9140511751174927,0.1726111322641373,-0.3670364022254944,0,0,0,-1,169467.9162572917,1,2,1561841651.862756,1561841239.621676,31,1.858098,0,0,29.67847,0,0,1561841651.863123,169465.995023,0,0.2644043,75.19045,0,182478453,3,1,1,-36.20639,-42.38585,3
1561841652.288532,52,0,0,1561841651.994308,4.634704208005811,-74.15094201459935,2554.077,1.04,288.984375,4,50,-9999,1561841652.284877,-22.16620635986328,-12.69214248657227,15.58953857421875,115.1887435913086,122.6819458007812,15,169468.585101125,-1.285568237304688,-0.245086669921875,-0.326416015625,169468.585101125,0.2430936106185419,-0.2893306145161706,-0.6693368041434681,169468.574236125,-96.36410522460938,-39.23268127441406,-547.1420288085938,169468.580035125,0.3399889538828661,-1.195091533862257,-0.1653079940801932,0.2624222338199615,-0.3245584666728973,-0.5493410229682922,-0.2868236899375916,-0.3358207941055298,-0.002514779567718506,1,0.02758654579520226,-0.5641594529151917,0.1851641982793808,0.8041625022888184,-0.9175678491592407,0.1645561307668686,-0.3619261980056763,0,0,0,-1,169467.9162572917,1,2,1561841651.862756,1561841239.621676,31,1.858098,0,0,29.67847,0,0,1561841651.863123,169465.995023,0,0.2644043,75.19045,0,182478453,3,1,1,-36.20639,-42.38585,3
1561841652.309596,53,0,0,1561841651.994308,4.634704208005811,-74.15094201459935,2554.077,1.04,288.984375,4,50,-9999,1561841652.284877,-22.16620635986328,-12.69214248657227,15.58953857421875,115.1887435913086,122.6819458007812,15,169468.605364125,-1.334075927734375,-0.33099365234375,-0.368377685546875,169468.605364125,0.1393871882936573,-0.1493492749833167,-1.227519922289754,169468.594347125,-96.03628540039062,-39.50154113769531,-546.8118896484375,169468.600298125,0.3379555464536321,-1.200766487757386,-0.1483948665228833,0.1570992767810822,-0.1892499178647995,-1.09203314781189,-0.4113649725914001,-0.4429558217525482,0.03122216463088989,1,0.03445599973201752,-0.5656663775444031,0.1796659827232361,0.8040860891342163,-0.9220700860023499,0.147850826382637,-0.3576686680316925,0,0,0,-1,169467.9162572917,1,2,1561841651.862756,1561841239.621676,31,1.858098,0,0,29.67847,0,0,1561841651.863123,169465.995023,0,0.2644043,75.19045,0,182478453,3,1,1,-36.20639,-43.14967,3
1561841652.327042,54,0,0,1561841651.994308,4.634704208005811,-74.15094201459935,2554.077,1.04,288.984375,4,50,-9999,1561841652.311261,-21.57865142822266,-13.15935134887695,16.020263671875,115.4751510620117,122.9683532714844,15,169468.625628125,-1.426712036132812,-0.412689208984375,-0.417144775390625,169468.625628125,0.2181954512712821,-0.0397399561022714,-1.714166805130985,169468.614459125,-95.70759582519531,-39.96826171875,-546.6702880859375,169468.620562125,0.3307823016852564,-1.204020034573155,-0.1216558568897411,0.1757539212703705,-0.031225660815835,-1.606394410133362,-0.4393016695976257,-0.4884672164916992,-0.0513606071472168,1,0.04364251345396042,-0.5657884478569031,0.1693995147943497,0.8057806491851807,-0.9265888333320618,0.1213559880852699,-0.3559575378894806,0,0,0,-1,169467.9162572917,1,2,1561841651.862756,1561841239.621676,31,1.858098,0,0,29.67847,0,0,1561841651.863123,169465.995023,0,0.2644043,75.19045,0,182478453,3,1,1,-35.49399,-40.38772,3
1561841652.347295,55,0,0,1561841651.994308,4.634704208005811,-74.15094201459935,2554.077,1.04,288.984375,4,50,-9999,1561841652.335501,-21.19834899902344,-13.71728134155273,16.14715576171875,116.0622406005859,123.5554428100586,15,169468.645892125,-1.5404052734375,-0.55255126953125,-0.4232330322265625,169468.645892125,0.4134464381709865,-0.04268621121622606,-2.287332601253948,169468.634570125,-95.14488220214844,-40.70419311523438,-546.89892578125,169468.640826125,0.3225406043261538,-1.206075134996703,-0.08475183200532854,0.3749687671661377,-0.04065431654453278,-2.122277021408081,-0.5645675659179688,-0.5574439764022827,-0.06126320362091064,1,0.05654792487621307,-0.5648876428604126,0.1558455973863602,0.8083417415618896,-0.930869996547699,0.08465040475130081,-0.3554085791110992,0,0,0,-1,169467.9162572917,1,2,1561841651.862756,1561841239.621676,31,1.858098,0,0,29.67847,0,0,1561841651.863123,169465.995023,0,0.2644043,75.19045,0,182478453,3,1,1,-35.49399,-41.01927,3
1561841652.36754,56,0,0,1561841651.994308,4.634704208005811,-74.15094201459935,2554.077,1.04,288.984375,4,50,-9999,1561841652.362271,-20.59603881835938,-14.36469650268555,15.837158203125,116.6959381103516,124.1891403198242,15,169468.666155125,-1.50616455078125,-0.6020355224609375,-0.4737548828125,169468.666155125,0.7267502961878323,-0.4987908974119927,-3.055856177036327,169468.654681125,-94.373046875,-41.58586120605469,-546.546875,169468.661059125,0.3136503227056285,-1.209630000775562,-0.03454529750036393,0.615082859992981,-0.3635948300361633,-2.854553937911987,-0.601404070854187,-0.6191636323928833,-0.1063331961631775,1,0.07476048916578293,-0.5637672543525696,0.1381586045026779,0.8108572363853455,-0.9349271059036255,0.03453842550516129,-0.353154718875885,0,0,0,-1,169467.9162572917,1,2,1561841651.862756,1561841239.621676,31,1.858098,0,0,29.67847,0,0,1561841651.863123,169465.995023,0,0.2644043,75.19045,0,182478453,3,1,1,-33.7531,-33.7531,3
1561841652.38993,57,0,0,1561841651.994308,4.634704208005811,-74.15094201459935,2554.077,1.04,288.984375,4,50,-9999,1561841652.386233,-18.31405639648438,-16.16123199462891,16.9776611328125,117.1693801879883,124.6625823974609,15,169468.686419125,-1.509033203125,-0.66583251953125,-0.3805084228515625,169468.686419125,1.256038382822867,-1.016696100915811,-3.962930175897861,169468.674792125,-92.96636962890625,-42.3929443359375,-546.2698974609375,169468.681323125,0.306829089258839,-1.222377841252746,0.03386684714346196,1.12538206577301,-0.8784765601158142,-3.736900806427002,-0.5663625001907349,-0.5901935696601868,-0.09407150745391846,1,0.1013825163245201,-0.5649014115333557,0.1155286207795143,0.8107163906097412,-0.9393748044967651,-0.03386037424206734,-0.341215968132019,0,0,0,-1,169467.9162572917,1,2,1561841651.862756,1561841239.621676,31,1.858098,0,0,29.67847,0,0,1561841651.863123,169465.995023,0,0.2644043,75.19045,0,182478453,3,1,1,-30.4397,-34.32485,3
1561841652.40804,58,0,0,1561841651.994308,4.634704208005811,-74.15094201459935,2554.077,1.04,288.984375,4,50,-9999,1561841652.386233,-18.31405639648438,-16.16123199462891,16.9776611328125,117.1693801879883,124.6625823974609,15,169468.706652125,-1.454330444335938,-0.69256591796875,-0.4227294921875,169468.706652125,1.781653970314683,-1.707092384011299,-4.833245893813576,169468.694903125,-91.5323486328125,-43.3277587890625,-545.3355712890625,169468.701586125,0.305276215257084,-1.246651389604574,0.1232529481269122,1.651435494422913,-1.552750825881958,-4.629544258117676,-0.5379815697669983,-0.5890034437179565,-0.09511160850524902,1,0.1380107402801514,-0.5682533979415894,0.08768519759178162,0.8064442873001099,-0.9407324194908142,-0.1229411214590073,-0.3160822093486786,0,0,0,-1,169467.9162572917,1,2,1561841651.862756,1561841239.621676,31,1.858098,0,0,29.67847,0,0,1561841651.863123,169465.995023,0,0.2644043,75.19045,0,182478453,3,1,1,-26.79825,-28.48813,3
1561841652.428302,59,0,0,1561841651.994308,4.634704208005811,-74.15094201459935,2554.077,1.04,288.984375,4,50,-9999,1561841652.412332,-16.53376770019531,-16.97336578369141,17.9296875,117.1330947875977,124.6262969970703,15,169468.726916125,-1.498428344726562,-0.7261199951171875,-0.4031524658203125,169468.726916125,2.225006642262823,-2.049389810499728,-5.533524102449912,169468.715014125,-89.1146240234375,-44.37748718261719,-544.1323852539062,169468.721850125,0.3115802200769286,-1.284803984829275,0.2318132351530435,2.138225078582764,-2.015521287918091,-5.375708103179932,-0.5423083305358887,-0.4632352590560913,-0.1378509998321533,1,0.183808833360672,-0.5735263824462891,0.05494973808526993,0.7964059114456177,-0.9337201118469238,-0.229742631316185,-0.2745636105537415,0,0,0,-1,169467.9162572917,1,2,1561841651.862756,1561841239.621676,31,1.858098,0,0,29.67847,0,0,1561841651.863123,169465.995023,0,0.2644043,75.19045,0,182478453,3,1,1,-26.79825,-28.48813,3
1561841652.448581,60,0,0,1561841651.994308,4.634704208005811,-74.15094201459935,2554.077,1.04,288.984375,4,50,-9999,1561841652.441035,-13.83577728271484,-17.86764907836914,19.0997314453125,116.3267669677734,123.8199691772461,15,169468.747179125,-1.494277954101562,-0.7361907958984375,-0.446685791015625,169468.747179125,2.265806270162837,-2.158498987728057,-6.062542410866522,169468.735125125,-86.28880310058594,-44.84989929199219,-542.9212036132812,169468.742114125,0.3265113695400916,-1.331427616928363,0.3547836289257948,2.300777196884155,-2.147314786911011,-5.95008373260498,-0.5890147686004639,-0.3860414624214172,-0.1857876777648926,1,0.2357460260391235,-0.5772883892059326,0.0182831697165966,0.781554639339447,-0.9109852313995361,-0.3473874628543854,-0.2223238497972488,0,0,0,-1,169467.9162572917,1,2,1561841651.862756,1561841239.621676,31,1.858098,0,0,29.67847,0,0,1561841651.863123,169465.995023,0,0.2644043,75.19045,0,182478453,3,1,1,-26.79825,-29.33479,3
1561841652.468898,61,0,0,1561841651.994308,4.634704208005811,-74.15094201459935,2554.077,1.04,288.984375,4,50,-9999,1561841652.463302,-11.06169128417969,-18.46918106079102,20.36083984375,115.0566329956055,122.5498352050781,15,169468.767443125,-1.43817138671875,-0.7359619140625,-0.4804229736328125,169468.767443125,1.91423624939097,-2.143338410590563,-6.393574399627806,169468.755206125,-83.23748779296875,-45.14591979980469,-541.5394287109375,169468.762377125,0.3448996636831222,-1.382661462990413,0.4861543423966356,2.016086339950562,-2.144733428955078,-6.332361221313477,-0.6101481318473816,-0.2703653275966644,-0.3047812581062317,1,0.2888643741607666,-0.5778223872184753,-0.02286800183355808,0.7629912495613098,-0.8685353398323059,-0.4672292768955231,-0.1653573215007782,0,0,0,-1,169467.9162572917,1,2,1561841651.862756,1561841239.621676,31,1.858098,0,0,29.67847,0,0,1561841651.863123,169465.995023,0,0.2644043,75.19045,0,182478453,3,1,1,-26.79825,-30.26206,3
1561841652.489278,62,0,0,1561841651.994308,4.634704208005811,-74.15094201459935,2554.077,1.04,288.984375,4,50,-9999,1561841652.487491,-4.522682189941406,-18.84444046020508,22.323974609375,113.7990570068359,121.2922592163086,15,169468.787707125,-1.29266357421875,-0.7287445068359375,-0.4504241943359375,169468.787707125,1.548652941279215,-1.995417921532074,-6.572470647957226,169468.775317125,-80.11763000488281,-45.35433959960938,-540.5725708007812,169468.782641125,0.3628424550417316,-1.435358542539934,0.6211473754771317,1.628883600234985,-2.078896045684814,-6.553619861602783,-0.5607519745826721,-0.1563889384269714,-0.3748617768287659,1,0.3394236266613007,-0.5743605494499207,-0.06825952231884003,0.7417831420898438,-0.8057641386985779,-0.5819686055183411,-0.1098031252622604,0,0,0,-1,169467.9162572917,1,2,1561841651.862756,1561841239.621676,31,1.858098,0,0,29.67847,0,0,1561841651.863123,169465.995023,0,0.2644043,75.19045,0,182478453,3,1,1,-26.79825,-31.11426,3
1561841652.509403,63,0,0,1561841651.994308,4.634704208005811,-74.15094201459935,2554.077,1.04,288.984375,4,50,-9999,1561841652.487491,-4.522682189941406,-18.84444046020508,22.323974609375,113.7990570068359,121.2922592163086,15,169468.807970125,-1.171279907226562,-0.73089599609375,-0.3636322021484375,169468.807970125,1.175214106900053,-1.583097734186082,-6.484573548811379,169468.795428125,-76.56820678710938,-45.35903930664062,-540.0762329101562,169468.802905125,0.3822604142043713,-1.486326957168767,0.7565508074594143,1.28679895401001,-1.699813723564148,-6.524582386016846,-0.5072574019432068,-0.04255610704421997,-0.3354662656784058,1,0.3864383697509766,-0.5656752586364746,-0.1153471395373344,0.7192857265472412,-0.7246151566505432,-0.686417281627655,-0.06135377660393715,0,0,0,-1,169467.9162572917,1,2,1561841651.862756,1561841239.621676,31,1.858098,0,0,29.67847,0,0,1561841651.863123,169465.995023,0,0.2644043,75.19045,0,182478453,3,1,1,-26.79825,-27.62207,3
1561841652.529622,64,0,0,1561841651.994308,4.634704208005811,-74.15094201459935,2554.077,1.04,288.984375,4,50,-9999,1561841652.513648,-1.248908996582031,-18.61170959472656,23.09716796875,112.4218521118164,119.9150543212891,15,169468.828234125,-0.99560546875,-0.6932525634765625,-0.3318939208984375,169468.828234125,0.5834450652984505,-1.204823930847881,-6.281081409918424,169468.815539125,-73.82942199707031,-44.92657470703125,-539.5299072265625,169468.823138125,0.4008521352055284,-1.529908559941108,0.8879475428727684,0.7333178520202637,-1.281352877616882,-6.343304634094238,-0.4645230174064636,0.06429147720336914,-0.3189638257026672,1,0.428169310092926,-0.5511573553085327,-0.1617977470159531,0.6976518630981445,-0.6304782629013062,-0.7757782936096191,-0.02579322271049023,0,0,0,-1,169467.9162572917,1,2,1561841651.862756,1561841239.621676,31,1.858098,0,0,29.67847,0,0,1561841651.863123,169465.995023,0,0.2644043,75.19045,0,182478453,3,1,1,-26.57347,-27.84082,3
1561841652.550019,65,0,0,1561841651.994308,4.634704208005811,-74.15094201459935,2554.077,1.04,288.984375,4,50,-9999,1561841652.538249,1.543777465820312,-18.42140579223633,23.28204345703125,111.4476852416992,118.9408874511719,15,169468.848498125,-0.8000335693359375,-0.6728057861328125,-0.2574462890625,169468.848498125,0.2031712279816,-1.064439655042098,-6.04883884916141,169468.835650125,-70.71846008300781,-44.44857788085938,-539.4822998046875,169468.843401125,0.4118922960309938,-1.562751946201145,1.014299909948705,0.2588735818862915,-1.110635161399841,-6.111857414245605,-0.3665933609008789,0.1658529043197632,-0.306572437286377,1,0.4634141623973846,-0.532092809677124,-0.2079151719808578,0.6774184703826904,-0.5281973481178284,-0.8491109609603882,-0.004249111749231815,0,0,0,-1,169467.9162572917,1,2,1561841651.862756,1561841239.621676,31,1.858098,0,0,29.67847,0,0,1561841651.863123,169465.995023,0,0.2644043,75.19045,0,182478453,3,1,1,-26.57347,-28.4458,3
1561841652.570146,66,0,0,1561841651.994308,4.634704208005811,-74.15094201459935,2554.077,1.04,288.984375,4,50,-9999,1561841652.564415,4.298225402832031,-17.6054801940918,23.32177734375,201.5549468994141,209.0481567382812,15,169468.868731125,-0.6435546875,-0.6623382568359375,-0.07904052734375,169468.868731125,0.04345959319678507,-0.5612843692356831,-5.645409358798538,169468.855761125,-68.34352111816406,-43.94688415527344,-539.8297729492188,169468.863665125,0.4203350056962259,-1.589903097639071,1.135159947695346,0.08497448265552521,-0.7445027232170105,-5.777176856994629,-0.2870742678642273,0.2368323802947998,-0.1778469085693359,1,0.4937741458415985,-0.510115921497345,-0.2521110475063324,0.6575779318809509,-0.4219101071357727,-0.9066016674041748,0.00806232076138258,0,0,0,-1,169467.9162572917,1,2,1561841651.862756,1561841239.621676,31,1.858098,0,0,29.67847,0,0,1561841651.863123,169465.995023,0,0.2644043,75.19045,0,182478453,3,1,1,-25.93492,-26.76434,3
1561841652.590454,67,0,0,1561841651.994308,4.634704208005811,-74.15094201459935,2554.077,1.04,288.984375,4,50,-9999,1561841652.588842,8.651748657226562,-16.69037246704102,23.16180419921875,202.0453948974609,209.5386047363281,15,169468.888995125,-0.515533447265625,-0.584197998046875,0.0027923583984375,169468.888995125,-0.4076055932682247,0.04998540313191524,-4.934294215054452,169468.875842125,-66.59130859375,-43.58287048339844,-539.8028564453125,169468.883929125,0.4257663755232753,-1.602675538506368,1.246238440625445,-0.2470849603414536,-0.05261537060141563,-5.136991500854492,-0.2685377597808838,0.3189008235931396,-0.02050971984863281,1,0.5200896859169006,-0.4843437075614929,-0.2903391718864441,0.6407970786094666,-0.3187272548675537,-0.9477918148040771,0.01016421709209681,0,0,0,-1,169467.9162572917,1,2,1561841651.862756,1561841239.621676,31,1.858098,0,0,29.67847,0,0,1561841651.863123,169465.995023,0,0.2644043,75.19045,0,182478453,3,1,1,-25.93492,-26.76434,3
1561841652.610673,68,0,0,1561841651.994308,4.634704208005811,-74.15094201459935,2554.077,1.04,288.984375,4,50,-9999,1561841652.588842,8.651748657226562,-16.69037246704102,23.16180419921875,202.0453948974609,209.5386047363281,15,169468.909258125,-0.352935791015625,-0.48443603515625,-0.089874267578125,169468.909258125,-1.233831614073242,0.03137177132502442,-4.090028207341347,169468.895953125,-64.59773254394531,-43.22103881835938,-539.9056396484375,169468.904192125,0.3842117268609733,-1.561219829474505,1.342093870730422,-1.029699563980103,0.07804170995950699,-4.297243118286133,-0.2004355490207672,0.442711353302002,-0.0364488959312439,1,0.5388815999031067,-0.4566410779953003,-0.3232861757278442,0.6297393441200256,-0.2267037630081177,-0.9739614129066467,-0.002171094296500087,0,0,0,-1,169467.9162572917,1,2,1561841651.862756,1561841239.621676,31,1.858098,0,0,29.67847,0,0,1561841651.863123,169465.995023,0,0.2644043,75.19045,0,182478453,3,1,1,-25.93492,-27.39074,3
1561841652.631204,69,0,0,1561841651.994308,4.634704208005811,-74.15094201459935,2554.077,1.04,288.984375,4,50,-9999,1561841652.615109,10.21493530273438,-16.3030891418457,22.8985595703125,202.2547454833984,209.7479553222656,15,169468.929522125,-0.1766510009765625,-0.4567108154296875,-0.1213531494140625,169468.929522125,-1.640240649063694,-0.3618831120931993,-3.393703993975453,169468.916064125,-63.41903686523438,-42.65699768066406,-540.4169311523438,169468.924456125,0.1946191238897396,-1.376347272860515,1.418404036530956,-1.614768028259277,-0.2785941660404205,-3.554027557373047,-0.1193541586399078,0.5329816341400146,-0.08761131763458252,1,0.5474619269371033,-0.4308356940746307,-0.3547073304653168,0.6235772371292114,-0.1489411443471909,-0.9884107708930969,-0.02933208644390106,0,0,0,-1,169467.9162572917,1,2,1561841651.862756,1561841239.621676,31,1.858098,0,0,29.67847,0,0,1561841651.863123,169465.995023,0,0.2644043,75.19045,0,182478453,3,1,1,-25.93492,-28.27185,3
1561841652.651184,70,0,0,1561841651.994308,4.634704208005811,-74.15094201459935,2554.077,1.04,288.984375,4,50,-9999,1561841652.639768,11.36790084838867,-16.08975219726562,22.28570556640625,202.9819030761719,210.4751129150391,15,169468.949786125,-0.0853729248046875,-0.443634033203125,-0.0583953857421875,169468.949786125,-1.370711436200589,-0.163277074852213,-2.702093575738997,169468.936175125,-62.19496154785156,-42.63656616210938,-540.9011840820312,169468.944720125,-0.2436056602502877,-0.9487498869009897,1.466832229083538,-1.469735503196716,-0.2910292744636536,-2.889628887176514,-0.02776771783828735,0.5285819172859192,-0.0444941520690918,1,0.5498514771461487,-0.4091794788837433,-0.3838055729866028,0.6188124418258667,-0.08433858305215836,-0.9946005940437317,-0.06047101318836212,0,0,0,-1,169467.9162572917,1,2,1561841651.862756,1561841239.621676,31,1.858098,0,0,29.67847,0,0,1561841651.863123,169465.995023,0,0.2644043,75.19045,0,182478453,3,1,1,-25.93492,-28.42535,3
1561841652.671884,71,0,0,1561841651.994308,4.634704208005811,-74.15094201459935,2554.077,1.04,288.984375,4,50,-9999,1561841652.665511,12.38045120239258,-15.99744415283203,21.734619140625,203.3352355957031,210.8284454345703,15,169468.970049125,-0.023529052734375,-0.36053466796875,-0.1138763427734375,169468.970049125,-1.158979210578821,0.07052103829751624,-1.977576073809088,169468.956286125,-61.54444885253906,-42.71772766113281,-541.469482421875,169468.964983125,-0.8281341452298813,-0.3685064790956345,1.477688129742144,-1.193995237350464,0.0624435767531395,-2.166428327560425,-0.02675023674964905,0.5951558351516724,0.03033614158630371,1,0.5515954494476318,-0.3903538584709167,-0.4053460657596588,0.6156792640686035,-0.03349146246910095,-0.9956685900688171,-0.0867326483130455,0,0,0,-1,169467.9162572917,1,2,1561841651.862756,1561841239.621676,31,1.858098,0,0,29.67847,0,0,1561841651.863123,169465.995023,0,0.2644043,75.19045,0,182478453,3,1,1,-25.93492,-28.76783,3
1561841652.691754,72,0,0,1561841651.994308,4.634704208005811,-74.15094201459935,2554.077,1.04,288.984375,4,50,-9999,1561841652.690039,13.47977447509766,-16.02147674560547,20.67620849609375,203.3442077636719,210.8374176025391,15,169468.990337875,0.035736083984375,-0.3235321044921875,-0.1947479248046875,169468.990337875,-0.9072034284905114,-0.107215403377173,-1.139913107702725,169468.976421875,-61.04495239257812,-42.85295104980469,-541.8671875,169468.985241875,-1.219422227447598,0.02136780296963156,1.461298535115465,-1.008449077606201,-0.06093508750200272,-1.356035470962524,0.001861274242401123,0.6652604341506958,-0.06109440326690674,1,0.5516301393508911,-0.3756019473075867,-0.420592188835144,0.6145971417427063,0.002334889024496078,-0.9940111041069031,-0.1092547327280045,0,0,0,-1,169467.9162572917,1,2,1561841651.862756,1561841239.621676,31,1.858098,0,0,29.67847,0,0,1561841651.863123,169465.995023,0,0.2644043,75.19045,0,182478453,3,1,1,-25.93492,-29.27901,3
1561841652.712015,73,0,0,1561841651.994308,4.634704208005811,-74.15094201459935,2554.077,1.04,288.984375,4,50,-9999,1561841652.690039,13.47977447509766,-16.02147674560547,20.67620849609375,203.3442077636719,210.8374176025391,15,169469.010570875,0.1732330322265625,-0.3985595703125,-0.159881591796875,169469.010570875,-0.2314497377004974,-0.0923658834550002,-0.4805660871242535,169468.996502875,-60.75418090820312,-42.86587524414062,-542.256591796875,169469.005504875,-1.371348867875764,0.1693979993701996,1.444120970728147,-0.4301453232765198,-0.164035901427269,-0.6106003522872925,0.07214567065238953,0.6464673280715942,-0.06471002101898193,1,0.5499215722084045,-0.3678607642650604,-0.4301984906196594,0.6141613125801086,0.02129916101694107,-0.991987407207489,-0.1245294436812401,0,0,0,-1,169467.9162572917,1,2,1561841651.862756,1561841239.621676,31,1.858098,0,0,29.67847,0,0,1561841651.863123,169465.995023,0,0.2644043,75.19045,0,182478453,3,1,1,-25.93492,-29.63377,3
1561841652.732333,74,0,0,1561841651.994308,4.634704208005811,-74.15094201459935,2554.077,1.04,288.984375,4,50,-9999,1561841652.716275,13.78619766235352,-16.1439323425293,20.4022216796875,203.5279846191406,211.0211944580078,15,169469.030834875,0.2529754638671875,-0.4989471435546875,-0.136260986328125,169469.030834875,0.05919461418140924,0.628869006115278,-0.1514369269618298,169469.016613875,-60.17645263671875,-42.6795654296875,-542.3657836914062,169469.025768875,-1.429834611764808,0.2285179068216985,1.440870516852647,0.140168234705925,0.3975512683391571,-0.2211386561393738,0.2038348615169525,0.5278874635696411,-0.002286434173583984,1,0.551099956035614,-0.3649555146694183,-0.432651698589325,0.613114058971405,0.02934995107352734,-0.9915714859962463,-0.1261926144361496,0,0,0,-1,169467.9162572917,1,2,1561841651.862756,1561841239.621676,31,1.858098,0,0,29.67847,0,0,1561841651.863123,169465.995023,0,0.2644043,75.19045,0,182478453,3,1,1,-25.93492,-30.59023,3
1561841652.752962,75,0,0,1561841651.994308,4.634704208005811,-74.15094201459935,2554.077,1.04,288.984375,4,50,-9999,1561841652.740795,13.92426300048828,-16.12746810913086,20.46405029296875,202.8380889892578,210.331298828125,15,169469.051098875,0.253173828125,-0.52471923828125,-0.3746490478515625,169469.051098875,-1.448488523204136,1.383518577882781,0.2600949647014987,169469.036724875,-60.84933471679688,-42.47602844238281,-542.3982543945312,169469.046032875,-1.429407479067241,0.2447043979619067,1.43505749234512,-1.012692093849182,1.208235025405884,0.1341179758310318,0.230506032705307,0.4878872632980347,-0.1073874235153198,1,0.5531739592552185,-0.358264297246933,-0.4294926226139069,0.6173987984657288,0.03278437629342079,-0.9908016324043274,-0.1312905251979828,0,0,0,-1,169467.9162572917,1,2,1561841651.862756,1561841239.621676,31,1.858098,0,0,29.67847,0,0,1561841651.863123,169465.995023,0,0.2644043,75.19045,0,182478453,3,1,1,-25.93492,-30.59023,3
1561841652.772891,76,0,0,1561841651.994308,4.634704208005811,-74.15094201459935,2554.077,1.04,288.984375,4,50,-9999,1561841652.766958,13.37273788452148,-16.18600082397461,20.43475341796875,200.8064727783203,208.2996826171875,15,169469.071361875,0.1376495361328125,-0.51959228515625,-0.281097412109375,169469.071361875,-2.029016095528404,1.210124154049356,0.6632906295206612,169469.056835875,-61.39500427246094,-43.06617736816406,-542.5133666992188,169469.066295875,-1.332882207779348,0.178013223370729,1.402884113371963,-2.088360548019409,1.406739115715027,0.5834825038909912,0.1744622886180878,0.4417616128921509,-0.1905121207237244,1,0.5472082495689392,-0.3439786732196808,-0.4252875447273254,0.6335395574569702,0.02959351241588593,-0.9859358072280884,-0.1644836068153381,0,0,0,-1,169467.9162572917,1,2,1561841651.862756,1561841239.621676,31,1.858098,0,0,29.67847,0,0,1561841651.863123,169465.995023,0,0.2644043,75.19045,0,182478453,3,1,1,-25.93492,-30.71094,3
1561841652.793047,77,0,0,1561841651.994308,4.634704208005811,-74.15094201459935,2554.077,1.04,288.984375,4,50,-9999,1561841652.791395,12.17132949829102,-17.41648483276367,19.98297119140625,199.5992279052734,207.0924377441406,15,169469.091625875,0.0552520751953125,-0.5050811767578125,-0.21820068359375,169469.091625875,-0.6180344678525086,-0.02870861023494518,0.6283555486571107,169469.076946875,-62.16975402832031,-44.00303649902344,-542.6471557617188,169469.086559875,-1.230747404873782,0.09539814948572971,1.369492288860457,-1.129496932029724,0.243028536438942,0.7115525603294373,0.06196326017379761,0.48478102684021,-0.05668431520462036,1,0.5371860861778259,-0.3345328867435455,-0.4220031499862671,0.6491780281066895,0.01904564164578915,-0.979806661605835,-0.1990377157926559,0,0,0,-1,169467.9162572917,1,2,1561841651.862756,1561841239.621676,31,1.858098,0,0,29.67847,0,0,1561841651.863123,169465.995023,0,0.2644043,75.19045,0,182478453,3,1,1,-25.93492,-31.44851,3
1561841652.813766,78,0,0,1561841651.994308,4.634704208005811,-74.15094201459935,2554.077,1.04,288.984375,4,50,-9999,1561841652.791395,12.17132949829102,-17.41648483276367,19.98297119140625,199.5992279052734,207.0924377441406,15,169469.111889875,0.1019744873046875,-0.570068359375,0.0086517333984375,169469.111889875,1.721920332328642,-0.4516633324458416,0.1123435863722296,169469.097057875,-62.23513793945312,-44.355224609375,-543.0982666015625,169469.106823875,-1.182451393406319,0.04449424574401797,1.370120458039511,1.209770679473877,-0.4212498664855957,0.2001872807741165,0.08108440041542053,0.4495670795440674,0.08772945404052734,1,0.5347923040390015,-0.3382754027843475,-0.4198310673236847,0.650621771812439,0.008866163901984692,-0.9799320697784424,-0.199133887887001,0,0,0,-1,169467.9162572917,1,2,1561841651.862756,1561841239.621676,31,1.858098,0,0,29.67847,0,0,1561841651.863123,169465.995023,0,0.2644043,75.19045,0,182478453,3,1,1,-25.93492,-32.11217,3
1561841652.833529,79,0,0,1561841651.994308,4.634704208005811,-74.15094201459935,2554.077,1.04,288.984375,4,50,-9999,1561841652.81755,12.14162445068359,-17.56480407714844,19.63299560546875,200.0915985107422,207.5848083496094,15,169469.132152875,-0.140533447265625,-0.5773162841796875,-0.155975341796875,169469.132152875,1.677347271480095,-0.4018305284443878,0.2751703206841102,169469.117138875,-62.32296752929688,-43.74459838867188,-542.8589477539062,169469.127086875,-1.175837564972769,0.02820228054269832,1.407806759491612,1.956879019737244,-0.4983627498149872,0.1937605291604996,0.003877639770507812,0.3904635906219482,0.1641569137573242,1,0.544439971446991,-0.3499760329723358,-0.415171205997467,0.6393235921859741,0.004575729835778475,-0.986746609210968,-0.1622037887573242,0,0,0,-1,169467.9162572917,1,2,1561841651.862756,1561841239.621676,31,1.858098,0,0,29.67847,0,0,1561841651.863123,169465.995023,0,0.2644043,75.19045,0,182478453,3,1,1,-25.93492,-33.02958,3
1561841652.855086,80,0,0,1561841651.994308,4.634704208005811,-74.15094201459935,2554.077,1.04,288.984375,4,50,-9999,1561841652.842008,12.15529632568359,-16.85731887817383,20.30792236328125,200.687744140625,208.1809539794922,15,169469.152416875,-0.2537994384765625,-0.503692626953125,-0.1291046142578125,169469.152416875,0.6778221680086786,0.5204706265818918,0.4963322670936316,169469.137249875,-62.38540649414062,-43.03581237792969,-542.468017578125,169469.147319875,-1.131023680972937,-0.01993264060287021,1.435369795486834,0.8144540190696716,0.2728849649429321,0.4458601474761963,-0.2316077053546906,0.4628897905349731,-0.08739495277404785,1,0.5512062907218933,-0.3587175905704498,-0.4091842174530029,0.6325042843818665,-0.002690996276214719,-0.9908438324928284,-0.134986624121666,0,0,0,-1,169467.9162572917,1,2,1561841651.862756,1561841239.621676,31,1.858098,0,0,29.67847,0,0,1561841651.863123,169465.995023,0,0.2644043,75.19045,0,182478453,3,1,1,-25.93492,-33.96078,3
1561841652.874107,81,0,0,1561841651.994308,4.634704208005811,-74.15094201459935,2554.077,1.04,288.984375,4,50,-9999,1561841652.86825,11.61666488647461,-15.92926025390625,20.83319091796875,199.9583740234375,207.4515838623047,15,169469.172649875,-0.2179107666015625,-0.5312652587890625,-0.013641357421875,169469.172649875,0.7976990381564153,0.7359794809455019,0.9478187656430919,169469.157360875,-62.5107421875,-42.54991149902344,-542.09375,169469.167583875,-1.031966974802536,-0.1056185657898691,1.448029583693497,0.6778077483177185,0.7720487117767334,0.79824298620224,-0.221495658159256,0.4732933044433594,0.07845664024353027,1,0.5558449625968933,-0.3607605695724487,-0.3995217680931091,0.633459210395813,-0.01290988642722368,-0.9924736022949219,-0.1217763796448708,0,0,0,-1,169467.9162572917,1,2,1561841651.862756,1561841239.621676,31,1.858098,0,0,29.67847,0,0,1561841651.863123,169465.995023,0,0.2644043,75.19045,0,182478453,3,1,1,-25.93492,-34.77535,3
1561841652.894347,82,0,0,1561841651.994308,4.634704208005811,-74.15094201459935,2554.077,1.04,288.984375,4,50,-9999,1561841652.892657,10.98054122924805,-15.79326629638672,21.34405517578125,199.1092834472656,206.6024932861328,15,169469.192913875,-0.2382965087890625,-0.4840850830078125,0.0856475830078125,169469.192913875,1.594288869718813,0.1261669903263949,1.538636526103318,169469.177471875,-63.5101318359375,-42.60415649414062,-541.8749389648438,169469.187847875,-0.8053191463592902,-0.318541714912556,1.462871291360523,1.365219116210938,0.3222160339355469,1.412734866142273,-0.1823296844959259,0.4844008684158325,0.1343560814857483,1,0.5604878664016724,-0.3670213520526886,-0.3854037821292877,0.6345176696777344,-0.03373477980494499,-0.994181752204895,-0.1022973582148552,0,0,0,-1,169467.9162572917,1,2,1561841651.862756,1561841239.621676,31,1.858098,0,0,29.67847,0,0,1561841651.863123,169465.995023,0,0.2644043,75.19045,0,182478453,3,1,1,-25.93492,-35.26678,3
1561841652.914663,83,0,0,1561841651.994308,4.634704208005811,-74.15094201459935,2554.077,1.04,288.984375,4,50,-9999,1561841652.892657,10.98054122924805,-15.79326629638672,21.34405517578125,199.1092834472656,206.6024932861328,15,169469.213176875,-0.3554840087890625,-0.4390869140625,0.2010040283203125,169469.213176875,2.356001144697205,-0.7894448366738237,1.827906154230525,169469.197582875,-63.93086242675781,-42.07664489746094,-541.071533203125,169469.208110875,-0.3330517731333518,-0.7905016117802737,1.477110701026278,2.202148199081421,-0.5541370511054993,1.774400591850281,-0.2208214402198792,0.5429016947746277,0.2142333388328552,1,0.56552654504776,-0.3837631642818451,-0.3687482178211212,0.6300241351127625,-0.06648629903793335,-0.9956147074699402,-0.06581111997365952,0,0,0,-1,169467.9162572917,1,2,1561841651.862756,1561841239.621676,31,1.858098,0,0,29.67847,0,0,1561841651.863123,169465.995023,0,0.2644043,75.19045,0,182478453,3,1,1,-25.93492,-35.26678,3
1561841652.934772,84,0,0,1561841651.994308,4.634704208005811,-74.15094201459935,2554.077,1.04,288.984375,4,50,-9999,1561841652.919347,10.68888854980469,-15.32898330688477,21.89654541015625,199.4929656982422,206.9861755371094,15,169469.233440875,-0.53076171875,-0.43743896484375,0.2368316650390625,169469.233440875,2.701250418937879,-1.457803461748906,1.806992882822351,169469.217693875,-63.64779663085938,-41.33251953125,-540.615234375,169469.228374875,0.2920391458116818,-1.432912744256071,1.46537702480356,2.65199089050293,-1.372053742408752,1.831665754318237,-0.3404158353805542,0.5519894361495972,0.2341129779815674,1,0.5700846314430237,-0.4095999896526337,-0.3530144393444061,0.6185564994812012,-0.104225255548954,-0.9944485425949097,-0.0144627233967185,0,0,0,-1,169467.9162572917,1,2,1561841651.862756,1561841239.621676,31,1.858098,0,0,29.67847,0,0,1561841651.863123,169465.995023,0,0.2644043,75.19045,0,182478453,3,1,1,-25.93492,-36.02934,3
1561841652.955224,85,0,0,1561841651.994308,4.634704208005811,-74.15094201459935,2554.077,1.04,288.984375,4,50,-9999,1561841652.943456,10.66287231445312,-14.62510299682617,22.1710205078125,201.0055084228516,208.4987182617188,15,169469.253704875,-0.6041259765625,-0.4745025634765625,0.1957550048828125,169469.253704875,2.398147533160472,-1.248405496822591,2.041050121546145,169469.237804875,-63.87388610839844,-40.39981079101562,-540.2190551757812,169469.248638875,0.6984232791901912,-1.865248563659216,1.423571895365359,2.542474031448364,-1.335163950920105,1.894367218017578,-0.4409180581569672,0.5420079827308655,0.1921834945678711,1,0.5737252235412598,-0.4383216500282288,-0.3386236727237701,0.6033636331558228,-0.1403807997703552,-0.9891820549964905,0.0425730012357235,0,0,0,-1,169467.9162572917,1,2,1561841651.862756,1561841239.621676,31,1.858098,0,0,29.67847,0,0,1561841651.863123,169465.995023,0,0.2644043,75.19045,0,182478453,3,1,1,-25.93492,-37.06542,3
1561841652.975439,86,0,0,1561841651.994308,4.634704208005811,-74.15094201459935,2554.077,1.04,288.984375,4,50,-9999,1561841652.96962,10.61869430541992,-13.32771301269531,23.24969482421875,202.2426452636719,209.7358551025391,15,169469.273967875,-0.6204376220703125,-0.659881591796875,0.07415771484375,169469.273967875,1.794828361911196,-0.7014457384582264,3.053821521963507,169469.257915875,-63.55577087402344,-39.84555053710938,-539.6212768554688,169469.268901875,0.8412194972063529,-2.029523729116069,1.363778356589123,1.943263292312622,-0.9247249960899353,2.780061006546021,-0.428057849407196,0.4440107345581055,0.02211308479309082,1,0.5729251503944397,-0.4661164879798889,-0.3213319778442383,0.5926532745361328,-0.1842925846576691,-0.9786481857299805,0.09101561456918716,0,0,0,-1,169467.9162572917,1,2,1561841651.862756,1561841239.621676,31,1.858098,0,0,29.67847,0,0,1561841651.863123,169465.995023,0,0.2644043,75.19045,0,182478453,3,1,1,-25.93492,-37.95626,3
1561841652.995633,87,0,0,1561841651.994308,4.634704208005811,-74.15094201459935,2554.077,1.04,288.984375,4,50,-9999,1561841652.994415,10.20701599121094,-12.70778656005859,23.5272216796875,202.3395233154297,209.8327331542969,15,169469.294231875,-0.66937255859375,-0.8099365234375,0.1624908447265625,169469.294231875,0.7057946805183258,0.03423413686464159,2.95019632605187,169469.278026875,-64.02020263671875,-39.34892272949219,-539.355224609375,169469.289165875,0.8413369258895321,-2.038778521433706,1.293068251538451,1.059235572814941,-0.01256142929196358,3.148156404495239,-0.3763856291770935,0.1814225912094116,0.02360272407531738,1,0.5657281279563904,-0.4917207062244415,-0.2976382672786713,0.5912477970123291,-0.2446928918361664,-0.9616808295249939,0.123675137758255,0,0,0,-1,169467.9162572917,1,2,1561841651.862756,1561841239.621676,31,1.858098,0,0,29.67847,0,0,1561841651.863123,169465.995023,0,0.2644043,75.19045,0,182478453,3,1,1,-25.93492,-38.37184,3
1561841653.015937,88,0,0,1561841651.994308,4.634704208005811,-74.15094201459935,2554.077,1.04,288.984375,4,50,-9999,1561841652.994415,10.20701599121094,-12.70778656005859,23.5272216796875,202.3395233154297,209.8327331542969,15,169469.314495875,-0.7411041259765625,-0.9655914306640625,0.1533660888671875,169469.314495875,-0.7422839821940465,-0.04658800852930115,1.756169382895388,169469.298107875,-64.73150634765625,-39.62196350097656,-539.108154296875,169469.309398875,0.7845906407174642,-1.985185638877096,1.241928876662556,-0.4247393608093262,-0.07340720295906067,2.046894788742065,-0.4311707317829132,0.08334112167358398,-0.03122234344482422,1,0.554216206073761,-0.5078026652336121,-0.2802937626838684,0.59700608253479,-0.2956358790397644,-0.946408748626709,0.1300383061170578,0,0,0,-1,169467.9162572917,1,2,1561841651.862756,1561841239.621676,31,1.858098,0,0,29.67847,0,0,1561841651.863123,169465.995023,0,0.2644043,75.19045,0,182478453,3,1,1,-25.93492,-39.13884,3
1561841653.036209,89,0,0,1561841651.994308,4.634704208005811,-74.15094201459935,2554.077,1.04,288.984375,4,50,-9999,1561841653.02018,9.814399719238281,-13.3047981262207,23.68017578125,202.4664459228516,209.9596557617188,15,169469.334728875,-0.762176513671875,-1.174560546875,0.229827880859375,169469.334728875,-1.435513868689378,0.117935692029178,0.7089731632793353,169469.318218875,-64.93293762207031,-40.33273315429688,-539.4014282226562,169469.329662875,0.6972834498287857,-1.903164179017276,1.221215826848384,-1.35097348690033,0.06654324382543564,0.9273687601089478,-0.4228535294532776,-0.1436591744422913,0.1400020122528076,1,0.5406825542449951,-0.5133602619171143,-0.2763740122318268,0.6064164638519287,-0.3237590193748474,-0.9395164847373962,0.1117527633905411,0,0,0,-1,169467.9162572917,1,2,1561841651.862756,1561841239.621676,31,1.858098,0,0,29.67847,0,0,1561841651.863123,169465.995023,0,0.2644043,75.19045,0,182478453,3,1,1,-25.93492,-39.67514,3
1561841653.056642,90,0,0,1561841652.994294,4.634704208005811,-74.15094201459935,2554.077,0,174.0234375,4,50,-9999,1561841653.04884,9.243507385253906,-13.84317016601562,23.5496826171875,202.9806213378906,210.4738311767578,15,169469.354992875,-0.798797607421875,-1.3079833984375,0.0913238525390625,169469.354992875,-1.610467573341044,0.4996319236842398,0.0608971730662969,169469.338329875,-65.16059875488281,-40.47360229492188,-539.276123046875,169469.349926875,0.6046240769262856,-1.81233245390258,1.219309634258382,-1.563582420349121,0.3619559705257416,0.2010501325130463,-0.4541527926921844,-0.3395805358886719,0.07505655288696289,1,0.5292717814445496,-0.5109285116195679,-0.2797202467918396,0.6169115900993347,-0.3342993855476379,-0.9388619065284729,0.08235312253236771,0,0,0,-1,169467.9162572917,1,2,1561841651.862756,1561841239.621676,31,1.858098,0,0,29.67847,0,0,1561841651.863123,169466.938955,0,0.2775879,75.19032,0,182478453,3,1,1,-25.93492,-40.43688,3
1561841653.076723,91,0,0,1561841652.994294,4.634704208005811,-74.15094201459935,2554.077,0,174.0234375,4,50,-9999,1561841653.071154,8.787628173828125,-15.31239318847656,22.90484619140625,203.0119018554688,210.5051116943359,15,169469.375255875,-0.6744232177734375,-1.144454956054688,-0.0022125244140625,169469.375255875,-1.96078431050392,1.086973459973585,-0.2540991238232943,169469.358440875,-65.519287109375,-41.74513244628906,-539.7156372070312,169469.370189875,0.5056582319325327,-1.705697197685937,1.226552896243345,-1.886540770530701,0.9928361773490906,-0.2025681734085083,-0.4230121374130249,-0.297453761100769,-0.007669329643249512,1,0.5206485986709595,-0.5016169548034668,-0.2851310670375824,0.629289984703064,-0.3344188630580902,-0.9413310289382935,0.04538906365633011,0,0,0,-1,169467.9162572917,1,2,1561841651.862756,1561841239.621676,31,1.858098,0,0,29.67847,0,0,1561841651.863123,169466.938955,0,0.2775879,75.19032,0,182478453,3,1,1,-25.93492,-40.43688,3
1561841653.096917,92,0,0,1561841652.994294,4.634704208005811,-74.15094201459935,2554.077,0,174.0234375,4,50,-9999,1561841653.095251,8.454444885253906,-16.13339614868164,22.50177001953125,202.4528350830078,209.946044921875,15,169469.395519875,-0.3779754638671875,-0.9433135986328125,-0.0046844482421875,169469.395519875,-1.660992000277591,0.9695727970074042,-0.3465174715517691,169469.378551875,-65.89759826660156,-42.44183349609375,-540.3570556640625,169469.390453875,0.3895230634991774,-1.57397880484549,1.235475308083552,-1.826140284538269,1.078879475593567,-0.3716948926448822,-0.2115024030208588,-0.0770728588104248,-0.02471363544464111,1,0.5129027366638184,-0.4872929453849792,-0.2910669445991516,0.6440158486366272,-0.3290706872940063,-0.9443047046661377,0.001047263853251934,0,0,0,-1,169467.9162572917,1,2,1561841651.862756,1561841239.621676,31,1.858098,0,0,29.67847,0,0,1561841651.863123,169466.938955,0,0.2775879,75.19032,0,182478453,3,1,1,-25.93492,-40.64906,3
1561841653.117204,93,0,0,1561841652.994294,4.634704208005811,-74.15094201459935,2554.077,0,174.0234375,4,50,-9999,1561841653.095251,8.454444885253906,-16.13339614868164,22.50177001953125,202.4528350830078,209.946044921875,15,169469.415783875,-0.276275634765625,-0.875732421875,-0.0123443603515625,169469.415783875,-0.8421938020689141,0.05067915659588088,-0.1716263511857205,169469.398632875,-66.16954040527344,-43.20550537109375,-540.82861328125,169469.410717875,0.2985254537562119,-1.472757578894386,1.240130470628861,-1.04325008392334,0.3029554486274719,-0.203744575381279,0.03031319379806519,0.03083306550979614,0.03397691249847412,1,0.507026195526123,-0.4764815270900726,-0.2962563931941986,0.6543103456497192,-0.3231140673160553,-0.9458263516426086,-0.03177958354353905,0,0,0,-1,169467.9162572917,1,2,1561841651.862756,1561841239.621676,31,1.858098,0,0,29.67847,0,0,1561841651.863123,169466.938955,0,0.2775879,75.19032,0,182478453,3,1,1,-25.93492,-41.48257,3
1561841653.138826,94,0,0,1561841652.994294,4.634704208005811,-74.15094201459935,2554.077,0,174.0234375,4,50,-9999,1561841653.121616,8.05487060546875,-16.72714233398438,22.1756591796875,202.3857116699219,209.8789215087891,15,169469.436046875,-0.2610626220703125,-0.8870391845703125,0.0185394287109375,169469.436046875,-0.230828422218182,-0.7627634246606468,-0.3189401721478896,169469.418743875,-66.34677124023438,-43.806640625,-540.9417114257812,169469.430980875,0.254995891080731,-1.43551312979926,1.242472829210941,-0.3538381457328796,-0.6360386610031128,-0.2601452767848969,0.05267968773841858,0.08488994836807251,0.03663885593414307,1,0.5028857588768005,-0.4747219383716583,-0.3018130660057068,0.6562421917915344,-0.3195101320743561,-0.9465842843055725,-0.04348998889327049,0,0,0,-1,169467.9162572917,1,2,1561841651.862756,1561841239.621676,31,1.858098,0,0,29.67847,0,0,1561841651.863123,169466.938955,0,0.2775879,75.19032,0,182478453,3,1,1,-25.93492,-42.37594,3
1561841653.157749,95,0,0,1561841652.994294,4.634704208005811,-74.15094201459935,2554.077,0,174.0234375,4,50,-9999,1561841653.146561,8.114952087402344,-17.20462417602539,21.84246826171875,203.3941650390625,210.8873748779297,15,169469.456310875,-0.29608154296875,-1.0235595703125,0.125091552734375,169469.456310875,0.04760107500796729,-0.7682098554059679,-0.4398005476861926,169469.438854875,-65.75431823730469,-43.74456787109375,-541.0438842773438,169469.451244875,0.242509700607528,-1.439873511541799,1.249401577088125,0.001344976248219609,-0.8245755434036255,-0.4362263083457947,0.03497299551963806,-0.005626261234283447,0.1182197332382202,1,0.5011827945709229,-0.4776988923549652,-0.3090186715126038,0.6520175933837891,-0.3131864666938782,-0.9487957358360291,-0.04123914986848831,0,0,0,-1,169467.9162572917,1,2,1561841651.862756,1561841239.621676,31,1.858098,0,0,29.67847,0,0,1561841651.863123,169466.938955,0,0.2775879,75.19032,0,182478453,1,1,1,-25.93492,-42.95566,3
1561841653.178034,96,0,0,1561841652.994294,4.634704208005811,-74.15094201459935,2554.077,0,174.0234375,4,50,-9999,1561841653.172693,9.145584106445312,-16.99624633789062,21.529296875,204.4278564453125,211.9210662841797,15,169469.476574875,-0.3759613037109375,-1.09234619140625,0.1121368408203125,169469.476574875,0.1223136625451593,-0.6741352877955729,-0.3686829613044986,169469.458965875,-65.50271606445312,-43.59056091308594,-541.3468017578125,169469.471477875,0.2436324592149248,-1.455797881913282,1.258283457494685,0.1161943301558495,-0.6733213067054749,-0.4057163298130035,-0.02346807718276978,-0.1113632917404175,0.1708832979202271,1,0.501431941986084,-0.4805484116077423,-0.3152467012405396,0.6467292308807373,-0.3054198920726776,-0.9515640139579773,-0.03527846187353134,0,0,0,-1,169467.9162572917,1,2,1561841651.862756,1561841239.621676,31,1.858098,0,0,29.67847,0,0,1561841651.863123,169466.938955,0,0.2775879,75.19032,0,182478453,1,1,1,-25.93492,-43.90014,3
1561841653.198266,97,0,0,1561841652.994294,4.634704208005811,-74.15094201459935,2554.077,0,174.0234375,4,50,-9999,1561841653.196533,9.528572082519531,-16.75733947753906,21.58831787109375,205.3727569580078,212.865966796875,15,169469.496807875,-0.4486083984375,-1.159622192382812,0.075897216796875,169469.496807875,0.01724103858106398,-0.7367275628957052,-0.2157296304179777,169469.479076875,-64.98550415039062,-43.28379821777344,-541.1616821289062,169469.491741875,0.2479326523708545,-1.474206501171553,1.265169425680919,0.0529509112238884,-0.7458844780921936,-0.2545555830001831,-0.1220053434371948,-0.180634081363678,0.1147569417953491,1,0.501427948474884,-0.483798623085022,-0.3205073475837708,0.6417038440704346,-0.2994881868362427,-0.9536585211753845,-0.02901780977845192,0,0,0,-1,169467.9162572917,1,2,1561841651.862756,1561841239.621676,31,1.858098,0,0,29.67847,0,0,1561841651.863123,169466.938955,0,0.2775879,75.19032,0,182478453,1,1,1,-25.93492,-42.68815,3
1561841653.218452,98,0,0,1561841652.994294,4.634704208005811,-74.15094201459935,2554.077,0,174.0234375,4,50,-9999,1561841653.196533,9.528572082519531,-16.75733947753906,21.58831787109375,205.3727569580078,212.865966796875,15,169469.517070875,-0.4327239990234375,-1.16229248046875,0.08660888671875,169469.517070875,-0.2036551243516674,-0.4075222363261052,-0.1013806837449184,169469.499187875,-64.63368225097656,-43.37586975097656,-541.159912109375,169469.512004875,0.2442758755750062,-1.484450840818414,1.268813826902264,-0.1456918865442276,-0.5305277109146118,-0.1186896041035652,-0.1582535803318024,-0.2086118459701538,0.1090072393417358,1,0.4998736679553986,-0.4871366322040558,-0.3253216445446014,0.637957751750946,-0.2963057458400726,-0.9547487497329712,-0.02564843557775021,0,0,0,-1,169467.9162572917,1,2,1561841651.862756,1561841239.621676,31,1.858098,0,0,29.67847,0,0,1561841651.863123,169466.938955,0,0.2775879,75.19032,0,182478453,1,1,1,-25.93492,-43.60159,3
1561841653.238799,99,0,0,1561841652.994294,4.634704208005811,-74.15094201459935,2554.077,0,174.0234375,4,50,-9999,1561841653.22301,9.887580871582031,-16.78185272216797,21.41094970703125,206.2167816162109,213.7099914550781,15,169469.537334875,-0.3583526611328125,-1.108734130859375,0.0109405517578125,169469.537334875,-0.4911529514056455,0.08407519666547453,-0.1464650715227608,169469.519268875,-64.41828918457031,-43.34014892578125,-541.5393676757812,169469.532268875,0.2246479718825991,-1.471387276481294,1.270548268402414,-0.4216025471687317,-0.02248496562242508,-0.130221351981163,-0.1059408783912659,-0.1830883026123047,0.09475171566009521,1,0.4976997971534729,-0.4874614179134369,-0.3288344144821167,0.6376082301139832,-0.2942971885204315,-0.9552631378173828,-0.02935255505144596,0,0,0,-1,169467.9162572917,1,2,1561841651.862756,1561841239.621676,31,1.858098,0,0,29.67847,0,0,1561841651.863123,169466.938955,0,0.2775879,75.19032,0,182478453,1,1,1,-25.93492,-43.60159,3
1561841653.259036,100,0,0,1561841652.994294,4.634704208005811,-74.15094201459935,2554.077,0,174.0234375,4,50,-9999,1561841653.24717,10.13475036621094,-16.93636322021484,21.3074951171875,206.4307098388672,213.9239196777344,15,169469.557598875,-0.358978271484375,-1.090469360351562,-0.1051177978515625,169469.557598875,-0.7035464399260809,0.1176525980053026,-0.156283880145774,169469.539379875,-64.21678161621094,-43.42344665527344,-541.4292602539062,169469.552532875,0.1856851957243059,-1.431745216221455,1.272329760787761,-0.6626697182655334,0.1641815900802612,-0.1580782830715179,-0.0518774688243866,-0.1393194794654846,-0.0182182788848877,1,0.4952823221683502,-0.4840629398822784,-0.3319570422172546,0.6404552459716797,-0.2912164032459259,-0.9557885527610779,-0.04075698181986809,0,0,0,-1,169467.9162572917,1,2,1561841651.862756,1561841239.621676,31,1.858098,0,0,29.67847,0,0,1561841651.863123,169466.938955,0,0.2775879,75.19032,0,182478453,1,1,1,-25.93492,-43.63601,3
1561841653.279262,101,0,0,1561841652.994294,4.634704208005811,-74.15094201459935,2554.077,0,174.0234375,4,50,-9999,1561841653.273539,10.20913696289062,-17.31234741210938,20.8673095703125,206.6280822753906,214.1212921142578,15,169469.577861875,-0.357147216796875,-1.062240600585938,-0.112762451171875,169469.577861875,-0.6995591551420143,-0.1747401191322411,-0.2722019613331079,169469.559490875,-64.0831298828125,-43.96047973632812,-541.8850708007812,169469.572796875,0.1346903712067131,-1.382363822269569,1.273610299116953,-0.730231761932373,-0.1241002753376961,-0.2394455820322037,-0.07525265216827393,-0.1245089173316956,-0.06579840183258057,1,0.4916085302829742,-0.4805149734020233,-0.33649942278862,0.6435794234275818,-0.2876471281051636,-0.9561643004417419,-0.05485282838344574,0,0,0,-1,169467.9162572917,1,2,1561841651.862756,1561841239.621676,31,1.858098,0,0,29.67847,0,0,1561841651.863123,169466.938955,0,0.2775879,75.19032,0,182478453,1,1,1,-25.93492,-44.19369,3
1561841653.299523,102,0,0,1561841652.994294,4.634704208005811,-74.15094201459935,2554.077,0,174.0234375,4,50,-9999,1561841653.297824,10.31636047363281,-17.57894897460938,20.7076416015625,207.1822357177734,214.6754455566406,15,169469.598125875,-0.3354644775390625,-1.056686401367188,-0.0460662841796875,169469.598125875,-0.4628818985378003,-0.2523337143366808,-0.3725024669398903,169469.579601875,-64.23042297363281,-44.33917236328125,-542.190185546875,169469.593059875,0.08602569124815822,-1.339978588037815,1.276933989197111,-0.5406942963600159,-0.2500797808170319,-0.3587884902954102,-0.06676959991455078,-0.1012478470802307,-0.01498836278915405,1,0.4881440401077271,-0.4781036078929901,-0.3426735699176788,0.6447536945343018,-0.2819700241088867,-0.9571322798728943,-0.06626467406749725,0,0,0,-1,169467.9162572917,1,2,1561841651.862756,1561841239.621676,31,1.858098,0,0,29.67847,0,0,1561841651.863123,169466.938955,0,0.2775879,75.19032,0,182478453,1,1,1,-25.93492,-40.71018,3
1561841653.319775,103,0,0,1561841652.994294,4.634704208005811,-74.15094201459935,2554.077,0,174.0234375,4,50,-9999,1561841653.297824,10.31636047363281,-17.57894897460938,20.7076416015625,207.1822357177734,214.6754455566406,15,169469.618389875,-0.299957275390625,-1.028961181640625,-0.0206298828125,169469.618389875,-0.1115925749448273,-0.2689688837697518,-0.3887496138021366,169469.599712875,-63.63470458984375,-44.41717529296875,-542.1967163085938,169469.613323875,0.05353209094310984,-1.314191047903194,1.28264379283668,-0.2033503800630569,-0.2770131230354309,-0.399629682302475,-0.03988161683082581,-0.0873568058013916,0.04752767086029053,1,0.4866098165512085,-0.4766009449958801,-0.3483154475688934,0.6440021991729736,-0.2748766839504242,-0.9587705135345459,-0.07212485373020172,0,0,0,-1,169467.9162572917,1,2,1561841651.862756,1561841239.621676,31,1.858098,0,0,29.67847,0,0,1561841651.863123,169466.938955,0,0.2775879,75.19032,0,182478453,1,1,1,-25.93492,-41.09378,3
1561841653.347867,104,0,0,1561841652.994294,4.634704208005811,-74.15094201459935,2554.077,0,174.0234375,4,50,-9999,1561841653.32405,10.71978378295898,-17.86529159545898,20.41192626953125,207.6662445068359,215.1594543457031,15,169469.638652875,-0.298614501953125,-0.9989776611328125,-0.0170440673828125,169469.638652875,0.1317343285852056,-0.1918730333730479,-0.2643339182085778,169469.619793875,-63.50027465820312,-44.56716918945312,-542.6412353515625,169469.633556875,0.04400795190453412,-1.310384071722886,1.289564970396648,0.09273853898048401,-0.2317918539047241,-0.3060984015464783,-0.03125756978988647,-0.05388826131820679,0.0517459511756897,1,0.4871703088283539,-0.4763768911361694,-0.3521791994571686,0.6416383981704712,-0.2681809067726135,-0.9607143998146057,-0.0714602991938591,0,0,0,-1,169467.9162572917,1,2,1561841651.862756,1561841239.621676,31,1.858098,0,0,29.67847,0,0,1561841651.863123,169466.938955,0,0.2775879,75.19032,0,182478453,1,1,1,-25.93492,-41.62069,3
1561841653.360415,105,0,0,1561841652.994294,4.634704208005811,-74.15094201459935,2554.077,0,174.0234375,4,50,-9999,1561841653.348648,10.89948272705078,-17.79755020141602,20.1649169921875,207.9308624267578,215.424072265625,15,169469.658886875,-0.28900146484375,-0.962249755859375,-0.027496337890625,169469.658886875,0.1035319852734844,-0.04519703949195276,-0.1402899999031941,169469.639904875,-63.52558898925781,-44.03048706054688,-542.4204711914062,169469.653820875,0.0493543308878217,-1.318713270067207,1.2947212360316,0.1330257654190063,-0.08548257499933243,-0.1578045040369034,-0.03124549984931946,-0.01482653617858887,0.05141663551330566,1,0.4885812997817993,-0.4767540991306305,-0.3537847101688385,0.6393982768058777,-0.2639663219451904,-0.9621326923370361,-0.06798768788576126,0,0,0,-1,169467.9162572917,1,2,1561841651.862756,1561841239.621676,31,1.858098,0,0,29.67847,0,0,1561841651.863123,169466.938955,0,0.2775879,75.19032,0,182478453,1,1,1,-25.93492,-42.35256,3
1561841653.380552,106,0,0,1561841652.994294,4.634704208005811,-74.15094201459935,2554.077,0,174.0234375,4,50,-9999,1561841653.374859,11.24346923828125,-17.53067016601562,20.3751220703125,207.9658813476562,215.4590911865234,15,169469.679149875,-0.2894134521484375,-0.981658935546875,-0.0777130126953125,169469.679149875,-0.08626032033988454,-0.0006463491965622311,-0.1347940343615976,169469.660015875,-63.18109130859375,-44.10684204101562,-542.4617919921875,169469.674083875,0.05075629452214853,-1.320586642075482,1.297772318967604,-0.04061632230877876,0.003202819265425205,-0.1353956013917923,-0.02396908402442932,0.005776047706604004,0.01200222969055176,1,0.489530086517334,-0.4764213562011719,-0.3545582294464111,0.6384915709495544,-0.2612482011318207,-0.962959885597229,-0.06676597148180008,0,0,0,-1,169467.9162572917,1,2,1561841651.862756,1561841239.621676,31,1.858098,0,0,29.67847,0,0,1561841651.863123,169466.938955,0,0.2775879,75.19032,0,182478453,1,1,1,-25.93492,-42.35256,3
1561841653.401299,107,0,0,1561841652.994294,4.634704208005811,-74.15094201459935,2554.077,0,174.0234375,4,50,-9999,1561841653.399039,11.28196716308594,-17.50591659545898,20.33941650390625,208.0843048095703,215.5775146484375,15,169469.699413875,-0.29449462890625,-0.990814208984375,-0.08111572265625,169469.699413875,-0.2023243427549548,-0.1323029134779375,-0.1532838291777997,169469.680095875,-62.892578125,-43.94186401367188,-542.4683227539062,169469.694347875,0.03856927972655047,-1.309581912803782,1.299911147005825,-0.1941078752279282,-0.09959972649812698,-0.1537506431341171,-0.03369817137718201,-0.03410041332244873,-0.01620697975158691,1,0.489250659942627,-0.4754801392555237,-0.3562876582145691,0.638444721698761,-0.258507639169693,-0.963534414768219,-0.06910485774278641,0,0,0,-1,169467.9162572917,1,2,1561841651.862756,1561841239.621676,31,1.858098,0,0,29.67847,0,0,1561841651.863123,169466.938955,0,0.2775879,75.19032,0,182478453,1,1,1,-25.93492,-43.0565,3
1561841653.428838,108,0,0,1561841652.994294,4.634704208005811,-74.15094201459935,2554.077,0,174.0234375,4,50,-9999,1561841653.425659,11.58137512207031,-17.64950180053711,20.19049072265625,208.3920288085938,215.8852386474609,15,169469.719677875,-0.282135009765625,-0.979736328125,-0.0505523681640625,169469.719677875,-0.1129377376114263,-0.1751110974720892,-0.1424934993891257,169469.700206875,-62.86746215820312,-44.19917297363281,-542.576904296875,169469.714611875,0.02157464902387348,-1.296449997352838,1.301905545542272,-0.1518722772598267,-0.1908582597970963,-0.1497876048088074,-0.03853872418403625,-0.01975953578948975,0.00434565544128418,1,0.488185852766037,-0.475066602230072,-0.3589908182621002,0.6380531787872314,-0.2557270228862762,-0.9640661478042603,-0.07197259366512299,0,0,0,-1,169467.9162572917,1,2,1561841651.862756,1561841239.621676,31,1.858098,0,0,29.67847,0,0,1561841651.863123,169466.938955,0,0.2775879,75.19032,0,182478453,1,1,1,-25.93492,-43.80471,3
1561841653.441468,109,0,0,1561841652.994294,4.634704208005811,-74.15094201459935,2554.077,0,174.0234375,4,50,-9999,1561841653.425659,11.58137512207031,-17.64950180053711,20.19049072265625,208.3920288085938,215.8852386474609,15,169469.739940875,-0.2489776611328125,-0.964874267578125,-0.0417938232421875,169469.739940875,0.01014238269545777,-0.09631348713882466,-0.1568950756159472,169469.720317875,-63.072265625,-44.31997680664062,-542.644287109375,169469.734874875,0.01299887378334961,-1.291356194067309,1.304376353351262,-0.01090716198086739,-0.1131754517555237,-0.1570649445056915,-0.009384602308273315,-0.008211314678192139,0.0327763557434082,1,0.4878456592559814,-0.4750769436359406,-0.3610790967941284,0.637126624584198,-0.2530665993690491,-0.9647196531295776,-0.07261702418327332,0,0,0,-1,169467.9162572917,1,2,1561841651.862756,1561841239.621676,31,1.858098,0,0,29.67847,0,0,1561841651.863123,169466.938955,0,0.2775879,75.19032,0,182478453,1,1,1,-25.93492,-43.80471,3
1561841653.462121,110,0,0,1561841652.994294,4.634704208005811,-74.15094201459935,2554.077,0,174.0234375,4,50,-9999,1561841653.44973,11.29409408569336,-17.73590850830078,20.2410888671875,208.5668640136719,216.0600738525391,15,169469.760204875,-0.2592010498046875,-0.9542236328125,-0.0734710693359375,169469.760204875,0.02619618406256443,-0.09986641034909936,-0.1144109983264581,169469.740429875,-62.95967102050781,-44.3203125,-542.6248168945312,169469.755138875,0.01109744762119787,-1.29176975240026,1.307393447363273,0.02829776518046856,-0.1213321834802628,-0.1364070773124695,0.001396298408508301,0.003030896186828613,0.01590907573699951,1,0.4882727563381195,-0.4751152396202087,-0.3625105917453766,0.6359570026397705,-0.2502976357936859,-0.9655095934867859,-0.07171045243740082,0,0,0,-1,169467.9162572917,1,2,1561841651.862756,1561841239.621676,31,1.858098,0,0,29.67847,0,0,1561841651.863123,169466.938955,0,0.2775879,75.19032,0,182478453,1,1,1,-25.93492,-43.95509,3
1561841653.481863,111,0,0,1561841652.994294,4.634704208005811,-74.15094201459935,2554.077,0,174.0234375,4,50,-9999,1561841653.476623,11.46752166748047,-17.55464935302734,20.16558837890625,208.6866455078125,216.1798553466797,15,169469.780468875,-0.2663116455078125,-0.94036865234375,-0.0713043212890625,169469.780468875,-0.07979602942593521,-0.01672571691013365,-0.005028580770287618,169469.760540875,-62.99398803710938,-44.02496337890625,-542.8114013671875,169469.775402875,0.00921875804620975,-1.291471575048241,1.30905273214053,-0.05055204406380653,-0.0228213258087635,-0.03242262825369835,-0.01893347501754761,0.02261143922805786,-0.005515217781066895,1,0.488404780626297,-0.4751726984977722,-0.3634330332279205,0.6352859139442444,-0.2487361878156662,-0.9659402370452881,-0.07134335488080978,0,0,0,-1,169467.9162572917,1,2,1561841651.862756,1561841239.621676,31,1.858098,0,0,29.67847,0,0,1561841651.863123,169466.938955,0,0.2775879,75.19032,0,182478453,1,1,1,-25.93492,-39.3802,3
1561841653.509206,112,0,0,1561841652.994294,4.634704208005811,-74.15094201459935,2554.077,0,174.0234375,4,50,-9999,1561841653.500521,11.41566467285156,-17.63055419921875,19.90753173828125,208.8287963867188,216.3220062255859,15,169469.800731875,-0.2425384521484375,-0.93719482421875,-0.077911376953125,169469.800731875,-0.1312174090176212,-0.1664462365494074,0.01363352056844264,169469.780620875,-62.81161499023438,-44.05096435546875,-542.8280029296875,169469.795635875,0.001612790243184626,-1.285324807051679,1.308325325916403,-0.1335326880216599,-0.1386025100946426,0.01265323627740145,-0.005442917346954346,0.0252457857131958,-0.0006006956100463867,1,0.4874853789806366,-0.4752090573310852,-0.3641761541366577,0.6355392336845398,-0.2489669024944305,-0.9657517671585083,-0.07306871563196182,0,0,0,-1,169467.9162572917,1,2,1561841651.862756,1561841239.621676,31,1.858098,0,0,29.67847,0,0,1561841651.863123,169466.938955,0,0.2775879,75.19032,0,182478453,1,1,1,-26.49219,-39.50561,3
1561841653.522527,113,0,0,1561841652.994294,4.634704208005811,-74.15094201459935,2554.077,0,174.0234375,4,50,-9999,1561841653.500521,11.41566467285156,-17.63055419921875,19.90753173828125,208.8287963867188,216.3220062255859,15,169469.820964875,-0.2440032958984375,-0.935394287109375,-0.0467681884765625,169469.820964875,-0.03469326583657124,-0.07504814583454195,0.0567362501791571,169469.800731875,-62.81008911132812,-44.13325500488281,-542.4813842773438,169469.815899875,-0.006116938742045944,-1.281299991281445,1.307364652703197,-0.06908950954675674,-0.1346690207719803,0.02916190586984158,0.008440196514129639,0.02923798561096191,0.005822956562042236,1,0.4860757887363434,-0.4759862124919891,-0.3654246032238007,0.6353206038475037,-0.2495595961809158,-0.9655020833015442,-0.07433490455150604,0,0,0,-1,169467.9162572917,1,2,1561841651.862756,1561841239.621676,31,1.858098,0,0,29.67847,0,0,1561841651.863123,169466.938955,0,0.2775879,75.19032,0,182478453,1,1,1,-27.04947,-40.38839,3
1561841653.542663,114,0,0,1561841652.994294,4.634704208005811,-74.15094201459935,2554.077,0,174.0234375,4,50,-9999,1561841653.526637,11.46339797973633,-17.49625396728516,20.12152099609375,209.0570220947266,216.5502319335938,15,169469.841228875,-0.244049072265625,-0.9192657470703125,-0.0505523681640625,169469.841228875,0.1170579141338879,0.01926717153839626,0.14176485851488,169469.820842875,-62.70970153808594,-43.99139404296875,-542.7825927734375,169469.836162875,-0.003711115229443635,-1.284549546546311,1.305885521898551,0.08601565659046173,0.01354653667658567,0.1252109408378601,0.006586611270904541,0.03465020656585693,0.03732097148895264,1,0.4855841100215912,-0.4767018854618073,-0.3650991022586823,0.6353471875190735,-0.2511697709560394,-0.9651158452033997,-0.07392676919698715,0,0,0,-1,169467.9162572917,1,2,1561841651.862756,1561841239.621676,31,1.858098,0,0,29.67847,0,0,1561841651.863123,169466.938955,0,0.2775879,75.19032,0,182478453,1,1,1,-27.04947,-40.38839,3
1561841653.562869,115,0,0,1561841652.994294,4.634704208005811,-74.15094201459935,2554.077,0,174.0234375,4,50,-9999,1561841653.551134,11.45978164672852,-17.61526489257812,19.86846923828125,209.0284729003906,216.5216827392578,15,169469.861492875,-0.234375,-0.931304931640625,-0.06988525390625,169469.861492875,0.1780038230481332,0.000489222692247556,0.1522225594834032,169469.840923875,-62.87139892578125,-43.98008728027344,-542.7625122070312,169469.856426875,0.009233285903644153,-1.297070799335057,1.30382476710282,0.1682420819997787,-0.0178995355963707,0.1461306065320969,0.01808923482894897,0.03972375392913818,0.006814718246459961,1,0.4857389330863953,-0.4779130518436432,-0.3635347187519073,0.6352159976959229,-0.253990113735199,-0.9645742774009705,-0.07131360471248627,0,0,0,-1,169467.9162572917,1,2,1561841651.862756,1561841239.621676,31,1.858098,0,0,29.67847,0,0,1561841651.863123,169466.938955,0,0.2775879,75.19032,0,182478453,1,1,1,-27.60675,-41.0993,3
1561841653.589023,116,0,0,1561841652.994294,4.634704208005811,-74.15094201459935,2554.077,0,174.0234375,4,50,-9999,1561841653.577424,11.77170562744141,-17.52914047241211,20.1171875,208.9700622558594,216.4632720947266,15,169469.881755875,-0.2552947998046875,-0.9550628662109375,-0.0672149658203125,169469.881755875,0.1527482674825848,-0.01843040632389337,0.1722716351178467,169469.861034875,-62.60275268554688,-44.11152648925781,-543.02392578125,169469.876690875,0.02509627055083449,-1.312331156828164,1.301677231897,0.1627565026283264,-0.0002616867423057556,0.1658382713794708,0.01203995943069458,0.02343845367431641,0.003688633441925049,1,0.486093133687973,-0.4793058931827545,-0.3616825640201569,0.63495272397995,-0.2570503354072571,-0.9640054702758789,-0.06795865297317505,0,0,0,-1,169467.9162572917,1,2,1561841651.862756,1561841239.621676,31,1.858098,0,0,29.67847,0,0,1561841651.863123,169466.938955,0,0.2775879,75.19032,0,182478453,1,1,1,-28.16403,-41.55551,3
1561841653.60341,117,0,0,1561841652.994294,4.634704208005811,-74.15094201459935,2554.077,0,174.0234375,4,50,-9999,1561841653.601723,11.45771789550781,-17.41707229614258,20.13861083984375,208.9885406494141,216.4817504882812,15,169469.902019875,-0.2451934814453125,-0.9602203369140625,-0.0723419189453125,169469.902019875,0.04542873450678966,-0.04818404097058564,0.1695381665749894,169469.881145875,-62.93083190917969,-44.03480529785156,-542.555419921875,169469.896953875,0.03767961773519422,-1.325355918858765,1.299074095517981,0.08170932531356812,-0.06700316816568375,0.165753573179245,0.004243940114974976,0.003669619560241699,-0.01069784164428711,1,0.4859519302845001,-0.4808777570724487,-0.3602089285850525,0.6347100734710693,-0.260347455739975,-0.9633101224899292,-0.0652146115899086,0,0,0,-1,169467.9162572917,1,2,1561841651.862756,1561841239.621676,31,1.858098,0,0,29.67847,0,0,1561841651.863123,169466.938955,0,0.2775879,75.19032,0,182478453,1,1,1,-28.72131,-42.22356,3
1561841653.623783,118,0,0,1561841652.994294,4.634704208005811,-74.15094201459935,2554.077,0,174.0234375,4,50,-9999,1561841653.601723,11.45771789550781,-17.41707229614258,20.13861083984375,208.9885406494141,216.4817504882812,15,169469.922283875,-0.225555419921875,-0.9579925537109375,-0.0922393798828125,169469.922283875,-0.1431699423060058,0.03179601288667404,0.1156296608412784,169469.901256875,-62.90830993652344,-44.00384521484375,-542.7696533203125,169469.917217875,0.04093686755574197,-1.329242875823017,1.295984864055415,-0.08338801562786102,0.001784685999155045,0.1372047662734985,0.03231680393218994,-0.001055121421813965,-0.01028156280517578,1,0.4850786328315735,-0.481914758682251,-0.359345942735672,0.6350806951522827,-0.2634874284267426,-0.962476372718811,-0.06491377204656601,0,0,0,-1,169467.9162572917,1,2,1561841651.862756,1561841239.621676,31,1.858098,0,0,29.67847,0,0,1561841651.863123,169466.938955,0,0.2775879,75.19032,0,182478453,1,1,1,-29.27859,-42.76548,3
1561841653.643997,119,0,0,1561841652.994294,4.634704208005811,-74.15094201459935,2554.077,0,174.0234375,4,50,-9999,1561841653.62844,11.41540908813477,-17.43283462524414,20.28021240234375,209.0248565673828,216.51806640625,15,169469.942546875,-0.252899169921875,-0.9737091064453125,-0.1242218017578125,169469.942546875,-0.3939891169307586,0.1518209547910192,0.1168765528636535,169469.921367875,-63.00975036621094,-44.02873229980469,-542.7992553710938,169469.937481875,0.02744035196682315,-1.31495003120409,1.292918929549409,-0.3468002080917358,0.1276091933250427,0.09665572643280029,0.03155985474586487,0.0008702278137207031,-0.04676121473312378,1,0.4834417104721069,-0.4812218844890594,-0.3594139516353607,0.636813223361969,-0.2653855383396149,-0.9616398811340332,-0.06941922008991241,0,0,0,-1,169467.9162572917,1,2,1561841651.862756,1561841239.621676,31,1.858098,0,0,29.67847,0,0,1561841651.863123,169466.938955,0,0.2775879,75.19032,0,182478453,1,1,1,-29.83587,-43.65688,3
1561841653.66774,120,0,0,1561841652.994294,4.634704208005811,-74.15094201459935,2554.077,0,174.0234375,4,50,-9999,1561841653.652464,11.42182922363281,-17.64617919921875,19.87542724609375,208.9895629882812,216.4827728271484,15,169469.962810875,-0.2569122314453125,-0.9609375,-0.095855712890625,169469.962810875,-0.4330750006693065,0.09263406377677118,0.1828324004205559,169469.941448875,-62.85844421386719,-44.26353454589844,-543.14208984375,169469.957714875,0.0005706361768987888,-1.286314837711468,1.288104151643397,-0.4487873017787933,0.117125928401947,0.1704660505056381,0.002303630113601685,-0.01082241535186768,-0.03804528713226318,1,0.4806131720542908,-0.4794445931911469,-0.3599168360233307,0.6400028467178345,-0.2677302658557892,-0.9603079557418823,-0.07828772068023682,0,0,0,-1,169467.9162572917,1,2,1561841651.862756,1561841239.621676,31,1.858098,0,0,29.67847,0,0,1561841651.863123,169466.938955,0,0.2775879,75.19032,0,182478453,1,1,1,-30.39315,-44.36755,3
1561841653.684442,121,0,0,1561841652.994294,4.634704208005811,-74.15094201459935,2554.077,0,174.0234375,4,50,-9999,1561841653.678701,11.18988418579102,-18.09748458862305,19.840576171875,209.0559844970703,216.5491943359375,15,169469.983039875,-0.214141845703125,-0.9354400634765625,-0.0505828857421875,169469.983039875,-0.2444552848838994,-0.05608936835037685,0.1089139675204256,169469.961559875,-63.10720825195312,-44.57781982421875,-543.0020751953125,169469.977977875,-0.02334082024250069,-1.262433802123949,1.28258864172492,-0.3121128082275391,-0.03021106496453285,0.1314627230167389,0.03643742203712463,0.007338881492614746,0.01737141609191895,1,0.4774080514907837,-0.4784862995147705,-0.360559344291687,0.6427514553070068,-0.2708276510238647,-0.95875483751297,-0.08626482635736465,0,0,0,-1,169467.9162572917,1,2,1561841651.862756,1561841239.621676,31,1.858098,0,0,29.67847,0,0,1561841651.863123,169466.938955,0,0.2775879,75.19032,0,182478453,1,1,1,-30.95042,-44.73806,3
