loggingTime,loggingSample,identifierForVendor,deviceID,locationTimestamp_since1970,locationLatitude,locationLongitude,locationAltitude,locationSpeed,locationCourse,locationVerticalAccuracy,locationHorizontalAccuracy,locationFloor,locationHeadingTimestamp_since1970,locationHeadingX,locationHeadingY,locationHeadingZ,locationTrueHeading,locationMagneticHeading,locationHeadingAccuracy,accelerometerTimestamp_sinceReboot,accelerometerAccelerationX,accelerometerAccelerationY,accelerometerAccelerationZ,gyroTimestamp_sinceReboot,gyroRotationX,gyroRotationY,gyroRotationZ,magnetometerTimestamp_sinceReboot,magnetometerX,magnetometerY,magnetometerZ,motionTimestamp_sinceReboot,motionYaw,motionRoll,motionPitch,motionRotationRateX,motionRotationRateY,motionRotationRateZ,motionUserAccelerationX,motionUserAccelerationY,motionUserAccelerationZ,motionAttitudeReferenceFrame,motionQuaternionX,motionQuaternionY,motionQuaternionZ,motionQuaternionW,motionGravityX,motionGravityY,motionGravityZ,motionMagneticFieldX,motionMagneticFieldY,motionMagneticFieldZ,motionMagneticFieldCalibrationAccuracy,activityTimestamp_sinceReboot,activity,activityActivityConfidence,activityActivityStartDate,pedometerStartDate,pedometerNumberofSteps,pedometerAverageActivePace,pedometerCurrentPace,pedometerCurrentCadence,pedometerDistance,pedometerFloorAscended,pedometerFloorDescended,pedometerEndDate,altimeterTimestamp_sinceReboot,altimeterReset,altimeterRelativeAltitude,altimeterPressure,IP_en0,IP_pdp_ip0,deviceOrientation,batteryState,batteryLevel,avAudioRecorderPeakPower,avAudioRecorderAveragePower,label
1561775856.328265,1,0,0,1561775855.997959,4.634720678445543,-74.15109079338065,2554.091,0.23,241.875,3,10,-9999,1561775856.306218,-17.07228851318359,-16.3837890625,16.65850830078125,137.6147613525391,145.1075286865234,15,143631.6532575417,-0.9326171875,0.3367462158203125,0.088409423828125,143631.6400745417,0.1624522938626155,-0.02889050413739759,-0.009953031941953136,143631.6379075417,-94.60513305664062,-46.830078125,-548.0949096679688,143631.6451705417,-2.114628588690434,-1.668082371339427,-0.3550508084966288,0.1634378284215927,-0.04681016877293587,-0.01700825430452824,-0.0002612471580505371,-0.01185309886932373,-0.002466559410095215,1,0.6932817101478577,0.2547501921653748,0.5117949247360229,-0.4387810230255127,-0.9331952333450317,0.3476380109786987,0.0910743772983551,0,0,0,-1,143630.5881795,2,0,1561775855.240586,1561774855.646675,311,1.727504,0.6177826,1.898393,266.5,0,0,1561775852.981537,143628.743127,0,-0.6340332,75.39446,3232235528,177669985,1,1,0.94,-27.03008,-36.17456,1
1561775856.334144,2,0,0,1561775855.997959,4.634720678445543,-74.15109079338065,2554.091,0.23,241.875,3,10,-9999,1561775856.329768,-16.78929138183594,-16.21522903442383,16.82861328125,137.3704528808594,144.8632202148438,15,143631.6735215417,-0.9304962158203125,0.3444366455078125,0.0887298583984375,143631.6603375417,0.1574178541379297,-0.06418963912196186,-0.02566994343116477,143631.6580185417,-94.64450073242188,-46.63531494140625,-547.6307983398438,143631.6654345417,-2.111159233459241,-1.668162136969083,-0.3548064643998828,0.1503369510173798,-0.07363219559192657,-0.02993257716298103,0.000365138053894043,-0.008724808692932129,-0.002808690071105957,1,0.6928332448005676,0.2560480833053589,0.5110617876052856,-0.4395875036716461,-0.9332722425460815,0.3474088907241821,0.09115704894065857,0,0,0,-1,143630.5881795,2,0,1561775855.240586,1561774855.646675,311,1.727504,0.6177826,1.898393,266.5,0,0,1561775852.981537,143628.743127,0,-0.6340332,75.39446,3232235528,177669985,1,1,0.94,-27.03008,-36.17456,1
1561775856.353843,3,0,0,1561775855.997959,4.634720678445543,-74.15109079338065,2554.091,0.23,241.875,3,10,-9999,1561775856.329768,-16.78929138183594,-16.21522903442383,16.82861328125,137.3704528808594,144.8632202148438,15,143631.6937855417,-0.92791748046875,0.3540802001953125,0.083648681640625,143631.6806015417,0.1342499505508944,-0.05844946170840507,-0.02990490219660877,143631.6781295417,-94.5836181640625,-46.84075927734375,-547.8739013671875,143631.6856675417,-2.108114689041686,-1.6684896725205,-0.3543660312169239,0.1250022947788239,-0.06120029091835022,-0.0296553410589695,0.005828142166137695,0.002933919429779053,-0.005067110061645508,1,0.6924793124198914,0.2573154270648956,0.5103806853294373,-0.4401961863040924,-0.9333946704864502,0.3469958603382111,0.0914776548743248,0,0,0,-1,143630.5881795,2,0,1561775855.240586,1561774855.646675,311,1.727504,0.6177826,1.898393,266.5,0,0,1561775852.981537,143628.743127,0,-0.6340332,75.39446,3232235528,177669985,1,1,0.94,-27.03008,-36.28859,1
1561775856.376253,4,0,0,1561775855.997959,4.634720678445543,-74.15109079338065,2554.091,0.23,241.875,3,10,-9999,1561775856.356131,-16.84983062744141,-16.27408599853516,16.762939453125,137.1688995361328,144.6616668701172,15,143631.7140485417,-0.929443359375,0.361236572265625,0.087005615234375,143631.7008655417,0.1054776907658963,-0.0313275628509291,-0.01858087492548284,143631.6982405417,-94.408447265625,-46.45906066894531,-547.6627807617188,143631.7059315417,-2.10567332951222,-1.668553243253967,-0.3540308657401317,0.09894939512014389,-0.03135770931839943,-0.01894836872816086,0.006685614585876465,0.01241880655288696,-0.006511092185974121,1,0.692145049571991,0.2582816183567047,0.5098986625671387,-0.4407142698764801,-0.9335044622421265,0.3466815054416656,0.09154833108186722,0,0,0,-1,143630.5881795,2,0,1561775855.240586,1561774855.646675,311,1.727504,0.6177826,1.898393,266.5,0,0,1561775852.981537,143628.743127,0,-0.6340332,75.39446,3232235528,177669985,1,1,0.94,-27.03008,-36.53569,1
1561775856.398076,5,0,0,1561775855.997959,4.634720678445543,-74.15109079338065,2554.091,0.23,241.875,3,10,-9999,1561775856.380971,-16.76157379150391,-15.98410415649414,16.965576171875,137.0152893066406,144.508056640625,15,143631.7343125417,-0.93017578125,0.35955810546875,0.0923309326171875,143631.7211285417,0.0891527795998196,-0.01520611719213443,-0.007690410279821816,143631.7183515417,-94.17726135253906,-46.63803100585938,-547.592529296875,143631.7261945417,-2.103673343186686,-1.668368010040329,-0.353884802942533,0.08462771028280258,-0.02451791428029537,-0.0116960471495986,0.002450108528137207,0.01356291770935059,-0.00204014778137207,1,0.6918235421180725,0.258979469537735,0.5095557570457458,-0.4412060379981995,-0.9335719347000122,0.346544474363327,0.09138035774230957,0,0,0,-1,143630.5881795,2,0,1561775855.240586,1561774855.646675,311,1.727504,0.6177826,1.898393,266.5,0,0,1561775852.981537,143628.743127,0,-0.6340332,75.39446,3232235528,177669985,1,1,0.94,-27.03008,-36.7849,1
1561775856.414698,6,0,0,1561775855.997959,4.634720678445543,-74.15109079338065,2554.091,0.23,241.875,3,10,-9999,1561775856.406801,-16.82679748535156,-16.30710220336914,16.98956298828125,136.8929595947266,144.3857269287109,15,143631.7545765417,-0.92340087890625,0.3577117919921875,0.0951080322265625,143631.7413925417,0.07246993958323623,-0.02024135586514725,-0.02126267814319264,143631.7384625417,-94.60824584960938,-46.55293273925781,-547.6600952148438,143631.7464585417,-2.102002337171689,-1.668300776607368,-0.3536093662813949,0.06525880843400955,-0.02605242654681206,-0.03252489492297173,0.00529778003692627,0.01086112856864929,0.00251460075378418,1,0.6915601491928101,0.2596305012702942,0.5092741847038269,-0.4415612518787384,-0.9336730241775513,0.3462861180305481,0.09132687747478485,0,0,0,-1,143630.5881795,2,0,1561775855.240586,1561774855.646675,311,1.727504,0.6177826,1.898393,266.5,0,0,1561775852.981537,143628.743127,0,-0.6340332,75.39446,3232235528,177669985,1,1,0.94,-27.03008,-36.7849,1
1561775856.434944,7,0,0,1561775855.997959,4.634720678445543,-74.15109079338065,2554.091,0.23,241.875,3,10,-9999,1561775856.431258,-16.77948760986328,-16.02883911132812,17.1011962890625,136.8213958740234,144.3141632080078,15,143631.7748395417,-0.91888427734375,0.3681182861328125,0.0933990478515625,143631.7616565417,0.04000627221127932,-0.01439092358246118,-0.04437092692181019,143631.7585735417,-94.46807861328125,-46.62593078613281,-547.6141967773438,143631.7667225417,-2.100882816401481,-1.668406009182793,-0.3528438049704745,0.02751089818775654,-0.01953780278563499,-0.04782342538237572,0.01319622993469238,0.01684367656707764,0.003351926803588867,1,0.6913588643074036,0.2602851986885071,0.5091685056686401,-0.4416128098964691,-0.9339268803596497,0.3455678224563599,0.09145092964172363,0,0,0,-1,143630.5881795,2,0,1561775855.240586,1561774855.646675,311,1.727504,0.6177826,1.898393,266.5,0,0,1561775852.981537,143628.743127,0,-0.6340332,75.39446,3232235528,177669985,1,1,0.94,-27.03008,-34.14411,1
1561775856.455744,8,0,0,1561775855.997959,4.634720678445543,-74.15109079338065,2554.091,0.23,241.875,3,10,-9999,1561775856.431258,-16.77948760986328,-16.02883911132812,17.1011962890625,136.8213958740234,144.3141632080078,15,143631.7951035417,-0.9142303466796875,0.3794403076171875,0.093963623046875,143631.7819195417,-0.001724929438044323,0.001804025322419676,-0.03091157708865873,143631.7786855417,-94.25233459472656,-46.54008483886719,-547.6787109375,143631.7869855417,-2.100666204809379,-1.668508803441839,-0.3521186800129141,-0.01241201721131802,-0.003501577535644174,-0.02843721210956573,0.01786106824874878,0.02776288986206055,0.0008358955383300781,1,0.6912784576416016,0.2606142163276672,0.5092536807060242,-0.4414463937282562,-0.9341666102409363,0.3448872566223145,0.09157135337591171,0,0,0,-1,143630.5881795,2,0,1561775855.240586,1561774855.646675,311,1.727504,0.6177826,1.898393,266.5,0,0,1561775852.981537,143628.743127,0,-0.6340332,75.39446,3232235528,177669985,1,1,0.94,-27.03008,-34.87635,1
1561775856.480809,9,0,0,1561775855.997959,4.634720678445543,-74.15109079338065,2554.091,0.23,241.875,3,10,-9999,1561775856.459089,-16.75963592529297,-16.00852966308594,17.0811767578125,136.8262786865234,144.3190460205078,15,143631.8153365417,-0.9226531982421875,0.3722076416015625,0.0985565185546875,143631.8021835417,-0.01446362788022034,0.009983924610598056,0.003474093642008366,143631.7987655417,-94.26210021972656,-46.59111022949219,-547.45458984375,143631.8072495417,-2.10099429894364,-1.668586981828791,-0.3519516983933652,-0.01513510011136532,0.003472708631306887,0.01219250727444887,0.01708745956420898,0.03451144695281982,0.004144668579101562,1,0.6913230419158936,0.2605714201927185,0.5093379616737366,-0.4413048028945923,-0.9342169761657715,0.3447305262088776,0.09165002405643463,0,0,0,-1,143630.5881795,2,0,1561775855.240586,1561774855.646675,311,1.727504,0.6177826,1.898393,266.5,0,0,1561775852.981537,143628.743127,0,-0.6340332,75.39446,3232235528,177669985,1,1,0.94,-27.03008,-35.41831,1
1561775856.495786,10,0,0,1561775855.997959,4.634720678445543,-74.15109079338065,2554.091,0.23,241.875,3,10,-9999,1561775856.48315,-16.75019073486328,-16.29814910888672,17.0169677734375,136.8514709472656,144.34423828125,15,143631.8356005417,-0.9214935302734375,0.353790283203125,0.0962677001953125,143631.8224475417,-0.01384177976568684,0.02272262305277408,0.03317393243468104,143631.8188765417,-94.3468017578125,-46.47201538085938,-547.6590576171875,143631.8275135417,-2.10135999631496,-1.668489726963074,-0.3524804355909263,-0.0187748409807682,0.02045888267457485,0.02756986394524574,0.009193718433380127,0.01736781001091003,0.007381319999694824,1,0.6914030313491821,0.2602547407150269,0.5093293786048889,-0.441376119852066,-0.9340441823005676,0.3452267944812775,0.09154136478900909,0,0,0,-1,143630.5881795,2,0,1561775855.240586,1561774855.646675,311,1.727504,0.6177826,1.898393,266.5,0,0,1561775852.981537,143628.743127,0,-0.6340332,75.39446,3232235528,177669985,1,1,0.94,-27.03008,-36.07405,1
1561775856.515932,11,0,0,1561775855.997959,4.634720678445543,-74.15109079338065,2554.091,0.23,241.875,3,10,-9999,1561775856.509261,-16.8223876953125,-16.16013717651367,16.9185791015625,136.8953094482422,144.3880767822266,15,143631.8558645417,-0.9253082275390625,0.344451904296875,0.0954742431640625,143631.8426805417,-0.03060664514384465,0.03621872450896863,0.01895691327140203,143631.8389875417,-94.49076843261719,-46.77548217773438,-547.4703369140625,143631.8477765417,-2.102005623734533,-1.668185391044961,-0.3529002393772982,-0.03262407705187798,0.03212379664182663,0.01074614468961954,0.01295292377471924,0.001928657293319702,0.00417017936706543,1,0.6914547681808472,0.2598303258419037,0.5094795227050781,-0.4413717687129974,-0.9339276552200317,0.3456207811832428,0.09124299138784409,0,0,0,-1,143630.5881795,2,0,1561775855.240586,1561774855.646675,311,1.727504,0.6177826,1.898393,266.5,0,0,1561775852.981537,143628.743127,0,-0.6340332,75.39446,3232235528,177669985,1,1,0.94,-27.03008,-35.65476,1
1561775856.536239,12,0,0,1561775855.997959,4.634720678445543,-74.15109079338065,2554.091,0.23,241.875,3,10,-9999,1561775856.532437,-16.65456390380859,-16.16463470458984,16.82867431640625,136.9453125,144.4380798339844,15,143631.8761275417,-0.929718017578125,0.3411102294921875,0.0965118408203125,143631.8629445417,-0.02764813948887563,0.0463946630341614,0.006702910147620434,143631.8590985417,-94.57270812988281,-46.61029052734375,-547.6151733398438,143631.8680405417,-2.102704508588269,-1.667687231556726,-0.3530853271840428,-0.02750441618263721,0.04670833051204681,-0.003266343614086509,0.005274772644042969,-0.003738164901733398,0.00477898120880127,1,0.6914384961128235,0.259419709444046,0.5097630620002747,-0.4413115680217743,-0.9339094758033752,0.3457944393157959,0.09077155590057373,0,0,0,-1,143630.5881795,2,0,1561775855.240586,1561774855.646675,311,1.727504,0.6177826,1.898393,266.5,0,0,1561775852.981537,143628.743127,0,-0.6340332,75.39446,3232235528,177669985,1,1,0.94,-27.03008,-35.58123,1
1561775856.55652,13,0,0,1561775855.997959,4.634720678445543,-74.15109079338065,2554.091,0.23,241.875,3,10,-9999,1561775856.532437,-16.65456390380859,-16.16463470458984,16.82867431640625,136.9453125,144.4380798339844,15,143631.8963915417,-0.9327545166015625,0.3454132080078125,0.094635009765625,143631.8832075417,-0.03387780591078898,0.05136918163432041,-0.01217091249777113,143631.8792095417,-94.47784423828125,-46.75810241699219,-547.5542602539062,143631.8882735417,-2.103396482876074,-1.667018210112357,-0.3529532301719146,-0.0354480929672718,0.03601280972361565,-0.01440980844199657,0.005045115947723389,-0.003354817628860474,0.004651784896850586,1,0.691343367099762,0.2590751051902771,0.5101776719093323,-0.4411839246749878,-0.9340154528617859,0.3456704914569855,0.09015112370252609,0,0,0,-1,143631.8849475417,3,2,1561775856.537354,1561774855.646675,311,1.727504,0.6177826,1.898393,266.5,0,0,1561775852.981537,143628.743127,0,-0.6340332,75.39446,3232235528,177669985,1,1,0.94,-27.03008,-30.58052,1
1561775856.577293,14,0,0,1561775855.997959,4.634720678445543,-74.15109079338065,2554.091,0.23,241.875,3,10,-9999,1561775856.559636,-16.82593536376953,-16.11164093017578,16.9959716796875,136.9940490722656,144.48681640625,15,143631.916665375,-0.9371185302734375,0.3416900634765625,0.0959625244140625,143631.9034715417,-0.01111763228664479,0.01538375003684272,-0.011427091605312,143631.899331375,-94.32075500488281,-46.93389892578125,-547.652099609375,143631.908547375,-2.103835546790709,-1.666859481489612,-0.352724931816105,-0.003592160530388355,-0.001240287441760302,-0.01598373800516129,-0.0008130669593811035,-0.002194523811340332,0.006257295608520508,1,0.691335141658783,0.2589612603187561,0.5103822946548462,-0.4410268664360046,-0.9341081976890564,0.3454562723636627,0.09001042693853378,0,0,0,-1,143631.8849475417,3,2,1561775856.537354,1561774855.646675,311,1.727504,0.6177826,1.898393,266.5,0,0,1561775852.981537,143628.743127,0,-0.6340332,75.39446,3232235528,177669985,1,1,0.94,-27.03008,-30.58052,1
1561775856.597086,15,0,0,1561775855.997959,4.634720678445543,-74.15109079338065,2554.091,0.23,241.875,3,10,-9999,1561775856.58315,-16.62109375,-16.32387924194336,16.9949951171875,136.9928436279297,144.4856109619141,15,143631.936928375,-0.9417266845703125,0.338531494140625,0.0867919921875,143631.923745375,0.02156947430076976,0.001508148125311873,-0.02158625221563727,143631.919442375,-94.37290954589844,-46.79371643066406,-547.6715698242188,143631.928811375,-2.10354911095898,-1.666890190208068,-0.3523312114335612,0.02010304853320122,0.0002534794621169567,-0.02698951587080956,-0.00625002384185791,-0.003045707941055298,0.004094600677490234,1,0.6912634372711182,0.2591928541660309,0.5103998184204102,-0.4409829080104828,-0.9342406988143921,0.3450867533683777,0.09005215018987656,0,0,0,-1,143631.8849475417,3,2,1561775856.537354,1561774855.646675,311,1.727504,0.6177826,1.898393,266.5,0,0,1561775852.981537,143628.743127,0,-0.6340332,75.39446,3232235528,177669985,1,1,0.94,-27.03008,-30.80983,1
1561775856.617355,16,0,0,1561775855.997959,4.634720678445543,-74.15109079338065,2554.091,0.23,241.875,3,10,-9999,1561775856.609684,-16.46439361572266,-16.38755798339844,16.990234375,136.9630279541016,144.4557952880859,15,143631.957192375,-0.9381561279296875,0.3443603515625,0.0819091796875,143631.944008375,0.01667671474607619,0.02504623110386821,-0.03520219592088539,143631.939553375,-94.35012817382812,-46.88421630859375,-547.4942016601562,143631.949074375,-2.103132336789942,-1.666570428528184,-0.3516830931020892,0.01006213203072548,0.02348050475120544,-0.03893645852804184,-0.005220472812652588,-0.005321294069290161,-0.008079290390014648,1,0.6910578012466431,0.2594735324382782,0.5105687975883484,-0.4409447014331818,-0.9344920516014099,0.3444783687591553,0.08977479487657547,0,0,0,-1,143631.8849475417,3,2,1561775856.537354,1561774855.646675,311,1.727504,0.6177826,1.898393,266.5,0,0,1561775852.981537,143628.743127,0,-0.6340332,75.39446,3232235528,177669985,1,1,0.94,-27.03008,-31.48235,1
1561775856.647823,17,0,0,1561775855.997959,4.634720678445543,-74.15109079338065,2554.091,0.23,241.875,3,10,-9999,1561775856.633972,-16.70748901367188,-16.32748794555664,16.7564697265625,136.9616546630859,144.4544219970703,15,143631.977456375,-0.9344329833984375,0.348724365234375,0.0845489501953125,143631.964272375,-0.0013275858034045,0.03916711015179536,-0.02976481992327061,143631.959664375,-94.41914367675781,-46.94377136230469,-547.8051147460938,143631.969338375,-2.103059831617886,-1.665955436384439,-0.3509825670492265,-0.006777035072445869,0.03322261571884155,-0.03065589070320129,-0.003414750099182129,0.002080857753753662,-0.007008552551269531,1,0.6908155679702759,0.2595868706703186,0.510927677154541,-0.4408418834209442,-0.9347870945930481,0.3438206315040588,0.0892229825258255,0,0,0,-1,143631.8849475417,3,2,1561775856.537354,1561774855.646675,311,1.727504,0.6177826,1.898393,266.5,0,0,1561775852.981537,143628.743127,0,-0.6340332,75.39446,3232235528,177669985,1,1,0.94,-28.14463,-32.58083,1
1561775856.659425,18,0,0,1561775855.997959,4.634720678445543,-74.15109079338065,2554.091,0.23,241.875,3,10,-9999,1561775856.633972,-16.70748901367188,-16.32748794555664,16.7564697265625,136.9616546630859,144.4544219970703,15,143631.997719375,-0.9340057373046875,0.3522186279296875,0.0907135009765625,143631.984536375,-0.01004570994788789,0.03723312256817982,-0.02107199580914296,143631.979744375,-94.41262817382812,-46.98545837402344,-547.665771484375,143631.989602375,-2.103221939875493,-1.665383704573428,-0.3504290611588776,-0.01272493973374367,0.02807658724486828,-0.02140593156218529,0.002013146877288818,0.008505821228027344,-0.0009837150573730469,1,0.6906305551528931,0.2595817148685455,0.5112890005111694,-0.4407156407833099,-0.9350270628929138,0.3433008193969727,0.08870646357536316,0,0,0,-1,143631.8849475417,3,2,1561775856.537354,1561774855.646675,311,1.727504,0.6177826,1.898393,266.5,0,0,1561775852.981537,143628.743127,0,-0.6340332,75.39446,3232235528,177669985,1,1,0.94,-28.14463,-32.58083,1
1561775856.678191,19,0,0,1561775855.997959,4.634720678445543,-74.15109079338065,2554.091,0.23,241.875,3,10,-9999,1561775856.661201,-16.68678283691406,-16.35071563720703,16.92108154296875,136.9748077392578,144.4675750732422,15,143632.017952375,-0.93292236328125,0.3485107421875,0.0966033935546875,143632.004799375,-0.001764077906068487,0.02954537544944808,-0.004275172497904201,143631.999855375,-94.39739990234375,-46.68324279785156,-547.63916015625,143632.009865375,-2.103340340749944,-1.66495869576281,-0.3501639399545472,-0.00183234375435859,0.01813820376992226,-0.007366013713181019,-8.630752563476562e-05,0.007625699043273926,0.006927728652954102,1,0.6905084848403931,0.2595319747924805,0.5115233063697815,-0.4406644701957703,-0.9351553916931152,0.3430517911911011,0.0883176252245903,0,0,0,-1,143631.8849475417,3,2,1561775856.537354,1561774855.646675,311,1.727504,0.6177826,1.898393,266.5,0,0,1561775852.981537,143628.743127,0,-0.6340332,75.39446,3232235528,177669985,1,1,0.94,-28.70191,-32.95287,1
1561775856.698398,20,0,0,1561775855.997959,4.634720678445543,-74.15109079338065,2554.091,0.23,241.875,3,10,-9999,1561775856.684488,-16.53890991210938,-16.38392639160156,17.071044921875,136.9786224365234,144.4713897705078,15,143632.038216375,-0.9327239990234375,0.3486785888671875,0.092254638671875,143632.025063375,-0.006591590014055122,0.01549134174488192,-0.01650547348798409,143632.019967375,-94.13926696777344,-46.78173828125,-547.9178466796875,143632.030129375,-2.10340410345428,-1.66474098222878,-0.3498182127052696,-0.009690266102552414,0.01035831123590469,-0.02272259816527367,0.003636777400970459,0.006073623895645142,0.005563735961914062,1,0.6904235482215881,0.2595725357532501,0.5116925835609436,-0.4405771791934967,-0.935292661190033,0.3427270352840424,0.08812515437602997,0,0,0,-1,143631.8849475417,3,2,1561775856.537354,1561774855.646675,311,1.727504,0.6177826,1.898393,266.5,0,0,1561775852.981537,143628.743127,0,-0.6340332,75.39446,3232235528,177669985,1,1,0.94,-29.25919,-33.45493,1
1561775856.721004,21,0,0,1561775855.997959,4.634720678445543,-74.15109079338065,2554.091,0.23,241.875,3,10,-9999,1561775856.710718,-16.65285491943359,-16.57452392578125,16.91265869140625,136.9945831298828,144.4873504638672,15,143632.058480375,-0.933319091796875,0.3490447998046875,0.095703125,143632.045296375,-0.009497631395549587,0.02567287290836386,-0.02151381423398711,143632.040078375,-94.28532409667969,-46.92955017089844,-547.8501586914062,143632.050393375,-2.103611186221091,-1.664467733329743,-0.3493204778608519,-0.009882014244794846,0.01947058364748955,-0.02281394600868225,0.001236498355865479,0.004633903503417969,0.003285765647888184,1,0.690326452255249,0.2595999836921692,0.5119476914405823,-0.4404167234897614,-0.9354864358901978,0.342259407043457,0.08788552135229111,0,0,0,-1,143631.8849475417,3,2,1561775856.537354,1561774855.646675,311,1.727504,0.6177826,1.898393,266.5,0,0,1561775852.981537,143628.743127,0,-0.6340332,75.39446,3232235528,177669985,1,1,0.94,-29.81647,-34.17411,1
1561775856.738809,22,0,0,1561775855.997959,4.634720678445543,-74.15109079338065,2554.091,0.23,241.875,3,10,-9999,1561775856.735021,-16.81895446777344,-16.33500289916992,16.90301513671875,136.9930419921875,144.4858093261719,15,143632.078743375,-0.93853759765625,0.354583740234375,0.10614013671875,143632.065560375,0.003027747843311086,0.01286599754228181,-0.01514406553873559,143632.060219375,-94.50244140625,-46.89558410644531,-547.7808837890625,143632.070656375,-2.10362135278913,-1.664225891641613,-0.3489461576937686,0.007450903300195932,-0.001210992690175772,-0.01025847345590591,0.001568198204040527,0.01082974672317505,0.01317405700683594,1,0.6902251839637756,0.2596628665924072,0.5121199488639832,-0.4403379857540131,-0.9356350302696228,0.3419076800346375,0.08767122030258179,0,0,0,-1,143631.8849475417,3,2,1561775856.537354,1561774855.646675,311,1.727504,0.6177826,1.898393,266.5,0,0,1561775852.981537,143628.743127,0,-0.6340332,75.39446,3232235528,177669985,1,1,0.94,-29.81647,-34.17411,1
1561775856.759648,23,0,0,1561775855.997959,4.634720678445543,-74.15109079338065,2554.091,0.23,241.875,3,10,-9999,1561775856.735021,-16.81895446777344,-16.33500289916992,16.90301513671875,136.9930419921875,144.4858093261719,15,143632.099007375,-0.9336700439453125,0.3469696044921875,0.10430908203125,143632.085823375,0.03502722623726718,-0.02217134870712767,0.01793585730946565,143632.080300375,-94.3470458984375,-46.97476196289062,-547.6707153320312,143632.090889375,-2.10313394032312,-1.664484443240685,-0.3491718383868042,0.04606407508254051,-0.03998155519366264,0.01654145121574402,-0.001079380512237549,0.009000271558761597,0.017974853515625,1,0.6902526021003723,0.259815901517868,0.5118712186813354,-0.440494030714035,-0.9355356097221375,0.3421197235584259,0.08790591359138489,0,0,0,-1,143631.8849475417,3,2,1561775856.537354,1561774855.646675,311,1.727504,0.6177826,1.898393,266.5,0,0,1561775852.981537,143628.743127,0,-0.6340332,75.39446,3232235528,177669985,1,1,0.94,-30.37375,-34.62743,1
1561775856.77942,24,0,0,1561775855.997959,4.634720678445543,-74.15109079338065,2554.091,0.23,241.875,3,10,-9999,1561775856.761256,-16.71007537841797,-16.25390243530273,16.978271484375,136.9361572265625,144.4289245605469,15,143632.119271375,-0.9384002685546875,0.3407745361328125,0.09991455078125,143632.106087375,0.07500979631484479,-0.06167561505292706,0.01210539873495518,143632.100411375,-94.44203186035156,-46.57168579101562,-547.7813720703125,143632.111153375,-2.101801814973355,-1.665263606871989,-0.3495753719398836,0.0809786468744278,-0.07284124195575714,0.006407056003808975,-0.0005230307579040527,0.0002898275852203369,0.01307797431945801,1,0.6903225779533386,0.2603183090686798,0.5112152099609375,-0.4408491551876068,-0.9353290200233459,0.3424988985061646,0.08862176537513733,0,0,0,-1,143631.8849475417,3,2,1561775856.537354,1561774855.646675,311,1.727504,0.6177826,1.898393,266.5,0,0,1561775852.981537,143629.688938,0,-0.7160645,75.39525,3232235528,177669985,1,1,0.94,-30.93103,-31.22508,1
1561775856.799654,25,0,0,1561775855.997959,4.634720678445543,-74.15109079338065,2554.091,0.23,241.875,3,10,-9999,1561775856.785653,-16.90331268310547,-16.08859252929688,16.99371337890625,136.8088531494141,144.3016204833984,15,143632.139534375,-0.9407806396484375,0.33563232421875,0.0914154052734375,143632.126351375,0.1028326391712296,-0.07095380197465412,0.001378718496334022,143632.120522375,-94.32490539550781,-46.792724609375,-548.09033203125,143632.131417375,-2.0997921110552,-1.666123630486908,-0.3498065612415019,0.1044315099716187,-0.07632092386484146,-0.004456776659935713,-0.004432022571563721,-0.006183505058288574,0.005597829818725586,1,0.6903054118156433,0.2611278295516968,0.5104215741157532,-0.4413167238235474,-0.9351736903190613,0.3427160978317261,0.08941861242055893,0,0,0,-1,143631.8849475417,3,2,1561775856.537354,1561774855.646675,311,1.727504,0.6177826,1.898393,266.5,0,0,1561775852.981537,143629.688938,0,-0.7160645,75.39525,3232235528,177669985,1,1,0.94,-31.4687,-31.94328,1
1561775856.819858,26,0,0,1561775855.997959,4.634720678445543,-74.15109079338065,2554.091,0.23,241.875,3,10,-9999,1561775856.811905,-16.61601257324219,-16.09141540527344,16.9024658203125,136.6566619873047,144.1494293212891,15,143632.159798375,-0.9345245361328125,0.3419952392578125,0.0864410400390625,143632.146614375,0.09592306772301903,-0.05218783735341077,-0.01477361983110557,143632.140633375,-94.35130310058594,-46.96139526367188,-547.8514404296875,143632.151680375,-2.097651751770517,-1.666721766151225,-0.3497341087910277,0.08575689047574997,-0.05349709838628769,-0.01947673782706261,-0.003056883811950684,-0.00256010890007019,0.001160383224487305,1,0.6901701092720032,0.2620217502117157,0.5097595453262329,-0.441763699054718,-0.9351450204849243,0.3426480293273926,0.0899803563952446,0,0,0,-1,143631.8849475417,3,2,1561775856.537354,1561774855.646675,311,1.727504,0.6177826,1.898393,266.5,0,0,1561775852.981537,143629.688938,0,-0.7160645,75.39525,3232235528,177669985,1,1,0.94,-31.4687,-32.53964,1
1561775856.840169,27,0,0,1561775855.997959,4.634720678445543,-74.15109079338065,2554.091,0.23,241.875,3,10,-9999,1561775856.836418,-16.76769256591797,-16.08085250854492,16.85321044921875,136.5601959228516,144.0529632568359,15,143632.180062375,-0.9202117919921875,0.348968505859375,0.0827484130859375,143632.166878375,0.05961752416251383,-0.03865525059028212,-0.01414378223330183,143632.160744375,-94.41278076171875,-46.54620361328125,-547.7257690429688,143632.171944375,-2.096211612422252,-1.667261898855294,-0.3495437825844956,0.05027240142226219,-0.04051046073436737,-0.01692915894091129,0.008540630340576172,0.0003347694873809814,-0.008918285369873047,1,0.690097987651825,0.2626987397670746,0.5092992186546326,-0.4420051574707031,-0.9351611137390137,0.3424692153930664,0.09049171954393387,0,0,0,-1,143631.8849475417,3,2,1561775856.537354,1561774855.646675,311,1.727504,0.6177826,1.898393,266.5,0,0,1561775852.981537,143629.688938,0,-0.7160645,75.39525,3232235528,177669985,1,1,0.94,-31.4687,-32.99478,1
1561775856.860407,28,0,0,1561775855.997959,4.634720678445543,-74.15109079338065,2554.091,0.23,241.875,3,10,-9999,1561775856.836418,-16.76769256591797,-16.08085250854492,16.85321044921875,136.5601959228516,144.0529632568359,15,143632.200325375,-0.92620849609375,0.3592681884765625,0.09033203125,143632.187142375,0.04944717827561022,-0.02225870039088227,-0.00980123175981862,143632.180855375,-94.4295654296875,-46.47477722167969,-547.7999877929688,143632.192208375,-2.095180038428053,-1.667622574929244,-0.349353251071791,0.04735624045133591,-0.03343018144369125,-0.003898311872035265,0.01298260688781738,0.01345324516296387,-0.003463506698608398,1,0.6900333166122437,0.263195127248764,0.5089910626411438,-0.4421657025814056,-0.9351933002471924,0.3422901928424835,0.09083530306816101,0,0,0,-1,143631.8849475417,3,2,1561775856.537354,1561774855.646675,311,1.727504,0.6177826,1.898393,266.5,0,0,1561775852.981537,143629.688938,0,-0.7160645,75.39525,3232235528,177669985,1,1,0.94,-31.4687,-33.75593,1
1561775856.880614,29,0,0,1561775855.997959,4.634720678445543,-74.15109079338065,2554.091,0.23,241.875,3,10,-9999,1561775856.86258,-16.6302490234375,-15.9913215637207,16.98822021484375,136.4867706298828,143.9795379638672,15,143632.220559375,-0.9298095703125,0.3578948974609375,0.092987060546875,143632.207405375,0.05773919664568094,-0.03818653423842818,0.0234424754954225,143632.200966375,-94.25889587402344,-46.7652587890625,-547.6572265625,143632.212471375,-2.094083970757702,-1.668106826419765,-0.3496892243758837,0.05818625167012215,-0.04783149063587189,0.02197562903165817,0.006369531154632568,0.0169522762298584,0.000748753547668457,1,0.6900489926338196,0.2635732889175415,0.5085033178329468,-0.4424770176410675,-0.9350346326828003,0.342605859041214,0.09127698093652725,0,0,0,-1,143631.8849475417,3,2,1561775856.537354,1561774855.646675,311,1.727504,0.6177826,1.898393,266.5,0,0,1561775852.981537,143629.688938,0,-0.7160645,75.39525,3232235528,177669985,1,1,0.94,-31.4687,-34.31661,1
1561775856.900898,30,0,0,1561775855.997959,4.634720678445543,-74.15109079338065,2554.091,0.23,241.875,3,10,-9999,1561775856.886997,-16.60691833496094,-16.04443740844727,17.16876220703125,136.4050598144531,143.8978271484375,15,143632.240822375,-0.9287109375,0.34893798828125,0.084747314453125,143632.227669375,0.04975717022649544,-0.03284689625281931,0.02071167011365524,143632.221077375,-94.01715087890625,-46.77824401855469,-547.368896484375,143632.232735375,-2.093000914191488,-1.668611652626798,-0.3501569792115696,0.03686578571796417,-0.03715674206614494,0.01676542311906815,0.007369041442871094,0.01030251383781433,-0.002316832542419434,1,0.690085768699646,0.263909637928009,0.5079803466796875,-0.4428196549415588,-0.9348287582397461,0.3430452644824982,0.09173332899808884,0,0,0,-1,143631.8849475417,3,2,1561775856.537354,1561774855.646675,311,1.727504,0.6177826,1.898393,266.5,0,0,1561775852.981537,143629.688938,0,-0.7160645,75.39525,3232235528,177669985,1,1,0.94,-31.4687,-34.31661,1
1561775856.921182,31,0,0,1561775855.997959,4.634720678445543,-74.15109079338065,2554.091,0.23,241.875,3,10,-9999,1561775856.913228,-16.47450256347656,-16.39487838745117,17.242431640625,136.3773040771484,143.8700714111328,15,143632.261086375,-0.9311676025390625,0.3477325439453125,0.0842437744140625,143632.247902375,0.006646717448619763,-0.007477357392615477,0.0178535656317822,143632.241188375,-94.21438598632812,-46.82350158691406,-547.4404907226562,143632.252999375,-2.092707846704459,-1.668937075987713,-0.3504829313829235,-0.003460430540144444,-0.007577009499073029,0.01430881023406982,0.00524437427520752,0.005250900983810425,-0.007584452629089355,1,0.6901654601097107,0.26397904753685,0.5077272057533264,-0.4429445862770081,-0.9346877336502075,0.343351423740387,0.09202659875154495,0,0,0,-1,143631.8849475417,3,2,1561775856.537354,1561774855.646675,311,1.727504,0.6177826,1.898393,266.5,0,0,1561775852.981537,143629.688938,0,-0.7160645,75.39525,3232235528,177669985,1,1,0.94,-31.4687,-34.82658,1
1561775856.94217,32,0,0,1561775855.997959,4.634720678445543,-74.15109079338065,2554.091,0.23,241.875,3,10,-9999,1561775856.937623,-16.35331726074219,-16.06087493896484,17.03369140625,136.3936462402344,143.8864135742188,15,143632.281350375,-0.9270172119140625,0.3471221923828125,0.089752197265625,143632.268166375,-0.01010110369856154,0.0121061976832822,0.01096476684007424,143632.261300375,-94.12625122070312,-46.73123168945312,-547.4584350585938,143632.273262375,-2.092934505053524,-1.668977081525921,-0.3507317583405082,-0.009553742595016956,0.006096458528190851,0.005187750793993473,0.005964159965515137,0.002469003200531006,-0.005522966384887695,1,0.6902328133583069,0.2638303637504578,0.5077054500579834,-0.442952960729599,-0.9345988035202026,0.3435851037502289,0.09205559641122818,0,0,0,-1,143631.8849475417,3,2,1561775856.537354,1561774855.646675,311,1.727504,0.6177826,1.898393,266.5,0,0,1561775852.981537,143629.688938,0,-0.7160645,75.39525,3232235528,177669985,1,1,0.94,-31.4687,-33.90605,1
1561775856.961758,33,0,0,1561775855.997959,4.634720678445543,-74.15109079338065,2554.091,0.23,241.875,3,10,-9999,1561775856.937623,-16.35331726074219,-16.06087493896484,17.03369140625,136.3936462402344,143.8864135742188,15,143632.301613375,-0.9245147705078125,0.3444061279296875,0.0923004150390625,143632.288430375,-0.001766474751049559,0.01617470888059625,0.009202819462877815,143632.281411375,-94.33638000488281,-46.87249755859375,-547.60546875,143632.293496375,-2.093069290059378,-1.668862642939318,-0.3509011064705764,-0.006105215754359961,0.00878305546939373,0.005987764336168766,0.009838342666625977,0.001653790473937988,-0.000268101692199707,1,0.6902400851249695,0.2637045681476593,0.5077353119850159,-0.4429823756217957,-0.934551477432251,0.3437441289424896,0.09194295108318329,0,0,0,-1,143631.8849475417,3,2,1561775856.537354,1561774855.646675,311,1.727504,0.6177826,1.898393,266.5,0,0,1561775852.981537,143629.688938,0,-0.7160645,75.39525,3232235528,177669985,1,1,0.94,-31.4687,-33.9099,1
1561775856.981966,34,0,0,1561775855.997959,4.634720678445543,-74.15109079338065,2554.091,0.23,241.875,3,10,-9999,1561775856.963878,-16.66977691650391,-16.06876373291016,17.0780029296875,136.4037933349609,143.8965606689453,15,143632.321877375,-0.9246368408203125,0.3425750732421875,0.0969390869140625,143632.308693375,-0.00427783565899428,0.02090794508599408,0.007435545763501233,143632.301522375,-94.28953552246094,-46.44500732421875,-547.1917724609375,143632.313759375,-2.093199195729346,-1.668668611579258,-0.3510465102454635,-0.005389357917010784,0.01445239223539829,0.005364584736526012,0.01156115531921387,-0.0004968941211700439,0.003229260444641113,1,0.6902238726615906,0.2635704278945923,0.5077971220016479,-0.4430166184902191,-0.9345195293426514,0.34388068318367,0.09175673127174377,0,0,0,-1,143631.8849475417,3,2,1561775856.537354,1561774855.646675,311,1.727504,0.6177826,1.898393,266.5,0,0,1561775852.981537,143629.688938,0,-0.7160645,75.39525,3232235528,177669985,1,1,0.94,-31.4687,-34.59628,1
1561775857.002213,35,0,0,1561775855.997959,4.634720678445543,-74.15109079338065,2554.091,0.23,241.875,3,10,-9999,1561775856.988282,-16.60672760009766,-16.0006217956543,17.0032958984375,136.4097747802734,143.9025421142578,15,143632.342141375,-0.9295806884765625,0.3408660888671875,0.104095458984375,143632.328957375,0.003003513077391365,0.009310677487026025,0.01972097418814577,143632.321633375,-94.44358825683594,-46.78048706054688,-547.53662109375,143632.334023375,-2.093226583150294,-1.668510577869994,-0.3513222903390665,0.004248621873557568,-0.003098105080425739,0.01764974556863308,0.007681787014007568,-0.001930773258209229,0.009413361549377441,1,0.6902175545692444,0.2634380757808685,0.5077933669090271,-0.4431094527244568,-0.9344395995140076,0.3441396355628967,0.09159978479146957,0,0,0,-1,143631.8849475417,3,2,1561775856.537354,1561774855.646675,311,1.727504,0.6177826,1.898393,266.5,0,0,1561775852.981537,143629.688938,0,-0.7160645,75.39525,3232235528,177669985,1,1,0.94,-31.4687,-34.66489,1
1561775857.022494,36,0,0,1561775855.997959,4.634720678445543,-74.15109079338065,2554.091,0.23,241.875,3,10,-9999,1561775857.015038,-16.62165832519531,-16.17329788208008,17.2244873046875,136.4043579101562,143.8971252441406,15,143632.362404375,-0.934234619140625,0.339630126953125,0.1036834716796875,143632.349221375,0.008791361074460572,-0.009410279711794988,0.0228073115754386,143632.341744375,-94.26307678222656,-46.64613342285156,-547.672119140625,143632.354287375,-2.093100513350926,-1.66870113273575,-0.3517401578303476,0.01133609283715487,-0.02229044213891029,0.01692936196923256,0.003264069557189941,-0.004917055368423462,0.01280462741851807,1,0.6902950406074524,0.2633906900882721,0.5076022148132324,-0.4432360827922821,-0.9342790842056274,0.3445319533348083,0.09176379442214966,0,0,0,-1,143631.8849475417,3,2,1561775856.537354,1561774855.646675,311,1.727504,0.6177826,1.898393,266.5,0,0,1561775852.981537,143629.688938,0,-0.7160645,75.39525,3232235528,177669985,1,1,0.94,-31.4687,-35.22509,1
1561775857.043321,37,0,0,1561775855.997959,4.634720678445543,-74.15109079338065,2554.091,0.23,241.875,3,10,-9999,1561775857.038945,-16.65821075439453,-16.07453918457031,17.2406005859375,136.3781433105469,143.8709106445312,15,143632.382668375,-0.94232177734375,0.3356781005859375,0.1007537841796875,143632.369484375,0.02255031653024595,-0.01972603419421692,0.02256629549678642,143632.361855375,-94.34681701660156,-46.56829833984375,-547.5535278320312,143632.374550375,-2.092786208474132,-1.669089183118444,-0.3521530201879335,0.02598827332258224,-0.02796244248747826,0.02102184109389782,-0.005214095115661621,-0.007150918245315552,0.009358525276184082,1,0.6903972625732422,0.2634536027908325,0.5073021650314331,-0.4433828890323639,-0.9341017007827759,0.3449195027351379,0.09211236238479614,0,0,0,-1,143631.8849475417,3,2,1561775856.537354,1561774855.646675,311,1.727504,0.6177826,1.898393,266.5,0,0,1561775852.981537,143629.688938,0,-0.7160645,75.39525,3232235528,177669985,1,1,0.94,-31.4687,-35.87423,1
1561775857.063025,38,0,0,1561775856.99794,4.634720678445543,-74.15109079338065,2554.079,0,241.875,3,10,-9999,1561775857.038945,-16.65821075439453,-16.07453918457031,17.2406005859375,136.3781433105469,143.8709106445312,15,143632.402932375,-0.9427337646484375,0.33233642578125,0.098846435546875,143632.389748375,0.0512445456953047,-0.03009558453065845,0.01703544254490986,143632.381966375,-94.19927978515625,-46.76907348632812,-547.3734130859375,143632.394814375,-2.091918490849152,-1.669477326807036,-0.3525729917044337,0.05785459280014038,-0.03708723187446594,0.004118490964174271,-0.01012444496154785,-0.009528756141662598,0.00696563720703125,1,0.6904272437095642,0.2637054026126862,0.506877601146698,-0.4436719417572021,-0.9339215755462646,0.3453136682510376,0.09246063977479935,0,0,0,-1,143631.8849475417,3,2,1561775856.537354,1561774855.646675,311,1.727504,0.6177826,1.898393,266.5,0,0,1561775852.981537,143629.688938,0,-0.7160645,75.39525,3232235528,177669985,1,1,0.94,-31.4687,-35.87423,1
1561775857.083221,39,0,0,1561775856.99794,4.634720678445543,-74.15109079338065,2554.079,0,241.875,3,10,-9999,1561775857.065206,-16.68727874755859,-16.19781494140625,17.202880859375,136.2988586425781,143.7916259765625,15,143632.423165375,-0.94189453125,0.3315277099609375,0.09539794921875,143632.410012375,0.06846534425208407,-0.03306474282998779,-0.01381940921253018,143632.402077375,-94.00148010253906,-46.69400024414062,-547.2286376953125,143632.415078375,-2.090523399813826,-1.669821897080648,-0.3524875016778019,0.06241605430841446,-0.03927581757307053,-0.02280846424400806,-0.008845269680023193,-0.01628446578979492,0.005862712860107422,1,0.6903210282325745,0.2642906606197357,0.5064690709114075,-0.4439554214477539,-0.9339190721511841,0.3452334403991699,0.09278535097837448,0,0,0,-1,143631.8849475417,3,2,1561775856.537354,1561774855.646675,311,1.727504,0.6177826,1.898393,266.5,0,0,1561775852.981537,143629.688938,0,-0.7160645,75.39525,3232235528,177669985,1,1,0.94,-31.4687,-36.07996,1
1561775857.103494,40,0,0,1561775856.99794,4.634720678445543,-74.15109079338065,2554.079,0,241.875,3,10,-9999,1561775857.090215,-16.38684844970703,-16.20686721801758,17.24371337890625,136.2047119140625,143.6974792480469,15,143632.443428375,-0.9335479736328125,0.3386993408203125,0.094085693359375,143632.430275375,0.05343952306574801,-0.0262390609561147,-0.02436313028426289,143632.422188375,-94.13160705566406,-46.73789978027344,-547.3815307617188,143632.435341375,-2.089303389416037,-1.670170591762948,-0.3520429090939219,0.05020519718527794,-0.0303994994610548,-0.02763304673135281,-0.00370490550994873,-0.01153364777565002,0.001234173774719238,1,0.6901991367340088,0.2649306654930115,0.5061818957328796,-0.4440909326076508,-0.9340392351150513,0.3448161482810974,0.09312621504068375,0,0,0,-1,143631.8849475417,3,2,1561775856.537354,1561774855.646675,311,1.727504,0.6177826,1.898393,266.5,0,0,1561775852.981537,143629.688938,0,-0.7160645,75.39525,3232235528,177669985,1,1,0.94,-31.4687,-36.45421,1
1561775857.123778,41,0,0,1561775856.99794,4.634720678445543,-74.15109079338065,2554.079,0,241.875,3,10,-9999,1561775857.115821,-16.49286651611328,-16.0043830871582,17.36895751953125,136.1237030029297,143.6164703369141,15,143632.463692375,-0.9296417236328125,0.3483123779296875,0.091888427734375,143632.450509375,0.05399825426244664,-0.01461649332679089,-0.01756860739514373,143632.442299375,-94.25270080566406,-46.51705932617188,-547.2050170898438,143632.455605375,-2.088166961058465,-1.670324368352688,-0.3516381171123104,0.05214877054095268,-0.02313040196895599,-0.01828322187066078,0.002157092094421387,0.0009008049964904785,-0.001059532165527344,1,0.6900428533554077,0.2654858231544495,0.5059713125228882,-0.444242388010025,-0.9341638684272766,0.3444361388683319,0.09328372031450272,0,0,0,-1,143631.8849475417,3,2,1561775856.537354,1561774855.646675,311,1.727504,0.6177826,1.898393,266.5,0,0,1561775852.981537,143629.688938,0,-0.7160645,75.39525,3232235528,177669985,1,1,0.94,-31.4687,-33.62448,1
1561775857.144016,42,0,0,1561775856.99794,4.634720678445543,-74.15109079338065,2554.079,0,241.875,3,10,-9999,1561775857.14022,-16.41407012939453,-16.24416732788086,17.169677734375,136.0293579101562,143.5221252441406,15,143632.483956375,-0.9288482666015625,0.3539276123046875,0.0940704345703125,143632.470772375,0.0642176023134077,-0.02552506746786446,-0.001749164203964044,143632.462410375,-94.16899108886719,-46.54170227050781,-547.3239135742188,143632.475869375,-2.086879642567171,-1.67047524858371,-0.351522529503454,0.06887368857860565,-0.0302056223154068,-0.003519454970955849,0.006683886051177979,0.007845222949981689,-0.002516746520996094,1,0.6898972392082214,0.2660002112388611,0.5056602954864502,-0.4445148408412933,-0.9341893792152405,0.3443276286125183,0.09342862665653229,0,0,0,-1,143631.8849475417,3,2,1561775856.537354,1561774855.646675,311,1.727504,0.6177826,1.898393,266.5,0,0,1561775852.981537,143629.688938,0,-0.7160645,75.39525,3232235528,177669985,1,1,0.94,-31.4687,-34.2794,1
1561775857.164305,43,0,0,1561775856.99794,4.634720678445543,-74.15109079338065,2554.079,0,241.875,3,10,-9999,1561775857.14022,-16.41407012939453,-16.24416732788086,17.169677734375,136.0293579101562,143.5221252441406,15,143632.504219375,-0.92852783203125,0.3492889404296875,0.095489501953125,143632.491036375,0.08643076264964961,-0.02805427155511271,0.01803013321205446,143632.482521375,-94.20616149902344,-46.43397521972656,-547.1393432617188,143632.496102375,-2.085208823250567,-1.670588394822615,-0.3517964109779472,0.09105195850133896,-0.02917098440229893,0.01529231667518616,0.0006741881370544434,0.007054060697555542,0.001110076904296875,1,0.689733624458313,0.2665145099163055,0.5051854252815247,-0.4450002312660217,-0.9340847730636597,0.3445847630500793,0.09352491050958633,0,0,0,-1,143631.8849475417,3,2,1561775856.537354,1561774855.646675,311,1.727504,0.6177826,1.898393,266.5,0,0,1561775852.981537,143629.688938,0,-0.7160645,75.39525,3232235528,177669985,1,1,0.94,-31.4687,-34.80259,1
1561775857.193119,44,0,0,1561775856.99794,4.634720678445543,-74.15109079338065,2554.079,0,241.875,3,10,-9999,1561775857.192017,-16.44983673095703,-16.09944915771484,17.1319580078125,135.7956085205078,143.2883758544922,15,143632.524483375,-0.927581787109375,0.3498687744140625,0.09295654296875,143632.511300375,0.08306186387069937,-0.02940209738280181,0.01433979088953166,143632.502633375,-94.25526428222656,-46.73799133300781,-547.3126220703125,143632.516365375,-2.083405462262187,-1.670646046606048,-0.3521821182270723,0.07269665598869324,-0.04061459004878998,0.01466274447739124,0.009127020835876465,0.004509985446929932,0.001908779144287109,1,0.6895502805709839,0.2670265138149261,0.5046734213829041,-0.4455579221248627,-0.933946967124939,0.3449468016624451,0.09356549382209778,0,0,0,-1,143631.8849475417,3,2,1561775856.537354,1561774855.646675,311,1.727504,0.6177826,1.898393,266.5,0,0,1561775852.981537,143629.688938,0,-0.7160645,75.39525,3232235528,177669985,1,1,0.94,-31.4687,-35.70999,1
1561775857.208757,45,0,0,1561775856.99794,4.634720678445543,-74.15109079338065,2554.079,0,241.875,3,10,-9999,1561775857.192017,-16.44983673095703,-16.09944915771484,17.1319580078125,135.7956085205078,143.2883758544922,15,143632.544747375,-0.9298858642578125,0.3477935791015625,0.094085693359375,143632.531563375,0.06159092653026254,-0.0411146798569703,0.01972390366534485,143632.522744375,-94.27479553222656,-46.79594421386719,-547.2464599609375,143632.536629375,-2.082077174607981,-1.671147813354567,-0.3526457272598066,0.06356707215309143,-0.05177882686257362,0.01821194030344486,0.004312694072723389,0.002259045839309692,-0.001107335090637207,1,0.6895506381988525,0.2674489915370941,0.5040954351425171,-0.4459582269191742,-0.9337407946586609,0.3453819155693054,0.09401809424161911,0,0,0,-1,143631.8849475417,3,2,1561775856.537354,1561774855.646675,311,1.727504,0.6177826,1.898393,266.5,0,0,1561775852.981537,143629.688938,0,-0.7160645,75.39525,3232235528,177669985,1,1,0.94,-31.4687,-36.29638,1
1561775857.225113,46,0,0,1561775856.99794,4.634720678445543,-74.15109079338065,2554.079,0,241.875,3,10,-9999,1561775857.21708,-16.497802734375,-16.14764404296875,17.40570068359375,135.6914978027344,143.1842651367188,15,143632.565010375,-0.9331512451171875,0.34637451171875,0.0929107666015625,143632.551827375,0.07894701367041794,-0.04132586853141359,0.020770792289855,143632.542855375,-94.25137329101562,-46.64846801757812,-547.181884765625,143632.556893375,-2.080542628044728,-1.671611861645157,-0.3531728066429257,0.08599141985177994,-0.04831884801387787,0.02041064575314522,0.0009289979934692383,0.003244549036026001,-0.0009729862213134766,1,0.689520537853241,0.2679140567779541,0.503468930721283,-0.4464329183101654,-0.9335156679153442,0.3458765149116516,0.0944330245256424,0,0,0,-1,143631.8849475417,3,2,1561775856.537354,1561774855.646675,311,1.727504,0.6177826,1.898393,266.5,0,0,1561775852.981537,143629.688938,0,-0.7160645,75.39525,3232235528,177669985,1,1,0.94,-31.4687,-36.29638,1
1561775857.245352,47,0,0,1561775856.99794,4.634720678445543,-74.15109079338065,2554.079,0,241.875,3,10,-9999,1561775857.241448,-16.42959594726562,-15.84955596923828,17.567138671875,135.5404663085938,143.0332336425781,15,143632.585274375,-0.9297332763671875,0.3405303955078125,0.093841552734375,143632.572091375,0.106475044594131,-0.03853647360566459,0.02752536776262297,143632.562966375,-94.17155456542969,-46.59500122070312,-546.6995849609375,143632.577156375,-2.078468724071279,-1.67183421130251,-0.3538855982605736,0.1067816540598869,-0.04359200224280357,0.02476811036467552,0.0008760690689086914,-0.002810508012771606,-0.003597021102905273,1,0.6893774271011353,0.2684522569179535,0.5027609467506409,-0.4471279680728912,-0.9332491159439087,0.3465452492237091,0.09461570531129837,0,0,0,-1,143631.8849475417,3,2,1561775856.537354,1561774855.646675,311,1.727504,0.6177826,1.898393,266.5,0,0,1561775852.981537,143629.688938,0,-0.7160645,75.39525,3232235528,177669985,1,1,0.94,-31.4687,-31.4687,1
1561775857.271841,48,0,0,1561775856.99794,4.634720678445543,-74.15109079338065,2554.079,0,241.875,3,10,-9999,1561775857.267817,-16.59083557128906,-16.06187057495117,17.7747802734375,135.374267578125,142.8670349121094,15,143632.605507375,-0.927734375,0.3335113525390625,0.0957489013671875,143632.592354375,0.1101067973726721,-0.0378610959532205,0.02633067369761343,143632.583107375,-94.06051635742188,-46.35185241699219,-546.7731323242188,143632.597420375,-2.076195721562502,-1.671953445137769,-0.3545823363700769,0.1085284203290939,-0.04983045905828476,0.02122077904641628,0.003264069557189941,-0.01004049181938171,8.702278137207031e-06,1,0.6891793608665466,0.2690410614013672,0.5020467042922974,-0.447881281375885,-0.9329973459243774,0.3471987247467041,0.09470257163047791,0,0,0,-1,143631.8849475417,3,2,1561775856.537354,1561774855.646675,311,1.727504,0.6177826,1.898393,266.5,0,0,1561775852.981537,143629.688938,0,-0.7160645,75.39525,3232235528,177669985,1,1,0.94,-31.4687,-31.91323,1
1561775857.286316,49,0,0,1561775856.99794,4.634720678445543,-74.15109079338065,2554.079,0,241.875,3,10,-9999,1561775857.267817,-16.59083557128906,-16.06187057495117,17.7747802734375,135.374267578125,142.8670349121094,15,143632.625771375,-0.922607421875,0.3324737548828125,0.0943145751953125,143632.612618375,0.1173431386866354,-0.04939391505380864,0.01307958306170616,143632.603218375,-93.88505554199219,-46.64395141601562,-546.6995239257812,143632.617684375,-2.073757263995852,-1.672203400949275,-0.3551101407076864,0.1195054426789284,-0.05581138655543327,0.002969603287056088,0.007467865943908691,-0.01492995023727417,-0.0005110502243041992,1,0.6889723539352417,0.2697697281837463,0.5012892484664917,-0.4486094117164612,-0.9327913522720337,0.3476936221122742,0.09491722285747528,0,0,0,-1,143631.8849475417,3,2,1561775856.537354,1561774855.646675,311,1.727504,0.6177826,1.898393,266.5,0,0,1561775852.981537,143629.688938,0,-0.7160645,75.39525,3232235528,177669985,1,1,0.94,-31.4687,-32.35065,1
1561775857.338863,50,0,0,1561775856.99794,4.634720678445543,-74.15109079338065,2554.079,0,241.875,3,10,-9999,1561775857.292209,-16.37912750244141,-16.00868606567383,17.88214111328125,135.1937866210938,142.6865539550781,15,143632.646035375,-0.92926025390625,0.34228515625,0.091796875,143632.632882375,0.1128352059094582,-0.05943349973118935,-0.001755289474471226,143632.623330375,-94.44442749023438,-46.53401184082031,-546.6292724609375,143632.637947375,-2.071264606895863,-1.672606468954299,-0.3552770697301898,0.10638377815485,-0.07074905186891556,-0.001523415674455464,0.009965837001800537,-0.01163798570632935,-0.003170013427734375,1,0.6887551546096802,0.2706658244132996,0.5005514025688171,-0.4492267370223999,-0.9326953887939453,0.3478501439094543,0.09528730064630508,0,0,0,-1,143631.8849475417,3,2,1561775856.537354,1561774855.646675,311,1.727504,0.6177826,1.898393,266.5,0,0,1561775852.981537,143629.688938,0,-0.7160645,75.39525,3232235528,177669985,1,1,0.94,-31.4687,-33.54383,1
1561775857.339858,51,0,0,1561775856.99794,4.634720678445543,-74.15109079338065,2554.079,0,241.875,3,10,-9999,1561775857.318509,-16.26430511474609,-15.91485977172852,17.6651611328125,135.0357055664062,142.5284729003906,15,143632.666298375,-0.9289703369140625,0.3442230224609375,0.091400146484375,143632.653115375,0.09854947719005519,-0.04981789029934925,-0.004746285694739219,143632.643441375,-93.96476745605469,-46.44581604003906,-547.0367431640625,143632.658211375,-2.069067602723593,-1.673074175751071,-0.3553715674131208,0.0949268639087677,-0.05218895524740219,-0.01342747919261456,0.003739237785339355,-0.003929346799850464,-0.003572344779968262,1,0.6885849237442017,0.2714974880218506,0.4998741745948792,-0.4497396647930145,-0.9326180219650269,0.347938746213913,0.09572016447782516,0,0,0,-1,143631.8849475417,3,2,1561775856.537354,1561774855.646675,311,1.727504,0.6177826,1.898393,266.5,0,0,1561775852.981537,143629.688938,0,-0.7160645,75.39525,3232235528,177669985,1,1,0.94,-31.4687,-33.54383,1
1561775857.351264,52,0,0,1561775856.99794,4.634720678445543,-74.15109079338065,2554.079,0,241.875,3,10,-9999,1561775857.342809,-16.28354644775391,-15.83785629272461,17.60498046875,134.9254302978516,142.4181976318359,15,143632.686562375,-0.9325103759765625,0.3478546142578125,0.08575439453125,143632.673378375,0.06833538199088822,-0.02862765013780677,-0.007120227490435851,143632.663521375,-94.0234375,-46.60650634765625,-547.03076171875,143632.678475375,-2.067390763655705,-1.673322296272381,-0.3552641334716053,0.05445666611194611,-0.03259234875440598,-0.004094431176781654,0.002562463283538818,-0.001402437686920166,-0.007164478302001953,1,0.6884069442749023,0.2721646130084991,0.4994370937347412,-0.4500944018363953,-0.9326314926147461,0.3478380143642426,0.09595539420843124,0,0,0,-1,143631.8849475417,3,2,1561775856.537354,1561774855.646675,311,1.727504,0.6177826,1.898393,266.5,0,0,1561775852.981537,143629.688938,0,-0.7160645,75.39525,3232235528,177669985,1,1,0.94,-31.4687,-34.23671,1
1561775857.366864,53,0,0,1561775856.99794,4.634720678445543,-74.15109079338065,2554.079,0,241.875,3,10,-9999,1561775857.342809,-16.28354644775391,-15.83785629272461,17.60498046875,134.9254302978516,142.4181976318359,15,143632.706826375,-0.9276580810546875,0.3519744873046875,0.088165283203125,143632.693642375,0.04301378003030581,-0.01231046213889128,0.007879494717217442,143632.683632375,-93.80793762207031,-46.34747314453125,-546.924072265625,143632.698708375,-2.066448447752891,-1.673501894502049,-0.3553545094823191,0.03918450325727463,-0.01480163261294365,0.004593599587678909,0.00317007303237915,3.868341445922852e-05,-0.01002955436706543,1,0.6883336305618286,0.2725007236003876,0.4991416335105896,-0.4503307938575745,-0.9325828552246094,0.3479227423667908,0.09611966460943222,0,0,0,-1,143631.8849475417,3,2,1561775856.537354,1561774855.646675,311,1.727504,0.6177826,1.898393,266.5,0,0,1561775852.981537,143629.688938,0,-0.7160645,75.39525,3232235528,177669985,1,1,0.94,-31.4687,-34.23671,1
1561775857.387132,54,0,0,1561775856.99794,4.634720678445543,-74.15109079338065,2554.079,0,241.875,3,10,-9999,1561775857.369203,-16.52206420898438,-15.61807632446289,17.72344970703125,134.8657836914062,142.3585510253906,15,143632.727089375,-0.9302825927734375,0.3504486083984375,0.0889129638671875,143632.713906375,0.03643231002839298,-0.002869023442342363,0.01380076708489962,143632.703743375,-94.00108337402344,-46.13717651367188,-546.9376831054688,143632.718972375,-2.065704018920282,-1.673461485725017,-0.3555454497455301,0.0328187495470047,-0.01156695745885372,0.01180171128362417,0.003016173839569092,0.00541388988494873,-0.009283185005187988,1,0.688243567943573,0.2726873159408569,0.4989424049854279,-0.4505761563777924,-0.9325206279754639,0.3481017649173737,0.09607516229152679,0,0,0,-1,143631.8849475417,3,2,1561775856.537354,1561774855.646675,311,1.727504,0.6177826,1.898393,266.5,0,0,1561775852.981537,143629.688938,0,-0.7160645,75.39525,3232235528,177669985,1,1,0.94,-31.37301,-34.78246,1
1561775857.407537,55,0,0,1561775856.99794,4.634720678445543,-74.15109079338065,2554.079,0,241.875,3,10,-9999,1561775857.393418,-16.40486145019531,-15.84861755371094,17.7369384765625,134.8154144287109,142.3081817626953,15,143632.747353375,-0.924102783203125,0.3516845703125,0.095184326171875,143632.734169375,0.03566505331834116,0.0007283745581366716,0.005604888830180765,143632.723854375,-94.21343994140625,-46.48062133789062,-546.6937255859375,143632.739235375,-2.064961125584606,-1.673346677282903,-0.3557500456644015,0.03395698219537735,-0.001281030476093292,-0.002827565651386976,0.006099820137023926,0.0007359683513641357,-0.004209756851196289,1,0.6881366372108459,0.2728523015975952,0.4987658262252808,-0.4508351385593414,-0.9324609041213989,0.3482935428619385,0.0959608182311058,0,0,0,-1,143631.8849475417,3,2,1561775856.537354,1561774855.646675,311,1.727504,0.6177826,1.898393,266.5,0,0,1561775852.981537,143629.688938,0,-0.7160645,75.39525,3232235528,177669985,1,1,0.94,-31.37301,-35.52294,1
1561775857.434971,56,0,0,1561775856.99794,4.634720678445543,-74.15109079338065,2554.079,0,241.875,3,10,-9999,1561775857.420263,-16.33439636230469,-15.75149917602539,17.78265380859375,134.7691802978516,142.2619476318359,15,143632.767617375,-0.924285888671875,0.3518218994140625,0.0973052978515625,143632.754433375,0.02877092820445304,0.006477340403290724,0.001492169158771397,143632.743966375,-93.82789611816406,-46.25245666503906,-546.883544921875,143632.759499375,-2.06431930965953,-1.673082910483379,-0.355745250641938,0.02485056966543198,-0.000795003492385149,0.0001413263380527496,0.008751153945922852,0.003746509552001953,0.002185344696044922,1,0.6879827380180359,0.2730151414871216,0.4987129867076874,-0.4510298073291779,-0.9324877858161926,0.3482890427112579,0.09571503102779388,0,0,0,-1,143631.8849475417,3,2,1561775856.537354,1561774855.646675,311,1.727504,0.6177826,1.898393,266.5,0,0,1561775852.981537,143629.688938,0,-0.7160645,75.39525,3232235528,177669985,1,1,0.94,-31.37301,-35.85379,1
1561775857.447969,57,0,0,1561775856.99794,4.634720678445543,-74.15109079338065,2554.079,0,241.875,3,10,-9999,1561775857.444173,-16.438232421875,-15.65440368652344,17.83160400390625,134.7296905517578,142.2224578857422,15,143632.787880375,-0.9207763671875,0.3557281494140625,0.1021575927734375,143632.774697375,0.02850620999209916,0.01113014914376816,0.003713778140115498,143632.764077375,-94.24551391601562,-46.46005249023438,-546.9219360351562,143632.779763375,-2.063749748426392,-1.672810108200546,-0.3558148981559183,0.02618001773953438,0.006096724886447191,0.0009951356332749128,0.009668588638305664,0.005908966064453125,0.006134867668151855,1,0.6878448128700256,0.2731274366378784,0.4986617267131805,-0.4512287676334381,-0.9324896931648254,0.3483543395996094,0.09545816481113434,0,0,0,-1,143631.8849475417,3,2,1561775856.537354,1561774855.646675,311,1.727504,0.6177826,1.898393,266.5,0,0,1561775852.981537,143629.688938,0,-0.7160645,75.39525,3232235528,177669985,1,1,0.94,-31.37301,-35.75708,1
1561775857.468201,58,0,0,1561775856.99794,4.634720678445543,-74.15109079338065,2554.079,0,241.875,3,10,-9999,1561775857.444173,-16.438232421875,-15.65440368652344,17.83160400390625,134.7296905517578,142.2224578857422,15,143632.808113375,-0.925201416015625,0.357818603515625,0.1021575927734375,143632.794960375,0.01290541232641498,0.01230513581671112,0.01335282338954829,143632.784188375,-93.83203125,-46.43739318847656,-546.8258056640625,143632.800026375,-2.063372463423935,-1.672536728538112,-0.3560064877725267,0.00793496984988451,0.006228019017726183,0.01413011364638805,0.01023858785629272,0.008964240550994873,0.00606083869934082,1,0.6877467632293701,0.2731347978115082,0.4986249208450317,-0.4514143764972687,-0.9324492812156677,0.3485339283943176,0.09519645571708679,0,0,0,-1,143631.8849475417,3,2,1561775856.537354,1561774855.646675,311,1.727504,0.6177826,1.898393,266.5,0,0,1561775852.981537,143629.688938,0,-0.7160645,75.39525,3232235528,177669985,1,1,0.94,-31.37301,-35.95977,1
1561775857.488473,59,0,0,1561775856.99794,4.634720678445543,-74.15109079338065,2554.079,0,241.875,3,10,-9999,1561775857.470497,-16.39051818847656,-15.83813095092773,17.83770751953125,134.7154388427734,142.2082061767578,15,143632.828377375,-0.926727294921875,0.3536224365234375,0.105499267578125,143632.815224375,0.003855458310107713,0.014048707382386,0.03438993178841122,143632.804299375,-94.01933288574219,-46.32290649414062,-546.747314453125,143632.820290375,-2.063350046488397,-1.672397010176029,-0.3565121481979047,0.00289333937689662,-0.001893823500722647,0.03604846075177193,0.004995346069335938,0.00713232159614563,0.009260773658752441,1,0.6877659559249878,0.2729507982730865,0.498547375202179,-0.451582133769989,-0.9322872161865234,0.3490078151226044,0.09504829347133636,0,0,0,-1,143631.8849475417,3,2,1561775856.537354,1561774855.646675,311,1.727504,0.6177826,1.898393,266.5,0,0,1561775852.981537,143629.688938,0,-0.7160645,75.39525,3232235528,177669985,1,1,0.94,-31.37301,-36.23106,1
1561775857.515602,60,0,0,1561775856.99794,4.634720678445543,-74.15109079338065,2554.079,0,241.875,3,10,-9999,1561775857.495372,-16.33374786376953,-15.64577484130859,17.841552734375,134.7200164794922,142.2127838134766,15,143632.848641375,-0.933319091796875,0.3450469970703125,0.1057586669921875,143632.835488375,0.00987313710925076,-0.01170299509424421,0.04696644372020142,143632.824410375,-94.14985656738281,-46.34294128417969,-546.8089599609375,143632.840554375,-2.063364765372345,-1.672677052830148,-0.357365844619964,0.01056111231446266,-0.01998281292617321,0.03934731706976891,0.0002315044403076172,0.0023956298828125,0.01218867301940918,1,0.6879340410232544,0.2727384567260742,0.4982506930828094,-0.4517816603183746,-0.9319636821746826,0.3498077094554901,0.0952790230512619,0,0,0,-1,143631.8849475417,3,2,1561775856.537354,1561774855.646675,311,1.727504,0.6177826,1.898393,266.5,0,0,1561775852.981537,143629.688938,0,-0.7160645,75.39525,3232235528,177669985,1,1,0.94,-31.37301,-36.78995,1
1561775857.529067,61,0,0,1561775856.99794,4.634720678445543,-74.15109079338065,2554.079,0,241.875,3,10,-9999,1561775857.521203,-16.42790985107422,-15.64095306396484,17.869873046875,134.7020416259766,142.1948089599609,15,143632.868905375,-0.9332122802734375,0.3378753662109375,0.098846435546875,143632.855721375,0.02251116806222178,-0.01267904363375824,0.02619112405649327,143632.844521375,-94.23049926757812,-46.26271057128906,-546.71484375,143632.860817375,-2.063066667383008,-1.673000944760303,-0.3579990673567143,0.01966246590018272,-0.01942035369575024,0.01930676586925983,-0.001789987087249756,-0.0105571448802948,0.00675201416015625,1,0.6880453824996948,0.2727135419845581,0.4979207813739777,-0.4519907832145691,-0.9317122101783752,0.3504008650779724,0.09555824846029282,0,0,0,-1,143631.8849475417,3,2,1561775856.537354,1561774855.646675,311,1.727504,0.6177826,1.898393,266.5,0,0,1561775852.981537,143629.688938,0,-0.7160645,75.39525,3232235528,177669985,1,1,0.94,-31.37301,-36.78995,1
1561775857.549306,62,0,0,1561775856.99794,4.634720678445543,-74.15109079338065,2554.079,0,241.875,3,10,-9999,1561775857.545535,-16.37014007568359,-15.5935173034668,17.8798828125,134.6674041748047,142.1601715087891,15,143632.889168375,-0.9246978759765625,0.3407745361328125,0.0971527099609375,143632.875985375,0.02554610644047609,-0.004163586048229881,0.006260559090558273,143632.864632375,-94.05955505371094,-46.19110107421875,-546.7178955078125,143632.881081375,-2.062598710032825,-1.673146715841276,-0.3582658708571688,0.02746978774666786,-0.008450792171061039,-0.001997724641114473,0.001826167106628418,-0.01420968770980835,0.0004305839538574219,1,0.6880478858947754,0.2728229463100433,0.4977011382579803,-0.4521628022193909,-0.9316052198410034,0.3506507277488708,0.09568450599908829,0,0,0,-1,143631.8849475417,3,2,1561775856.537354,1561774855.646675,311,1.727504,0.6177826,1.898393,266.5,0,0,1561775852.981537,143629.688938,0,-0.7160645,75.39525,3232235528,177669985,1,1,0.94,-31.37301,-35.67535,1
1561775857.569551,63,0,0,1561775856.99794,4.634720678445543,-74.15109079338065,2554.079,0,241.875,3,10,-9999,1561775857.545535,-16.37014007568359,-15.5935173034668,17.8798828125,134.6674041748047,142.1601715087891,15,143632.90944,-0.9254150390625,0.3512420654296875,0.096221923828125,143632.896248375,0.03530552657118046,0.00359420220717094,-0.0008897621201954735,143632.884743375,-93.88911437988281,-46.04023742675781,-546.6328735351562,143632.901314375,-2.061930498493998,-1.673048474007104,-0.3582563895073217,0.037069421261549,-0.006769538857042789,0.002584510250017047,0.007789850234985352,-0.003489166498184204,0.0005522966384887695,1,0.6879311800003052,0.273033618927002,0.4975861310958862,-0.4523398280143738,-0.9316179752349854,0.3506418466567993,0.09559333324432373,0,0,0,-1,143631.8849475417,3,2,1561775856.537354,1561774855.646675,311,1.727504,0.6177826,1.898393,266.5,0,0,1561775852.981537,143629.688938,0,-0.7160645,75.39525,3232235528,177669985,1,1,0.94,-31.37301,-36.09373,1
1561775857.599137,64,0,0,1561775856.99794,4.634720678445543,-74.15109079338065,2554.079,0,241.875,3,10,-9999,1561775857.596401,-16.38339996337891,-15.52851104736328,17.7099609375,134.5649871826172,142.0577545166016,15,143632.929704,-0.9241790771484375,0.355010986328125,0.092803955078125,143632.91652,0.04324627399346972,-0.00248978930311508,0.02484596138989425,143632.904832,-94.19364929199219,-46.06236267089844,-546.7154541015625,143632.921586,-2.061117991900732,-1.672966084804575,-0.3586620434535376,0.03869767487049103,-0.01157201733440161,0.02351509220898151,0.007839381694793701,0.002295523881912231,-0.001294374465942383,1,0.6878454685211182,0.2731659710407257,0.4973337352275848,-0.4526678323745728,-0.9314844012260437,0.3510217368602753,0.09550207108259201,0,0,0,-1,143631.8849475417,3,2,1561775856.537354,1561774855.646675,311,1.727504,0.6177826,1.898393,266.5,0,0,1561775852.981537,143629.688938,0,-0.7160645,75.39525,3232235528,177669985,1,1,0.94,-31.37301,-34.62222,1
1561775857.610248,65,0,0,1561775856.99794,4.634720678445543,-74.15109079338065,2554.079,0,241.875,3,10,-9999,1561775857.596401,-16.38339996337891,-15.52851104736328,17.7099609375,134.5649871826172,142.0577545166016,15,143632.949967,-0.931060791015625,0.349761962890625,0.0912322998046875,143632.936784,0.02536794096354978,-0.001545432380572982,0.0319054688074763,143632.924943,-94.06715393066406,-46.10702514648438,-546.9107666015625,143632.94185,-2.060526068587605,-1.672979048993428,-0.3592251460642453,0.02053545042872429,-0.00642545847222209,0.02755857072770596,0.001309096813201904,0.001691997051239014,-0.00363612174987793,1,0.6878313422203064,0.2731941342353821,0.497060626745224,-0.4529722630977631,-0.9312865138053894,0.3515489399433136,0.09549397975206375,0,0,0,-1,143631.8849475417,3,2,1561775856.537354,1561774855.646675,311,1.727504,0.6177826,1.898393,266.5,0,0,1561775852.981537,143629.688938,0,-0.7160645,75.39525,3232235528,177669985,1,1,0.94,-31.37301,-34.63172,1
1561775857.630694,66,0,0,1561775856.99794,4.634720678445543,-74.15109079338065,2554.079,0,241.875,3,10,-9999,1561775857.622698,-16.25431060791016,-15.43033599853516,18.11785888671875,134.5432586669922,142.0360260009766,15,143632.970231,-0.9336090087890625,0.3504638671875,0.0939178466796875,143632.957047,0.01309023570606648,0.004550543354618394,0.0208648018763348,143632.945054,-93.79991149902344,-46.05451965332031,-546.5126953125,143632.962113,-2.060254006324358,-1.672969382595932,-0.359624954784636,0.01445225719362497,0.001165882218629122,0.01448804140090942,-0.001897215843200684,-0.001825541257858276,-0.002605676651000977,1,0.6878368854522705,0.2731587886810303,0.4969065487384796,-0.4531539380550385,-0.9311472773551941,0.3519231975078583,0.0954706072807312,0,0,0,-1,143631.8849475417,3,2,1561775856.537354,1561774855.646675,311,1.727504,0.6177826,1.898393,266.5,0,0,1561775852.981537,143629.688938,0,-0.7160645,75.39525,3232235528,177669985,1,1,0.94,-29.35615,-35.39366,1
1561775857.650747,67,0,0,1561775856.99794,4.634720678445543,-74.15109079338065,2554.079,0,241.875,3,10,-9999,1561775857.647619,-16.59416198730469,-15.53070449829102,17.87969970703125,134.5248107910156,142.017578125,15,143632.990495,-0.9281463623046875,0.35455322265625,0.094451904296875,143632.977311,0.01539520162953006,0.003190200669805919,0.01376827651960065,143632.965165,-94.15890502929688,-46.00971984863281,-546.4002075195312,143632.982377,-2.059979727436032,-1.672905655476772,-0.359863426001045,0.01181146688759327,-0.005624113604426384,0.00814545713365078,0.0002532005310058594,0.0002553462982177734,-0.001149177551269531,1,0.687810480594635,0.2731631398200989,0.4968092441558838,-0.4532980918884277,-0.9310698509216309,0.3521464169025421,0.09540271759033203,0,0,0,-1,143631.8849475417,3,2,1561775856.537354,1561774855.646675,311,1.727504,0.6177826,1.898393,266.5,0,0,1561775852.981537,143629.688938,0,-0.7160645,75.39525,3232235528,177669985,1,1,0.94,-29.35615,-36.00103,1
1561775857.685987,68,0,0,1561775856.99794,4.634720678445543,-74.15109079338065,2554.079,0,241.875,3,10,-9999,1561775857.673428,-16.42142486572266,-15.56896591186523,17.92315673828125,134.5282287597656,142.02099609375,15,143633.010728,-0.9297943115234375,0.3562774658203125,0.097198486328125,143632.997575,0.0005456817073572359,-0.0008245146734885321,0.01001881202087809,143632.985276,-94.01655578613281,-46.15480041503906,-546.64697265625,143633.002641,-2.059906657074941,-1.673048702063883,-0.3600258801743899,-0.002052150899544358,-0.004128215834498405,0.007912164553999901,0.002547740936279297,0.002407371997833252,-0.0004372596740722656,1,0.6878543496131897,0.273169219493866,0.4967045783996582,-0.4533425271511078,-0.9309992790222168,0.3522984683513641,0.09553005546331406,0,0,0,-1,143631.8849475417,3,2,1561775856.537354,1561774855.646675,311,1.727504,0.6177826,1.898393,266.5,0,0,1561775852.981537,143629.688938,0,-0.7160645,75.39525,3232235528,177669985,1,1,0.94,-29.35615,-33.99379,1
1561775857.691308,69,0,0,1561775856.99794,4.634720678445543,-74.15109079338065,2554.079,0,241.875,3,10,-9999,1561775857.673428,-16.42142486572266,-15.56896591186523,17.92315673828125,134.5282287597656,142.02099609375,15,143633.030991,-0.92779541015625,0.3590240478515625,0.1002960205078125,143633.017838,-0.009066731931174767,0.01553235442566914,0.01509666127133218,143633.005387,-94.22514343261719,-45.82902526855469,-546.7322387695312,143633.022904,-2.060096558651833,-1.672986043847315,-0.3602178616402563,-0.01183953415602446,0.0132417194545269,0.01366512477397919,0.002410054206848145,0.003997713327407837,0.002038836479187012,1,0.6878863573074341,0.2730288803577423,0.4967232048511505,-0.4533580839633942,-0.9309379458427429,0.3524781167507172,0.09546481817960739,0,0,0,-1,143631.8849475417,3,2,1561775856.537354,1561774855.646675,311,1.727504,0.6177826,1.898393,266.5,0,0,1561775852.981537,143629.688938,0,-0.7160645,75.39525,3232235528,177669985,1,1,0.94,-29.35615,-33.99379,1
1561775857.711487,70,0,0,1561775856.99794,4.634720678445543,-74.15109079338065,2554.079,0,241.875,3,10,-9999,1561775857.697768,-16.43148803710938,-15.45835113525391,17.8289794921875,134.5452728271484,142.0380401611328,15,143633.051255,-0.9261627197265625,0.3574066162109375,0.104400634765625,143633.038102,-0.006482134093252866,0.02926547721888075,0.02422491222368777,143633.025498,-93.98014831542969,-45.893310546875,-546.620361328125,143633.043168,-2.060322471603262,-1.672635886497789,-0.3605603300467982,-0.01189279742538929,0.02100030705332756,0.02705576457083225,0.004230856895446777,0.006713747978210449,0.009640216827392578,1,0.6878687739372253,0.2727633416652679,0.4968129396438599,-0.4534464478492737,-0.9308513402938843,0.3527985811233521,0.09512658417224884,0,0,0,-1,143631.8849475417,3,2,1561775856.537354,1561774855.646675,311,1.727504,0.6177826,1.898393,266.5,0,0,1561775852.981537,143630.634503,0,-0.7211914,75.3953,3232235528,177669985,1,1,0.94,-29.35615,-34.60154,1
1561775857.732039,71,0,0,1561775856.99794,4.634720678445543,-74.15109079338065,2554.079,0,241.875,3,10,-9999,1561775857.723937,-16.35041046142578,-15.57947158813477,18.13568115234375,134.5760650634766,142.0688323974609,15,143633.071519,-0.923492431640625,0.354400634765625,0.103668212890625,143633.058335,-0.02194125158894483,0.01794224889608185,0.0351388126869415,143633.045609,-94.1435546875,-46.03274536132812,-546.6345825195312,143633.063432,-2.060788322568261,-1.672501312397034,-0.3611446833479989,-0.02510473877191544,0.007060789037495852,0.02889308147132397,0.005991280078887939,0.001772522926330566,0.01050364971160889,1,0.6879646182060242,0.2723873257637024,0.4968248605728149,-0.4535138010978699,-0.9306586980819702,0.3533453047275543,0.09498034417629242,0,0,0,-1,143631.8849475417,3,2,1561775856.537354,1561774855.646675,311,1.727504,0.6177826,1.898393,266.5,0,0,1561775852.981537,143630.634503,0,-0.7211914,75.3953,3232235528,177669985,1,1,0.94,-29.35615,-32.00396,1
1561775857.775753,72,0,0,1561775856.99794,4.634720678445543,-74.15109079338065,2554.079,0,241.875,3,10,-9999,1561775857.761019,-16.37501525878906,-15.40427780151367,17.93182373046875,134.6178741455078,142.1106414794922,15,143633.091782,-0.9267120361328125,0.355224609375,0.097991943359375,143633.078599,-0.02216735396549255,0.01635340698974057,0.02357749776268951,143633.06572,-94.00048828125,-46.01043701171875,-546.7509155273438,143633.083695,-2.061375187211319,-1.672555445343693,-0.3615538381552414,-0.02404000610113144,0.008848836645483971,0.01950703561306,0.005171060562133789,0.0001080334186553955,0.006241321563720703,1,0.6881039142608643,0.272068053483963,0.4968414306640625,-0.4534761309623718,-0.9305098056793213,0.3537280261516571,0.09501604735851288,0,0,0,-1,143631.8849475417,3,2,1561775856.537354,1561774855.646675,311,1.727504,0.6177826,1.898393,266.5,0,0,1561775852.981537,143630.634503,0,-0.7211914,75.3953,3232235528,177669985,1,1,0.94,-28.45074,-33.28619,1
1561775857.779262,73,0,0,1561775856.99794,4.634720678445543,-74.15109079338065,2554.079,0,241.875,3,10,-9999,1561775857.761019,-16.37501525878906,-15.40427780151367,17.93182373046875,134.6178741455078,142.1106414794922,15,143633.112046,-0.9234466552734375,0.3580780029296875,0.0941162109375,143633.098862,-0.0146401954604926,0.01535765105815994,0.02301157603104767,143633.085831,-94.05987548828125,-46.17420959472656,-546.8037719726562,143633.103928,-2.061848350129389,-1.672536174340994,-0.3619026108866129,-0.01489364728331566,0.009485598653554916,0.01457326300442219,0.00259321928024292,0.00301671028137207,-0.002044320106506348,1,0.6882026195526123,0.2717902362346649,0.4968717694282532,-0.4534595012664795,-0.9303886294364929,0.3540542423725128,0.09498555958271027,0,0,0,-1,143631.8849475417,3,2,1561775856.537354,1561774855.646675,311,1.727504,0.6177826,1.898393,266.5,0,0,1561775852.981537,143630.634503,0,-0.7211914,75.3953,3232235528,177669985,1,1,0.94,-28.45074,-33.28619,1
1561775857.7927,74,0,0,1561775856.99794,4.634720678445543,-74.15109079338065,2554.079,0,241.875,3,10,-9999,1561775857.761019,-16.37501525878906,-15.40427780151367,17.93182373046875,134.6178741455078,142.1106414794922,15,143633.13231,-0.92022705078125,0.3630828857421875,0.09832763671875,143633.119126,-0.008745821019820217,0.0237687127289572,0.01979128164092386,143633.105943,-94.23480224609375,-46.07156372070312,-546.7684936523438,143633.124192,-2.062144498743852,-1.672375897447443,-0.3622330188839893,-0.009862137027084827,0.01468941383063793,0.02104394510388374,0.01103723049163818,0.00691908597946167,0.001534700393676758,1,0.6882400512695312,0.2715472877025604,0.4969151020050049,-0.4535010159015656,-0.9302877187728882,0.3543632328510284,0.09482459723949432,0,0,0,-1,143631.8849475417,3,2,1561775856.537354,1561774855.646675,311,1.727504,0.6177826,1.898393,266.5,0,0,1561775852.981537,143630.634503,0,-0.7211914,75.3953,3232235528,177669985,1,1,0.94,-28.45074,-33.86057,1
1561775857.812883,75,0,0,1561775856.99794,4.634720678445543,-74.15109079338065,2554.079,0,241.875,3,10,-9999,1561775857.79956,-16.37425994873047,-15.55631256103516,17.72637939453125,134.6752166748047,142.1679840087891,15,143633.152573,-0.9219207763671875,0.3595428466796875,0.101470947265625,143633.13939,-0.01865784028098614,0.01032640712678225,0.04498505186918246,143633.126054,-94.06486511230469,-46.00569152832031,-546.588623046875,143633.144456,-2.062616026979375,-1.672441107986647,-0.3629163365517319,-0.02170787751674652,0.003531035501509905,0.04519455134868622,0.007738113403320312,0.007623016834259033,0.005481123924255371,1,0.6883967518806458,0.271183043718338,0.4968360066413879,-0.4535677433013916,-0.9300403594970703,0.3550021350383759,0.09486066550016403,0,0,0,-1,143631.8849475417,3,2,1561775856.537354,1561774855.646675,311,1.727504,0.6177826,1.898393,266.5,0,0,1561775852.981537,143630.634503,0,-0.7211914,75.3953,3232235528,177669985,1,1,0.94,-28.45074,-33.83811,1
1561775857.856881,76,0,0,1561775856.99794,4.634720678445543,-74.15109079338065,2554.079,0,241.875,3,10,-9999,1561775857.827267,-16.49801635742188,-15.59755325317383,17.8427734375,134.72314453125,142.2159118652344,15,143633.172837,-0.928802490234375,0.3545379638671875,0.09759521484375,143633.159653,-0.02682229323484206,0.009099488812582742,0.05107783181106574,143633.146165,-94.05935668945312,-46.08708190917969,-546.7636108398438,143633.164719,-2.063300554887384,-1.672650983701181,-0.3637865481889835,-0.02347302064299583,0.003873784560710192,0.04534688591957092,0.001825630664825439,0.0005687475204467773,0.004722356796264648,1,0.6886388659477234,0.2707188725471497,0.4967106282711029,-0.4536146819591522,-0.9297125935554504,0.3558155298233032,0.09502439200878143,0,0,0,-1,143631.8849475417,3,2,1561775856.537354,1561774855.646675,311,1.727504,0.6177826,1.898393,266.5,0,0,1561775852.981537,143630.634503,0,-0.7211914,75.3953,3232235528,177669985,1,1,0.94,-28.45074,-29.24995,1
1561775857.860283,77,0,0,1561775856.99794,4.634720678445543,-74.15109079338065,2554.079,0,241.875,3,10,-9999,1561775857.85011,-16.44960021972656,-15.58623504638672,17.9691162109375,134.7559204101562,142.2486877441406,15,143633.193101,-0.9302978515625,0.352447509765625,0.094329833984375,143633.179917,-0.01301806404052533,0.01823253345490048,0.03045777443890922,143633.166245,-93.92068481445312,-46.31172180175781,-546.6913452148438,143633.184983,-2.063767944610869,-1.672645578870799,-0.3644231451050838,-0.01419749669730663,0.01133995689451694,0.02172384969890118,0.0002427101135253906,-0.004191756248474121,-8.666515350341797e-05,1,0.6887717247009277,0.2703547179698944,0.4966661334037781,-0.4536789357662201,-0.9294876456260681,0.3564103841781616,0.09499632567167282,0,0,0,-1,143631.8849475417,3,2,1561775856.537354,1561774855.646675,311,1.727504,0.6177826,1.898393,266.5,0,0,1561775852.981537,143630.634503,0,-0.7211914,75.3953,3232235528,177669985,1,1,0.94,-28.45074,-29.24995,1
1561775857.873652,78,0,0,1561775856.99794,4.634720678445543,-74.15109079338065,2554.079,0,241.875,3,10,-9999,1561775857.85011,-16.44960021972656,-15.58623504638672,17.9691162109375,134.7559204101562,142.2486877441406,15,143633.213334,-0.9280242919921875,0.35888671875,0.0951385498046875,143633.200181,-0.02108477898237535,0.01738085453829314,0.01744556935278207,143633.186356,-94.17649841308594,-46.12333679199219,-546.731201171875,143633.205247,-2.06421909496506,-1.672600181359638,-0.3647364579217366,-0.02590874955058098,0.009370815008878708,0.01636051014065742,0.001249611377716064,-0.002195656299591064,-0.0002620220184326172,1,0.688856303691864,0.2700895667076111,0.4967090487480164,-0.4536613523960114,-0.9293807148933411,0.3567031025886536,0.09494276344776154,0,0,0,-1,143631.8849475417,3,2,1561775856.537354,1561774855.646675,311,1.727504,0.6177826,1.898393,266.5,0,0,1561775852.981537,143630.634503,0,-0.7211914,75.3953,3232235528,177669985,1,1,0.94,-28.45074,-29.24995,1
1561775857.893945,79,0,0,1561775856.99794,4.634720678445543,-74.15109079338065,2554.079,0,241.875,3,10,-9999,1561775857.877633,-16.42324829101562,-15.55393600463867,17.95648193359375,134.7954254150391,142.2881927490234,15,143633.233598,-0.9251861572265625,0.3627166748046875,0.097991943359375,143633.220444,-0.02092978300693273,0.01514619606760765,0.02517406283619202,143633.206467,-94.021240234375,-46.24174499511719,-546.7191772460938,143633.22551,-2.064819902226934,-1.67267758473916,-0.3651188222350749,-0.01969319581985474,0.006965447682887316,0.0211374219506979,0.003670334815979004,0.003581196069717407,0.0007022619247436523,1,0.6889991164207458,0.2697788774967194,0.4967272579669952,-0.4536096751689911,-0.9292379021644592,0.3570602834224701,0.09500084817409515,0,0,0,-1,143631.8849475417,3,2,1561775856.537354,1561774855.646675,311,1.727504,0.6177826,1.898393,266.5,0,0,1561775852.981537,143630.634503,0,-0.7211914,75.3953,3232235528,177669985,1,1,0.94,-28.45074,-30.09365,1
1561775857.935416,80,0,0,1561775856.99794,4.634720678445543,-74.15109079338065,2554.079,0,241.875,3,10,-9999,1561775857.927201,-16.76377868652344,-15.67062759399414,17.82110595703125,134.8617858886719,142.3545532226562,15,143633.253861,-0.9264373779296875,0.3566131591796875,0.09710693359375,143633.240708,-0.009622267334565296,0.0332700725500329,0.02914030864764702,143633.226579,-94.19953918457031,-46.25076293945312,-546.782470703125,143633.245774,-2.06520474455125,-1.672448334971647,-0.3655819131347846,-0.01400921121239662,0.02875782735645771,0.02831304259598255,0.001299619674682617,0.004476189613342285,0.003281950950622559,1,0.6890454888343811,0.2694472670555115,0.4967826902866364,-0.4536756277084351,-0.9290950298309326,0.3574928045272827,0.09477102756500244,0,0,0,-1,143631.8849475417,3,2,1561775856.537354,1561774855.646675,311,1.727504,0.6177826,1.898393,266.5,0,0,1561775852.981537,143630.634503,0,-0.7211914,75.3953,3232235528,177669985,1,1,0.94,-28.45074,-31.47943,1
1561775857.938158,81,0,0,1561775856.99794,4.634720678445543,-74.15109079338065,2554.079,0,241.875,3,10,-9999,1561775857.927201,-16.76377868652344,-15.67062759399414,17.82110595703125,134.8617858886719,142.3545532226562,15,143633.274125,-0.9193572998046875,0.3579864501953125,0.100982666015625,143633.260941,-0.01972736577476196,0.04492726127352774,0.02757410361057143,143633.24669,-94.14671325683594,-46.07443237304688,-546.7980346679688,143633.266038,-2.065655914576573,-1.671925033426848,-0.3660536302866733,-0.02615961804986,0.03862696886062622,0.02398673817515373,0.007162690162658691,-0.001182854175567627,0.005127906799316406,1,0.6890285611152649,0.2690232992172241,0.4969524443149567,-0.4537670314311981,-0.9289766550064087,0.3579333126544952,0.09426778554916382,0,0,0,-1,143631.8849475417,3,2,1561775856.537354,1561774855.646675,311,1.727504,0.6177826,1.898393,266.5,0,0,1561775852.981537,143630.634503,0,-0.7211914,75.3953,3232235528,177669985,1,1,0.94,-28.45074,-31.47943,1
1561775857.954622,82,0,0,1561775856.99794,4.634720678445543,-74.15109079338065,2554.079,0,241.875,3,10,-9999,1561775857.950858,-16.66863250732422,-15.81091690063477,17.8314208984375,134.9256744384766,142.4184417724609,15,143633.294389,-0.9179534912109375,0.3594207763671875,0.1085052490234375,143633.281205,-0.04106035137073269,0.03806216461552148,0.02999544967367147,143633.266801,-94.25872802734375,-45.88719177246094,-546.95068359375,143633.286301,-2.066495739855728,-1.671533728079122,-0.3664730196881809,-0.0422738716006279,0.02423711307346821,0.02745630405843258,0.01025420427322388,2.777576446533203e-05,0.01035892963409424,1,0.6890906691551208,0.2685118615627289,0.4971773624420166,-0.4537290632724762,-0.9288638234138489,0.3583248853683472,0.09388913959264755,0,0,0,-1,143631.8849475417,3,2,1561775856.537354,1561774855.646675,311,1.727504,0.6177826,1.898393,266.5,0,0,1561775852.981537,143630.634503,0,-0.7211914,75.3953,3232235528,177669985,1,1,0.94,-28.45074,-32.21954,1
1561775857.97484,83,0,0,1561775856.99794,4.634720678445543,-74.15109079338065,2554.079,0,241.875,3,10,-9999,1561775857.950858,-16.66863250732422,-15.81091690063477,17.8314208984375,134.9256744384766,142.4184417724609,15,143633.314652,-0.923828125,0.358734130859375,0.103729248046875,143633.301469,-0.04754115388344051,0.004184625020841507,0.04400740543301437,143633.286912,-94.37339782714844,-46.11247253417969,-546.5528564453125,143633.306535,-2.067585529395905,-1.671808520277853,-0.3671050726212634,-0.04664731398224831,-0.01050728559494019,0.04448721930384636,0.01014035940170288,0.00224536657333374,0.01297998428344727,1,0.6893750429153442,0.2679978013038635,0.4971787631511688,-0.4535996317863464,-0.9286126494407654,0.3589149117469788,0.0941215455532074,0,0,0,-1,143631.8849475417,3,2,1561775856.537354,1561774855.646675,311,1.727504,0.6177826,1.898393,266.5,0,0,1561775852.981537,143630.634503,0,-0.7211914,75.3953,3232235528,177669985,1,1,0.94,-28.45074,-33.01065,1
1561775858.015219,84,0,0,1561775856.99794,4.634720678445543,-74.15109079338065,2554.079,0,241.875,3,10,-9999,1561775858.001658,-16.55258178710938,-15.53976058959961,17.7674560546875,135.0603942871094,142.5531616210938,15,143633.334916,-0.92926025390625,0.3535919189453125,0.0950775146484375,143633.321732,-0.02980183786242271,-0.001693770453290395,0.04925409909657948,143633.307023,-94.13772583007812,-45.9193115234375,-546.875244140625,143633.326798,-2.068485565489128,-1.672341188743562,-0.367968329796734,-0.02938177436590195,-0.001212320756167173,0.0442587174475193,0.001266956329345703,-0.004129678010940552,0.00604701042175293,1,0.6897231340408325,0.2675338387489319,0.4969927072525024,-0.4535481035709381,-0.9282536506652832,0.3597204983234406,0.09458471089601517,0,0,0,-1,143631.8849475417,3,2,1561775856.537354,1561774855.646675,311,1.727504,0.6177826,1.898393,266.5,0,0,1561775852.981537,143630.634503,0,-0.7211914,75.3953,3232235528,177669985,1,1,0.94,-28.45074,-33.82993,1
1561775858.017863,85,0,0,1561775856.99794,4.634720678445543,-74.15109079338065,2554.079,0,241.875,3,10,-9999,1561775858.001658,-16.55258178710938,-15.53976058959961,17.7674560546875,135.0603942871094,142.5531616210938,15,143633.35518,-0.9344482421875,0.3439483642578125,0.092041015625,143633.341996,-0.0330112132920772,0.02054815202272438,0.04122333682944554,143633.327134,-94.28129577636719,-45.91841125488281,-546.6935424804688,143633.347062,-2.069288291502425,-1.672464011136907,-0.3686953062807645,-0.03363643959164619,0.01946339756250381,0.03427718952298164,-0.00559687614440918,-0.01283404231071472,-0.003989219665527344,1,0.689940869808197,0.2670536935329437,0.4969585239887238,-0.4535373747348785,-0.9279816746711731,0.3603987097740173,0.09467215836048126,0,0,0,-1,143631.8849475417,3,2,1561775856.537354,1561774855.646675,311,1.727504,0.6177826,1.898393,266.5,0,0,1561775852.981537,143630.634503,0,-0.7211914,75.3953,3232235528,177669985,1,1,0.94,-28.45074,-33.82993,1
1561775858.035721,86,0,0,1561775856.99794,4.634720678445543,-74.15109079338065,2554.079,0,241.875,3,10,-9999,1561775858.028183,-16.78737640380859,-15.58625030517578,17.6561279296875,135.1231384277344,142.6159057617188,15,143633.375443,-0.9319000244140625,0.345367431640625,0.0948638916015625,143633.36226,-0.03779797903538562,0.04028643675795566,0.01864292657888169,143633.347245,-94.37904357910156,-46.15400695800781,-547.0120849609375,143633.367326,-2.070159742713366,-1.672236184286368,-0.3690714050500894,-0.04436391964554787,0.03663119673728943,0.009687960147857666,-0.005359232425689697,-0.01736575365066528,-0.001429438591003418,1,0.6900417804718018,0.2665817737579346,0.4971447885036469,-0.4534573256969452,-0.9278682470321655,0.3607495129108429,0.09444700181484222,0,0,0,-1,143631.8849475417,3,2,1561775856.537354,1561774855.646675,311,1.727504,0.6177826,1.898393,266.5,0,0,1561775852.981537,143630.634503,0,-0.7211914,75.3953,3232235528,177669985,1,1,0.94,-28.45074,-33.93466,1
1561775858.056453,87,0,0,1561775857.997924,4.634720678445543,-74.15109079338065,2554.02,0,233.0859375,3,10,-9999,1561775858.028183,-16.78737640380859,-15.58625030517578,17.6561279296875,135.1231384277344,142.6159057617188,15,143633.395707,-0.9270782470703125,0.3556365966796875,0.095703125,143633.382523,-0.05733998879827806,0.05653438256852909,0.007406783623728377,143633.367356,-94.26380920410156,-45.87467956542969,-546.7138061523438,143633.387589,-2.071359406208944,-1.671788448042972,-0.3690839127054231,-0.06842930614948273,0.0498599149286747,0.005311055108904839,-0.001384735107421875,-0.01119756698608398,0.001870393753051758,1,0.6900915503501892,0.2660624086856842,0.4975682497024536,-0.4532221853733063,-0.9279060363769531,0.3607611954212189,0.09403110295534134,0,0,0,-1,143631.8849475417,3,2,1561775856.537354,1561774855.646675,311,1.727504,0.6177826,1.898393,266.5,0,0,1561775852.981537,143630.634503,0,-0.7211914,75.3953,3232235528,177669985,1,1,0.94,-28.45074,-32.01445,1
1561775858.086421,88,0,0,1561775857.997924,4.634720678445543,-74.15109079338065,2554.02,0,233.0859375,3,10,-9999,1561775858.062148,-16.72529602050781,-15.49948883056641,17.58709716796875,135.2146759033203,142.7074432373047,15,143633.41594,-0.9263153076171875,0.3603057861328125,0.095977783203125,143633.402787,-0.07256368285360702,0.05894081492952469,0.01456323010498931,143633.387467,-94.35296630859375,-46.10128784179688,-546.9717407226562,143633.407853,-2.072958806236049,-1.671330870679457,-0.3691257007665687,-0.07348398864269257,0.05029907077550888,0.01184591930359602,0.003129363059997559,-0.0007690191268920898,0.00321197509765625,1,0.6901947259902954,0.2653935551643372,0.4980784952640533,-0.4528966844081879,-0.9279340505599976,0.3608001470565796,0.09360499680042267,0,0,0,-1,143631.8849475417,3,2,1561775856.537354,1561774855.646675,311,1.727504,0.6177826,1.898393,266.5,0,0,1561775852.981537,143630.634503,0,-0.7211914,75.3953,3232235528,177669985,1,1,0.94,-28.45074,-32.72467,1
1561775858.09641,89,0,0,1561775857.997924,4.634720678445543,-74.15109079338065,2554.02,0,233.0859375,3,10,-9999,1561775858.062148,-16.72529602050781,-15.49948883056641,17.58709716796875,135.2146759033203,142.7074432373047,15,143633.436204,-0.927520751953125,0.3615875244140625,0.09808349609375,143633.423051,-0.0617003824510648,0.05517137672262654,0.01548814595157382,143633.407578,-94.61663818359375,-46.30116271972656,-546.847900390625,143633.428117,-2.074456638945163,-1.670881673525221,-0.3691918286367049,-0.06008695811033249,0.04625586047768593,0.01330186985433102,0.0008587241172790527,0.0003747642040252686,0.004027962684631348,1,0.6902885437011719,0.2647538781166077,0.4985568225383759,-0.4526017010211945,-0.9279522299766541,0.3608618378639221,0.09318578243255615,0,0,0,-1,143631.8849475417,3,2,1561775856.537354,1561774855.646675,311,1.727504,0.6177826,1.898393,266.5,0,0,1561775852.981537,143630.634503,0,-0.7211914,75.3953,3232235528,177669985,1,1,0.94,-28.45074,-32.85607,1
1561775858.11722,90,0,0,1561775857.997924,4.634720678445543,-74.15109079338065,2554.02,0,233.0859375,3,10,-9999,1561775858.102601,-16.88370513916016,-15.64602279663086,17.5408935546875,135.42822265625,142.9209899902344,15,143633.456467,-0.9264068603515625,0.358917236328125,0.09381103515625,143633.443314,-0.05766702498013979,0.04474563368718434,0.02169304497534944,143633.427659,-94.45257568359375,-46.0941162109375,-546.9651489257812,143633.44838,-2.075770637187957,-1.670501206634077,-0.3693387453836189,-0.06519836187362671,0.03593238443136215,0.02069533802568913,0.001482129096984863,-0.0001742541790008545,0.004187941551208496,1,0.6903834342956543,0.2641674280166626,0.4989503920078278,-0.4523658156394958,-0.9279348254203796,0.3609988391399384,0.09282743185758591,0,0,0,-1,143631.8849475417,3,2,1561775856.537354,1561774855.646675,311,1.727504,0.6177826,1.898393,266.5,0,0,1561775852.981537,143630.634503,0,-0.7211914,75.3953,3232235528,177669985,1,1,0.94,-28.45074,-33.50437,1
1561775858.137079,91,0,0,1561775857.997924,4.634720678445543,-74.15109079338065,2554.02,0,233.0859375,3,10,-9999,1561775858.129413,-16.94398498535156,-15.55892181396484,17.41864013671875,135.5321044921875,143.0248718261719,15,143633.476731,-0.9318389892578125,0.352691650390625,0.0936126708984375,143633.463548,-0.06216323984852057,0.04371658824197772,0.01814997546110803,143633.44777,-94.52630615234375,-46.12265014648438,-547.0257568359375,143633.468644,-2.077219611811583,-1.670334371117032,-0.3694987496722194,-0.06172533333301544,0.03916279599070549,0.01229013502597809,-0.002267837524414062,-0.005526721477508545,-0.0003511905670166016,1,0.6905503869056702,0.2635784447193146,0.4992974698543549,-0.4520713984966278,-0.9278926849365234,0.3611480593681335,0.0926668643951416,0,0,0,-1,143631.8849475417,3,2,1561775856.537354,1561774855.646675,311,1.727504,0.6177826,1.898393,266.5,0,0,1561775852.981537,143630.634503,0,-0.7211914,75.3953,3232235528,177669985,1,1,0.94,-28.45074,-33.39804,1
1561775858.167434,92,0,0,1561775857.997924,4.634720678445543,-74.15109079338065,2554.02,0,233.0859375,3,10,-9999,1561775858.15357,-16.67951202392578,-15.57026672363281,17.5093994140625,135.6131591796875,143.1059265136719,15,143633.496995,-0.9283447265625,0.35491943359375,0.0919189453125,143633.483811,-0.04777338153049542,0.05680868816080725,0.002980343575907676,143633.467881,-94.33717346191406,-46.03941345214844,-547.2578735351562,143633.488877,-2.078379584811076,-1.669829197192546,-0.3694744705226436,-0.04633146524429321,0.05012969672679901,-0.0007300600409507751,-0.002456367015838623,-0.007518261671066284,-0.001042962074279785,1,0.6905742883682251,0.2630715668201447,0.4997398853302002,-0.451841413974762,-0.9279482960700989,0.3611254096031189,0.09219899773597717,0,0,0,-1,143631.8849475417,3,2,1561775856.537354,1561774855.646675,311,1.727504,0.6177826,1.898393,266.5,0,0,1561775852.981537,143630.634503,0,-0.7211914,75.3953,3232235528,177669985,1,1,0.94,-28.45074,-33.40057,1
1561775858.177607,93,0,0,1561775857.997924,4.634720678445543,-74.15109079338065,2554.02,0,233.0859375,3,10,-9999,1561775858.15357,-16.67951202392578,-15.57026672363281,17.5093994140625,135.6131591796875,143.1059265136719,15,143633.517258,-0.9167022705078125,0.3621673583984375,0.0994415283203125,143633.504075,-0.03660328497037607,0.06561842504678937,0.0008572715548965067,143633.487992,-94.5162353515625,-46.28363037109375,-547.4091186523438,143633.509141,-2.079257879426148,-1.669024241630449,-0.369356766362969,-0.03541623055934906,0.05142186209559441,-0.0004565531853586435,0.005335092544555664,-0.003486961126327515,0.005131959915161133,1,0.6904757022857666,0.262624055147171,0.5002442002296448,-0.4516943693161011,-0.9280645251274109,0.361015647649765,0.09145618230104446,0,0,0,-1,143631.8849475417,3,2,1561775856.537354,1561774855.646675,312,1.729442,0.6177826,1.898393,267.0564,0,0,1561775855.57312,143630.634503,0,-0.7211914,75.3953,3232235528,177669985,1,1,0.94,-28.45074,-33.40057,1
1561775858.197547,94,0,0,1561775857.997924,4.634720678445543,-74.15109079338065,2554.02,0,233.0859375,3,10,-9999,1561775858.179703,-16.81462097167969,-15.77852630615234,17.41729736328125,135.6740570068359,143.1668243408203,15,143633.537522,-0.9187469482421875,0.3657989501953125,0.1046600341796875,143633.524339,-0.03169108433972492,0.03439499179448237,0.01163854659586429,143633.528214,-94.64266967773438,-46.06182861328125,-547.3557739257812,143633.529404,-2.080003224583127,-1.668599239697274,-0.3693820208644637,-0.03011387959122658,0.01909481547772884,0.009579302743077278,0.01110196113586426,0.003951042890548706,0.01111197471618652,1,0.6904699206352234,0.2622626721858978,0.5005531907081604,-0.4515707492828369,-0.9280941486358643,0.3610391914844513,0.09106083959341049,0,0,0,-1,143631.8849475417,3,2,1561775856.537354,1561774855.646675,312,1.729442,0.6177826,1.898393,267.0564,0,0,1561775855.57312,143630.634503,0,-0.7211914,75.3953,3232235528,177669985,1,1,0.94,-28.30464,-33.46296,1
1561775858.217988,95,0,0,1561775857.997924,4.634720678445543,-74.15109079338065,2554.02,0,233.0859375,3,10,-9999,1561775858.204187,-17.04225921630859,-15.70693206787109,17.41217041015625,135.7199554443359,143.2127227783203,15,143633.557786,-0.924530029296875,0.36077880859375,0.09967041015625,143633.544602,-0.01579281158027889,-0.003704190760191212,0.01790629622136578,143633.548325,-94.44180297851562,-46.2957763671875,-547.1539916992188,143633.549668,-2.08051684901336,-1.668806197282054,-0.36959731323319,-0.01499724388122559,-0.0179742556065321,0.0156108308583498,0.008777976036071777,0.002697378396987915,0.01165997982025146,1,0.6906123757362366,0.2620633542537689,0.5005465745925903,-0.451475977897644,-0.9279979467391968,0.3612399697303772,0.09124530851840973,0,0,0,-1,143631.8849475417,3,2,1561775856.537354,1561774855.646675,312,1.729442,0.6177826,1.898393,267.0564,0,0,1561775855.57312,143630.634503,0,-0.7211914,75.3953,3232235528,177669985,1,1,0.94,-28.30464,-33.7766,1
1561775858.252452,96,0,0,1561775857.997924,4.634720678445543,-74.15109079338065,2554.02,0,233.0859375,3,10,-9999,1561775858.230506,-16.90335083007812,-15.7725715637207,17.337158203125,135.7412719726562,143.2340393066406,15,143633.578049,-0.9329071044921875,0.35577392578125,0.0955810546875,143633.564866,-0.005110073499644042,-0.0120153838901105,0.01659122727508465,143633.568436,-94.27287292480469,-46.32827758789062,-547.171630859375,143633.569932,-2.080773662095303,-1.669277999392163,-0.3698443890635714,-0.007885006256401539,-0.01649433746933937,0.01238920353353024,-0.002981305122375488,-0.004048466682434082,0.006439685821533203,1,0.6907908320426941,0.2620022892951965,0.5003829002380371,-0.4514197707176208,-0.9278658628463745,0.3614703416824341,0.09167434275150299,0,0,0,-1,143631.8849475417,3,2,1561775856.537354,1561774855.646675,312,1.729442,0.6177826,1.898393,267.0564,0,0,1561775855.57312,143630.634503,0,-0.7211914,75.3953,3232235528,177669985,1,1,0.94,-28.30464,-32.77684,1
1561775858.258502,97,0,0,1561775857.997924,4.634720678445543,-74.15109079338065,2554.02,0,233.0859375,3,10,-9999,1561775858.230506,-16.90335083007812,-15.7725715637207,17.337158203125,135.7412719726562,143.2340393066406,15,143633.598313,-0.9310760498046875,0.3578948974609375,0.0946044921875,143633.58513,-9.267800593475748e-05,0.000475374254579144,0.003586212723900702,143633.588548,-94.30284118652344,-46.1883544921875,-547.3582763671875,143633.590195,-2.080887985870865,-1.669530196377716,-0.3699029107849525,-0.0008044599671848118,-0.006445432081818581,-0.002579891588538885,-0.004810810089111328,-0.005720436573028564,0.003720521926879883,1,0.690875232219696,0.2620010375976562,0.5003076791763306,-0.4513746798038483,-0.9278216361999512,0.361524909734726,0.09190625697374344,0,0,0,-1,143631.8849475417,3,2,1561775856.537354,1561774855.646675,312,1.729442,0.6177826,1.898393,267.0564,0,0,1561775855.57312,143630.634503,0,-0.7211914,75.3953,3232235528,177669985,1,1,0.94,-28.30464,-32.77684,1
1561775858.278669,98,0,0,1561775857.997924,4.634720678445543,-74.15109079338065,2554.02,0,233.0859375,3,10,-9999,1561775858.264532,-16.57637786865234,-15.73169708251953,17.46185302734375,135.7487487792969,143.2415161132812,15,143633.618546,-0.92626953125,0.3617706298828125,0.094207763671875,143633.605393,0.006526342567348182,0.004186489233604563,0.00107751497704606,143633.608659,-94.61991882324219,-46.27702331542969,-547.4009399414062,143633.610459,-2.080845987133353,-1.669628524955824,-0.369870273822337,0.006492601707577705,-0.001003262586891651,1.695682294666767e-05,-0.001649439334869385,-0.0002121329307556152,0.002163290977478027,1,0.6908907890319824,0.2620481848716736,0.5002720355987549,-0.4513631165027618,-0.9278244376182556,0.3614944815635681,0.09199866652488708,0,0,0,-1,143631.8849475417,3,2,1561775856.537354,1561774855.646675,312,1.729442,0.6177826,1.898393,267.0564,0,0,1561775855.57312,143630.634503,0,-0.7211914,75.3953,3232235528,177669985,1,1,0.94,-28.30464,-33.49303,1
1561775858.298933,99,0,0,1561775857.997924,4.634720678445543,-74.15109079338065,2554.02,0,233.0859375,3,10,-9999,1561775858.264532,-16.57637786865234,-15.73169708251953,17.46185302734375,135.7487487792969,143.2415161132812,15,143633.63881,-0.9172515869140625,0.3626251220703125,0.0948333740234375,143633.625657,0.01207770185961835,0.003523894754392848,0.006336459181625531,143633.62877,-94.53277587890625,-46.43794250488281,-547.3312377929688,143633.630723,-2.080666312452842,-1.669670129895152,-0.3699673779253598,0.01187032274901867,-0.004579887725412846,0.005525971762835979,0.00587993860244751,0.001253694295883179,0.003242135047912598,1,0.6908881664276123,0.2620885968208313,0.5001939535140991,-0.4514299929141998,-0.9277854561805725,0.3615850210189819,0.09203378111124039,0,0,0,-1,143631.8849475417,3,2,1561775856.537354,1561774855.646675,312,1.729442,0.6177826,1.898393,267.0564,0,0,1561775855.57312,143630.634503,0,-0.7211914,75.3953,3232235528,177669985,1,1,0.94,-28.30464,-33.59559,1
1561775858.326568,100,0,0,1561775857.997924,4.634720678445543,-74.15109079338065,2554.02,0,233.0859375,3,10,-9999,1561775858.305483,-16.85599517822266,-15.82344436645508,17.3818359375,135.7276000976562,143.2203674316406,15,143633.659074,-0.919189453125,0.3618927001953125,0.095703125,143633.645921,0.01893081429271926,-0.002544650421570712,0.01498400955722183,143633.648881,-94.44076538085938,-46.29287719726562,-547.3285522460938,143633.650986,-2.080366127508162,-1.669738425207076,-0.3701645086185766,0.01658278703689575,-0.0125933401286602,0.01618340983986855,0.01198256015777588,0.001619219779968262,0.003323078155517578,1,0.6908872127532959,0.2621448338031769,0.5000557899475098,-0.4515519142150879,-0.9277083277702332,0.3617688119411469,0.09209010750055313,0,0,0,-1,143631.8849475417,3,2,1561775856.537354,1561774855.646675,312,1.729442,0.6177826,1.898393,267.0564,0,0,1561775855.57312,143630.634503,0,-0.7211914,75.3953,3232235528,177669985,1,1,0.94,-28.30464,-33.98477,1
1561775858.33945,101,0,0,1561775857.997924,4.634720678445543,-74.15109079338065,2554.02,0,233.0859375,3,10,-9999,1561775858.331658,-17.00808715820312,-15.92572784423828,17.4281005859375,135.7061462402344,143.1989135742188,15,143633.679337,-0.922515869140625,0.359466552734375,0.0941162109375,143633.666154,0.01857128754555856,-0.01542849114315605,0.02305019186685382,143633.668992,-94.35885620117188,-46.28153991699219,-547.05712890625,143633.67125,-2.080050948176253,-1.670025073337949,-0.3705548466040504,0.01285595819354057,-0.02035192586481571,0.01387151889503002,0.006001889705657959,-0.00194898247718811,0.003513693809509277,1,0.6909597516059875,0.262193888425827,0.4997927844524384,-0.4517035186290741,-0.927541196346283,0.3621326684951782,0.09234202653169632,0,0,0,-1,143631.8849475417,3,2,1561775856.537354,1561774855.646675,312,1.729442,0.6177826,1.898393,267.0564,0,0,1561775855.57312,143630.634503,0,-0.7211914,75.3953,3232235528,177669985,1,1,0.94,-28.30464,-33.98477,1
1561775858.359816,102,0,0,1561775857.997924,4.634720678445543,-74.15109079338065,2554.02,0,233.0859375,3,10,-9999,1561775858.356101,-16.72318267822266,-15.66058349609375,17.37420654296875,135.7078857421875,143.2006530761719,15,143633.699601,-0.9320831298828125,0.35882568359375,0.0895538330078125,143633.686417,-0.0009480853480682088,-0.002746784348307726,0.01012187635506416,143633.689103,-94.52009582519531,-46.25608825683594,-547.1992797851562,143633.691483,-2.080026845273806,-1.670298118353837,-0.3707161481465675,-0.00533742643892765,-0.005411326885223389,0.007416550070047379,-0.0005970001220703125,-0.002633392810821533,-0.001601338386535645,1,0.6910422444343567,0.2622124254703522,0.4996546506881714,-0.4517193734645844,-0.9274578094482422,0.3622830212116241,0.09258948266506195,0,0,0,-1,143631.8849475417,3,2,1561775856.537354,1561774855.646675,312,1.729442,0.6177826,1.898393,267.0564,0,0,1561775855.57312,143630.634503,0,-0.7211914,75.3953,3232235528,177669985,1,1,0.94,-28.30464,-34.05458,1
1561775858.380058,103,0,0,1561775857.997924,4.634720678445543,-74.15109079338065,2554.02,0,233.0859375,3,10,-9999,1561775858.356101,-16.72318267822266,-15.66058349609375,17.37420654296875,135.7078857421875,143.2006530761719,15,143633.719865,-0.9285125732421875,0.3603668212890625,0.08837890625,143633.706681,-0.001100418162420741,0.01235307271633255,0.008545018673628243,143633.709214,-94.46507263183594,-46.56524658203125,-547.1866455078125,143633.711747,-2.08011962019727,-1.670307431225239,-0.370814356444008,0.001930073834955692,0.007085822988301516,0.0004345404449850321,-0.00318145751953125,-0.002694398164749146,-0.003437519073486328,1,0.6910673379898071,0.2621511518955231,0.4996490478515625,-0.4517227709293365,-0.9274215698242188,0.3623745441436768,0.09259458631277084,0,0,0,-1,143631.8849475417,3,2,1561775856.537354,1561774855.646675,312,1.729442,0.6177826,1.898393,267.0564,0,0,1561775855.57312,143630.634503,0,-0.7211914,75.3953,3232235528,177669985,1,1,0.94,-28.30464,-33.17932,1
1561775858.410248,104,0,0,1561775857.997924,4.634720678445543,-74.15109079338065,2554.02,0,233.0859375,3,10,-9999,1561775858.406834,-16.69800567626953,-15.79107284545898,17.319580078125,135.7093811035156,143.2021484375,15,143633.740128,-0.9307098388671875,0.3585968017578125,0.088836669921875,143633.726945,0.007754858778201734,0.01093121101033924,-0.00242560712084417,143633.729325,-94.5355224609375,-46.43794250488281,-547.2190551757812,143633.732011,-2.080021949642465,-1.670189648660497,-0.3707595529853296,0.003250468987971544,0.003687362652271986,-0.007241222076117992,-0.001472175121307373,-0.003238409757614136,-0.003910064697265625,1,0.6910191774368286,0.2621758282184601,0.4996807873249054,-0.4517471790313721,-0.9274523854255676,0.3623234927654266,0.09248733520507812,0,0,0,-1,143631.8849475417,3,2,1561775856.537354,1561774855.646675,312,1.729442,0.6177826,1.898393,267.0564,0,0,1561775855.57312,143630.634503,0,-0.7211914,75.3953,3232235528,177669985,1,1,0.94,-28.30464,-33.5735,1
1561775858.420722,105,0,0,1561775857.997924,4.634720678445543,-74.15109079338065,2554.02,0,233.0859375,3,10,-9999,1561775858.406834,-16.69800567626953,-15.79107284545898,17.319580078125,135.7093811035156,143.2021484375,15,143633.760392,-0.9278564453125,0.3605804443359375,0.08514404296875,143633.747208,-0.001922003358710186,0.01371581224612609,-0.01105451536880991,143633.749436,-94.490966796875,-46.37277221679688,-547.1712646484375,143633.752274,-2.080041730871741,-1.670114482218136,-0.3705188277925896,-0.00511105777695775,0.01295436546206474,-0.01376836374402046,-0.003316283226013184,-0.002495229244232178,-0.005146026611328125,1,0.6909769773483276,0.2622288167476654,0.49976846575737,-0.4516839981079102,-0.9275461435317993,0.3620991110801697,0.09242627024650574,0,0,0,-1,143631.8849475417,3,2,1561775856.537354,1561774855.646675,312,1.729442,0.6177826,1.898393,267.0564,0,0,1561775855.57312,143630.634503,0,-0.7211914,75.3953,3232235528,177669985,1,1,0.94,-28.30464,-31.55035,1
1561775858.441434,106,0,0,1561775857.997924,4.634720678445543,-74.15109079338065,2554.02,0,233.0859375,3,10,-9999,1561775858.43301,-16.81767272949219,-15.6480598449707,17.3880615234375,135.7191162109375,143.2118835449219,15,143633.780656,-0.9183502197265625,0.3659515380859375,0.0842742919921875,143633.767472,-0.007240336055598425,0.03689250426475868,-0.01229554843678683,143633.769547,-94.23121643066406,-46.19900512695312,-547.3287963867188,143633.772538,-2.080174597078146,-1.66967718550774,-0.3701899031637393,-0.01178786903619766,0.03430652245879173,-0.01696788519620895,0.004563331604003906,-0.000494837760925293,-0.008673548698425293,1,0.6908495426177979,0.2621890604496002,0.5000276565551758,-0.4516150057315826,-0.9277048110961914,0.3617924749851227,0.09203238785266876,0,0,0,-1,143631.8849475417,3,2,1561775856.537354,1561774855.646675,312,1.729442,0.6177826,1.898393,267.0564,0,0,1561775855.57312,143630.634503,0,-0.7211914,75.3953,3232235528,177669985,1,1,0.94,-28.30464,-29.94022,1
1561775858.461237,107,0,0,1561775857.997924,4.634720678445543,-74.15109079338065,2554.02,0,233.0859375,3,10,-9999,1561775858.457768,-16.77787780761719,-15.60607147216797,17.30865478515625,135.7564086914062,143.2491760253906,15,143633.800919,-0.9195404052734375,0.372100830078125,0.091339111328125,143633.787736,-0.02287042849327347,0.06915803245161369,-0.004831506849621754,143633.789658,-94.36830139160156,-46.2164306640625,-547.31494140625,143633.792802,-2.080567087923879,-1.668756714808451,-0.3698953341564657,-0.03643649071455002,0.06590493023395538,-0.001487729256041348,0.01155930757522583,0.006920844316482544,-0.002413272857666016,1,0.6906388401985168,0.2619397342205048,0.5005042552947998,-0.4515542089939117,-0.9278953075408936,0.3615178465843201,0.09118886291980743,0,0,0,-1,143631.8849475417,3,2,1561775856.537354,1561774855.646675,312,1.729442,0.6177826,1.898393,267.0564,0,0,1561775855.57312,143630.634503,0,-0.7211914,75.3953,3232235528,177669985,1,1,0.94,-28.30464,-30.52046,1
1561775858.490179,108,0,0,1561775857.997924,4.634720678445543,-74.15109079338065,2554.02,0,233.0859375,3,10,-9999,1561775858.483872,-16.97786712646484,-15.70237350463867,17.2930908203125,135.8799896240234,143.3727569580078,15,143633.821152,-0.921875,0.368408203125,0.09698486328125,143633.807999,-0.07838908142204634,0.0662511921217922,0.0269346786328434,143633.809769,-94.71652221679688,-46.45516967773438,-547.1309814453125,143633.813065,-2.081999115616532,-1.668001270707992,-0.3700765114953443,-0.08365992456674576,0.05430047214031219,0.02455479092895985,0.00739675760269165,0.009986847639083862,0.00216984748840332,1,0.6906566023826599,0.2612167596817017,0.5010452270507812,-0.4513455629348755,-0.9278984665870667,0.3616867661476135,0.0904814749956131,0,0,0,-1,143631.8849475417,3,2,1561775856.537354,1561774855.646675,312,1.729442,0.6177826,1.898393,267.0564,0,0,1561775855.57312,143630.634503,0,-0.7211914,75.3953,3232235528,177669985,1,1,0.94,-28.30464,-31.26401,1
1561775858.501681,109,0,0,1561775857.997924,4.634720678445543,-74.15109079338065,2554.02,0,233.0859375,3,10,-9999,1561775858.483872,-16.97786712646484,-15.70237350463867,17.2930908203125,135.8799896240234,143.3727569580078,15,143633.841416,-0.925994873046875,0.369873046875,0.089385986328125,143633.828263,-0.0857212965352525,0.05347494310824606,0.02691097649914169,143633.829881,-94.74935913085938,-46.49760437011719,-547.1864013671875,143633.833329,-2.083877981849178,-1.667687297576173,-0.3703889885560842,-0.08520056307315826,0.04576503857970238,0.01796959154307842,0.002780795097351074,0.006033420562744141,0.005920648574829102,1,0.6908566355705261,0.2603972256183624,0.5015034675598145,-0.4510040581226349,-0.9278144240379333,0.3619780838489532,0.0901792123913765,0,0,0,-1,143631.8849475417,3,2,1561775856.537354,1561774855.646675,312,1.729442,0.6177826,1.898393,267.0564,0,0,1561775855.57312,143630.634503,0,-0.7211914,75.3953,3232235528,177669985,1,1,0.94,-28.30464,-31.26401,1
1561775858.521902,110,0,0,1561775857.997924,4.634720678445543,-74.15109079338065,2554.02,0,233.0859375,3,10,-9999,1561775858.509106,-17.08265686035156,-15.70865631103516,17.414794921875,136.0102081298828,143.5029754638672,15,143633.86168,-0.9275665283203125,0.376678466796875,0.08599853515625,143633.848496,-0.07072769959810639,0.05063015443182342,0.01388545560756414,143633.849992,-94.46492004394531,-46.28968811035156,-547.2733764648438,143633.853593,-2.085578337200445,-1.667368710068296,-0.3704956559263436,-0.07012361288070679,0.04787106812000275,0.0153085608035326,0.0003296732902526855,0.01051163673400879,-0.003133654594421387,1,0.6910092830657959,0.2597039043903351,0.5019715428352356,-0.4506491124629974,-0.9278046488761902,0.3620775043964386,0.08987989276647568,0,0,0,-1,143631.8849475417,3,2,1561775856.537354,1561774855.646675,312,1.729442,0.6177826,1.898393,267.0564,0,0,1561775855.57312,143630.634503,0,-0.7211914,75.3953,3232235528,177669985,1,1,0.94,-28.30464,-31.53801,1
1561775858.54222,111,0,0,1561775857.997924,4.634720678445543,-74.15109079338065,2554.02,0,233.0859375,3,10,-9999,1561775858.534499,-16.99384307861328,-15.85462951660156,17.352294921875,136.1191101074219,143.6118774414062,15,143633.881944,-0.9357452392578125,0.3785552978515625,0.0917205810546875,143633.86876,-0.06292863234580934,0.04798723336602879,0.02524570186951515,143633.870103,-95.0008544921875,-46.33100891113281,-547.4237670898438,143633.873856,-2.087071290434868,-1.666995468079248,-0.3707988696095006,-0.06508944183588028,0.03911992162466049,0.02505200169980526,0.0009101033210754395,0.01814830303192139,-0.002670049667358398,1,0.6911417245864868,0.2590070366859436,0.5023651123046875,-0.4504085779190063,-0.9277289509773254,0.3623601198196411,0.08952305465936661,0,0,0,-1,143631.8849475417,3,2,1561775856.537354,1561774855.646675,312,1.729442,0.6177826,1.898393,267.0564,0,0,1561775855.57312,143630.634503,0,-0.7211914,75.3953,3232235528,177669985,1,1,0.94,-28.30464,-31.74795,1
1561775858.573651,112,0,0,1561775857.997924,4.634720678445543,-74.15109079338065,2554.02,0,233.0859375,3,10,-9999,1561775858.559668,-17.02585601806641,-15.78715896606445,17.2510986328125,136.2228393554688,143.7156066894531,15,143633.902207,-0.9438934326171875,0.3644866943359375,0.092559814453125,143633.889024,-0.05830751522230385,0.03919241018215111,0.03489140502167314,143633.890214,-94.7205810546875,-46.10272216796875,-547.31005859375,143633.89409,-2.088478407825945,-1.666793967520348,-0.3713326139042976,-0.06387024372816086,0.03163430839776993,0.03251098096370697,-0.01702570915222168,0.009838372468948364,0.007941961288452148,1,0.6913302540779114,0.2583045959472656,0.5026253461837769,-0.4502322971820831,-0.9275543689727783,0.3628575503826141,0.08931756764650345,0,0,0,-1,143631.8849475417,3,2,1561775856.537354,1561774855.646675,312,1.729442,0.6177826,1.898393,267.0564,0,0,1561775855.57312,143630.634503,0,-0.7211914,75.3953,3232235528,177669985,1,1,0.94,-28.30464,-32.34816,1
1561775858.582651,113,0,0,1561775857.997924,4.634720678445543,-74.15109079338065,2554.02,0,233.0859375,3,10,-9999,1561775858.559668,-17.02585601806641,-15.78715896606445,17.2510986328125,136.2228393554688,143.7156066894531,15,143633.9224604167,-0.923004150390625,0.3511962890625,0.0749969482421875,143633.9092764167,-0.09652654002603099,0.05095852219423019,0.01501064116812262,143633.9103144167,-94.86872863769531,-46.28634643554688,-547.532958984375,143633.9143424167,-2.09036425618098,-1.666727048965342,-0.3715678486182634,-0.1135469824075699,0.06438266485929489,-0.008324329741299152,-0.007537722587585449,-0.009377986192703247,-0.005446076393127441,1,0.6915817856788635,0.2575621902942657,0.5030171275138855,-0.4498333632946014,-0.9274750947952271,0.3630767464637756,0.08924729377031326,0,0,0,-1,143631.8849475417,3,2,1561775856.537354,1561774855.646675,312,1.729442,0.6177826,1.898393,267.0564,0,0,1561775855.57312,143630.634503,0,-0.7211914,75.3953,3232235528,177669985,1,1,0.94,-28.30464,-32.6723,1
1561775858.602987,114,0,0,1561775857.997924,4.634720678445543,-74.15109079338065,2554.02,0,233.0859375,3,10,-9999,1561775858.585591,-17.00045013427734,-15.85626602172852,17.1402587890625,136.3905181884766,143.8832855224609,15,143633.9427244167,-0.9027252197265625,0.382568359375,0.06988525390625,143633.9295404167,-0.1689978111898123,0.1432551634608883,-0.05021443498566205,143633.9304254167,-94.73558044433594,-46.42518615722656,-547.468994140625,143633.9346064167,-2.093544838603111,-1.665606266547028,-0.3705258733294992,-0.191429540514946,0.1591717600822449,-0.0501713789999485,0.01779448986053467,0.001923233270645142,-0.01880073547363281,1,0.6915972828865051,0.2565442621707916,0.5043651461601257,-0.4488809108734131,-0.9279507994651794,0.362105667591095,0.0882435217499733,0,0,0,-1,143631.8849475417,3,2,1561775856.537354,1561774855.646675,312,1.729442,0.6177826,1.898393,267.0564,0,0,1561775855.57312,143630.634503,0,-0.7211914,75.3953,3232235528,177669985,1,1,0.94,-28.30464,-33.03703,1
1561775858.623222,115,0,0,1561775857.997924,4.634720678445543,-74.15109079338065,2554.02,0,233.0859375,3,10,-9999,1561775858.609615,-17.10153961181641,-15.79921722412109,16.91766357421875,136.6865997314453,144.1793670654297,15,143633.9629874167,-0.893707275390625,0.41314697265625,0.0950164794921875,143633.9498044167,-0.2146883344317567,0.188483361937595,0.0032298817700481,143633.9505364167,-94.58268737792969,-46.6346435546875,-547.6971435546875,143633.9548704167,-2.098053618156594,-1.663656980455335,-0.3698065324500958,-0.2092042714357376,0.1736292690038681,0.02269829995930195,0.03386402130126953,0.03950488567352295,-0.007418155670166016,1,0.6916047334671021,0.2547787427902222,0.5062190294265747,-0.4477866590023041,-0.928380012512207,0.3614350557327271,0.08645863085985184,0,0,0,-1,143631.8849475417,3,2,1561775856.537354,1561774855.646675,312,1.729442,0.6177826,1.898393,267.0564,0,0,1561775855.57312,143630.634503,0,-0.7211914,75.3953,3232235528,177669985,1,1,0.94,-28.30464,-33.47326,1
1561775858.654685,116,0,0,1561775857.997924,4.634720678445543,-74.15109079338065,2554.02,0,233.0859375,3,10,-9999,1561775858.635754,-17.05197143554688,-15.99016571044922,16.796875,137.0176239013672,144.5103912353516,15,143633.9832514167,-0.902923583984375,0.3873138427734375,0.0969390869140625,143633.9700674167,-0.2037150454761942,0.1563424696897557,0.09818275990795128,143633.9706474167,-94.62873840332031,-46.37078857421875,-547.9473266601562,143633.9751334167,-2.102654294341337,-1.662118455897742,-0.3708648759872206,-0.2101411670446396,0.1461989730596542,0.1084587499499321,0.03205811977386475,0.04410302639007568,0.01433944702148438,1,0.6919101476669312,0.2525034248828888,0.5075323581695557,-0.4471165537834167,-0.9281305074691772,0.3624216318130493,0.08499526232481003,0,0,0,-1,143631.8849475417,3,2,1561775856.537354,1561774855.646675,312,1.729442,0.6177826,1.898393,267.0564,0,0,1561775855.57312,143630.634503,0,-0.7211914,75.3953,3232235528,177669985,1,1,0.94,-28.30464,-33.90072,1
1561775858.663677,117,0,0,1561775857.997924,4.634720678445543,-74.15109079338065,2554.02,0,233.0859375,3,10,-9999,1561775858.660648,-17.20008087158203,-15.96676635742188,16.6978759765625,137.3885040283203,144.8812713623047,15,143634.0035154167,-0.9221343994140625,0.350494384765625,0.08660888671875,143633.9903314167,-0.2324952947444625,0.1415856277735177,0.1106365001134888,143633.9907584167,-94.96992492675781,-46.40895080566406,-547.952392578125,143633.9953974167,-2.107766008876951,-1.661177928501848,-0.3726416788361467,-0.2371674627065659,0.1353010535240173,0.09733738750219345,0.01492398977279663,0.003903895616531372,0.009045124053955078,1,0.692499577999115,0.2499527186155319,0.5085843205451965,-0.4464415311813354,-0.9275674223899841,0.364077091217041,0.0840640515089035,0,0,0,-1,143631.8849475417,3,2,1561775856.537354,1561774855.646675,312,1.729442,0.6177826,1.898393,267.0564,0,0,1561775855.57312,143631.580292,0,-0.8032227,75.39606,3232235528,177669985,1,1,0.94,-28.30464,-33.90072,1
1561775858.683919,118,0,0,1561775857.997924,4.634720678445543,-74.15109079338065,2554.02,0,233.0859375,3,10,-9999,1561775858.660648,-17.20008087158203,-15.96676635742188,16.6978759765625,137.3885040283203,144.8812713623047,15,143634.0237484167,-0.9310455322265625,0.3419342041015625,0.075714111328125,143634.0105954167,-0.2434938837303808,0.1530726405033564,0.06708822365240411,143634.0108694167,-94.95657348632812,-46.55448913574219,-548.0802001953125,143634.0156614167,-2.113162695141986,-1.660234084237669,-0.3737017731845351,-0.2411531507968903,0.1484954059123993,0.05149212852120399,-0.002746641635894775,-0.02427443861961365,-0.001992464065551758,1,0.6930405497550964,0.2475314140319824,0.5098673105239868,-0.4454866051673889,-0.9272612929344177,0.3650642037391663,0.08315400779247284,0,0,0,-1,143631.8849475417,3,2,1561775856.537354,1561774855.646675,312,1.729442,0.6177826,1.898393,267.0564,0,0,1561775855.57312,143631.580292,0,-0.8032227,75.39606,3232235528,177669985,1,1,0.94,-28.30464,-34.54204,1
1561775858.705617,119,0,0,1561775857.997924,4.634720678445543,-74.15109079338065,2554.02,0,233.0859375,3,10,-9999,1561775858.686263,-17.10559844970703,-16.03181076049805,16.32415771484375,137.7707672119141,145.2635345458984,15,143634.0440114167,-0.925811767578125,0.3565826416015625,0.0733795166015625,143634.0308584167,-0.2210799210479469,0.1661295866957969,0.02315378883325791,143634.0309804167,-94.95979309082031,-46.39671325683594,-548.350341796875,143634.0359244167,-2.118177640924056,-1.658900260361698,-0.3740368863069466,-0.2167889475822449,0.1657116860151291,0.01618074625730515,-0.003567099571228027,-0.01746055483818054,-0.008023262023925781,1,0.6933525204658508,0.2453884035348892,0.5113674998283386,-0.4444661736488342,-0.927249550819397,0.3653761744499207,0.08190637081861496,0,0,0,-1,143631.8849475417,3,2,1561775856.537354,1561774855.646675,312,1.729442,0.6177826,1.898393,267.0564,0,0,1561775855.57312,143631.580292,0,-0.8032227,75.39606,3232235528,177669985,1,1,0.94,-28.30464,-34.95184,1
