loggingTime,loggingSample,identifierForVendor,deviceID,locationTimestamp_since1970,locationLatitude,locationLongitude,locationAltitude,locationSpeed,locationCourse,locationVerticalAccuracy,locationHorizontalAccuracy,locationFloor,locationHeadingTimestamp_since1970,locationHeadingX,locationHeadingY,locationHeadingZ,locationTrueHeading,locationMagneticHeading,locationHeadingAccuracy,accelerometerTimestamp_sinceReboot,accelerometerAccelerationX,accelerometerAccelerationY,accelerometerAccelerationZ,gyroTimestamp_sinceReboot,gyroRotationX,gyroRotationY,gyroRotationZ,magnetometerTimestamp_sinceReboot,magnetometerX,magnetometerY,magnetometerZ,motionTimestamp_sinceReboot,motionYaw,motionRoll,motionPitch,motionRotationRateX,motionRotationRateY,motionRotationRateZ,motionUserAccelerationX,motionUserAccelerationY,motionUserAccelerationZ,motionAttitudeReferenceFrame,motionQuaternionX,motionQuaternionY,motionQuaternionZ,motionQuaternionW,motionGravityX,motionGravityY,motionGravityZ,motionMagneticFieldX,motionMagneticFieldY,motionMagneticFieldZ,motionMagneticFieldCalibrationAccuracy,activityTimestamp_sinceReboot,activity,activityActivityConfidence,activityActivityStartDate,pedometerStartDate,pedometerNumberofSteps,pedometerAverageActivePace,pedometerCurrentPace,pedometerCurrentCadence,pedometerDistance,pedometerFloorAscended,pedometerFloorDescended,pedometerEndDate,altimeterTimestamp_sinceReboot,altimeterReset,altimeterRelativeAltitude,altimeterPressure,IP_en0,IP_pdp_ip0,deviceOrientation,batteryState,batteryLevel,avAudioRecorderPeakPower,avAudioRecorderAveragePower,label
1561233980.152639,1,0,0,1561233979.907826,4.60309850764687,-74.0647505901201,2650.706,-1,-1,10,65,-9999,1561233980.129686,-25.92471122741699,2.049225091934204,5.64111328125,147.1808013916016,154.7237701416016,15,57871.868067875,-0.7689666748046875,0.63824462890625,0.014190673828125,57871.856928875,0.06529804676765284,-0.06277310373814872,-0.04501301506062829,57871.852960875,11.75128173828125,2.5784912109375,-529.20166015625,57871.86199487501,3.137094864448119,-1.576843379824475,-0.6933243809086784,0.05063152313232422,-0.06073968112468719,-0.04610759019851685,0.005317628383636475,-0.00575101375579834,0.00482475757598877,1,0.6665098071098328,-0.2410189509391785,0.6635688543319702,-0.2394805252552032,-0.7691116333007812,0.6390975713729858,0.004650915507227182,0,0,0,-1,57870.552861875,3,1,1561233978.836402,1561233790.755775,20,1.561009,0,0,17.35344,0,0,1561233932.152863,57869.161591,0,-0.6525879,74.43718,2650659446,177292352,1,1,0.59,-35.26799,-38.55885,0
1561233980.170708,2,0,0,1561233979.907826,4.60309850764687,-74.0647505901201,2650.706,-1,-1,10,65,-9999,1561233980.154731,-26.09433364868164,2.390119552612305,5.75823974609375,147.0849151611328,154.6278839111328,15,57871.88834175,-0.7694854736328125,0.6452789306640625,0.0124053955078125,57871.87719187501,0.008054997033053663,-0.008661398813264706,-0.02954191334003098,57871.87308375,11.75614929199219,2.402191162109375,-529.1226196289062,57871.88226875001,3.137628289458426,-1.577131660665311,-0.6925740213842841,-0.003813344519585371,-0.004789064638316631,-0.0270012766122818,0.000210881233215332,0.005293846130371094,0.01206159591674805,1,0.6667605638504028,-0.240558072924614,0.6634981632232666,-0.2394417226314545,-0.7695895433425903,0.6385203003883362,0.004875672049820423,0,0,0,-1,57870.552861875,3,1,1561233978.836402,1561233790.755775,20,1.561009,0,0,17.35344,0,0,1561233932.152863,57869.161591,0,-0.6525879,74.43718,2650659446,177292352,1,1,0.59,-35.26799,-38.55885,0
1561233980.190247,3,0,0,1561233979.907826,4.60309850764687,-74.0647505901201,2650.706,-1,-1,10,65,-9999,1561233980.180377,-25.82768630981445,2.230988740921021,5.83685302734375,147.0983734130859,154.6413421630859,15,57871.90860575,-0.7619476318359375,0.6441192626953125,0.0099334716796875,57871.89746675,-0.01452381532085613,0.01621359103251141,-0.01216851565279006,57871.89322475001,11.71249389648438,2.453582763671875,-529.1444091796875,57871.90253275001,3.137295435322395,-1.577229830378804,-0.6921888028717381,-0.01703727059066296,0.0061080576851964,-0.01015891321003437,0.004606664180755615,0.006704211235046387,0.007330536842346191,1,0.6667997241020203,-0.2405296862125397,0.6635510325431824,-0.2392144948244095,-0.7698349356651306,0.6382237672805786,0.004952804185450077,0,0,0,-1,57870.552861875,3,1,1561233978.836402,1561233790.755775,20,1.561009,0,0,17.35344,0,0,1561233932.152863,57869.161591,0,-0.6525879,74.43718,2650659446,177292352,1,1,0.59,-35.82527,-39.36079,0
1561233980.21048,4,0,0,1561233979.907826,4.60309850764687,-74.0647505901201,2650.706,-1,-1,10,65,-9999,1561233980.204525,-25.84556579589844,2.129341602325439,5.6265869140625,147.1369323730469,154.6799011230469,15,57871.92886975,-0.7668304443359375,0.6410369873046875,0.013214111328125,57871.91773075001,-0.01510491707071142,0.0330080174987691,0.006391586616190171,57871.91336675001,12.10304260253906,2.354827880859375,-529.19677734375,57871.92279675,3.136827018670779,-1.577182105071446,-0.6921611893571347,-0.01402523554861546,0.02780616097152233,0.006987050175666809,0.003541469573974609,0.004833400249481201,0.007214546203613281,1,0.6667308807373047,-0.2406824082136154,0.6636264324188232,-0.2390440404415131,-0.7698530554771423,0.6382024884223938,0.004916178062558174,0,0,0,-1,57870.552861875,3,1,1561233978.836402,1561233790.755775,20,1.561009,0,0,17.35344,0,0,1561233932.152863,57869.161591,0,-0.6525879,74.43718,2650659446,177292352,1,1,0.59,-36.38255,-39.88738,0
1561233980.230744,5,0,0,1561233979.907826,4.60309850764687,-74.0647505901201,2650.706,-1,-1,10,65,-9999,1561233980.204525,-25.84556579589844,2.129341602325439,5.6265869140625,147.1369323730469,154.6799011230469,15,57871.94913275,-0.7650299072265625,0.6342926025390625,0.01361083984375,57871.93796375,-0.0006380933971829855,0.01896117432914616,0.01822454397163024,57871.93350775,11.64781188964844,2.621383666992188,-529.3243408203125,57871.94305975,3.136672702368573,-1.576935267264027,-0.6924127060482526,-0.001087598968297243,0.006134956143796444,0.01551076397299767,0.005380809307098389,-0.000304102897644043,0.005925536155700684,1,0.6665999293327332,-0.2408466637134552,0.6636971831321716,-0.2390471398830414,-0.7696935534477234,0.638396143913269,0.004725162405520678,0,0,0,-1,57870.552861875,3,1,1561233978.836402,1561233790.755775,20,1.561009,0,0,17.35344,0,0,1561233932.152863,57869.161591,0,-0.6525879,74.43718,2650659446,177292352,1,1,0.59,-36.93983,-38.92461,0
1561233980.251748,6,0,0,1561233979.907826,4.60309850764687,-74.0647505901201,2650.706,-1,-1,10,65,-9999,1561233980.23107,-25.90471839904785,2.149667978286743,5.67059326171875,147.1494140625,154.6923828125,15,57871.96939675001,-0.761688232421875,0.6342315673828125,0.0133819580078125,57871.95822775,0.003785683489547637,0.001144094004298041,0.006729808074630235,57871.95364975,11.97686767578125,2.576263427734375,-529.2184448242188,57871.96332375,3.136670242998259,-1.576965408710414,-0.6925754507437533,0.005844343453645706,-0.01612507551908493,-0.005743125919252634,0.004590213298797607,-0.003999888896942139,0.01113665103912354,1,0.6665899157524109,-0.2408977895975113,0.663668155670166,-0.2391042709350586,-0.7695896029472351,0.6385213732719421,0.004747721832245588,0,0,0,-1,57870.552861875,3,1,1561233978.836402,1561233790.755775,20,1.561009,0,0,17.35344,0,0,1561233932.152863,57869.161591,0,-0.6525879,74.43718,2650659446,177292352,1,1,0.59,-37.49711,-39.85679,0
1561233980.271376,7,0,0,1561233979.907826,4.60309850764687,-74.0647505901201,2650.706,-1,-1,10,65,-9999,1561233980.255295,-25.93125915527344,2.090385913848877,5.84991455078125,147.1400604248047,154.6830291748047,15,57871.98966075,-0.764984130859375,0.6348876953125,0.0175933837890625,57871.97849075001,0.02561854442212624,-0.03806482777661156,-0.02905162538334739,57871.97379175,11.71369934082031,2.559829711914062,-529.1018676757812,57871.98358775,3.137110957049039,-1.577421416590043,-0.6921155152275299,0.02612591162323952,-0.04787980765104294,-0.035775326192379,0.008131682872772217,-0.005003929138183594,0.009303689002990723,1,0.6668499708175659,-0.240544006228447,0.6635180711746216,-0.239151805639267,-0.7698809504508972,0.6381673216819763,0.005100605078041553,0,0,0,-1,57870.552861875,3,1,1561233978.836402,1561233790.755775,20,1.561009,0,0,17.35344,0,0,1561233932.152863,57869.161591,0,-0.6525879,74.43718,2650659446,177292352,1,1,0.59,-36.85711,-40.87693,0
1561233980.291605,8,0,0,1561233979.907826,4.60309850764687,-74.0647505901201,2650.706,-1,-1,10,65,-9999,1561233980.281739,-25.91458511352539,2.062971115112305,5.68072509765625,147.097412109375,154.640380859375,15,57872.00992375,-0.764556884765625,0.6396026611328125,0.017791748046875,57871.99875475001,0.02448350516553447,-0.0351153768693488,-0.03419339049996337,57871.99393275,11.70027160644531,2.371612548828125,-528.995361328125,57872.00382075,3.137740498856305,-1.577920441155464,-0.6913799327039407,0.01776385307312012,-0.03690651804208755,-0.03554283082485199,0.005180120468139648,0.0003080964088439941,0.01270031929016113,1,0.6671801209449768,-0.2400307357311249,0.6633636355400085,-0.2391749322414398,-0.7703474164009094,0.637600839138031,0.005488135851919651,0,0,0,-1,57870.552861875,3,1,1561233978.836402,1561233790.755775,20,1.561009,0,0,17.35344,0,0,1561233932.152863,57869.161591,0,-0.6525879,74.43718,2650659446,177292352,1,1,0.59,-36.22385,-41.77543,0
1561233980.311883,9,0,0,1561233979.907826,4.60309850764687,-74.0647505901201,2650.706,-1,-1,10,65,-9999,1561233980.305915,-25.73843002319336,2.073106527328491,5.64105224609375,147.1111907958984,154.6541595458984,15,57872.03018775,-0.7703857421875,0.642669677734375,0.015472412109375,57872.01901875,-0.0189691638124164,0.01192829852246491,-0.0116020612889302,57872.01404375,11.94985961914062,2.387741088867188,-529.3310546875,57872.02408475,3.137546107944841,-1.578306889989151,-0.6909267256612741,-0.03936681151390076,0.02554806880652905,-0.00561209861189127,0.003391563892364502,0.006470918655395508,0.01027953624725342,1,0.6673397421836853,-0.2398992925882339,0.6633116602897644,-0.2390054315328598,-0.7706339955329895,0.637251615524292,0.005788004025816917,0,0,0,-1,57870.552861875,3,1,1561233978.836402,1561233790.755775,20,1.561009,0,0,17.35344,0,0,1561233932.152863,57869.161591,0,-0.6525879,74.43718,2650659446,177292352,1,1,0.59,-36.22385,-41.77543,0
1561233980.336549,10,0,0,1561233979.907826,4.60309850764687,-74.0647505901201,2650.706,-1,-1,10,65,-9999,1561233980.332343,-25.69469833374023,1.969351768493652,5.651123046875,147.2135009765625,154.7564697265625,15,57872.05045175,-0.762237548828125,0.6429595947265625,0.0073394775390625,57872.03928175,-0.05630322018591021,0.05792774845085855,0.001724396805826307,57872.03418575,11.91848754882812,2.456832885742188,-529.34423828125,57872.04434775,3.136085767876599,-1.578370814739156,-0.6908809368749167,-0.05189725011587143,0.04157789796590805,-0.007972458377480507,0.004793763160705566,0.002279520034790039,0.005743980407714844,1,0.6671911478042603,-0.2403637170791626,0.6634701490402222,-0.238513395190239,-0.7706629037857056,0.637216329574585,0.005837488453835249,0,0,0,-1,57870.552861875,3,1,1561233978.836402,1561233790.755775,20,1.561009,0,0,17.35344,0,0,1561233932.152863,57869.161591,0,-0.6525879,74.43718,2650659446,177292352,1,1,0.59,-36.22385,-39.10392,0
1561233980.352561,11,0,0,1561233979.907826,4.60309850764687,-74.0647505901201,2650.706,-1,-1,10,65,-9999,1561233980.332343,-25.69469833374023,1.969351768493652,5.651123046875,147.2135009765625,154.7564697265625,15,57872.07068475,-0.7559356689453125,0.63983154296875,0.0091400146484375,57872.05954575,-0.004345746266791301,0.02154417427041401,-0.009822270732430246,57872.05432675,11.70712280273438,2.4388427734375,-529.1127319335938,57872.06461175,3.13548371986263,-1.578302330799843,-0.6906371079542214,0.00631785299628973,-0.001153583638370037,-0.01121032983064651,0.009817123413085938,0.007304489612579346,0.0005769729614257812,1,0.6671255826950073,-0.2404919862747192,0.6635936498641968,-0.2382238954305649,-0.7708187103271484,0.6370283961296082,0.005785876885056496,0,0,0,-1,57870.552861875,3,1,1561233978.836402,1561233790.755775,20,1.561009,0,0,17.35344,0,0,1561233932.152863,57869.161591,0,-0.6525879,74.43718,2650659446,177292352,1,1,0.59,-36.22385,-39.10392,0
1561233980.372682,12,0,0,1561233979.907826,4.60309850764687,-74.0647505901201,2650.706,-1,-1,10,65,-9999,1561233980.357164,-25.85634231567383,2.019636631011963,5.5699462890625,147.2184448242188,154.7614135742188,15,57872.09094875,-0.75445556640625,0.64019775390625,0.0111236572265625,57872.07980975,0.03335316317604337,-0.02946121955900157,-0.0165424914271362,57872.07446875,11.70126342773438,2.366973876953125,-529.1751098632812,57872.08487575001,3.136047827618752,-1.578485052927987,-0.69032466176633,0.02755922451615334,-0.03823916614055634,-0.01700217090547085,0.01994836330413818,0.001411318778991699,0.002082586288452148,1,0.6672918200492859,-0.2401785850524902,0.6635023355484009,-0.2383285909891129,-0.771016538143158,0.6367875337600708,0.005928251426666975,0,0,0,-1,57870.552861875,3,1,1561233978.836402,1561233790.755775,20,1.561009,0,0,17.35344,0,0,1561233932.152863,57869.161591,0,-0.6525879,74.43718,2650659446,177292352,1,1,0.59,-36.22385,-39.40976,0
1561233980.392917,13,0,0,1561233979.907826,4.60309850764687,-74.0647505901201,2650.706,-1,-1,10,65,-9999,1561233980.383059,-25.71458435058594,2.034369230270386,5.69671630859375,147.1828460693359,154.7258148193359,15,57872.11121175,-0.7589569091796875,0.6410980224609375,0.014404296875,57872.10007275001,0.009342901736215983,-0.01234588218138933,-0.005547098234526046,57872.09461075001,11.70314025878906,2.316329956054688,-529.2466430664062,57872.10513875,3.13638480176528,-1.578809194332916,-0.6900943355188633,-0.002985633909702301,-0.01482252404093742,-0.008444902487099171,0.01354706287384033,0.003618359565734863,0.009155750274658203,1,0.6674676537513733,-0.2399512529373169,0.6633812785148621,-0.2384022623300552,-0.7711612582206726,0.6366099119186401,0.006179345306009054,0,0,0,-1,57870.552861875,3,1,1561233978.836402,1561233790.755775,20,1.561009,0,0,17.35344,0,0,1561233932.152863,57869.161591,0,-0.6525879,74.43718,2650659446,177292352,1,1,0.59,-36.22385,-39.96654,0
1561233980.420334,14,0,0,1561233979.907826,4.60309850764687,-74.0647505901201,2650.706,-1,-1,10,65,-9999,1561233980.407239,-25.89635276794434,1.992470502853394,5.78021240234375,147.2073669433594,154.7503356933594,15,57872.13147575,-0.7587432861328125,0.64178466796875,0.0120391845703125,57872.12033675001,-0.01109153330796201,0.007827563075960896,0.005547098234526046,57872.11475175001,11.727294921875,2.3089599609375,-529.21240234375,57872.12540275,3.136079572213628,-1.579113530807585,-0.6900815419566809,-0.01630596630275249,-0.001186606474220753,0.0056959493085742,0.0115848183631897,0.006237447261810303,0.007532477378845215,1,0.6675335168838501,-0.2400126159191132,0.6633175015449524,-0.2383332997560501,-0.7711673378944397,0.6366000771522522,0.006414103787392378,0,0,0,-1,57870.552861875,3,1,1561233978.836402,1561233790.755775,20,1.561009,0,0,17.35344,0,0,1561233932.152863,57869.161591,0,-0.6525879,74.43718,2650659446,177292352,1,1,0.59,-36.22385,-40.93326,0
1561233980.43339,15,0,0,1561233979.907826,4.60309850764687,-74.0647505901201,2650.706,-1,-1,10,65,-9999,1561233980.407239,-25.89635276794434,1.992470502853394,5.78021240234375,147.2073669433594,154.7503356933594,15,57872.15173975001,-0.757659912109375,0.6383819580078125,0.0079803466796875,57872.14060075,-0.01238130222388739,0.007673099732736301,0.003875432018283307,57872.13489375,11.72105407714844,2.362136840820312,-529.3497314453125,57872.14566675,3.135663203789939,-1.579372781657347,-0.6901750839452927,-0.02010576613247395,0.004299505613744259,0.004096721298992634,0.0148196816444397,0.00358659029006958,0.002129793167114258,1,0.6675581932067871,-0.240151658654213,0.6632696986198425,-0.2382575571537018,-0.7711063623428345,0.6366721987724304,0.006613520905375481,0,0,0,-1,57870.552861875,3,1,1561233978.836402,1561233790.755775,20,1.561009,0,0,17.35344,0,0,1561233932.152863,57869.161591,0,-0.6525879,74.43718,2650659446,177292352,1,1,0.59,-36.22385,-38.73713,0
1561233980.453785,16,0,0,1561233979.907826,4.60309850764687,-74.0647505901201,2650.706,-1,-1,10,65,-9999,1561233980.434231,-25.88335418701172,1.954400777816772,5.7015380859375,147.2431793212891,154.7861480712891,15,57872.17200275001,-0.7599945068359375,0.6409149169921875,0.005645751953125,57872.16086375,-0.02679859110114035,0.01001774675644206,0.01483433990395937,57872.15503475,11.76327514648438,2.392166137695312,-529.3031616210938,57872.16592975,3.134958475132497,-1.579734399219366,-0.6903779542994321,-0.02595912665128708,-0.002629240974783897,0.01347184740006924,0.01146847009658813,0.00170588493347168,-0.0001926422119140625,1,0.6675688624382019,-0.2404109388589859,0.6632089614868164,-0.2381351739168167,-0.7709746956825256,0.6368286609649658,0.006891211029142141,0,0,0,-1,57870.552861875,3,1,1561233978.836402,1561233790.755775,20,1.561009,0,0,17.35344,0,0,1561233932.152863,57869.161591,0,-0.6525879,74.43718,2650659446,177292352,1,1,0.59,-36.22385,-39.42297,0
1561233980.473966,17,0,0,1561233979.907826,4.60309850764687,-74.0647505901201,2650.706,-1,-1,10,65,-9999,1561233980.457964,-26.01983642578125,2.120603322982788,5.71612548828125,147.2941284179688,154.8370971679688,15,57872.19226675,-0.7674713134765625,0.6408538818359375,0.0034637451171875,57872.18112775,-0.01374484070200796,-0.003076217375150528,0.01820164078625556,57872.17514675001,11.74800109863281,2.312576293945312,-529.17919921875,57872.18619375001,3.134408402266706,-1.580294562239772,-0.6906766888118645,-0.01474615279585123,-0.008908442221581936,0.01490436121821404,0.007825791835784912,0.00550389289855957,-0.00393378734588623,1,0.6676521897315979,-0.2406266629695892,0.6630522608757019,-0.2381201088428497,-0.7707805037498474,0.6370589137077332,0.00732127483934164,0,0,0,-1,57870.552861875,3,1,1561233978.836402,1561233790.755775,20,1.561009,0,0,17.35344,0,0,1561233932.152863,57869.161591,0,-0.6525879,74.43718,2650659446,177292352,1,1,0.59,-36.22385,-39.42297,0
1561233980.497705,18,0,0,1561233979.907826,4.60309850764687,-74.0647505901201,2650.706,-1,-1,10,65,-9999,1561233980.484252,-25.9975528717041,1.936044454574585,5.65509033203125,147.3169708251953,154.8599395751953,15,57872.21253075,-0.7667083740234375,0.635894775390625,0.0016937255859375,57872.20139175,0.002778742281388677,0.0007044061083259585,0.01327399382128195,57872.19528775,11.76994323730469,2.287704467773438,-529.142822265625,57872.20645775001,3.134265277118286,-1.580537970018012,-0.6909533094387774,0.004829678684473038,-0.007378988899290562,0.005297007970511913,0.002047598361968994,0.0009114742279052734,-0.005889773368835449,1,0.6676820516586304,-0.2407369166612625,0.6629553437232971,-0.2381945699453354,-0.770602285861969,0.6372721195220947,0.007507170084863901,0,0,0,-1,57870.552861875,3,1,1561233978.836402,1561233790.755775,20,1.561009,0,0,17.35344,0,0,1561233932.152863,57869.161591,0,-0.6525879,74.43718,2650659446,177292352,1,1,0.59,-36.22385,-39.84494,0
1561233980.5144,19,0,0,1561233979.907826,4.60309850764687,-74.0647505901201,2650.706,-1,-1,10,65,-9999,1561233980.508584,-25.85099792480469,1.950339078903198,5.5631103515625,147.2984313964844,154.8414001464844,15,57872.23279375,-0.765838623046875,0.63702392578125,0.0086212158203125,57872.22165475001,0.02296284018309923,-0.0006298375978037398,-0.000489755324465572,57872.21542975,11.72747802734375,2.167938232421875,-529.2327880859375,57872.22672075,3.134656558399343,-1.58048266885511,-0.6909687334820032,0.01971479691565037,-0.006150099448859692,-0.003841141937300563,0.002724885940551758,-0.001816511154174805,-0.00265800952911377,1,0.6677089333534241,-0.2406179755926132,0.6629253625869751,-0.2383227795362473,-0.7705928683280945,0.6372840404510498,0.007464459631592035,0,0,0,-1,57870.552861875,3,1,1561233978.836402,1561233790.755775,20,1.561009,0,0,17.35344,0,0,1561233932.152863,57869.161591,0,-0.6525879,74.43718,2650659446,177292352,1,1,0.59,-36.22385,-40.42664,0
1561233980.534963,20,0,0,1561233979.907826,4.60309850764687,-74.0647505901201,2650.706,-1,-1,10,65,-9999,1561233980.508584,-25.85099792480469,1.950339078903198,5.5631103515625,147.2984313964844,154.8414001464844,15,57872.25305775,-0.76739501953125,0.634307861328125,0.0137939453125,57872.24191875001,0.02313621197006338,0.002682335849927809,-0.009094961438729607,57872.23557075,11.84243774414062,2.375259399414062,-529.263427734375,57872.24698475,3.135199084677157,-1.580241036082396,-0.6908071102688784,0.01668731495738029,-0.004594813566654921,-0.01169693470001221,0.005301535129547119,-0.002027630805969238,0.003356218338012695,1,0.6677137017250061,-0.2404122054576874,0.6629604697227478,-0.2384194582700729,-0.7706977128982544,0.6371594667434692,0.007279232144355774,0,0,0,-1,57870.552861875,3,1,1561233978.836402,1561233790.755775,20,1.561009,0,0,17.35344,0,0,1561233932.152863,57869.161591,0,-0.6525879,74.43718,2650659446,177292352,1,1,0.59,-36.22385,-40.96487,0
1561233980.554992,21,0,0,1561233979.907826,4.60309850764687,-74.0647505901201,2650.706,-1,-1,10,65,-9999,1561233980.535776,-25.8327522277832,2.146010637283325,5.70001220703125,147.2664947509766,154.8094635009766,15,57872.27332175001,-0.7657470703125,0.635955810546875,0.016021728515625,57872.26218275,-0.01816701969208453,0.02294845911321279,0.007635016529148168,57872.25571275,11.68405151367188,2.425369262695312,-529.142578125,57872.26724875,3.134978042022281,-1.580198930098987,-0.6907962932585122,-0.03264081850647926,0.02144237980246544,0.01006721705198288,0.004454374313354492,0.0006815195083618164,0.009110569953918457,1,0.6676744818687439,-0.2404874414205551,0.6630021929740906,-0.2383374869823456,-0.7707049250602722,0.6371511220932007,0.007246846333146095,0,0,0,-1,57870.552861875,3,1,1561233978.836402,1561233790.755775,20,1.561009,0,0,17.35344,0,0,1561233932.152863,57869.161591,0,-0.6525879,74.43718,2650659446,177292352,1,1,0.59,-36.22385,-41.95318,0
1561233980.575721,22,0,0,1561233979.907826,4.60309850764687,-74.0647505901201,2650.706,-1,-1,10,65,-9999,1561233980.559786,-25.73641586303711,1.863031387329102,5.7469482421875,147.3139801025391,154.8569488525391,15,57872.29358475,-0.7621612548828125,0.6380462646484375,0.0102386474609375,57872.28241575,-0.0243735166125142,0.02902632535299163,0.01651958824176152,57872.27585475001,11.54994201660156,2.481399536132812,-529.0169677734375,57872.28751175,3.134164082504328,-1.580251105621265,-0.6910745251633658,-0.02122144959867001,0.01520019583404064,0.01222464349120855,0.007786154747009277,-0.001989603042602539,0.006279706954956055,1,0.6675600409507751,-0.2408449351787567,0.6630489230155945,-0.2381670325994492,-0.7705273032188416,0.6373655200004578,0.007285382132977247,0,0,0,-1,57870.552861875,3,1,1561233978.836402,1561233790.755775,20,1.561009,0,0,17.35344,0,0,1561233932.152863,57869.161591,0,-0.6525879,74.43718,2650659446,177292352,1,1,0.59,-36.22385,-42.65701,0
1561233980.595481,23,0,0,1561233979.907826,4.60309850764687,-74.0647505901201,2650.706,-1,-1,10,65,-9999,1561233980.59115,-25.90183258056641,1.951770067214966,5.74517822265625,147.3448791503906,154.8878479003906,15,57872.31384875,-0.765869140625,0.6357879638671875,0.011383056640625,57872.30267875001,0.006039250403972688,0.003134007970805248,0.01156344545312405,57872.29599575001,11.56149291992188,2.36083984375,-528.9833984375,57872.30777575001,3.134028357289254,-1.580302633494976,-0.6912506946128629,0.006078612990677357,-0.01228788681328297,0.006979281082749367,0.006132125854492188,-0.001453936100006104,0.002563714981079102,1,0.6675393581390381,-0.2409423440694809,0.6630269289016724,-0.2381872683763504,-0.7704143524169922,0.6375012993812561,0.007324015721678734,0,0,0,-1,57870.552861875,3,1,1561233978.836402,1561233790.755775,20,1.561009,0,0,17.35344,0,0,1561233932.152863,57869.161591,0,-0.6525879,74.43718,2650659446,177292352,1,1,0.59,-36.22385,-40.41487,0
1561233980.615837,24,0,0,1561233979.907826,4.60309850764687,-74.0647505901201,2650.706,-1,-1,10,65,-9999,1561233980.59115,-25.90183258056641,1.951770067214966,5.74517822265625,147.3448791503906,154.8878479003906,15,57872.33411275,-0.7672576904296875,0.634765625,0.0114288330078125,57872.32294275,0.02342862705775408,-0.02474103284294513,0.004139617598419167,57872.31613775,11.54391479492188,2.373916625976562,-529.1677856445312,57872.32803975001,3.134471054740117,-1.580532686788011,-0.6913089820129261,0.02450768835842609,-0.03411142528057098,-0.001667203614488244,0.00400310754776001,-0.001193642616271973,0.003866910934448242,1,0.6676618456840515,-0.2407864332199097,0.6628907322883606,-0.2383811473846436,-0.7703757882118225,0.637546181678772,0.00750089343637228,0,0,0,-1,57870.552861875,3,1,1561233978.836402,1561233790.755775,20,1.561009,0,0,17.35344,0,0,1561233932.152863,57869.161591,0,-0.6525879,74.43718,2650659446,177292352,1,1,0.59,-36.22385,-41.24647,0
1561233980.636173,25,0,0,1561233979.907826,4.60309850764687,-74.0647505901201,2650.706,-1,-1,10,65,-9999,1561233980.59115,-25.90183258056641,1.951770067214966,5.74517822265625,147.3448791503906,154.8878479003906,15,57872.35437575,-0.7700958251953125,0.63372802734375,0.0145111083984375,57872.34320675,0.01354750046523309,-0.01635686909915767,-0.005101285068046781,57872.33624875001,11.58323669433594,2.422805786132812,-529.035400390625,57872.34827275,3.134876051132706,-1.580877796905042,-0.691192982909874,0.001799179473891854,-0.01506130211055279,-0.007963448762893677,0.002716302871704102,-0.003103137016296387,0.004866719245910645,1,0.6678390502929688,-0.2405717223882675,0.6627408266067505,-0.2385181039571762,-0.7704470157623291,0.6374568343162537,0.007767501287162304,0,0,0,-1,57870.552861875,3,1,1561233978.836402,1561233790.755775,20,1.561009,0,0,17.35344,0,0,1561233932.152863,57869.161591,0,-0.6525879,74.43718,2650659446,177292352,1,1,0.59,-36.22385,-41.24647,0
1561233980.656328,26,0,0,1561233979.907826,4.60309850764687,-74.0647505901201,2650.706,-1,-1,10,65,-9999,1561233980.63625,-26.18184089660645,2.034409284591675,5.68939208984375,147.3023529052734,154.8453216552734,15,57872.37463975,-0.7689361572265625,0.6345977783203125,0.0146636962890625,57872.36347075,-0.03118348583595582,0.0295562944099174,-0.001617071413896113,57872.35638975001,11.62055969238281,2.361328125,-528.815673828125,57872.36853575001,3.134309614226586,-1.581060082736088,-0.6910757672582449,-0.04272967204451561,0.03182125091552734,-0.004569782875478268,0.0001649856567382812,-0.004630327224731445,0.00660240650177002,1,0.6678455471992493,-0.2407003939151764,0.6627612709999084,-0.2383131086826324,-0.7705202102661133,0.6373664736747742,0.007908709347248077,0,0,0,-1,57870.552861875,3,1,1561233978.836402,1561233790.755775,20,1.561009,0,0,17.35344,0,0,1561233932.152863,57869.161591,0,-0.6525879,74.43718,2650659446,177292352,1,1,0.59,-36.22385,-41.89214,0
1561233980.676506,27,0,0,1561233979.907826,4.60309850764687,-74.0647505901201,2650.706,-1,-1,10,65,-9999,1561233980.660491,-26.17678451538086,2.207336664199829,5.7830810546875,147.3745727539062,154.9175415039062,15,57872.39490375001,-0.77154541015625,0.6388702392578125,0.009979248046875,57872.38373375,-0.04349927429702725,0.04228434020773311,-0.001547296593336037,57872.37653175,11.59284973144531,2.387939453125,-529.186279296875,57872.38879975001,3.133072563946015,-1.581137550496239,-0.6910027640865616,-0.03605446219444275,0.0293868537992239,-0.004688027314841747,-0.000201106071472168,-0.001980066299438477,0.004711151123046875,1,0.6677311062812805,-0.2410800904035568,0.6628912687301636,-0.2378880232572556,-0.7705661058425903,0.637310266494751,0.007968880236148834,0,0,0,-1,57870.552861875,3,1,1561233978.836402,1561233790.755775,20,1.561009,0,0,17.35344,0,0,1561233932.152863,57869.161591,0,-0.6525879,74.43718,2650659446,177292352,1,1,0.59,-36.22385,-36.9486,0
1561233980.696767,28,0,0,1561233979.907826,4.60309850764687,-74.0647505901201,2650.706,-1,-1,10,65,-9999,1561233980.686925,-26.08950424194336,2.124632358551025,5.75213623046875,147.4261016845703,154.9690704345703,15,57872.41516675,-0.7662200927734375,0.6397247314453125,0.0096435546875,57872.40399775001,0.008970858131931913,0.005576659322625925,0.001429851189263543,57872.39667375,11.69851684570312,2.43695068359375,-529.0819091796875,57872.40906375,3.132819474099765,-1.581120442696771,-0.6909317795314741,0.02114890888333321,-0.0139683410525322,-0.002413687529042363,0.001019299030303955,0.005948185920715332,0.001138091087341309,1,0.6677035689353943,-0.2411431670188904,0.6629354953765869,-0.2377782762050629,-0.770611584186554,0.6372555494308472,0.007956165820360184,0,0,0,-1,57870.552861875,3,1,1561233978.836402,1561233790.755775,20,1.561009,0,0,17.35344,0,0,1561233932.152863,57869.161591,0,-0.6525879,74.43718,2650659446,177292352,1,1,0.59,-36.22385,-37.71291,0
1561233980.718201,29,0,0,1561233979.907826,4.60309850764687,-74.0647505901201,2650.706,-1,-1,10,65,-9999,1561233980.711177,-25.96626281738281,1.93278980255127,5.5081787109375,147.3742218017578,154.9171905517578,15,57872.43539975,-0.7658233642578125,0.6343231201171875,0.0150146484375,57872.42426175001,0.04024462512884142,-0.03047295445712268,-0.005205680982777887,57872.41681475,11.47932434082031,2.154769897460938,-529.3270874023438,57872.42932675,3.133713884341795,-1.581159958117412,-0.6908185116726197,0.03717155009508133,-0.03828380256891251,-0.009781323373317719,0.006874144077301025,0.0004355311393737793,0.003960251808166504,1,0.6678382158279419,-0.2408024072647095,0.6628291606903076,-0.2380415797233582,-0.7706832885742188,0.6371682286262512,0.007987363263964653,0,0,0,-1,57870.552861875,3,1,1561233978.836402,1561233790.755775,20,1.561009,0,0,17.35344,0,0,1561233932.152863,57869.161591,0,-0.6525879,74.43718,2650659446,177292352,1,1,0.59,-36.22385,-38.30692,0
1561233980.737292,30,0,0,1561233979.907826,4.60309850764687,-74.0647505901201,2650.706,-1,-1,10,65,-9999,1561233980.711177,-25.96626281738281,1.93278980255127,5.5081787109375,147.3742218017578,154.9171905517578,15,57872.45566375001,-0.769439697265625,0.6323394775390625,0.0195770263671875,57872.44452475,0.02155562586310135,-0.02288880430479502,-0.01197703437041336,57872.43695675,11.8392333984375,2.17144775390625,-529.2553100585938,57872.44959075,3.134327986769503,-1.581467316216703,-0.6905642549240296,0.008070923388004303,-0.02112292498350143,-0.01600459776818752,0.003630936145782471,-0.005380451679229736,0.01023721694946289,1,0.6680448651313782,-0.2404766976833344,0.662683367729187,-0.2381969094276428,-0.7708428502082825,0.6369722485542297,0.008225968107581139,0,0,0,-1,57870.552861875,3,1,1561233978.836402,1561233790.755775,20,1.561009,0,0,17.35344,0,0,1561233932.152863,57869.161591,0,-0.6525879,74.43718,2650659446,177292352,1,1,0.59,-36.22385,-39.07161,0
1561233980.757547,31,0,0,1561233979.907826,4.60309850764687,-74.0647505901201,2650.706,-1,-1,10,65,-9999,1561233980.737578,-25.91565895080566,1.756388664245605,5.63128662109375,147.3432006835938,154.8861694335938,15,57872.47592775001,-0.7736968994140625,0.633209228515625,0.0184478759765625,57872.46478875,-0.0137363185865197,0.01863520341172046,-0.009657687377063349,57872.45709775,11.83285522460938,2.35052490234375,-529.4296875,57872.46985475,3.134088601727094,-1.581622799480222,-0.6902730922367029,-0.01816227845847607,0.02282216399908066,-0.01644641533493996,-0.001494944095611572,-0.002851903438568115,0.01066458225250244,1,0.6681029796600342,-0.2404419332742691,0.6626942753791809,-0.2380387485027313,-0.7710270285606384,0.6367477774620056,0.008347829803824425,0,0,0,-1,57870.552861875,3,1,1561233978.836402,1561233790.755775,20,1.561009,0,0,17.35344,0,0,1561233932.152863,57869.161591,0,-0.6525879,74.43718,2650659446,177292352,1,1,0.59,-36.22385,-39.99831,0
1561233980.777791,32,0,0,1561233979.907826,4.60309850764687,-74.0647505901201,2650.706,-1,-1,10,65,-9999,1561233980.762315,-25.90225982666016,1.990702390670776,5.613525390625,147.3777618408203,154.9207305908203,15,57872.49619075,-0.7674102783203125,0.635284423828125,0.018157958984375,57872.48505275,-0.01662771258201873,0.04354614593221265,-0.01823706082875361,57872.47723975001,11.79751586914062,2.376327514648438,-529.1608276367188,57872.49011775001,3.13355173860801,-1.581307677846247,-0.6898923705314512,-0.02137005515396595,0.034938745200634,-0.02095993980765343,-0.001173675060272217,-0.002298891544342041,0.008860349655151367,1,0.6679802536964417,-0.2405329197645187,0.6629081964492798,-0.2376954108476639,-0.7712720036506653,0.636454164981842,0.008107409812510014,0,0,0,-1,57870.552861875,3,1,1561233978.836402,1561233790.755775,20,1.561009,0,0,17.35344,0,0,1561233932.152863,57869.161591,0,-0.6525879,74.43718,2650659446,177292352,1,1,0.59,-36.22385,-40.98819,0
1561233980.798052,33,0,0,1561233979.907826,4.60309850764687,-74.0647505901201,2650.706,-1,-1,10,65,-9999,1561233980.788296,-26.0770320892334,2.081392765045166,5.7078857421875,147.4228515625,154.9658203125,15,57872.51645475,-0.7610626220703125,0.63433837890625,0.0179595947265625,57872.50531575,-0.02320785100338651,0.03597584421755341,-0.0007592672267815908,57872.49735075,11.88978576660156,2.214401245117188,-529.3223266601562,57872.51038175001,3.132924538906098,-1.581064861120211,-0.6896969674414509,-0.02443854883313179,0.023812061175704,0.001864147838205099,0.005529165267944336,0.0004458427429199219,0.01168608665466309,1,0.6678480505943298,-0.2407066375017166,0.6630867123603821,-0.2373928427696228,-0.7713982462882996,0.6363034248352051,0.007921407930552959,0,0,0,-1,57870.552861875,3,1,1561233978.836402,1561233790.755775,20,1.561009,0,0,17.35344,0,0,1561233932.152863,57869.161591,0,-0.6525879,74.43718,2650659446,177292352,1,1,0.59,-36.22385,-40.98819,0
1561233980.818369,34,0,0,1561233979.907826,4.60309850764687,-74.0647505901201,2650.706,-1,-1,10,65,-9999,1561233980.812387,-25.87490463256836,1.940003633499146,5.552734375,147.4731140136719,155.0160827636719,15,57872.53671875,-0.7629241943359375,0.6356353759765625,0.0167236328125,57872.52557975001,-0.01729962812504572,0.003991545841810763,0.005196892551180625,57872.51749275,11.80958557128906,1.918350219726562,-529.13037109375,57872.53064575,3.132312340733959,-1.581328159227544,-0.689764050624407,-0.01715826615691185,-0.005023582372814417,0.003585348837077618,0.01250338554382324,-0.003054380416870117,0.01004910469055176,1,0.6678534746170044,-0.240901991724968,0.6630635857582092,-0.237244039773941,-0.771353542804718,0.6363551616668701,0.008124066516757011,0,0,0,-1,57870.552861875,3,1,1561233978.836402,1561233790.755775,20,1.561009,0,0,17.35344,0,0,1561233932.152863,57870.110943,0,-0.6948242,74.43758,2650659446,177292352,1,1,0.59,-36.22385,-41.4068,0
1561233980.838594,35,0,0,1561233979.907826,4.60309850764687,-74.0647505901201,2650.706,-1,-1,10,65,-9999,1561233980.812387,-25.87490463256836,1.940003633499146,5.552734375,147.4731140136719,155.0160827636719,15,57872.55698175,-0.765655517578125,0.6360931396484375,0.01397705078125,57872.54584375001,-0.01498720535052992,0.00443948953716209,0.009101885657563813,57872.53763375001,11.7723388671875,2.587265014648438,-529.1356811523438,57872.55090875,3.131839838529751,-1.581717289154667,-0.6898654558816762,-0.01995032466948032,0.002113689668476582,0.01234821416437626,0.006027042865753174,0.001109302043914795,0.007598161697387695,1,0.6679131984710693,-0.241047129034996,0.6629778146743774,-0.2371682524681091,-0.7712858319282532,0.6364334225654602,0.008423518389463425,0,0,0,-1,57870.552861875,3,1,1561233978.836402,1561233790.755775,20,1.561009,0,0,17.35344,0,0,1561233932.152863,57870.110943,0,-0.6948242,74.43758,2650659446,177292352,1,1,0.59,-36.22385,-41.80851,0
1561233980.858875,36,0,0,1561233979.907826,4.60309850764687,-74.0647505901201,2650.706,-1,-1,10,65,-9999,1561233980.839364,-26.11038589477539,2.05471658706665,5.69000244140625,147.5132141113281,155.0561828613281,15,57872.57724575001,-0.7674407958984375,0.6387176513671875,0.0116119384765625,57872.56610675,-0.02818370118409056,0.02224911301095799,0.02970543143096184,57872.55777575001,11.59785461425781,2.4327392578125,-529.4127807617188,57872.57117275,3.131069239013979,-1.582018446370264,-0.690312491400321,-0.03313110768795013,0.01505904830992222,0.02621369436383247,0.004641175270080566,-0.0005323886871337891,0.003386616706848145,1,0.6678655743598938,-0.2414163947105408,0.6629161834716797,-0.2370989769697189,-0.7709986567497253,0.6367781758308411,0.008652602322399616,0,0,0,-1,57870.552861875,3,1,1561233978.836402,1561233790.755775,20,1.561009,0,0,17.35344,0,0,1561233932.152863,57870.110943,0,-0.6948242,74.43758,2650659446,177292352,1,1,0.59,-36.22385,-42.49672,0
1561233980.879112,37,0,0,1561233979.907826,4.60309850764687,-74.0647505901201,2650.706,-1,-1,10,65,-9999,1561233980.863128,-25.88724136352539,1.962323427200317,5.68572998046875,147.5758514404297,155.1188201904297,15,57872.59750975,-0.76678466796875,0.6370391845703125,0.0070037841796875,57872.58637075,-0.02392930134268898,0.006609699509467661,0.02051779198629747,57872.57791775,11.9501953125,2.399429321289062,-529.1585083007812,57872.59143675,3.130283118291574,-1.582413555093039,-0.6907238028652274,-0.0285456757992506,-0.003877357812598348,0.01171171851456165,0.002391993999481201,0.001912355422973633,0.002108454704284668,1,0.6678513288497925,-0.2417678534984589,0.6628291606903076,-0.2370240688323975,-0.7707330584526062,0.6370952725410461,0.00895418506115675,0,0,0,-1,57870.552861875,3,1,1561233978.836402,1561233790.755775,20,1.561009,0,0,17.35344,0,0,1561233932.152863,57870.110943,0,-0.6948242,74.43758,2650659446,177292352,1,1,0.59,-36.22385,-43.16209,0
1561233980.899488,38,0,0,1561233979.907826,4.60309850764687,-74.0647505901201,2650.706,-1,-1,10,65,-9999,1561233980.889896,-26.03527641296387,2.012068033218384,5.79937744140625,147.6377258300781,155.1806945800781,15,57872.61777275,-0.7722015380859375,0.63677978515625,0.0072784423828125,57872.60663475,-0.03128734911846891,0.02614185557632681,0.01406468634892647,57872.59805875,11.77714538574219,2.585006713867188,-529.09619140625,57872.61169975001,3.129419697768146,-1.582798294326717,-0.6909570928553965,-0.03950538486242294,0.02602621354162693,0.01399910729378462,0.001278579235076904,-0.0004342198371887207,-0.001878976821899414,1,0.6678458452224731,-0.2420875728130341,0.6627756953239441,-0.2368626892566681,-0.7705809473991394,0.6372750401496887,0.009248931892216206,0,0,0,-1,57870.552861875,3,1,1561233978.836402,1561233790.755775,20,1.561009,0,0,17.35344,0,0,1561233932.152863,57870.110943,0,-0.6948242,74.43758,2650659446,177292352,1,1,0.59,-36.22385,-39.22259,0
1561233980.919677,39,0,0,1561233979.907826,4.60309850764687,-74.0647505901201,2650.706,-1,-1,10,65,-9999,1561233980.913796,-26.02315902709961,2.043663263320923,5.5008544921875,147.71044921875,155.25341796875,15,57872.63803675,-0.7660064697265625,0.631011962890625,0.010223388671875,57872.62689775,-0.03093954028010456,0.05255242410664262,0.02232314888926219,57872.61820075,11.8621826171875,2.4300537109375,-529.2811889648438,57872.63196375001,3.128410267313552,-1.58266704481437,-0.6913005819934437,-0.02610568702220917,0.04110848903656006,0.01974913850426674,0.001091361045837402,-0.00275886058807373,-0.002706050872802734,1,0.6676379442214966,-0.2425534427165985,0.66289883852005,-0.2366274446249008,-0.7703632116317749,0.6375396847724915,0.009145194664597511,0,0,0,-1,57870.552861875,3,1,1561233978.836402,1561233790.755775,20,1.561009,0,0,17.35344,0,0,1561233932.152863,57870.110943,0,-0.6948242,74.43758,2650659446,177292352,1,1,0.59,-36.22385,-39.98505,0
1561233980.939923,40,0,0,1561233979.907826,4.60309850764687,-74.0647505901201,2650.706,-1,-1,10,65,-9999,1561233980.913796,-26.02315902709961,2.043663263320923,5.5008544921875,147.71044921875,155.25341796875,15,57872.65830075,-0.759796142578125,0.635223388671875,0.0158538818359375,57872.64713075,-0.000678307129643182,0.02817011906253116,0.01448546580115899,57872.63834175,11.63650512695312,2.624588012695312,-529.1410522460938,57872.65222775,3.128125640284553,-1.582282585311263,-0.6915801221224221,0.0007275233510881662,0.01324117556214333,0.004347545560449362,0.006654024124145508,-0.005247712135314941,0.00461125373840332,1,0.6674416661262512,-0.2427861392498016,0.6630282402038574,-0.2365801632404327,-0.770188570022583,0.6377550363540649,0.00884697400033474,0,0,0,-1,57870.552861875,3,1,1561233978.836402,1561233790.755775,20,1.561009,0,0,17.35344,0,0,1561233932.152863,57870.110943,0,-0.6948242,74.43758,2650659446,177292352,1,1,0.59,-36.22385,-39.98505,0
1561233980.960235,41,0,0,1561233979.907826,4.60309850764687,-74.0647505901201,2650.706,-1,-1,10,65,-9999,1561233980.940201,-25.95139312744141,2.23030424118042,5.6331787109375,147.7263336181641,155.2693023681641,15,57872.67856375001,-0.7558135986328125,0.6404571533203125,0.016448974609375,57872.66739475,0.01941071592115154,-0.02284725899178978,-0.01779204661060137,57872.65848375,11.97361755371094,2.39312744140625,-529.2547607421875,57872.67249175,3.128424094509295,-1.582413842311241,-0.6913448217277334,0.02141868695616722,-0.04667063057422638,-0.02735259383916855,0.01208233833312988,-0.0004583001136779785,0.007178664207458496,1,0.667550265789032,-0.242593377828598,0.6629765629768372,-0.2366161495447159,-0.7703373432159424,0.637573778629303,0.008949808776378632,0,0,0,-1,57870.552861875,3,1,1561233978.836402,1561233790.755775,20,1.561009,0,0,17.35344,0,0,1561233932.152863,57870.110943,0,-0.6948242,74.43758,2650659446,177292352,1,1,0.59,-36.22385,-40.44046,0
1561233980.980957,42,0,0,1561233979.907826,4.60309850764687,-74.0647505901201,2650.706,-1,-1,10,65,-9999,1561233980.965077,-25.83083152770996,2.210161209106445,5.66876220703125,147.6938934326172,155.2368621826172,15,57872.69882775001,-0.755645751953125,0.6417388916015625,0.017059326171875,57872.68765875,0.02625424097432815,-0.06315313682570302,-0.02579164989298139,57872.67862575001,11.91532897949219,2.411834716796875,-529.1314697265625,57872.69275475,3.129034593865263,-1.583329917166763,-0.6907606912546084,0.018586415797472,-0.06714660674333572,-0.01874179393053055,0.01629132032394409,0.005286574363708496,0.008223176002502441,1,0.6679994463920593,-0.2420884519815445,0.6626667380332947,-0.236733540892601,-0.7707011103630066,0.637123703956604,0.009660158306360245,0,0,0,-1,57870.552861875,3,1,1561233978.836402,1561233790.755775,20,1.561009,0,0,17.35344,0,0,1561233932.152863,57870.110943,0,-0.6948242,74.43758,2650659446,177292352,1,1,0.59,-36.22385,-41.03026,0
1561233981.001488,43,0,0,1561233979.907826,4.60309850764687,-74.0647505901201,2650.706,-1,-1,10,65,-9999,1561233980.990858,-25.9588508605957,2.129727602005005,5.7696533203125,147.6805114746094,155.2234802246094,15,57872.71909175,-0.7651519775390625,0.6447601318359375,0.0096893310546875,57872.70792175001,-0.01448626474948602,-0.004805407870938977,0.003966512127564018,57872.69876675001,11.73796081542969,2.309249877929688,-529.0909423828125,57872.71298775,3.128939596944198,-1.584043731121442,-0.6906621704561685,-0.03650639951229095,0.01253064349293709,0.01290002185851336,0.01021295785903931,0.007513999938964844,0.00336921215057373,1,0.6682364940643311,-0.2420032024383545,0.6624510288238525,-0.2367554008960724,-0.7707567811012268,0.6370477676391602,0.01021112408488989,0,0,0,-1,57870.552861875,3,1,1561233978.836402,1561233790.755775,20,1.561009,0,0,17.35344,0,0,1561233932.152863,57870.110943,0,-0.6948242,74.43758,2650659446,177292352,1,1,0.59,-36.22385,-41.19501,0
1561233981.020977,44,0,0,1561233979.907826,4.60309850764687,-74.0647505901201,2650.706,-1,-1,10,65,-9999,1561233981.015094,-25.8603515625,2.095118999481201,5.5660400390625,147.7820739746094,155.3250427246094,15,57872.73935575,-0.77484130859375,0.635986328125,0.0060577392578125,57872.72818575001,-0.06109131750976367,0.07194263368740055,0.04999712104071159,57872.71890875,11.81138610839844,2.692581176757812,-529.2338256835938,57872.73325175,3.127446152527489,-1.584007533283183,-0.6913810703445146,-0.06471966207027435,0.07574183493852615,0.05234942585229874,0.001790106296539307,0.0009328126907348633,-0.001906871795654297,1,0.6679552793502808,-0.2427433431148529,0.6625559329986572,-0.2364975959062576,-0.7702990174293518,0.6376017332077026,0.01017717178910971,0,0,0,-1,57870.552861875,3,1,1561233978.836402,1561233790.755775,20,1.561009,0,0,17.35344,0,0,1561233932.152863,57870.110943,0,-0.6948242,74.43758,2650659446,177292352,1,1,0.59,-36.22385,-42.1529,0
1561233981.049843,45,0,0,1561233979.907826,4.60309850764687,-74.0647505901201,2650.706,-1,-1,10,65,-9999,1561233981.047632,-25.85776138305664,2.043592691421509,5.70159912109375,147.8459625244141,155.3889312744141,15,57872.75961875,-0.7740325927734375,0.631378173828125,0.00408935546875,57872.74844975,-0.02549470743143755,0.06951649393433836,0.03707732764441018,57872.73901975001,11.81929016113281,2.359405517578125,-529.1546020507812,57872.75351575,3.126310076375016,-1.583372427658223,-0.6921965093012963,-0.0105562899261713,0.04966150224208832,0.02173692360520363,-0.005132436752319336,-0.003677725791931152,-0.007957100868225098,1,0.6675063967704773,-0.2434664517641068,0.6628071069717407,-0.2363176643848419,-0.7697851061820984,0.6382296681404114,0.009681405499577522,0,0,0,-1,57870.552861875,3,1,1561233978.836402,1561233790.755775,20,1.561009,0,0,17.35344,0,0,1561233932.152863,57870.110943,0,-0.6948242,74.43758,2650659446,177292352,1,1,0.59,-36.22385,-40.10672,0
1561233981.061464,46,0,0,1561233979.907826,4.60309850764687,-74.0647505901201,2650.706,-1,-1,10,65,-9999,1561233981.047632,-25.85776138305664,2.043592691421509,5.70159912109375,147.8459625244141,155.3889312744141,15,57872.77985175001,-0.7714691162109375,0.630859375,0.011688232421875,57872.76871275,0.04254266683347079,0.01327745593069905,-0.01411981378349111,57872.75916075001,11.41961669921875,2.412109375,-529.0123901367188,57872.77377875,3.126893038515556,-1.582595548692215,-0.6921661262262255,0.05134063214063644,-0.01094858348369598,-0.02606469020247459,-0.005609333515167236,-0.008781254291534424,-0.00323951244354248,1,0.6673235893249512,-0.2433537095785141,0.6630010008811951,-0.236406147480011,-0.7698118090629578,0.6382063031196594,0.009083601646125317,0,0,0,-1,57870.552861875,3,1,1561233978.836402,1561233790.755775,20,1.561009,0,0,17.35344,0,0,1561233932.152863,57870.110943,0,-0.6948242,74.43758,2650659446,177292352,1,1,0.59,-24.41737,-28.63448,0
1561233981.081722,47,0,0,1561233979.907826,4.60309850764687,-74.0647505901201,2650.706,-1,-1,10,65,-9999,1561233981.047632,-25.85776138305664,2.043592691421509,5.70159912109375,147.8459625244141,155.3889312744141,15,57872.80011575,-0.767974853515625,0.63043212890625,0.0193634033203125,57872.78897675,0.06063671591168715,-0.03292998687882978,-0.04528732065290645,57872.77930275,11.76676940917969,2.24603271484375,-529.3170776367188,57872.79404275001,3.128415175577371,-1.582242694810906,-0.6913637652528143,0.05092224851250648,-0.03801722079515457,-0.04862672463059425,0.003648996353149414,-0.006225466728210449,0.008302450180053711,1,0.6674901247024536,-0.2426228523254395,0.663032591342926,-0.2365987598896027,-0.7703268527984619,0.6375883817672729,0.008817830123007298,0,0,0,-1,57870.552861875,3,1,1561233978.836402,1561233790.755775,20,1.561009,0,0,17.35344,0,0,1561233932.152863,57870.110943,0,-0.6948242,74.43758,2650659446,177292352,1,1,0.59,-22.18916,-28.70366,0
1561233981.102044,48,0,0,1561233979.907826,4.60309850764687,-74.0647505901201,2650.706,-1,-1,10,65,-9999,1561233981.092137,-25.81994819641113,1.916449069976807,5.58709716796875,147.6974792480469,155.2404479980469,15,57872.82037975,-0.7728729248046875,0.6367950439453125,0.0248870849609375,57872.80924075,0.01340821714022194,0.001063666539377648,-0.03772181262820935,57872.79944475,11.78910827636719,2.179214477539062,-529.3651123046875,57872.81430675001,3.129066603863543,-1.58220106856508,-0.6904871453934854,-0.005932243540883064,0.008020847104489803,-0.03849579393863678,0.0006679296493530273,-0.004008769989013672,0.01656794548034668,1,0.6676626801490784,-0.2421210706233978,0.663071870803833,-0.2365157455205917,-0.7708857655525208,0.6369128227233887,0.008792134933173656,0,0,0,-1,57870.552861875,3,1,1561233978.836402,1561233790.755775,20,1.561009,0,0,17.35344,0,0,1561233932.152863,57870.110943,0,-0.6948242,74.43758,2650659446,177292352,1,1,0.59,-22.18916,-28.70366,0
1561233981.12854,49,0,0,1561233979.907826,4.60309850764687,-74.0647505901201,2650.706,-1,-1,10,65,-9999,1561233981.116294,-26.01588439941406,2.109508275985718,5.6654052734375,147.75048828125,155.29345703125,15,57872.84064275,-0.768524169921875,0.63580322265625,0.0206756591796875,57872.82950375001,-0.04098125548635733,0.0669436140052128,-0.01991458599939453,57872.81958575,11.63462829589844,2.578750610351562,-529.2166137695312,57872.83456975,3.128236332082601,-1.58190919202093,-0.6898981913547669,-0.05441216379404068,0.07331836223602295,-0.0152890058234334,-9.912252426147461e-05,0.0001380443572998047,0.01477456092834473,1,0.6675374507904053,-0.242238312959671,0.6633360981941223,-0.2360076010227203,-0.7712631821632385,0.6364586353302002,0.00857129693031311,0,0,0,-1,57870.552861875,3,1,1561233978.836402,1561233790.755775,20,1.561009,0,0,17.35344,0,0,1561233932.152863,57870.110943,0,-0.6948242,74.43758,2650659446,177292352,1,1,0.59,-16.2922,-21.17764,0
1561233981.142506,50,0,0,1561233979.907826,4.60309850764687,-74.0647505901201,2650.706,-1,-1,10,65,-9999,1561233981.116294,-26.01588439941406,2.109508275985718,5.6654052734375,147.75048828125,155.29345703125,15,57872.86090675,-0.761444091796875,0.6324462890625,0.01275634765625,57872.84976775001,-0.06585864217711453,0.09645330309605382,0.006746585989497734,57872.83972775,11.51905822753906,2.366973876953125,-529.133056640625,57872.85483375,3.126519812053771,-1.581288311865168,-0.6898454071979809,-0.06254225969314575,0.07997173070907593,0.002162954770028591,0.005692124366760254,-0.002522051334381104,0.007700085639953613,1,0.6671297550201416,-0.2428667992353439,0.6637516021728516,-0.2353451400995255,-0.7713018655776978,0.6364179253578186,0.008092784322798252,0,0,0,-1,57870.552861875,3,1,1561233978.836402,1561233790.755775,20,1.561009,0,0,17.35344,0,0,1561233932.152863,57870.110943,0,-0.6948242,74.43758,2650659446,177292352,1,1,0.59,-16.2922,-21.17764,0
1561233981.162797,51,0,0,1561233979.907826,4.60309850764687,-74.0647505901201,2650.706,-1,-1,10,65,-9999,1561233981.142799,-25.96357154846191,2.017448425292969,5.83929443359375,147.8721771240234,155.4151458740234,15,57872.8811645,-0.7660369873046875,0.6362762451171875,0.013641357421875,57872.87003175,-0.02789794399912506,0.04832252534726976,-0.01007686893264182,57872.85986875001,11.72393798828125,2.281326293945312,-529.3866577148438,57872.87509775,3.125393869629152,-1.580940516669326,-0.6896781007369476,-0.02098895609378815,0.02917992882430553,-0.01899825781583786,0.01044023036956787,-0.001569032669067383,0.005739450454711914,1,0.6668980121612549,-0.2432279735803604,0.6640195846557617,-0.2348729521036148,-0.7714113593101501,0.6362888813018799,0.007825611159205437,0,0,0,-1,57870.552861875,3,1,1561233978.836402,1561233790.755775,20,1.561009,0,0,17.35344,0,0,1561233932.152863,57870.110943,0,-0.6948242,74.43758,2650659446,177292352,1,1,0.59,-16.2922,-21.96204,0
1561233981.183031,52,0,0,1561233979.907826,4.60309850764687,-74.0647505901201,2650.706,-1,-1,10,65,-9999,1561233981.167117,-25.9193115234375,2.167983531951904,5.52001953125,147.9212951660156,155.4642639160156,15,57872.9014275,-0.7692413330078125,0.6434478759765625,0.012939453125,57872.89028850001,0.004974518600159009,0.01745888515823246,-0.01658430305625044,57872.8800045,11.49697875976562,2.267715454101562,-529.5489501953125,57872.8953545,3.125266804907952,-1.580704733382604,-0.689243216976092,0.006077813915908337,0.01407554373145103,-0.02654618769884109,0.001334488391876221,0.003466248512268066,0.005704998970031738,1,0.6668576598167419,-0.2431544661521912,0.6641635894775391,-0.2346562594175339,-0.7716897130012512,0.6359533071517944,0.007646465674042702,0,0,0,-1,57870.552861875,3,1,1561233978.836402,1561233790.755775,20,1.561009,0,0,17.35344,0,0,1561233932.152863,57870.110943,0,-0.6948242,74.43758,2650659446,177292352,1,1,0.59,-16.2922,-22.74419,0
1561233981.211523,53,0,0,1561233979.907826,4.60309850764687,-74.0647505901201,2650.706,-1,-1,10,65,-9999,1561233981.193436,-26.08204460144043,1.886429309844971,5.5185546875,147.9080352783203,155.4510040283203,15,57872.92169150001,-0.777679443359375,0.637725830078125,0.0104522705078125,57872.9105525,0.02913578127379389,0.0225923944754692,-0.08036434800255812,57872.9001465,11.68196105957031,2.2042236328125,-529.3329467773438,57872.9156185,3.125745006774886,-1.580093105793647,-0.6879852046961187,0.03473395854234695,0.0188311506062746,-0.1072037443518639,0.002763926982879639,0.007550358772277832,0.004506349563598633,1,0.6668667793273926,-0.2426512986421585,0.664457380771637,-0.2343189865350723,-0.7724934816360474,0.6349819898605347,0.007181908003985882,0,0,0,-1,57870.552861875,3,1,1561233978.836402,1561233790.755775,20,1.561009,0,0,17.35344,0,0,1561233932.152863,57870.110943,0,-0.6948242,74.43758,2650659446,177292352,1,1,0.59,-16.2922,-23.45216,0
1561233981.223583,54,0,0,1561233979.907826,4.60309850764687,-74.0647505901201,2650.706,-1,-1,10,65,-9999,1561233981.217773,-26.19308471679688,1.667179584503174,5.51080322265625,147.8652648925781,155.4082336425781,15,57872.94195550001,-0.788421630859375,0.6340789794921875,0.01641845703125,57872.9308165,0.01563595139207322,0.08130977018953625,-0.1905638233811649,57872.9202875,11.75733947753906,2.183547973632812,-529.2562255859375,57872.9358825,3.126386416330754,-1.578662774633571,-0.6846852407041518,-0.002227520104497671,0.09513816982507706,-0.2111895382404327,-0.007800042629241943,0.008516192436218262,0.005564212799072266,1,0.6668716669082642,-0.2415137588977814,0.6652417778968811,-0.2332526296377182,-0.7745943665504456,0.6324292421340942,0.006093431729823351,0,0,0,-1,57870.552861875,3,1,1561233978.836402,1561233790.755775,20,1.561009,0,0,17.35344,0,0,1561233932.152863,57870.110943,0,-0.6948242,74.43758,2650659446,177292352,1,1,0.59,-16.2922,-24.38954,0
1561233981.24384,55,0,0,1561233979.907826,4.60309850764687,-74.0647505901201,2650.706,-1,-1,10,65,-9999,1561233981.217773,-26.19308471679688,1.667179584503174,5.51080322265625,147.8652648925781,155.4082336425781,15,57872.9622185,-0.803253173828125,0.668182373046875,-0.01690673828125,57872.9510795,-0.03022581310796332,0.1375781029651664,-0.2438022777846119,57872.94042950001,11.57075500488281,2.062255859375,-529.3427734375,57872.9561455,3.125787690123008,-1.576623379765,-0.6799430607213398,-0.05500151962041855,0.1529886871576309,-0.2581631541252136,-0.02124828100204468,0.004231572151184082,-0.004256486892700195,1,0.6666955947875977,-0.2403800189495087,0.6665377020835876,-0.231218010187149,-0.7775951027870178,0.6287487745285034,0.00453113904222846,0,0,0,-1,57870.552861875,3,1,1561233978.836402,1561233790.755775,20,1.561009,0,0,17.35344,0,0,1561233932.152863,57870.110943,0,-0.6948242,74.43758,2650659446,177292352,1,1,0.59,-16.2922,-25.34711,0
1561233981.264082,56,0,0,1561233979.907826,4.60309850764687,-74.0647505901201,2650.706,-1,-1,10,65,-9999,1561233981.244124,-25.95769500732422,1.618829369544983,5.44720458984375,147.9331359863281,155.4761047363281,15,57872.9824825,-0.7830047607421875,0.7132415771484375,-0.0692901611328125,57872.9713435,-0.1028912287152114,0.19695141525572,-0.2575814732646819,57872.96057050001,11.63839721679688,2.0008544921875,-529.5472412109375,57872.97640950001,3.123483340878097,-1.57446140198835,-0.67470200926004,-0.0941220223903656,0.2046268433332443,-0.25615593791008,-0.005443394184112549,0.06201136112213135,-0.04682254791259766,1,0.6663295030593872,-0.2396581023931503,0.6681223511695862,-0.2284326106309891,-0.7808878421783447,0.6246646642684937,0.00286202528513968,0,0,0,-1,57870.552861875,3,1,1561233978.836402,1561233790.755775,20,1.561009,0,0,17.35344,0,0,1561233932.152863,57870.110943,0,-0.6948242,74.43758,2650659446,177292352,1,1,0.59,-16.2922,-25.34711,0
1561233981.290587,57,0,0,1561233979.907826,4.60309850764687,-74.0647505901201,2650.706,-1,-1,10,65,-9999,1561233981.268336,-26.18592071533203,1.433475136756897,5.59136962890625,148.0838623046875,155.6268310546875,15,57873.0027465,-0.765777587890625,0.759063720703125,-0.0923919677734375,57872.9915765,0.04551022723614609,0.1993147044070563,-0.1923683813358026,57872.98068250001,11.53599548339844,1.972442626953125,-529.5817260742188,57872.99667350001,3.123261988723075,-1.570562346598612,-0.6703330139030146,0.1145813912153244,0.1650413572788239,-0.1795674264431,0.001891672611236572,0.1215356588363647,-0.0849759578704834,1,0.6655220985412598,-0.2387229800224304,0.6699416637420654,-0.2264282703399658,-0.7836146950721741,0.6212469935417175,-0.0001833503192756325,0,0,0,-1,57870.552861875,3,1,1561233978.836402,1561233790.755775,20,1.561009,0,0,17.35344,0,0,1561233932.152863,57870.110943,0,-0.6948242,74.43758,2650659446,177292352,1,1,0.59,-16.2922,-27.24316,0
1561233981.304635,58,0,0,1561233979.907826,4.60309850764687,-74.0647505901201,2650.706,-1,-1,10,65,-9999,1561233981.294759,-26.16737747192383,1.468684792518616,5.442138671875,147.7844390869141,155.3274078369141,15,57873.0230095,-0.7260894775390625,0.769256591796875,-0.072113037109375,57873.0118405,0.3207492574763804,0.1038592877714552,-0.1587137483243623,57873.00082350001,11.47013854980469,1.888504028320312,-529.53759765625,57873.0169365,3.12976674001976,-1.564170573865757,-0.6669513514321709,0.3684370815753937,0.09353680908679962,-0.1587172746658325,0.04178225994110107,0.1474892497062683,-0.07920575141906738,1,0.6645506024360657,-0.236155778169632,0.671714723110199,-0.2267207950353622,-0.7856940031051636,0.6185935139656067,-0.005205890629440546,0,0,0,-1,57870.552861875,3,1,1561233978.836402,1561233790.755775,20,1.561009,0,0,17.35344,0,0,1561233932.152863,57870.110943,0,-0.6948242,74.43758,2650659446,177292352,1,1,0.59,-16.2922,-27.24316,0
1561233981.325378,59,0,0,1561233979.907826,4.60309850764687,-74.0647505901201,2650.706,-1,-1,10,65,-9999,1561233981.31901,-26.06073951721191,1.111673593521118,5.328125,147.0061187744141,154.5490875244141,15,57873.04327350001,-0.6749114990234375,0.7464141845703125,-0.02587890625,57873.0321045,0.4712370338257059,0.1197937795217263,-0.1709064987430721,57873.0209655,11.51394653320312,1.901580810546875,-529.527587890625,57873.0372005,3.140985174983862,-1.555186818925042,-0.6634339506831411,0.492108166217804,0.1159201487898827,-0.1726722419261932,0.08517998456954956,0.155246376991272,-0.04261839389801025,1,0.6632497906684875,-0.2322729825973511,0.6738254427909851,-0.2282723188400269,-0.7877861857414246,0.6158260107040405,-0.01229795347899199,0,0,0,-1,57870.552861875,3,1,1561233978.836402,1561233790.755775,20,1.561009,0,0,17.35344,0,0,1561233932.152863,57870.110943,0,-0.6948242,74.43758,2650659446,177292352,1,1,0.59,-16.2922,-28.17259,0
1561233981.345199,60,0,0,1561233979.907826,4.60309850764687,-74.0647505901201,2650.706,-1,-1,10,65,-9999,1561233981.31901,-26.06073951721191,1.111673593521118,5.328125,147.0061187744141,154.5490875244141,15,57873.06353750001,-0.67633056640625,0.801544189453125,0.0144195556640625,57873.0523675,0.4920277998237365,0.1325745559091255,-0.1594562376362764,57873.0411065,11.58100891113281,1.795791625976562,-529.4337158203125,57873.05743350001,-3.12967098290853,-1.545020341365538,-0.6599013910003683,0.4848758280277252,0.1270945072174072,-0.1265502870082855,0.1259870529174805,0.1565685868263245,0.01225972175598145,1,0.6616587042808533,-0.228093609213829,0.6761700510978699,-0.2301630824804306,-0.789790153503418,0.613038957118988,-0.0203621294349432,0,0,0,-1,57870.552861875,3,1,1561233978.836402,1561233790.755775,20,1.561009,0,0,17.35344,0,0,1561233932.152863,57870.110943,0,-0.6948242,74.43758,2650659446,177292352,1,1,0.59,-16.2922,-29.1207,0
1561233981.370711,61,0,0,1561233979.907826,4.60309850764687,-74.0647505901201,2650.706,-1,-1,10,65,-9999,1561233981.369534,-25.97655296325684,1.616818904876709,5.36114501953125,145.3418731689453,152.8848419189453,15,57873.0838005,-0.6365203857421875,0.818756103515625,0.026458740234375,57873.07263150001,0.4338846016406905,0.1399200868277821,-0.0002066613005901489,57873.0612485,11.66236877441406,1.387344360351562,-529.4083862304688,57873.0776975,-3.118147329670384,-1.535269540911566,-0.6588218216264744,0.4160757064819336,0.1237937808036804,0.0269833505153656,0.1228873133659363,0.1979339122772217,0.04842561483383179,1,0.6597810387611389,-0.2250470370054245,0.6781868934631348,-0.2326057851314545,-0.7902151942253113,0.6121856570243835,-0.02808562479913235,0,0,0,-1,57870.552861875,3,1,1561233978.836402,1561233790.755775,20,1.561009,0,0,17.35344,0,0,1561233932.152863,57870.110943,0,-0.6948242,74.43758,2650659446,177292352,1,1,0.59,-16.2922,-29.96004,0
1561233981.385718,62,0,0,1561233979.907826,4.60309850764687,-74.0647505901201,2650.706,-1,-1,10,65,-9999,1561233981.369534,-25.97655296325684,1.616818904876709,5.36114501953125,145.3418731689453,152.8848419189453,15,57873.1040645,-0.5839385986328125,0.812103271484375,0.044403076171875,57873.09289550001,0.4047640003851101,0.0962413154732835,0.1215354868746381,57873.0813905,11.7403564453125,2.106552124023438,-529.6012573242188,57873.0979615,-3.107676936564292,-1.526785159396999,-0.6604139565504524,0.419365257024765,0.07791364192962646,0.1493734419345856,0.1778895854949951,0.2009634971618652,0.06642335653305054,1,0.6579034328460693,-0.2231367975473404,0.6795624494552612,-0.2357283979654312,-0.7889735698699951,0.6134438514709473,-0.03474608436226845,0,0,0,-1,57870.552861875,3,1,1561233978.836402,1561233790.755775,20,1.561009,0,0,17.35344,0,0,1561233932.152863,57870.110943,0,-0.6948242,74.43758,2650659446,177292352,1,1,0.59,-16.2922,-31.0164,0
1561233981.405987,63,0,0,1561233979.907826,4.60309850764687,-74.0647505901201,2650.706,-1,-1,10,65,-9999,1561233981.396074,-25.67582702636719,1.765552997589111,5.06475830078125,144.5417175292969,152.0846862792969,15,57873.12429750001,-0.520660400390625,0.80670166015625,0.0935821533203125,57873.1131585,0.4502209643994546,0.08220911968965601,0.2453999081225505,57873.1015015,11.99571228027344,1.988754272460938,-529.5938720703125,57873.1182245,-3.096075008291247,-1.518146464516377,-0.6644299701177386,0.4356432855129242,0.07675649970769882,0.2678889036178589,0.2339010834693909,0.1914187073707581,0.1120023131370544,1,0.65583336353302,-0.2217371910810471,0.6805213093757629,-0.2400127202272415,-0.7861776947975159,0.6166104674339294,-0.04143043607473373,0,0,0,-1,57870.552861875,3,1,1561233978.836402,1561233790.755775,20,1.561009,0,0,17.35344,0,0,1561233932.152863,57870.110943,0,-0.6948242,74.43758,2650659446,177292352,1,1,0.59,-16.2922,-31.792,0
1561233981.426033,64,0,0,1561233979.907826,4.60309850764687,-74.0647505901201,2650.706,-1,-1,10,65,-9999,1561233981.420633,-25.68477630615234,1.914060592651367,5.27691650390625,143.8037872314453,151.3467559814453,15,57873.1445615,-0.4815216064453125,0.7964630126953125,0.1397552490234375,57873.1334225,0.3481862082908128,0.06871062138848037,0.3591472467053609,57873.1216425,12.024658203125,2.400650024414062,-529.3768920898438,57873.1384885,-3.085904015196655,-1.510491018317849,-0.6708078901738134,0.2995469868183136,0.06687883287668228,0.397851437330246,0.2862902879714966,0.1793606281280518,0.1627645492553711,1,0.6536927223205566,-0.2215422540903091,0.6809834837913513,-0.2446759641170502,-0.7818957567214966,0.6216190457344055,-0.04720970988273621,0,0,0,-1,57870.552861875,3,1,1561233978.836402,1561233790.755775,20,1.561009,0,0,17.35344,0,0,1561233932.152863,57870.110943,0,-0.6948242,74.43758,2650659446,177292352,1,1,0.59,-16.2922,-31.792,0
1561233981.448272,65,0,0,1561233979.907826,4.60309850764687,-74.0647505901201,2650.706,-1,-1,10,65,-9999,1561233981.44675,-25.48178100585938,2.163192510604858,5.15472412109375,143.4610290527344,151.0039978027344,15,57873.1648255,-0.4808349609375,0.7761688232421875,0.1781768798828125,57873.1536865,0.1356704806763427,0.07943863320764658,0.5692871683113713,57873.1417845,11.90304565429688,2.393875122070312,-529.5447998046875,57873.15875250001,-3.080223137898401,-1.505482215387328,-0.6810490575998758,0.08075232058763504,0.06198980659246445,0.6351249217987061,0.3036527633666992,0.1571500301361084,0.2092461585998535,1,0.6515616178512573,-0.2238611429929733,0.6805825233459473,-0.2493213415145874,-0.7752561569213867,0.6296083927154541,-0.05070729181170464,0,0,0,-1,57870.552861875,3,1,1561233978.836402,1561233790.755775,20,1.561009,0,0,17.35344,0,0,1561233932.152863,57870.110943,0,-0.6948242,74.43758,2650659446,177292352,1,1,0.59,-16.2922,-32.69748,0
1561233981.466687,66,0,0,1561233979.907826,4.60309850764687,-74.0647505901201,2650.706,-1,-1,10,65,-9999,1561233981.44675,-25.48178100585938,2.163192510604858,5.15472412109375,143.4610290527344,151.0039978027344,15,57873.1850885,-0.5456085205078125,0.7567596435546875,0.22454833984375,57873.1739495,-0.03865418532584609,0.009488044015625302,0.8683436471285112,57873.1619255,11.9798583984375,2.856704711914062,-529.4505615234375,57873.17901550001,-3.078995140224072,-1.504345559665968,-0.6972125037584281,-0.08518525213003159,-0.02100441232323647,0.9368448257446289,0.2623643279075623,0.1245183944702148,0.2542751431465149,1,0.6496217250823975,-0.2292130291461945,0.6786445379257202,-0.254744291305542,-0.7649430632591248,0.6420831680297852,-0.05090600252151489,0,0,0,-1,57870.552861875,3,1,1561233978.836402,1561233790.755775,20,1.561009,0,0,17.35344,0,0,1561233932.152863,57870.110943,0,-0.6948242,74.43758,2650659446,177292352,1,1,0.59,-16.2922,-33.30346,0
1561233981.486999,67,0,0,1561233979.907826,4.60309850764687,-74.0647505901201,2650.706,-1,-1,10,65,-9999,1561233981.470982,-25.51984405517578,2.792624711990356,5.2989501953125,143.4973754882812,151.0403442382812,15,57873.2053525,-0.6325531005859375,0.70941162109375,0.23974609375,57873.19421350001,-0.2259348637151613,-0.1204601024264641,1.060946919272459,57873.18206750001,12.16403198242188,3.3258056640625,-529.6676635742188,57873.1992795,-3.082176736537866,-1.508309277147231,-0.7184238516102434,-0.2803907096385956,-0.1680119782686234,1.071981430053711,0.1637739539146423,0.07509273290634155,0.2831268906593323,1,0.6483007073402405,-0.237065389752388,0.6748806238174438,-0.2608490288257599,-0.7513746023178101,0.6581988930702209,-0.04701238870620728,0,0,0,-1,57870.552861875,3,1,1561233978.836402,1561233790.755775,20,1.561009,0,0,17.35344,0,0,1561233932.152863,57870.110943,0,-0.6948242,74.43758,2650659446,177292352,1,1,0.59,-16.2922,-34.0471,0
1561233981.507235,68,0,0,1561233979.907826,4.60309850764687,-74.0647505901201,2650.706,-1,-1,10,65,-9999,1561233981.497845,-25.14027214050293,3.965243816375732,5.2213134765625,144.0071563720703,151.5501251220703,15,57873.2256165,-0.7430572509765625,0.6800994873046875,0.235870361328125,57873.21447750001,-0.4471958797172336,-0.23076184319093,1.076701381333041,57873.20220950001,12.40345764160156,4.252304077148438,-529.8147583007812,57873.2195435,-3.09130111975219,-1.518935205501849,-0.7410018539387668,-0.5106403231620789,-0.2427493929862976,1.074592709541321,0.04795807600021362,0.01589059829711914,0.2777780890464783,1,0.6482148766517639,-0.2463628798723221,0.6695128679275513,-0.2662243545055389,-0.7368007898330688,0.6750274300575256,-0.03824561089277267,0,0,0,-1,57870.552861875,3,1,1561233978.836402,1561233790.755775,20,1.561009,0,0,17.35344,0,0,1561233932.152863,57870.110943,0,-0.6948242,74.43758,2650659446,177292352,1,1,0.59,-16.2922,-35.01419,0
1561233981.52925,69,0,0,1561233979.907826,4.60309850764687,-74.0647505901201,2650.706,-1,-1,10,65,-9999,1561233981.521746,-25.01474952697754,4.72537088394165,5.28125,145.1306304931641,152.6735992431641,15,57873.24587950001,-0.8239593505859375,0.64825439453125,0.2188720703125,57873.2347405,-0.6847245489219459,-0.1863725404575982,1.059385774241454,57873.2223505,12.52815246582031,4.957382202148438,-529.5558471679688,57873.2398065,-3.107551811000695,-1.534438644591688,-0.7632522488443337,-0.7497738003730774,-0.1677089631557465,1.049157977104187,-0.06852006912231445,-0.03221750259399414,0.2527521848678589,1,0.6486697793006897,-0.2570885717868805,0.6635615825653076,-0.2698498964309692,-0.7221140265464783,0.6912751197814941,-0.02626596763730049,0,0,0,-1,57870.552861875,3,1,1561233978.836402,1561233790.755775,20,1.561009,0,0,17.35344,0,0,1561233932.152863,57870.110943,0,-0.6948242,74.43758,2650659446,177292352,1,1,0.59,-16.2922,-35.82314,0
1561233981.54776,70,0,0,1561233979.907826,4.60309850764687,-74.0647505901201,2650.706,-1,-1,10,65,-9999,1561233981.521746,-25.01474952697754,4.72537088394165,5.28125,145.1306304931641,152.6735992431641,15,57873.2661435,-0.887237548828125,0.619781494140625,0.1965789794921875,57873.2550045,-0.9145332467587365,-0.07506412480108242,1.001504364793563,57873.2424925,12.82136535644531,5.719192504882812,-529.33349609375,57873.2600705,-3.131240563680407,-1.553274646814152,-0.7843112268305586,-0.961550772190094,-0.06468245387077332,0.9718751907348633,-0.1483280658721924,-0.07376945018768311,0.2202882766723633,1,0.6490811705589294,-0.2692440748214722,0.6577326059341431,-0.271273136138916,-0.7077663540840149,0.7063378095626831,-0.01240252424031496,0,0,0,-1,57870.552861875,3,1,1561233978.836402,1561233790.755775,20,1.561009,0,0,17.35344,0,0,1561233932.152863,57870.110943,0,-0.6948242,74.43758,2650659446,177292352,1,1,0.59,-16.2922,-36.56866,0
1561233981.568129,71,0,0,1561233979.907826,4.60309850764687,-74.0647505901201,2650.706,-1,-1,10,65,-9999,1561233981.548035,-24.59064674377441,5.436591148376465,5.3936767578125,146.9055938720703,154.4485626220703,15,57873.2864075,-0.9277801513671875,0.6087799072265625,0.1833953857421875,57873.2752685,-1.033322748233394,-0.01815130704165306,0.8891296194365796,57873.2626335,12.99705505371094,6.47406005859375,-529.3176879882812,57873.28033450001,3.122853265913546,-1.574784886838284,-0.8029914128443043,-1.050073742866516,-0.01641318947076797,0.8576306700706482,-0.2154515385627747,-0.1065219640731812,0.1874762773513794,1,0.6495600342750549,-0.2818810045719147,0.652142345905304,-0.270786315202713,-0.6945521831512451,0.7194370031356812,0.002770277671515942,0,0,0,-1,57870.552861875,3,1,1561233978.836402,1561233790.755775,20,1.561009,0,0,17.35344,0,0,1561233932.152863,57870.110943,0,-0.6948242,74.43758,2650659446,177292352,1,1,0.59,-16.2922,-37.56733,0
1561233981.588289,72,0,0,1561233979.907826,4.60309850764687,-74.0647505901201,2650.706,-1,-1,10,65,-9999,1561233981.572307,-24.40590286254883,6.231270313262939,5.77105712890625,149.08154296875,156.62451171875,15,57873.3066705,-0.94415283203125,0.60400390625,0.1885833740234375,57873.2955315,-1.08253476938475,0.03247218948744516,0.7804872943473422,57873.2827755,13.04194641113281,6.974472045898438,-529.3213500976562,57873.30059750001,3.090921181201859,-1.597717735284399,-0.8189405958740368,-1.116402149200439,0.04424989223480225,0.7533580660820007,-0.256537139415741,-0.1244046092033386,0.1683521270751953,1,0.6500778794288635,-0.2942638993263245,0.6468835473060608,-0.2689783275127411,-0.6827481389045715,0.7304226756095886,0.01838498376309872,0,0,0,-1,57870.552861875,3,1,1561233978.836402,1561233790.755775,20,1.561009,0,0,17.35344,0,0,1561233932.152863,57870.110943,0,-0.6948242,74.43758,2650659446,177292352,1,1,0.59,-16.2922,-37.56733,0
1561233981.613694,73,0,0,1561233979.907826,4.60309850764687,-74.0647505901201,2650.706,-1,-1,10,65,-9999,1561233981.598707,-24.09396743774414,7.124744892120361,5.864990234375,151.5658111572266,159.1087799072266,15,57873.3269345,-0.972503662109375,0.5929107666015625,0.1840667724609375,57873.31579550001,-1.213257363071835,0.05162138298955091,0.6803295341749881,57873.3029175,13.44219970703125,7.469284057617188,-529.0551147460938,57873.3208615,3.054720710401262,-1.6233984417562,-0.8322363797685443,-1.2434983253479,0.03542231023311615,0.6491091251373291,-0.2837163805961609,-0.1385476589202881,0.1481055021286011,1,0.6508445143699646,-0.3067568242549896,0.6416727304458618,-0.2656270563602448,-0.6722925305366516,0.7394388318061829,0.03539666160941124,0,0,0,-1,57870.552861875,3,1,1561233978.836402,1561233790.755775,20,1.561009,0,0,17.35344,0,0,1561233932.152863,57870.110943,0,-0.6948242,74.43758,2650659446,177292352,1,1,0.59,-16.2922,-38.04933,0
1561233981.628815,74,0,0,1561233979.907826,4.60309850764687,-74.0647505901201,2650.706,-1,-1,10,65,-9999,1561233981.623467,-24.11466217041016,7.643807411193848,6.17584228515625,154.4120025634766,161.9549713134766,15,57873.34719850001,-0.9936676025390625,0.576934814453125,0.1745147705078125,57873.3360285,-1.306324989474071,0.02624838201992998,0.5327209012801473,57873.32305850001,13.60951232910156,7.95263671875,-528.665771484375,57873.3411255,3.014696749538873,-1.652609129870579,-0.8420239573915744,-1.328502178192139,0.01855278387665749,0.4720797538757324,-0.3219451308250427,-0.1629694700241089,0.1276144981384277,1,0.6523023247718811,-0.3189249038696289,0.6362401843070984,-0.2607432305812836,-0.6637268662452698,0.7459924817085266,0.05442283302545547,0,0,0,-1,57870.552861875,3,1,1561233978.836402,1561233790.755775,20,1.561009,0,0,17.35344,0,0,1561233932.152863,57870.110943,0,-0.6948242,74.43758,2650659446,177292352,1,1,0.59,-16.2922,-38.62075,0
1561233981.649093,75,0,0,1561233979.907826,4.60309850764687,-74.0647505901201,2650.706,-1,-1,10,65,-9999,1561233981.623467,-24.11466217041016,7.643807411193848,6.17584228515625,154.4120025634766,161.9549713134766,15,57873.36746150001,-1.005905151367188,0.57135009765625,0.18994140625,57873.3562925,-1.349826660616079,0.1114072189329577,0.2951879710176908,57873.3431695,13.63467407226562,8.369491577148438,-528.6699829101562,57873.3613885,2.972738138258975,-1.682543778725771,-0.8464778212189364,-1.374085307121277,0.146369606256485,0.2357164770364761,-0.3466805219650269,-0.1747782230377197,0.1068323850631714,1,0.6542064547538757,-0.330091267824173,0.6313592791557312,-0.2538486123085022,-0.6584922075271606,0.7489511966705322,0.07389266043901443,0,0,0,-1,57870.552861875,3,1,1561233978.836402,1561233790.755775,20,1.561009,0,0,17.35344,0,0,1561233932.152863,57870.110943,0,-0.6948242,74.43758,2650659446,177292352,1,1,0.59,-16.2922,-39.55638,0
1561233981.669482,76,0,0,1561233979.907826,4.60309850764687,-74.0647505901201,2650.706,-1,-1,10,65,-9999,1561233981.649357,-23.9227409362793,8.097376823425293,6.1632080078125,157.4397125244141,164.9826812744141,15,57873.3877255,-0.9644622802734375,0.566986083984375,0.16107177734375,57873.37655650001,-1.5098991537286,0.2244216555837783,0.07043661609096073,57873.3633115,13.37501525878906,8.502899169921875,-528.40869140625,57873.3816525,2.927890275309303,-1.712136899419701,-0.8452006713808935,-1.55952525138855,0.220675528049469,0.006544016301631927,-0.3301881551742554,-0.1779749393463135,0.08570504188537598,1,0.6562308669090271,-0.3407352864742279,0.6273788213729858,-0.2442464232444763,-0.6569639444351196,0.7481042742729187,0.0934789702296257,0,0,0,-1,57870.552861875,3,1,1561233978.836402,1561233790.755775,20,1.561009,0,0,17.35344,0,0,1561233932.152863,57870.110943,0,-0.6948242,74.43758,2650659446,177292352,1,1,0.59,-16.2922,-40.04507,0
1561233981.690872,77,0,0,1561233979.907826,4.60309850764687,-74.0647505901201,2650.706,-1,-1,10,65,-9999,1561233981.673621,-23.92195510864258,8.263945579528809,6.4239501953125,160.7605285644531,168.3034973144531,15,57873.4079895,-0.9365997314453125,0.5706329345703125,0.1394500732421875,57873.39681950001,-1.585770482656085,0.1881992026492836,-0.1388827855831962,57873.38345350001,13.84352111816406,8.863555908203125,-528.4171142578125,57873.4018855,2.880880569444229,-1.743232499210382,-0.8383141900227157,-1.572580575942993,0.1564475297927856,-0.1833287179470062,-0.2897778153419495,-0.1742419004440308,0.03735911846160889,1,0.6591340899467468,-0.3505887687206268,0.6233794093132019,-0.2324392050504684,-0.6588000655174255,0.7435168623924255,0.1147404685616493,0,0,0,-1,57870.552861875,3,1,1561233978.836402,1561233790.755775,20,1.561009,0,0,17.35344,0,0,1561233932.152863,57870.110943,0,-0.6948242,74.43758,2650659446,177292352,1,1,0.59,-16.2922,-40.51134,0
1561233981.709867,78,0,0,1561233979.907826,4.60309850764687,-74.0647505901201,2650.706,-1,-1,10,65,-9999,1561233981.700534,-24.00066947937012,8.544700622558594,6.85418701171875,163.9819641113281,171.5249328613281,15,57873.4282525,-0.9033050537109375,0.5845794677734375,0.0923614501953125,57873.4170835,-1.485933367078977,0.03940493043713943,-0.312869496443054,57873.40359450001,13.720947265625,9.042343139648438,-528.1033325195312,57873.4221495,2.83748638569346,-1.7738369005759,-0.8271811377235979,-1.4457927942276,-0.0128107313066721,-0.3610891103744507,-0.2570579051971436,-0.1596863269805908,-0.02057015895843506,1,0.663122296333313,-0.3584997355937958,0.6190430521965027,-0.220300629734993,-0.6630470752716064,0.7360260486602783,0.1365064829587936,0,0,0,-1,57870.552861875,3,1,1561233978.836402,1561233790.755775,20,1.561009,0,0,17.35344,0,0,1561233932.152863,57870.110943,0,-0.6948242,74.43758,2650659446,177292352,1,1,0.59,-16.2922,-41.47635,0
1561233981.730154,79,0,0,1561233979.907826,4.60309850764687,-74.0647505901201,2650.706,-1,-1,10,65,-9999,1561233981.724245,-24.19638824462891,8.415000915527344,7.32537841796875,166.5924530029297,174.1354217529297,15,57873.4485165,-0.8948211669921875,0.5926361083984375,0.0421295166015625,57873.4373475,-1.26362652771683,-0.1514553027733513,-0.4465620473777948,57873.4237365,13.50050354003906,8.831207275390625,-527.6978149414062,57873.4424125,2.801600620081175,-1.802294482474437,-0.8130216252619425,-1.198448538780212,-0.2122085243463516,-0.471424400806427,-0.2284737229347229,-0.1400482654571533,-0.08658695220947266,1,0.6682424545288086,-0.3637285530567169,0.6143563389778137,-0.2090928107500076,-0.6689718961715698,0.7263672947883606,0.1576928794384003,0,0,0,-1,57870.552861875,3,1,1561233978.836402,1561233790.755775,20,1.561009,0,0,17.35344,0,0,1561233932.152863,57870.110943,0,-0.6948242,74.43758,2650659446,177292352,1,1,0.59,-16.2922,-42.32183,0
1561233981.751709,80,0,0,1561233979.907826,4.60309850764687,-74.0647505901201,2650.706,-1,-1,10,65,-9999,1561233981.750999,-24.31520843505859,8.188490867614746,7.6763916015625,168.3718566894531,175.9148254394531,15,57873.46878050001,-0.8782501220703125,0.59112548828125,-0.0092010498046875,57873.4576105,-0.9873667078307685,-0.3420201914189523,-0.5318926581811326,57873.4438775,13.35325622558594,8.669784545898438,-527.22509765625,57873.46267650001,2.775109994808509,-1.827597247543804,-0.7977442339972753,-0.9194169044494629,-0.3819600045681,-0.5556674003601074,-0.2108528614044189,-0.116936206817627,-0.1647312641143799,1,0.6742326021194458,-0.3661873042583466,0.6094139814376831,-0.1998296529054642,-0.6754233837127686,0.715782642364502,0.1773654818534851,0,0,0,-1,57870.552861875,3,1,1561233978.836402,1561233790.755775,20,1.561009,0,0,17.35344,0,0,1561233932.152863,57870.110943,0,-0.6948242,74.43758,2650659446,177292352,1,1,0.59,-16.2922,-42.32183,0
1561233981.770804,81,0,0,1561233979.907826,4.60309850764687,-74.0647505901201,2650.706,-1,-1,10,65,-9999,1561233981.750999,-24.31520843505859,8.188490867614746,7.6763916015625,168.3718566894531,175.9148254394531,15,57873.4890135,-0.8690948486328125,0.5675811767578125,-0.0466156005859375,57873.4778745,-0.7161818077179619,-0.4463825503203234,-0.6120431543481574,57873.4640195,13.37532043457031,8.472457885742188,-526.9319458007812,57873.48294050001,2.757791221174189,-1.848681856891365,-0.7818994300349863,-0.671876072883606,-0.4690530896186829,-0.6312106251716614,-0.1922476291656494,-0.127861499786377,-0.2227598428726196,1,0.6806700229644775,-0.3660804331302643,0.6047024726867676,-0.1923758834600449,-0.6823555827140808,0.7046284675598145,0.1946531236171722,0,0,0,-1,57870.552861875,3,1,1561233978.836402,1561233790.755775,20,1.561009,0,0,17.35344,0,0,1561233932.152863,57871.060339,0,-0.6948242,74.43758,2650659446,177292352,1,1,0.59,-16.2922,-43.10205,0
1561233981.790926,82,0,0,1561233979.907826,4.60309850764687,-74.0647505901201,2650.706,-1,-1,10,65,-9999,1561233981.774975,-24.60671043395996,8.084096908569336,8.20050048828125,169.3912200927734,176.9341888427734,15,57873.5092765,-0.8626251220703125,0.561614990234375,-0.083953857421875,57873.49813850001,-0.5558906690799457,-0.4751478858864873,-0.6699453364525512,57873.4841615,12.89804077148438,8.849945068359375,-526.2041015625,57873.5032035,2.746890582162732,-1.866032223398272,-0.7657099904990272,-0.521395742893219,-0.4913884997367859,-0.6831877827644348,-0.1721468567848206,-0.1287178993225098,-0.2777016162872314,1,0.6871753931045532,-0.364234983921051,0.6004340052604675,-0.1860157251358032,-0.6897000670433044,0.6930490136146545,0.2097542881965637,0,0,0,-1,57870.552861875,3,1,1561233978.836402,1561233790.755775,20,1.561009,0,0,17.35344,0,0,1561233932.152863,57871.060339,0,-0.6948242,74.43758,2650659446,177292352,1,1,0.59,-16.2922,-43.52714,0
1561233981.811634,83,0,0,1561233979.907826,4.60309850764687,-74.0647505901201,2650.706,-1,-1,10,65,-9999,1561233981.801301,-25.14550018310547,7.75929069519043,9.18133544921875,169.9386596679688,177.4816284179688,15,57873.52954050001,-0.890167236328125,0.58331298828125,-0.1144866943359375,57873.5184015,-0.4118314972859624,-0.4965466515613829,-0.7143572760551485,57873.5043025,12.8038330078125,8.278076171875,-525.74853515625,57873.5234675,2.74073475836634,-1.880446140751956,-0.7493296926467431,-0.3764880895614624,-0.4988557100296021,-0.7237812876701355,-0.1749587655067444,-0.1135364770889282,-0.3242079019546509,1,0.6936549544334412,-0.3611016571521759,0.5965700745582581,-0.1804234683513641,-0.6973251700401306,0.6811481714248657,0.2231032103300095,0,0,0,-1,57870.552861875,3,1,1561233978.836402,1561233790.755775,20,1.561009,0,0,17.35344,0,0,1561233932.152863,57871.060339,0,-0.6948242,74.43758,2650659446,177292352,1,1,0.59,-16.2922,-44.19159,0
1561233981.831413,84,0,0,1561233979.907826,4.60309850764687,-74.0647505901201,2650.706,-1,-1,10,65,-9999,1561233981.826066,-25.53992080688477,7.453241348266602,9.6002197265625,170.0562591552734,177.5992279052734,15,57873.54980450001,-0.90692138671875,0.580810546875,-0.138946533203125,57873.5386655,-0.2383622386259071,-0.4473636588659086,-0.7343893074586156,57873.52444450001,12.39060974121094,7.860733032226562,-525.3973388671875,57873.5437315,2.739445530980487,-1.890842899102072,-0.7334155701714636,-0.190490260720253,-0.4346567690372467,-0.7455483675003052,-0.2005166411399841,-0.08396172523498535,-0.3617432117462158,1,0.6996714472770691,-0.3568204343318939,0.5935259461402893,-0.1756871491670609,-0.7051687836647034,0.6694109439849854,0.233721911907196,0,0,0,-1,57870.552861875,3,1,1561233978.836402,1561233790.755775,20,1.561009,0,0,17.35344,0,0,1561233932.152863,57871.060339,0,-0.6948242,74.43758,2650659446,177292352,1,1,0.59,-16.2922,-44.31673,0
1561233981.851984,85,0,0,1561233979.907826,4.60309850764687,-74.0647505901201,2650.706,-1,-1,10,65,-9999,1561233981.826066,-25.53992080688477,7.453241348266602,9.6002197265625,170.0562591552734,177.5992279052734,15,57873.5700685,-0.8780517578125,0.5597381591796875,-0.14581298828125,57873.5589295,-0.0815265515022687,-0.320734876406494,-0.7627591636029027,57873.5445555,11.85311889648438,7.381423950195312,-524.9298095703125,57873.5639955,2.742888050263419,-1.895911040125724,-0.7180412071296126,-0.05611619725823402,-0.2961430847644806,-0.7873557209968567,-0.1821383833885193,-0.07865661382675171,-0.3863801956176758,1,0.7047881484031677,-0.3514962792396545,0.5918503403663635,-0.1715724021196365,-0.7136440873146057,0.6579107642173767,0.2405519336462021,0,0,0,-1,57870.552861875,3,1,1561233978.836402,1561233790.755775,20,1.561009,0,0,17.35344,0,0,1561233932.152863,57871.060339,0,-0.6948242,74.43758,2650659446,177292352,1,1,0.59,-16.2922,-44.13566,0
1561233981.871964,86,0,0,1561233979.907826,4.60309850764687,-74.0647505901201,2650.706,-1,-1,10,65,-9999,1561233981.853319,-25.96204376220703,7.033169746398926,10.2164306640625,169.7619171142578,177.3048858642578,15,57873.5903315,-0.8511199951171875,0.560791015625,-0.1484375,57873.5791925,0.0003051982609230807,-0.1967543413350541,-0.8850224924034594,57873.56469650001,11.40782165527344,6.952346801757812,-524.2286987304688,57873.58425850001,2.749697463916406,-1.896221800107889,-0.7015169019229035,0.01262052357196808,-0.1694805026054382,-0.9207188487052917,-0.1353123188018799,-0.08968257904052734,-0.3897854089736938,1,0.7092399001121521,-0.3450899124145508,0.5915703773498535,-0.1671417504549026,-0.7237727642059326,0.6453771591186523,0.2442165613174438,0,0,0,-1,57870.552861875,3,1,1561233978.836402,1561233790.755775,20,1.561009,0,0,17.35344,0,0,1561233932.152863,57871.060339,0,-0.6948242,74.43758,2650659446,177292352,1,1,0.59,-16.2922,-41.6393,0
1561233981.892198,87,0,0,1561233979.907826,4.60309850764687,-74.0647505901201,2650.706,-1,-1,10,65,-9999,1561233981.876238,-26.91020202636719,5.934627056121826,10.6572265625,169.1919250488281,176.7348937988281,15,57873.6105955,-0.8296051025390625,0.585693359375,-0.1446075439453125,57873.5994565,0.04702689747694621,-0.03557344057684243,-1.002990674997936,57873.58483850001,10.71440124511719,6.331832885742188,-524.0582275390625,57873.60452250001,2.758897512957386,-1.891938266335635,-0.6829327663239618,0.06184985488653183,-0.003970102407038212,-1.029642224311829,-0.1036698818206787,-0.05909502506256104,-0.3928835391998291,1,0.7130352854728699,-0.3376532196998596,0.5927783250808716,-0.1618178933858871,-0.7360670566558838,0.6310707330703735,0.2448580265045166,0,0,0,-1,57870.552861875,3,1,1561233978.836402,1561233790.755775,20,1.561009,0,0,17.35344,0,0,1561233932.152863,57871.060339,0,-0.6948242,74.43758,2650659446,177292352,1,1,0.59,-16.2922,-41.6393,0
1561233981.912473,88,0,0,1561233979.907826,4.60309850764687,-74.0647505901201,2650.706,-1,-1,10,65,-9999,1561233981.902632,-27.51208877563477,5.189191341400146,10.60040283203125,168.4169616699219,175.9599304199219,15,57873.6308595,-0.8082275390625,0.6130523681640625,-0.1240997314453125,57873.61972050001,0.1587105525310542,0.07938723419860805,-1.066696417749831,57873.6049805,10.35610961914062,5.737564086914062,-524.2001953125,57873.6247865,2.770618320346929,-1.883504810552043,-0.6633161626906156,0.1955956667661667,0.085606649518013,-1.073685050010681,-0.06983810663223267,-0.01835161447525024,-0.3795347213745117,1,0.7160786986351013,-0.3292920887470245,0.5953219532966614,-0.1561724990606308,-0.7497420310974121,0.6157332062721252,0.242403969168663,0,0,0,-1,57870.552861875,3,1,1561233978.836402,1561233790.755775,20,1.561009,0,0,17.35344,0,0,1561233932.152863,57871.060339,0,-0.6948242,74.43758,2650659446,177292352,1,1,0.59,-16.2922,-37.45652,0
1561233981.932734,89,0,0,1561233979.907826,4.60309850764687,-74.0647505901201,2650.706,-1,-1,10,65,-9999,1561233981.926908,-27.97383880615234,4.07850170135498,10.3948974609375,167.3321228027344,174.8750915527344,15,57873.65112250001,-0.7821502685546875,0.6452789306640625,-0.084564208984375,57873.6399835,0.3343657338138465,0.1451691773363283,-1.084190190318343,57873.6251215,9.432952880859375,4.770584106445312,-524.4554443359375,57873.6450495,2.786098643311819,-1.87147464567141,-0.6441220702062009,0.3818930983543396,0.1554594933986664,-1.087373375892639,-0.02985692024230957,0.03072893619537354,-0.3430405855178833,1,0.718414306640625,-0.3198327124118805,0.5989124178886414,-0.1513006389141083,-0.7637526988983154,0.6004966497421265,0.2368241548538208,0,0,0,-1,57870.552861875,3,1,1561233978.836402,1561233790.755775,20,1.561009,0,0,17.35344,0,0,1561233932.152863,57871.060339,0,-0.6948242,74.43758,2650659446,177292352,1,1,0.59,-16.2922,-35.55441,0
1561233981.953486,90,0,0,1561233979.907826,4.60309850764687,-74.0647505901201,2650.706,-1,-1,10,65,-9999,1561233981.926908,-27.97383880615234,4.07850170135498,10.3948974609375,167.3321228027344,174.8750915527344,15,57873.67138650001,-0.7451629638671875,0.66473388671875,-0.0390777587890625,57873.6602475,0.5307863810643138,0.198697916298594,-1.078294484297126,57873.6452635,9.277206420898438,4.047897338867188,-524.5086669921875,57873.6653135,2.805673999100324,-1.856044261113853,-0.6259171577318935,0.5546765923500061,0.2075735628604889,-1.072861313819885,0.01299947500228882,0.06702172756195068,-0.2917251586914062,1,0.7199889421463013,-0.3092588186264038,0.603473961353302,-0.1476283222436905,-0.7776784300804138,0.5858408212661743,0.2280501872301102,0,0,0,-1,57870.552861875,3,1,1561233978.836402,1561233790.755775,20,1.561009,0,0,17.35344,0,0,1561233932.152863,57871.060339,0,-0.6948242,74.43758,2650659446,177292352,1,1,0.59,-16.2922,-36.30262,0
1561233981.973262,91,0,0,1561233979.907826,4.60309850764687,-74.0647505901201,2650.706,-1,-1,10,65,-9999,1561233981.953762,-28.65660667419434,3.346141576766968,10.2196044921875,165.8961334228516,173.4391021728516,15,57873.6916505,-0.7010040283203125,0.676116943359375,-0.0029449462890625,57873.6805115,0.5911471934870687,0.2703819570441478,-1.016206345591346,57873.6654045,8.609237670898438,2.839462280273438,-524.9891967773438,57873.6855775,2.82672701794053,-1.838723579034927,-0.608886516121052,0.597429096698761,0.2668395638465881,-0.9940686821937561,0.0661352276802063,0.1022703647613525,-0.2384581565856934,1,0.7207679152488708,-0.2984493970870972,0.6086649894714355,-0.1447366327047348,-0.7910192608833313,0.5719544291496277,0.217156857252121,0,0,0,-1,57870.552861875,3,1,1561233978.836402,1561233790.755775,20,1.561009,0,0,17.35344,0,0,1561233932.152863,57871.060339,0,-0.6948242,74.43758,2650659446,177292352,1,1,0.59,-16.2922,-37.04776,0
1561233981.993511,92,0,0,1561233979.907826,4.60309850764687,-74.0647505901201,2650.706,-1,-1,10,65,-9999,1561233981.977526,-29.56016731262207,1.258249282836914,9.62847900390625,164.3979034423828,171.9408721923828,15,57873.7119135,-0.6733551025390625,0.6827850341796875,0.0391998291015625,57873.70074450001,0.6400838437817107,0.2429892147038108,-0.9393501796927489,57873.6855465,8.057144165039062,1.751083374023438,-525.1275024414062,57873.70584050001,2.847643473612829,-1.821769878467706,-0.5933903470198605,0.6529043316841125,0.2210803180932999,-0.928399384021759,0.1220157742500305,0.1161637306213379,-0.1885429620742798,1,0.7211344838142395,-0.2879429161548615,0.6137669086456299,-0.1426331251859665,-0.8030765652656555,0.5591750144958496,0.2058921307325363,0,0,0,-1,57870.552861875,3,1,1561233978.836402,1561233790.755775,20,1.561009,0,0,17.35344,0,0,1561233932.152863,57871.060339,0,-0.6948242,74.43758,2650659446,177292352,1,1,0.59,-16.2922,-37.73942,0
1561233982.013804,93,0,0,1561233979.907826,4.60309850764687,-74.0647505901201,2650.706,-1,-1,10,65,-9999,1561233982.003876,-29.50124549865723,0.1688803434371948,9.1868896484375,162.8954010009766,170.4383697509766,15,57873.7321775,-0.6890411376953125,0.700286865234375,0.078277587890625,57873.7210075,0.6844877939010379,0.1941753361354214,-0.8557082793366303,57873.70568850001,8.22784423828125,0.61859130859375,-525.6717529296875,57873.72610450001,2.86868804885854,-1.806154518883448,-0.5792959177629803,0.6888775229454041,0.1777805238962173,-0.8255454897880554,0.1344560384750366,0.1484269499778748,-0.132233738899231,1,0.7214747667312622,-0.2775735259056091,0.6183958649635315,-0.1414701044559479,-0.8137773275375366,0.5474348664283752,0.1951458007097244,0,0,0,-1,57870.552861875,3,1,1561233978.836402,1561233790.755775,20,1.561009,0,0,17.35344,0,0,1561233932.152863,57871.060339,0,-0.6948242,74.43758,2650659446,177292352,1,1,0.59,-16.2922,-38.09775,0
1561233982.03396,94,0,0,1561233979.907826,4.60309850764687,-74.0647505901201,2650.706,-1,-1,10,65,-9999,1561233982.028198,-29.46591949462891,-0.6689839363098145,8.9329833984375,161.4232025146484,168.9661712646484,15,57873.7524415,-0.6915435791015625,0.683013916015625,0.0965728759765625,57873.7412715,0.7024942249793906,0.1672656912168247,-0.7458891033616868,57873.72582950001,8.0250244140625,-0.1475372314453125,-525.8701171875,57873.7463685,2.88922935637786,-1.791667675869988,-0.5672250742453173,0.6943649649620056,0.1583074927330017,-0.7367290258407593,0.1311188936233521,0.1556689143180847,-0.09626996517181396,1,0.7215768694877625,-0.2677915096282959,0.6226292848587036,-0.1412351876497269,-0.8229066133499146,0.5372937321662903,0.184770941734314,0,0,0,-1,57870.552861875,3,1,1561233978.836402,1561233790.755775,20,1.561009,0,0,17.35344,0,0,1561233932.152863,57871.060339,0,-0.6948242,74.43758,2650659446,177292352,1,1,0.59,-16.84948,-38.99415,0
1561233982.054371,95,0,0,1561233979.907826,4.60309850764687,-74.0647505901201,2650.706,-1,-1,10,65,-9999,1561233982.028198,-29.46591949462891,-0.6689839363098145,8.9329833984375,161.4232025146484,168.9661712646484,15,57873.77270450001,-0.7042694091796875,0.6668701171875,0.0908660888671875,57873.7615355,0.6507229060204682,0.1656195913470468,-0.7175192472173997,57873.7459715,8.286468505859375,-0.91986083984375,-525.9292602539062,57873.76660150001,2.908426632216492,-1.778244607560025,-0.5557555339576319,0.6315109133720398,0.1602670401334763,-0.7169215083122253,0.1358385682106018,0.1479213237762451,-0.07914125919342041,1,0.7215575575828552,-0.25853031873703,0.626587450504303,-0.1410847753286362,-0.8312884569168091,0.5275852680206299,0.1749664694070816,0,0,0,-1,57870.552861875,3,1,1561233978.836402,1561233790.755775,20,1.561009,0,0,17.35344,0,0,1561233932.152863,57871.060339,0,-0.6948242,74.43758,2650659446,177292352,1,1,0.59,-16.84948,-38.99415,0
1561233982.074567,96,0,0,1561233979.907826,4.60309850764687,-74.0647505901201,2650.706,-1,-1,10,65,-9999,1561233982.060766,-29.25219917297363,-1.397461771965027,8.76690673828125,160.0727844238281,167.6157531738281,15,57873.79296850001,-0.7086944580078125,0.6666259765625,0.08416748046875,57873.7817985,0.6113161113705657,0.1662353141910731,-0.7009469283860545,57873.76608250001,8.471282958984375,-1.5650634765625,-526.0530395507812,57873.78686450001,2.926105732113173,-1.76577179655954,-0.5442061776548898,0.6247369050979614,0.1614747792482376,-0.6941695809364319,0.1301454305648804,0.1435157656669617,-0.08102202415466309,1,0.7214847207069397,-0.249673530459404,0.6303457617759705,-0.140666738152504,-0.8393281698226929,0.5177391171455383,0.1657541543245316,0,0,0,-1,57870.552861875,3,1,1561233978.836402,1561233790.755775,20,1.561009,0,0,17.35344,0,0,1561233932.152863,57871.060339,0,-0.6948242,74.43758,2650659446,177292352,1,1,0.59,-17.40676,-39.42808,0
1561233982.09534,97,0,0,1561233979.907826,4.60309850764687,-74.0647505901201,2650.706,-1,-1,10,65,-9999,1561233982.060766,-29.25219917297363,-1.397461771965027,8.76690673828125,160.0727844238281,167.6157531738281,15,57873.8132325,-0.7046356201171875,0.67413330078125,0.07635498046875,57873.80206250001,0.7126800172006167,0.1788765409373522,-0.6333998420778298,57873.78622450001,8.670150756835938,-2.198928833007812,-526.4141845703125,57873.8071285,2.944796937178033,-1.752782841951477,-0.5337144949712266,0.727964460849762,0.171346053481102,-0.6225529313087463,0.1414297223091125,0.1605004668235779,-0.07469737529754639,1,0.7210721373558044,-0.2407519519329071,0.6341987252235413,-0.1410161107778549,-0.8467062711715698,0.5087347626686096,0.1558130532503128,0,0,0,-1,57870.552861875,3,1,1561233978.836402,1561233790.755775,20,1.561009,0,0,17.35344,0,0,1561233932.152863,57871.060339,0,-0.6948242,74.43758,2650659446,177292352,1,1,0.59,-17.96404,-40.32481,0
1561233982.11508,98,0,0,1561233979.907826,4.60309850764687,-74.0647505901201,2650.706,-1,-1,10,65,-9999,1561233982.105216,-28.62826156616211,-3.321555376052856,8.404296875,157.4132385253906,164.9562072753906,15,57873.8334655,-0.723724365234375,0.713775634765625,0.0847320556640625,57873.82232650001,0.7384375786316451,0.2114019936465989,-0.5702922453067671,57873.8063655,8.832916259765625,-2.66119384765625,-526.458251953125,57873.8273925,2.964200133123509,-1.739111577463726,-0.5245369390224509,0.7272342443466187,0.2318181842565536,-0.5403400659561157,0.142081618309021,0.1954309940338135,-0.06762206554412842,1,0.7201976776123047,-0.2319805771112442,0.6382020115852356,-0.1421216130256653,-0.853324294090271,0.5008122324943542,0.1449993699789047,0,0,0,-1,57870.552861875,3,1,1561233978.836402,1561233790.755775,20,1.561009,0,0,17.35344,0,0,1561233932.152863,57871.060339,0,-0.6948242,74.43758,2650659446,177292352,1,1,0.59,-18.52132,-40.93137,0
1561233982.135455,99,0,0,1561233979.907826,4.60309850764687,-74.0647505901201,2650.706,-1,-1,10,65,-9999,1561233982.129486,-28.26438522338867,-3.582439184188843,8.01129150390625,156.1397552490234,163.6827239990234,15,57873.85372850001,-0.70562744140625,0.721221923828125,0.09075927734375,57873.8425895,0.6701709061968809,0.3577208576255144,-0.4256903212826257,57873.8265075,9.184249877929688,-3.156997680664062,-526.7948608398438,57873.8476555,2.981834033675929,-1.72395877261738,-0.5176194544412218,0.6472829580307007,0.3640865087509155,-0.4107424020767212,0.1336831450462341,0.2102042436599731,-0.03171765804290771,1,0.7182165384292603,-0.2246200293302536,0.6427531838417053,-0.1434542089700699,-0.8588265776634216,0.4948128461837769,0.1325783133506775,0,0,0,-1,57870.552861875,3,1,1561233978.836402,1561233790.755775,20,1.561009,0,0,17.35344,0,0,1561233932.152863,57871.060339,0,-0.6948242,74.43758,2650659446,177292352,1,1,0.59,-19.0786,-41.90178,0
1561233982.155598,100,0,0,1561233979.907826,4.60309850764687,-74.0647505901201,2650.706,-1,-1,10,65,-9999,1561233982.129486,-28.26438522338867,-3.582439184188843,8.01129150390625,156.1397552490234,163.6827239990234,15,57873.8739925,-0.6829833984375,0.701019287109375,0.0888519287109375,57873.8628535,0.6142511812079421,0.4165681956007773,-0.3356981133072132,57873.8466485,9.224090576171875,-3.533721923828125,-526.8837890625,57873.8679195,2.997425681428735,-1.708307465530211,-0.5122952970592589,0.6027602553367615,0.4202144742012024,-0.2971282303333282,0.1729792356491089,0.231561541557312,-0.03125393390655518,1,0.7155343294143677,-0.2185194939374924,0.6475339531898499,-0.1447740346193314,-0.8633936643600464,0.490179181098938,0.1194802895188332,0,0,0,-1,57870.552861875,3,1,1561233978.836402,1561233790.755775,20,1.561009,0,0,17.35344,0,0,1561233932.152863,57871.060339,0,-0.6948242,74.43758,2650659446,177292352,1,1,0.59,-19.63588,-39.94896,0
1561233982.175868,101,0,0,1561233979.907826,4.60309850764687,-74.0647505901201,2650.706,-1,-1,10,65,-9999,1561233982.156443,-27.97513961791992,-4.095486640930176,7.9488525390625,155.0438385009766,162.5868072509766,15,57873.89428291667,-0.6500091552734375,0.7090911865234375,0.0789642333984375,57873.88314391667,0.5890262519949295,0.4063818707473333,-0.1861578896737378,57873.8667905,10.05366516113281,-4.041824340820312,-526.87939453125,57873.88820991667,3.011726277621349,-1.693032535389912,-0.5094976523979223,0.5880971550941467,0.3741050362586975,-0.1619115769863129,0.1997582912445068,0.2144554257392883,-0.0229644775390625,1,0.7124425172805786,-0.2136547714471817,0.6521080136299133,-0.1467394083738327,-0.8664758205413818,0.4877387583255768,0.1064454019069672,0,0,0,-1,57870.552861875,3,1,1561233978.836402,1561233790.755775,20,1.561009,0,0,17.35344,0,0,1561233932.152863,57871.060339,0,-0.6948242,74.43758,2650659446,177292352,1,1,0.59,-20.19316,-40.76859,0
1561233982.196141,102,0,0,1561233979.907826,4.60309850764687,-74.0647505901201,2650.706,-1,-1,10,65,-9999,1561233982.180156,-27.70572853088379,-4.15904426574707,7.485595703125,154.0310974121094,161.5740661621094,15,57873.91454591667,-0.640045166015625,0.7140655517578125,0.0828094482421875,57873.90340691667,0.6550875607309992,0.2956138104759946,-0.09364686393932832,57873.88695891667,9.927093505859375,-3.740020751953125,-527.34228515625,57873.90847291667,3.026551694453736,-1.67938989272635,-0.5087731836102194,0.7022711038589478,0.2459167093038559,-0.07029164582490921,0.2276802062988281,0.2282258272171021,-0.01686382293701172,1,0.7096306681632996,-0.209167093038559,0.6559034585952759,-0.1498803198337555,-0.8681983351707458,0.4871061742305756,0.09465311467647552,0,0,0,-1,57870.552861875,3,1,1561233978.836402,1561233790.755775,20,1.561009,0,0,17.35344,0,0,1561233932.152863,57871.060339,0,-0.6948242,74.43758,2650659446,177292352,1,1,0.59,-20.75043,-40.83572,0
1561233982.216388,103,0,0,1561233979.907826,4.60309850764687,-74.0647505901201,2650.706,-1,-1,10,65,-9999,1561233982.206535,-27.57569885253906,-4.139212608337402,7.50726318359375,152.8053436279297,160.3483123779297,15,57873.93480991667,-0.6557159423828125,0.723175048828125,0.0891265869140625,57873.92367091667,0.8545644516484412,0.1340036081500621,0.008205199318534133,57873.90709991667,10.02682495117188,-3.788864135742188,-527.343505859375,57873.92873691667,3.045064535084535,-1.667023978417895,-0.5102617566661434,0.888376772403717,0.1135264337062836,0.04083114862442017,0.2225835919380188,0.2273536026477814,-0.0004510879516601562,1,0.7073140740394592,-0.2040268629789352,0.6587746143341064,-0.1552282422780991,-0.868579626083374,0.4884056746959686,0.08384031802415848,0,0,0,-1,57870.552861875,3,1,1561233978.836402,1561233790.755775,20,1.561009,0,0,17.35344,0,0,1561233932.152863,57871.060339,0,-0.6948242,74.43758,2650659446,177292352,1,1,0.59,-20.75043,-40.83572,0
1561233982.236665,104,0,0,1561233979.907826,4.60309850764687,-74.0647505901201,2650.706,-1,-1,10,65,-9999,1561233982.230738,-27.19779205322266,-4.124146461486816,7.5994873046875,151.2967224121094,158.8396911621094,15,57873.95507391667,-0.650665283203125,0.708526611328125,0.1102447509765625,57873.94393491667,0.9533312427834468,0.1235371187499417,0.1788674861896459,57873.92724191667,10.12818908691406,-3.748382568359375,-527.3111572265625,57873.94900091667,3.066343156113741,-1.654310020969295,-0.5148064513334901,0.9477304220199585,0.1200386583805084,0.2181068658828735,0.2123710513114929,0.2290844023227692,0.02732491493225098,1,0.7047737240791321,-0.1989885121583939,0.6612537503242493,-0.1626072227954865,-0.8673545718193054,0.4923664033412933,0.07260485738515854,0,0,0,-1,57870.552861875,3,1,1561233978.836402,1561233790.755775,20,1.561009,0,0,17.35344,0,0,1561233932.152863,57871.060339,0,-0.6948242,74.43758,2650659446,177292352,1,1,0.59,-21.30771,-37.82958,0
1561233982.256934,105,0,0,1561233979.907826,4.60309850764687,-74.0647505901201,2650.706,-1,-1,10,65,-9999,1561233982.230738,-27.19779205322266,-4.124146461486816,7.5994873046875,151.2967224121094,158.8396911621094,15,57873.97533691667,-0.6558685302734375,0.698333740234375,0.13629150390625,57873.96419891667,0.9230564275114261,0.1506411744281141,0.3408137794451464,57873.94738291667,10.4990234375,-3.52276611328125,-527.5630493164062,57873.96926391667,3.087443114004946,-1.641103442428075,-0.5225075750194196,0.911913275718689,0.1487355530261993,0.3738674521446228,0.2130472660064697,0.2055962085723877,0.06200313568115234,1,0.7016727924346924,-0.195174902677536,0.6635552644729614,-0.1710455566644669,-0.864429771900177,0.4990547001361847,0.06087590008974075,0,0,0,-1,57870.552861875,3,1,1561233978.836402,1561233790.755775,20,1.561009,0,0,17.35344,0,0,1561233932.152863,57871.060339,0,-0.6948242,74.43758,2650659446,177292352,1,1,0.59,-21.86499,-38.52393,0
1561233982.277181,106,0,0,1561233979.907826,4.60309850764687,-74.0647505901201,2650.706,-1,-1,10,65,-9999,1561233982.257207,-27.16927719116211,-3.754017353057861,7.49835205078125,149.7992095947266,157.3421783447266,15,57873.99560091667,-0.67559814453125,0.6999359130859375,0.171295166015625,57873.98446191667,0.8927256858565137,0.143479934256891,0.4780664441251051,57873.96749391667,10.55853271484375,-3.250869750976562,-527.425048828125,57873.98952791667,3.107772846277173,-1.62801930974837,-0.5328531103189019,0.8872260451316833,0.1283493191003799,0.5107454061508179,0.1989710330963135,0.1892726421356201,0.1031572818756104,1,0.6982373595237732,-0.1926031410694122,0.6655064821243286,-0.1801935136318207,-0.8599513173103333,0.5079929828643799,0.04926276206970215,0,0,0,-1,57870.552861875,3,1,1561233978.836402,1561233790.755775,20,1.561009,0,0,17.35344,0,0,1561233932.152863,57871.060339,0,-0.6948242,74.43758,2650659446,177292352,1,1,0.59,-22.42227,-39.31941,0
1561233982.297946,107,0,0,1561233979.907826,4.60309850764687,-74.0647505901201,2650.706,-1,-1,10,65,-9999,1561233982.281458,-26.73625373840332,-3.069904088973999,7.219970703125,148.3602600097656,155.9032287597656,15,57874.01586491667,-0.6990966796875,0.6858673095703125,0.197418212890625,57874.00472591667,0.8841407197665342,0.05449360222520137,0.6034398124466565,57873.98763591667,10.9344482421875,-2.47705078125,-527.5654907226562,57874.00979191667,3.127833384343655,-1.616172389337042,-0.5455616259455491,0.8798602819442749,0.0031123086810112,0.6280379295349121,0.1658763885498047,0.1771619319915771,0.1483732461929321,1,0.6949379444122314,-0.1909165978431702,0.6666625142097473,-0.1901928037405014,-0.8539562225341797,0.5188982486724854,0.03877578675746918,0,0,0,-1,57870.552861875,3,1,1561233978.836402,1561233790.755775,20,1.561009,0,0,17.35344,0,0,1561233932.152863,57871.060339,0,-0.6948242,74.43758,2650659446,177292352,1,1,0.59,-22.97955,-40.07777,0
1561233982.317923,108,0,0,1561233979.907826,4.60309850764687,-74.0647505901201,2650.706,-1,-1,10,65,-9999,1561233982.307865,-26.71430969238281,-2.577435970306396,7.2147216796875,146.9282684326172,154.4712371826172,15,57874.03612791667,-0.7257080078125,0.6624755859375,0.2083587646484375,57874.02498991667,0.8577466628349769,-0.1104109303691591,0.6755068157569637,57874.00777791667,10.91513061523438,-2.270523071289062,-527.7724609375,57874.03005491667,-3.135470056788761,-1.607346497806849,-0.559835662898772,0.8272380828857422,-0.1382333636283875,0.6762427687644958,0.1355796456336975,0.14110267162323,0.1728174686431885,1,0.6924739480018616,-0.1896355450153351,0.6664406657218933,-0.2009355574846268,-0.84677654504776,0.5310469269752502,0.03096361644566059,0,0,0,-1,57870.552861875,3,1,1561233978.836402,1561233790.755775,20,1.561009,0,0,17.35344,0,0,1561233932.152863,57871.060339,0,-0.6948242,74.43758,2650659446,177292352,1,1,0.59,-23.53683,-40.81365,0
1561233982.338022,109,0,0,1561233979.907826,4.60309850764687,-74.0647505901201,2650.706,-1,-1,10,65,-9999,1561233982.332151,-26.30057525634766,-1.83646297454834,7.14959716796875,145.664794921875,153.207763671875,15,57874.05639191667,-0.7519378662109375,0.650054931640625,0.213104248046875,57874.04522291667,0.7133503348469896,-0.1212084506927764,0.6897632497043759,57874.02791891667,11.05574035644531,-1.523468017578125,-527.7237548828125,57874.05031891667,-3.118020375668464,-1.600747073797396,-0.5743661148931178,0.6637066602706909,-0.1133967265486717,0.695509135723114,0.1000397205352783,0.116136372089386,0.1887719631195068,1,0.6905038952827454,-0.1891424506902695,0.6654742956161499,-0.2111239731311798,-0.8391602039337158,0.5433027148246765,0.02514099143445492,0,0,0,-1,57870.552861875,3,1,1561233978.836402,1561233790.755775,20,1.561009,0,0,17.35344,0,0,1561233932.152863,57871.060339,0,-0.6948242,74.43758,2650659446,177292352,1,1,0.59,-24.09411,-41.62001,0
1561233982.358244,110,0,0,1561233979.907826,4.60309850764687,-74.0647505901201,2650.706,-1,-1,10,65,-9999,1561233982.332151,-26.30057525634766,-1.83646297454834,7.14959716796875,145.664794921875,153.207763671875,15,57874.07665591667,-0.7726898193359375,0.6416015625,0.2086334228515625,57874.06548591667,0.5058754385438216,-0.0401466208007265,0.7210513977711718,57874.04806091667,11.11711120605469,-0.8876495361328125,-527.6298828125,57874.07058291667,-3.105042502328336,-1.595144290003063,-0.5891923037222554,0.4450526237487793,-0.01556017901748419,0.7246904373168945,0.06736469268798828,0.08571350574493408,0.1900559663772583,1,0.6884229183197021,-0.1902477592229843,0.6644480228424072,-0.2199739366769791,-0.8311433792114258,0.5556896924972534,0.02024064958095551,0,0,0,-1,57870.552861875,3,1,1561233978.836402,1561233790.755775,20,1.561009,0,0,17.35344,0,0,1561233932.152863,57871.060339,0,-0.6948242,74.43758,2650659446,177292352,1,1,0.59,-24.65139,-41.89917,0
1561233982.378508,111,0,0,1561233979.907826,4.60309850764687,-74.0647505901201,2650.706,-1,-1,10,65,-9999,1561233982.358551,-26.55112075805664,-1.132590889930725,7.128662109375,144.8042755126953,152.3472442626953,15,57874.09691891667,-0.792877197265625,0.65277099609375,0.199462890625,57874.08574991667,0.2748811013897277,0.08058033036696355,0.7469823309891643,57874.06820191667,11.25482177734375,-0.4018096923828125,-527.537353515625,57874.09084591667,-3.097442015511712,-1.5900504227028,-0.6044151320685934,0.2185675501823425,0.1025331690907478,0.7558763027191162,0.04294288158416748,0.07922577857971191,0.1911435127258301,1,0.6859639286994934,-0.1933247745037079,0.6636791229248047,-0.2271764427423477,-0.8226822018623352,0.5682809352874756,0.01584195904433727,0,0,0,-1,57870.552861875,3,1,1561233978.836402,1561233790.755775,20,1.561009,0,0,17.35344,0,0,1561233932.152863,57871.060339,0,-0.6948242,74.43758,2650659446,177292352,1,1,0.59,-24.65139,-41.89917,0
1561233982.398797,112,0,0,1561233979.907826,4.60309850764687,-74.0647505901201,2650.706,-1,-1,10,65,-9999,1561233982.382789,-25.98056983947754,-0.2437710165977478,6.96795654296875,144.4108276367188,151.9537963867188,15,57874.11718291667,-0.81103515625,0.65985107421875,0.1883544921875,57874.10601391667,0.1314496366646761,0.1661242603736168,0.8013901794272651,57874.08834391667,11.50848388671875,0.155670166015625,-527.7904052734375,57874.11107991667,-3.093996904624153,-1.585303355375063,-0.6204102141557819,0.1206830814480782,0.1609781086444855,0.8106847405433655,0.008271872997283936,0.07852786779403687,0.185737133026123,1,0.6831305027008057,-0.1980763971805573,0.6630927920341492,-0.2332518547773361,-0.8135544657707214,0.5813689827919006,0.0118030859157443,0,0,0,-1,57870.552861875,3,1,1561233978.836402,1561233790.755775,20,1.561009,0,0,17.35344,0,0,1561233932.152863,57871.060339,0,-0.6948242,74.43758,2650659446,177292352,1,1,0.59,-25.20867,-42.13152,0
1561233982.419174,113,0,0,1561233979.907826,4.60309850764687,-74.0647505901201,2650.706,-1,-1,10,65,-9999,1561233982.409247,-25.81219482421875,0.2141965627670288,6.95196533203125,144.2302703857422,151.7732391357422,15,57874.13744691667,-0.8133697509765625,0.6609039306640625,0.17236328125,57874.12627691667,0.113298063306914,0.1246838759153298,0.8456234209207182,57874.10848591667,11.74221801757812,0.253173828125,-527.817138671875,57874.13134291667,-3.091554518639187,-1.581304416262426,-0.6373785517274216,0.1134821549057961,0.09657834470272064,0.8477697372436523,-0.007771849632263184,0.06366169452667236,0.1688623428344727,1,0.6803225874900818,-0.2034294903278351,0.662183940410614,-0.2393535524606705,-0.8036142587661743,0.5950907468795776,0.008444760926067829,0,0,0,-1,57870.552861875,3,1,1561233978.836402,1561233790.755775,20,1.561009,0,0,17.35344,0,0,1561233932.152863,57871.060339,0,-0.6948242,74.43758,2650659446,177292352,1,1,0.59,-25.76595,-42.32038,0
1561233982.439461,114,0,0,1561233979.907826,4.60309850764687,-74.0647505901201,2650.706,-1,-1,10,65,-9999,1561233982.433398,-25.99798965454102,0.5316368341445923,6.7532958984375,144.0063781738281,151.5493469238281,15,57874.15770991667,-0.8059234619140625,0.6629638671875,0.1649169921875,57874.14654091667,0.1563824171061069,0.02131221293946811,0.8393130607177754,57874.12862691667,11.54588317871094,0.5541534423828125,-527.9896850585938,57874.15160691667,-3.088344565444352,-1.578614812779505,-0.6544896631078736,0.1756464540958405,-0.01515697687864304,0.8225057125091553,-0.0179142951965332,0.05509448051452637,0.1620253324508667,1,0.6779828667640686,-0.2084241658449173,0.6606484651565552,-0.2458500415086746,-0.7933344841003418,0.6087544560432434,0.006202801130712032,0,0,0,-1,57870.552861875,3,1,1561233978.836402,1561233790.755775,20,1.561009,0,0,17.35344,0,0,1561233932.152863,57871.060339,0,-0.6948242,74.43758,2650659446,177292352,1,1,0.59,-26.32323,-42.48394,0
1561233982.459913,115,0,0,1561233979.907826,4.60309850764687,-74.0647505901201,2650.706,-1,-1,10,65,-9999,1561233982.433398,-25.99798965454102,0.5316368341445923,6.7532958984375,144.0063781738281,151.5493469238281,15,57874.17794391667,-0.8216094970703125,0.6525421142578125,0.15863037109375,57874.16680491667,0.2428984009106391,-0.09407510024261306,0.7861600937853199,57874.14876891667,11.79139709472656,1.245819091796875,-528.00439453125,57874.17187091667,-3.082966705992777,-1.576894975716672,-0.6706870289984352,0.2472138404846191,-0.1291013807058334,0.7754045128822327,-0.02809721231460571,0.03678560256958008,0.1583082675933838,1,0.6762637495994568,-0.2122643440961838,0.6585529446601868,-0.2528227567672729,-0.7833804488182068,0.6215243339538574,0.004777621477842331,0,0,0,-1,57870.552861875,3,1,1561233978.836402,1561233790.755775,20,1.561009,0,0,17.35344,0,0,1561233932.152863,57871.060339,0,-0.6948242,74.43758,2650659446,177292352,1,1,0.59,-26.8805,-33.73139,0
1561233982.481669,116,0,0,1561233979.907826,4.60309850764687,-74.0647505901201,2650.706,-1,-1,10,65,-9999,1561233982.46005,-25.89291763305664,1.336228847503662,6.686279296875,143.6072082519531,151.1501770019531,15,57874.19820691667,-0.8271026611328125,0.651092529296875,0.1651458740234375,57874.18706791667,0.2454406544872287,-0.18498689774243,0.734770139494497,57874.16890991667,11.88722229003906,2.190292358398438,-528.1065063476562,57874.19213391667,-3.076806602355721,-1.576651050619446,-0.685880953654507,0.2520789206027985,-0.2115203589200974,0.7104792594909668,-0.05102688074111938,0.01741707324981689,0.154084324836731,1,0.6752063035964966,-0.2153179198503494,0.6559079885482788,-0.2598446607589722,-0.7738479971885681,0.6333550214767456,0.004530718084424734,0,0,0,-1,57870.552861875,3,1,1561233978.836402,1561233790.755775,20,1.561009,0,0,17.35344,0,0,1561233932.152863,57871.060339,0,-0.6948242,74.43758,2650659446,177292352,1,1,0.59,-27.43778,-34.11001,0
1561233982.506858,117,0,0,1561233979.907826,4.60309850764687,-74.0647505901201,2650.706,-1,-1,10,65,-9999,1561233982.484865,-25.53192520141602,2.165566205978394,6.8438720703125,143.1478424072266,150.6908111572266,15,57874.21847091667,-0.823272705078125,0.6626739501953125,0.1585693359375,57874.20733191667,0.3094651776216056,-0.3091794204366402,0.6527743390081563,57874.20919391667,11.97676086425781,2.904769897460938,-528.109375,57874.21239791667,-3.069490731201236,-1.577730197859472,-0.6995027145725229,0.3320251405239105,-0.3562897741794586,0.6334729194641113,-0.0653308629989624,0.01193976402282715,0.1589858531951904,1,0.6748659610748291,-0.2172755897045135,0.6527963280677795,-0.2668410241603851,-0.7651439905166626,0.6438372731208801,0.005305494647473097,0,0,0,-1,57870.552861875,3,1,1561233978.836402,1561233790.755775,20,1.561009,0,0,17.35344,0,0,1561233932.152863,57871.060339,0,-0.6948242,74.43758,2650659446,177292352,1,1,0.59,-27.99506,-35.13198,0
1561233982.520613,118,0,0,1561233979.907826,4.60309850764687,-74.0647505901201,2650.706,-1,-1,10,65,-9999,1561233982.510589,-25.34352874755859,2.688651323318481,6.88922119140625,142.498779296875,150.041748046875,15,57874.23873491667,-0.8246307373046875,0.670196533203125,0.1668548583984375,57874.22759591667,0.4167431652843955,-0.4605889168392421,0.5835225632861718,57874.22933491667,12.28654479980469,3.179962158203125,-527.555908203125,57874.23266191667,-3.05941509889647,-1.580011067726704,-0.7116463236293377,0.4449123740196228,-0.4891040623188019,0.5720714926719666,-0.06720727682113647,0.01534509658813477,0.1534985303878784,1,0.6753702163696289,-0.2176330089569092,0.6490309238433838,-0.2743534445762634,-0.7572555541992188,0.6530814170837402,0.00697811134159565,0,0,0,-1,57870.552861875,3,1,1561233978.836402,1561233790.755775,20,1.561009,0,0,17.35344,0,0,1561233932.152863,57871.060339,0,-0.6948242,74.43758,2650659446,177292352,1,1,0.59,-28.55234,-35.88093,0
1561233982.540722,119,0,0,1561233979.907826,4.60309850764687,-74.0647505901201,2650.706,-1,-1,10,65,-9999,1561233982.535268,-25.24710464477539,2.952540159225464,7.4345703125,141.6169128417969,149.1598815917969,15,57874.25899791667,-0.8214263916015625,0.6731719970703125,0.1687469482421875,57874.24785891667,0.4845877266863822,-0.4911952956669777,0.5853252570280464,57874.24947691667,12.72052001953125,3.816253662109375,-527.5745849609375,57874.25292491667,-3.04689889748619,-1.581866365999616,-0.7234428261762487,0.4684999883174896,-0.4840807914733887,0.5900254845619202,-0.06811106204986572,0.00686943531036377,0.161334753036499,1,0.6760320663452148,-0.2170926779508591,0.6450328230857849,-0.2824609279632568,-0.7494853734970093,0.6619690656661987,0.00829717144370079,0,0,0,-1,57870.552861875,3,1,1561233978.836402,1561233790.755775,20,1.561009,0,0,17.35344,0,0,1561233932.152863,57871.060339,0,-0.6948242,74.43758,2650659446,177292352,1,1,0.59,-28.55234,-35.88093,0
1561233982.563481,120,0,0,1561233979.907826,4.60309850764687,-74.0647505901201,2650.706,-1,-1,10,65,-9999,1561233982.535268,-25.24710464477539,2.952540159225464,7.4345703125,141.6169128417969,149.1598815917969,15,57874.27926191667,-0.8174285888671875,0.6860809326171875,0.193328857421875,57874.26812291667,0.3943675521216588,-0.3800543928430279,0.6143033791653076,57874.26961791667,12.92948913574219,4.51055908203125,-527.3820190429688,57874.27318891667,-3.035711277639455,-1.582929997682652,-0.7357972591845373,0.3383702039718628,-0.3353946506977081,0.6188379526138306,-0.0782930850982666,0.009241580963134766,0.171761155128479,1,0.6762269735336304,-0.2172884941101074,0.6413183808326721,-0.2901955842971802,-0.7412412762641907,0.67117840051651,0.008994419127702713,0,0,0,-1,57870.552861875,3,1,1561233978.836402,1561233790.755775,20,1.561009,0,0,17.35344,0,0,1561233932.152863,57871.060339,0,-0.6948242,74.43758,2650659446,177292352,1,1,0.59,-29.10962,-36.54987,0
1561233982.596303,121,0,0,1561233979.907826,4.60309850764687,-74.0647505901201,2650.706,-1,-1,10,65,-9999,1561233982.535268,-25.24710464477539,2.952540159225464,7.4345703125,141.6169128417969,149.1598815917969,15,57874.29952591667,-0.8132781982421875,0.6816864013671875,0.20721435546875,57874.28838691667,0.09260530163699833,-0.1159835949501499,0.6613489187698844,57874.28975991667,13.09954833984375,4.828414916992188,-527.3114013671875,57874.29345291667,-3.03111963082507,-1.583820560779623,-0.7489086070201566,-0.001781775499694049,-0.0528138242661953,0.6601885557174683,-0.09151291847229004,0.01169562339782715,0.1922736167907715,1,0.675556480884552,-0.2199840694665909,0.6384411454200745,-0.296012282371521,-0.732370138168335,0.6808397769927979,0.009539099410176277,0,0,0,-1,57870.552861875,3,1,1561233978.836402,1561233790.755775,20,1.561009,0,0,17.35344,0,0,1561233932.152863,57871.060339,0,-0.6948242,74.43758,2650659446,177292352,1,1,0.59,-30.22418,-38.47264,0
1561233982.601519,122,0,0,1561233979.907826,4.60309850764687,-74.0647505901201,2650.706,-1,-1,10,65,-9999,1561233982.535268,-25.24710464477539,2.952540159225464,7.4345703125,141.6169128417969,149.1598815917969,15,57874.31978891667,-0.7949676513671875,0.634979248046875,0.227996826171875,57874.30864991667,-0.2218841956971508,0.1357895239770692,0.6741603215098196,57874.30990191667,12.99284362792969,5.35107421875,-527.2216796875,57874.31371591667,-3.03563939656812,-1.585516980937084,-0.7623841440087502,-0.2916266322135925,0.1656452864408493,0.6821402311325073,-0.07473844289779663,-0.03397035598754883,0.2094014883041382,1,0.6740642786026001,-0.2257433980703354,0.636557400226593,-0.2991186082363129,-0.7231131196022034,0.6906476020812988,0.01064546685665846,0,0,0,-1,57870.552861875,3,1,1561233978.836402,1561233790.755775,20,1.561009,0,0,17.35344,0,0,1561233932.152863,57871.060339,0,-0.6948242,74.43758,2650659446,177292352,1,1,0.59,-30.22418,-38.47264,0
1561233982.621726,123,0,0,1561233979.907826,4.60309850764687,-74.0647505901201,2650.706,-1,-1,10,65,-9999,1561233982.606973,-24.6292667388916,4.18909740447998,7.55584716796875,140.8805999755859,148.4235687255859,15,57874.34005291667,-0.822479248046875,0.63726806640625,0.2293853759765625,57874.32891391667,-0.4966995170079535,0.2380362677084814,0.7188196687776853,57874.33004291667,13.28965759277344,5.764251708984375,-527.3370361328125,57874.33397991667,-3.048077469928129,-1.589866492224878,-0.7765181402538635,-0.5521469116210938,0.263788640499115,0.7115143537521362,-0.09377872943878174,-0.07152736186981201,0.2079850435256958,1,0.6723573803901672,-0.2339595407247543,0.6348668932914734,-0.3002372980117798,-0.7132281064987183,0.7007998824119568,0.01360302697867155,0,0,0,-1,57870.552861875,3,1,1561233978.836402,1561233790.755775,20,1.561009,0,0,17.35344,0,0,1561233932.152863,57871.060339,0,-0.6948242,74.43758,2650659446,177292352,1,1,0.59,-30.78146,-38.93346,0
