loggingTime,loggingSample,identifierForVendor,deviceID,locationTimestamp_since1970,locationLatitude,locationLongitude,locationAltitude,locationSpeed,locationCourse,locationVerticalAccuracy,locationHorizontalAccuracy,locationFloor,locationHeadingTimestamp_since1970,locationHeadingX,locationHeadingY,locationHeadingZ,locationTrueHeading,locationMagneticHeading,locationHeadingAccuracy,accelerometerTimestamp_sinceReboot,accelerometerAccelerationX,accelerometerAccelerationY,accelerometerAccelerationZ,gyroTimestamp_sinceReboot,gyroRotationX,gyroRotationY,gyroRotationZ,magnetometerTimestamp_sinceReboot,magnetometerX,magnetometerY,magnetometerZ,motionTimestamp_sinceReboot,motionYaw,motionRoll,motionPitch,motionRotationRateX,motionRotationRateY,motionRotationRateZ,motionUserAccelerationX,motionUserAccelerationY,motionUserAccelerationZ,motionAttitudeReferenceFrame,motionQuaternionX,motionQuaternionY,motionQuaternionZ,motionQuaternionW,motionGravityX,motionGravityY,motionGravityZ,motionMagneticFieldX,motionMagneticFieldY,motionMagneticFieldZ,motionMagneticFieldCalibrationAccuracy,activityTimestamp_sinceReboot,activity,activityActivityConfidence,activityActivityStartDate,pedometerStartDate,pedometerNumberofSteps,pedometerAverageActivePace,pedometerCurrentPace,pedometerCurrentCadence,pedometerDistance,pedometerFloorAscended,pedometerFloorDescended,pedometerEndDate,altimeterTimestamp_sinceReboot,altimeterReset,altimeterRelativeAltitude,altimeterPressure,IP_en0,IP_pdp_ip0,deviceOrientation,batteryState,batteryLevel,avAudioRecorderPeakPower,avAudioRecorderAveragePower,label
1561234021.604556,1,0,0,1561234012.379212,4.603124512472283,-74.0647421846958,2650.46,-1,-1,10,65,-9999,1561234021.575952,-20.78899002075195,-10.43552684783936,10.3924560546875,140.3655242919922,147.9084930419922,15,57913.3041365,-1.00115966796875,0.1956329345703125,0.01654052734375,57913.2929975,-0.01002440465916726,-0.03334597264110016,-0.02499243524984861,57913.27807450001,17.18247985839844,-10.14251708984375,-524.5042114257812,57913.29806350001,-3.017797762910338,-1.57980606433532,-0.1936216185619707,-0.02492648363113403,-0.01820827461779118,-0.03272616863250732,-0.02000778913497925,0.0001365691423416138,0.002862215042114258,1,0.7098140716552734,-0.02417878247797489,0.6950294375419617,-0.1118632107973099,-0.981273889541626,0.1924140900373459,0.008841259405016899,0,0,0,-1,57912.049624375,3,2,1561234020.333164,1561233790.755775,20,1.561009,0,0,17.35344,0,0,1561233932.152863,57909.99595,0,-0.5256348,74.43599,2650659446,177292352,1,1,0.59,-16.73664,-37.51197,3
1561234021.626419,2,0,0,1561234012.379212,4.603124512472283,-74.0647421846958,2650.46,-1,-1,10,65,-9999,1561234021.607189,-20.51812553405762,-10.54886150360107,10.53265380859375,140.3441772460938,147.8871459960938,15,57913.3244005,-0.9883270263671875,0.194061279296875,0.0181121826171875,57913.31326150001,-0.06581709686410929,0.04814063144481735,-0.02344540497262158,57913.29821650001,17.05058288574219,-10.12767028808594,-524.391357421875,57913.3183275,-3.018895446044586,-1.579564945310565,-0.1930153904662384,-0.07272996008396149,0.05279212817549706,-0.02047908864915371,-0.01312935352325439,0.002532035112380981,0.009414911270141602,1,0.7097246050834656,-0.02436851337552071,0.6952101588249207,-0.1112661734223366,-0.9813927412033081,0.1918191611766815,0.00860567856580019,0,0,0,-1,57912.049624375,3,2,1561234020.333164,1561233790.755775,20,1.561009,0,0,17.35344,0,0,1561233932.152863,57909.99595,0,-0.5256348,74.43599,2650659446,177292352,1,1,0.59,-16.73664,-37.90958,3
1561234021.628304,3,0,0,1561234012.379212,4.603124512472283,-74.0647421846958,2650.46,-1,-1,10,65,-9999,1561234021.607189,-20.51812553405762,-10.54886150360107,10.53265380859375,140.3441772460938,147.8871459960938,15,57913.3446635,-0.974090576171875,0.1947784423828125,0.020294189453125,57913.33352550001,-0.0403282483870699,0.01586471692971103,-0.01282045748764145,57913.3183575,16.98562622070312,-10.324951171875,-524.30810546875,57913.3385905,-3.020037851102388,-1.579262545227632,-0.1926655041340473,-0.0289012249559164,-0.02823271788656712,-0.01906571164727211,-0.001783668994903564,0.003668904304504395,0.01116073131561279,1,0.7096099257469177,-0.02466757036745548,0.6954001188278198,-0.110742598772049,-0.9814621806144714,0.1914757639169693,0.008309471420943737,0,0,0,-1,57912.049624375,3,2,1561234020.333164,1561233790.755775,20,1.561009,0,0,17.35344,0,0,1561233932.152863,57909.99595,0,-0.5256348,74.43599,2650659446,177292352,1,1,0.59,-16.73664,-37.90958,3
1561234021.646175,4,0,0,1561234012.379212,4.603124512472283,-74.0647421846958,2650.46,-1,-1,10,65,-9999,1561234021.640318,-20.493408203125,-10.6634521484375,10.5731201171875,140.4483184814453,147.9912872314453,15,57913.36492750001,-0.961700439453125,0.1953887939453125,0.033203125,57913.3537885,0.00706909479750633,-0.1163258111502251,-0.02307256242001049,57913.3384995,16.96304321289062,-10.51229858398438,-524.271484375,57913.3588545,-3.020175917986518,-1.581188488805453,-0.1921726922825809,0.002525672782212496,-0.142087385058403,-0.02614625915884972,0.01522988080978394,0.004335716366767883,0.01728034019470215,1,0.7102838754653931,-0.02443672344088554,0.6947512626647949,-0.1105453446507454,-0.9815385341644287,0.1909920424222946,0.0102006746456027,0,0,0,-1,57913.33788950001,2,0,1561234021.621429,1561233790.755775,20,1.561009,0,0,17.35344,0,0,1561233932.152863,57909.99595,0,-0.5256348,74.43599,2650659446,177292352,1,1,0.59,-16.73664,-35.10316,3
1561234021.666471,5,0,0,1561234012.379212,4.603124512472283,-74.0647421846958,2650.46,-1,-1,10,65,-9999,1561234021.640318,-20.493408203125,-10.6634521484375,10.5731201171875,140.4483184814453,147.9912872314453,15,57913.38519150001,-0.96478271484375,0.19818115234375,0.02337646484375,57913.3740525,-0.009004147645557905,-0.1452693121933153,-0.0186735529314176,57913.3586405,16.91986083984375,-10.39212036132812,-524.2537231445312,57913.3791185,-3.020320647002237,-1.584305823040909,-0.1917085411357989,-0.01049904897809029,-0.1537951678037643,-0.02106787636876106,0.02129387855529785,0.006439298391342163,0.01937699317932129,1,0.7113701105117798,-0.02415296621620655,0.6936768889427185,-0.1103699058294296,-0.9815905094146729,0.1905364096164703,0.01326159946620464,0,0,0,-1,57913.33788950001,2,0,1561234021.621429,1561233790.755775,20,1.561009,0,0,17.35344,0,0,1561233932.152863,57910.945652,0,-0.4492188,74.43526,2650659446,177292352,1,1,0.59,-16.73664,-35.10316,3
1561234021.698374,6,0,0,1561234012.379212,4.603124512472283,-74.0647421846958,2650.46,-1,-1,10,65,-9999,1561234021.671193,-20.50665092468262,-10.61735534667969,10.69610595703125,140.4574584960938,148.0004272460938,15,57913.4054545,-0.981903076171875,0.2040863037109375,0.0181121826171875,57913.3943165,0.02012976941547293,-0.1342464884414773,-0.01677764855139019,57913.3787825,17.17977905273438,-10.35562133789062,-524.2051391601562,57913.39938150001,-3.020202592736078,-1.587278346037251,-0.1913031217485383,0.02912239544093609,-0.133349284529686,-0.02172461338341236,0.01087510585784912,0.009065091609954834,0.001702666282653809,1,0.7124069333076477,-0.02380476705729961,0.6926347017288208,-0.1103038042783737,-0.9816240072250366,0.1901383996009827,0.01618061028420925,0,0,0,-1,57913.33788950001,2,0,1561234021.621429,1561233790.755775,20,1.561009,0,0,17.35344,0,0,1561233932.152863,57910.945652,0,-0.4492188,74.43526,2650659446,177292352,1,1,0.59,-17.29392,-36.12945,3
1561234021.706968,7,0,0,1561234012.379212,4.603124512472283,-74.0647421846958,2650.46,-1,-1,10,65,-9999,1561234021.671193,-20.50665092468262,-10.61735534667969,10.69610595703125,140.4574584960938,148.0004272460938,15,57913.4257185,-0.9998931884765625,0.2049560546875,0.0250701904296875,57913.4145795,0.03762860199005658,-0.05600920720156546,-0.002693521126506141,57913.3989245,17.09197998046875,-10.24143981933594,-524.01953125,57913.41964550001,-3.019479220409124,-1.588954169705583,-0.1910819891437809,0.02909682877361774,-0.03537344932556152,-0.001839321688748896,-0.01546329259872437,0.01926144957542419,0.002513527870178223,1,0.7129983901977539,-0.02337702363729477,0.6920097470283508,-0.1104960739612579,-0.9816375374794006,0.1899213045835495,0.01782638020813465,0,0,0,-1,57913.33788950001,2,0,1561234021.621429,1561233790.755775,20,1.561009,0,0,17.35344,0,0,1561233932.152863,57910.945652,0,-0.4492188,74.43526,2650659446,177292352,1,1,0.59,-17.29392,-36.12945,3
1561234021.727688,8,0,0,1561234012.379212,4.603124512472283,-74.0647421846958,2650.46,-1,-1,10,65,-9999,1561234021.717361,-20.51972961425781,-10.65352916717529,10.705078125,140.3843688964844,147.9273376464844,15,57913.4459825,-0.9943389892578125,0.20501708984375,0.0268096923828125,57913.43484350001,0.01144360320407049,0.02842258673387067,0.001175252989051968,57913.41906550001,16.96006774902344,-10.53411865234375,-524.1328735351562,57913.4399095,-3.019182890394749,-1.588843587012436,-0.1910774914109833,0.006478069815784693,0.02258572168648243,-0.0007002877537161112,-0.01478904485702515,0.01217050850391388,0.008939266204833984,1,0.7129636406898499,-0.02327592112123966,0.692033052444458,-0.1105957329273224,-0.9816403985023499,0.1899168789386749,0.01771784201264381,0,0,0,-1,57913.33788950001,2,0,1561234021.621429,1561233790.755775,20,1.561009,0,0,17.35344,0,0,1561233932.152863,57910.945652,0,-0.4492188,74.43526,2650659446,177292352,1,1,0.59,-17.8512,-34.96199,3
1561234021.747532,9,0,0,1561234012.379212,4.603124512472283,-74.0647421846958,2650.46,-1,-1,10,65,-9999,1561234021.741667,-20.54704666137695,-10.52609062194824,10.61334228515625,140.3718566894531,147.9148254394531,15,57913.46624550001,-0.9737396240234375,0.200836181640625,0.0269012451171875,57913.45510750001,0.01009258158307329,-0.02463796850875907,0.01548281962939367,57913.43920750001,17.1507568359375,-10.16120910644531,-524.1365356445312,57913.4601725,-3.019033688695892,-1.589103573026228,-0.1912814973127321,0.005075117107480764,-0.04584020376205444,0.01165411714464426,-0.004258215427398682,0.01489990949630737,0.008242249488830566,1,0.7130527496337891,-0.02327978238463402,0.6919208168983459,-0.1107222735881805,-0.9815968871116638,0.1901171803474426,0.01797234453260899,0,0,0,-1,57913.33788950001,2,0,1561234021.621429,1561233790.755775,20,1.561009,0,0,17.35344,0,0,1561233932.152863,57910.945652,0,-0.4492188,74.43526,2650659446,177292352,1,1,0.59,-18.40847,-34.99023,3
1561234021.783948,10,0,0,1561234012.379212,4.603124512472283,-74.0647421846958,2650.46,-1,-1,10,65,-9999,1561234021.768242,-20.34169960021973,-10.73937702178955,10.637939453125,140.3485260009766,147.8914947509766,15,57913.48650950001,-0.98333740234375,0.2030487060546875,0.02655029296875,57913.4753405,0.01712838686695363,-0.04366492291683018,0.01272005631454546,57913.4593485,17.11656188964844,-10.35102844238281,-524.3369750976562,57913.4804365,-3.018844579328339,-1.590113851827811,-0.1915129190003904,0.02185596153140068,-0.05081845074892044,0.009865005500614643,0.004773378372192383,0.01001878082752228,0.009601354598999023,1,0.7134014368057251,-0.02323737926781178,0.6915373206138611,-0.110881008207798,-0.9815342426300049,0.1903443783521652,0.0189631711691618,0,0,0,-1,57913.33788950001,2,0,1561234021.621429,1561233790.755775,20,1.561009,0,0,17.35344,0,0,1561233932.152863,57910.945652,0,-0.4492188,74.43526,2650659446,177292352,1,1,0.59,-19.52303,-35.80334,3
1561234021.788252,11,0,0,1561234012.379212,4.603124512472283,-74.0647421846958,2650.46,-1,-1,10,65,-9999,1561234021.768242,-20.34169960021973,-10.73937702178955,10.637939453125,140.3485260009766,147.8914947509766,15,57913.5067735,-0.9832000732421875,0.20001220703125,0.0304107666015625,57913.49560350001,0.05559934670980227,-0.05837808899119095,0.01473979768526156,57913.4794905,17.13919067382812,-9.88922119140625,-524.4411010742188,57913.5007005,-3.017979996116178,-1.591195132668673,-0.1917675721675424,0.05428527295589447,-0.06818678975105286,0.01418651640415192,-0.002528786659240723,0.01147778332233429,0.006130099296569824,1,0.7137819528579712,-0.0229579359292984,0.6910894513130188,-0.111282154917717,-0.9814647436141968,0.1905943602323532,0.02002348564565182,0,0,0,-1,57913.33788950001,2,0,1561234021.621429,1561233790.755775,20,1.561009,0,0,17.35344,0,0,1561233932.152863,57910.945652,0,-0.4492188,74.43526,2650659446,177292352,1,1,0.59,-19.52303,-35.80334,3
1561234021.808352,12,0,0,1561234012.379212,4.603124512472283,-74.0647421846958,2650.46,-1,-1,10,65,-9999,1561234021.792267,-20.45022964477539,-10.54678058624268,10.7449951171875,140.2717132568359,147.8146820068359,15,57913.5270365,-0.98541259765625,0.1947174072265625,0.03656005859375,57913.51586750001,0.03972051502631382,-0.05357587691356007,0.01321700217395425,57913.4996325,17.25132751464844,-10.08139038085938,-523.970947265625,57913.52096350001,-3.017080731407732,-1.592306326670754,-0.192056090111194,0.02560409344732761,-0.05747129395604134,0.007992536760866642,-0.002225160598754883,0.005518287420272827,0.01324987411499023,1,0.7141724228858948,-0.02267584949731827,0.6906266212463379,-0.1117072626948357,-0.9813868403434753,0.1908775866031647,0.02111288718879223,0,0,0,-1,57913.33788950001,2,0,1561234021.621429,1561233790.755775,20,1.561009,0,0,17.35344,0,0,1561233932.152863,57910.945652,0,-0.4492188,74.43526,2650659446,177292352,1,1,0.59,-20.08031,-36.70581,3
1561234021.828588,13,0,0,1561234012.379212,4.603124512472283,-74.0647421846958,2650.46,-1,-1,10,65,-9999,1561234021.818735,-20.3679370880127,-10.57486724853516,10.46502685546875,140.2538146972656,147.7967834472656,15,57913.5473005,-0.9935150146484375,0.1986846923828125,0.0425872802734375,57913.5361315,-0.01977184056496628,-0.01104839009830273,0.02961541658611716,57913.5197735,17.33755493164062,-10.30679321289062,-524.0974731445312,57913.5411975,-3.017247599725994,-1.593026839097824,-0.1924702701838936,-0.03832082822918892,-0.007666987832635641,0.03927429392933846,-0.009964466094970703,0.006897017359733582,0.01581001281738281,1,0.7144140601158142,-0.02283994480967522,0.6903555989265442,-0.1118040457367897,-0.9812923073768616,0.1912841349840164,0.02181822434067726,0,0,0,-1,57913.33788950001,2,0,1561234021.621429,1561233790.755775,20,1.561009,0,0,17.35344,0,0,1561233932.152863,57910.945652,0,-0.4492188,74.43526,2650659446,177292352,1,1,0.59,-20.08031,-36.70581,3
1561234021.862664,14,0,0,1561234012.379212,4.603124512472283,-74.0647421846958,2650.46,-1,-1,10,65,-9999,1561234021.843083,-20.47830772399902,-10.55895137786865,10.57940673828125,140.3342895507812,147.8772583007812,15,57913.5675645,-0.97882080078125,0.1940155029296875,0.037200927734375,57913.5563945,-0.06445355838598872,0.00825686464368167,0.05055372170853815,57913.5399455,17.14564514160156,-10.35630798339844,-524.1343994140625,57913.5614605,-3.018469921592002,-1.593283313975586,-0.1933939359972245,-0.07208997756242752,-0.00295052956789732,0.04200642928481102,-0.002761960029602051,0.002267345786094666,0.01893448829650879,1,0.7144765257835388,-0.0235850028693676,0.6902808547019958,-0.1117112338542938,-0.9811094999313354,0.1921906620264053,0.02206591702997684,0,0,0,-1,57913.33788950001,2,0,1561234021.621429,1561233790.755775,20,1.561009,0,0,17.35344,0,0,1561233932.152863,57910.945652,0,-0.4492188,74.43526,2650659446,177292352,1,1,0.59,-21.19487,-38.03964,3
1561234021.870108,15,0,0,1561234012.379212,4.603124512472283,-74.0647421846958,2650.46,-1,-1,10,65,-9999,1561234021.843083,-20.47830772399902,-10.55895137786865,10.57940673828125,140.3342895507812,147.8772583007812,15,57913.58782750001,-0.9777984619140625,0.1970672607421875,0.033294677734375,57913.5766585,-0.05803880226831486,0.00113903399822689,0.02393489398097814,57913.5600875,17.05587768554688,-10.48881530761719,-524.3062744140625,57913.58172450001,-3.019838964104623,-1.593670974698874,-0.1939704961706193,-0.04915909469127655,-0.01329584512859583,0.01353058032691479,0.000612795352935791,0.001457422971725464,0.01246845722198486,1,0.7145863175392151,-0.02425390668213367,0.6901867389678955,-0.1114469915628433,-0.980989933013916,0.1927564442157745,0.02244371362030506,0,0,0,-1,57913.33788950001,2,0,1561234021.621429,1561233790.755775,20,1.561009,0,0,17.35344,0,0,1561233932.152863,57910.945652,0,-0.4492188,74.43526,2650659446,177292352,1,1,0.59,-21.19487,-38.03964,3
1561234021.889469,16,0,0,1561234012.379212,4.603124512472283,-74.0647421846958,2650.46,-1,-1,10,65,-9999,1561234021.873687,-20.39000129699707,-10.88833522796631,10.7327880859375,140.4220123291016,147.9649810791016,15,57913.6080615,-0.9581756591796875,0.1951751708984375,0.030609130859375,57913.5969225,-0.01081776034790187,-0.04978806289514037,-0.01074212657294362,57913.5802295,17.16813659667969,-10.50079345703125,-524.2470092773438,57913.60198850001,-3.020359969682543,-1.594619509326033,-0.1939008149274514,-0.002399044809862971,-0.06831062585115433,-0.01596472784876823,0.01503920555114746,0.003616258502006531,0.007158279418945312,1,0.7149081826210022,-0.02436295710504055,0.6898806095123291,-0.1112541481852531,-0.9809816479682922,0.192688062787056,0.02337452583014965,0,0,0,-1,57913.33788950001,2,0,1561234021.621429,1561233790.755775,20,1.561009,0,0,17.35344,0,0,1561233932.152863,57910.945652,0,-0.4492188,74.43526,2650659446,177292352,1,1,0.59,-21.75215,-38.79371,3
1561234021.909651,17,0,0,1561234012.379212,4.603124512472283,-74.0647421846958,2650.46,-1,-1,10,65,-9999,1561234021.873687,-20.39000129699707,-10.88833522796631,10.7327880859375,140.4220123291016,147.9649810791016,15,57913.6283245,-0.9519805908203125,0.1952972412109375,0.0393524169921875,57913.61718550001,0.02564996972298917,-0.08256092326965547,0.012973322934212,57913.6003705,17.41452026367188,-10.54310607910156,-524.1641235351562,57913.6222515,-3.020049787203086,-1.596250233013264,-0.1938798606231058,0.02177446894347668,-0.09392304718494415,0.02149183303117752,0.02327418327331543,0.005742534995079041,0.01511049270629883,1,0.7154744863510132,-0.02415396086871624,0.6892814040184021,-0.1113734692335129,-0.9809463024139404,0.1926674991846085,0.02497430890798569,0,0,0,-1,57913.33788950001,2,0,1561234021.621429,1561233790.755775,20,1.561009,0,0,17.35344,0,0,1561233932.152863,57910.945652,0,-0.4492188,74.43526,2650659446,177292352,1,1,0.59,-22.30943,-38.54654,3
1561234021.949244,18,0,0,1561234012.379212,4.603124512472283,-74.0647421846958,2650.46,-1,-1,10,65,-9999,1561234021.920098,-20.28566551208496,-10.66070747375488,10.84356689453125,140.4091186523438,147.9520874023438,15,57913.6485885,-0.9567718505859375,0.182464599609375,0.0375213623046875,57913.63744950001,-0.007098123253388194,-0.06328150119024484,0.02200942851285086,57913.62051250001,17.42276000976562,-10.12174987792969,-524.0845336914062,57913.6425155,-3.02006835023031,-1.597899693403307,-0.1943254952330153,-0.02705458924174309,-0.05074574798345566,0.01358996890485287,0.03208732604980469,-0.007054358720779419,0.01164853572845459,1,0.7160364389419556,-0.02422407642006874,0.6886674165725708,-0.1115446761250496,-0.9808177947998047,0.1931047737598419,0.02658997476100922,0,0,0,-1,57913.33788950001,2,0,1561234021.621429,1561233790.755775,20,1.561009,0,0,17.35344,0,0,1561233932.152863,57910.945652,0,-0.4492188,74.43526,2650659446,177292352,1,1,0.59,-23.42398,-39.11956,3
1561234021.951986,19,0,0,1561234012.379212,4.603124512472283,-74.0647421846958,2650.46,-1,-1,10,65,-9999,1561234021.944541,-20.45130729675293,-10.73185348510742,10.826416015625,140.4833831787109,148.0263519287109,15,57913.66885250001,-0.9662628173828125,0.1876373291015625,0.0332183837890625,57913.6577135,-0.06492733474391381,0.01348571512794325,0.01663357153641691,57913.64065350001,17.23770141601562,-10.36077880859375,-524.306884765625,57913.6627795,-3.021218835162073,-1.598434240864569,-0.194567041826557,-0.07502478361129761,0.0154950562864542,0.01653009839355946,0.01499754190444946,-0.008405238389968872,0.008226394653320312,1,0.7162030935287476,-0.02469042502343655,0.6885267496109009,-0.1112406030297279,-0.9807568192481995,0.1933417618274689,0.02711297571659088,0,0,0,-1,57913.66143650001,3,2,1561234021.944976,1561233790.755775,20,1.561009,0,0,17.35344,0,0,1561233932.152863,57910.945652,0,-0.4492188,74.43526,2650659446,177292352,1,1,0.59,-23.42398,-39.11956,3
1561234021.970886,20,0,0,1561234012.379212,4.603124512472283,-74.0647421846958,2650.46,-1,-1,10,65,-9999,1561234021.944541,-20.45130729675293,-10.73185348510742,10.826416015625,140.4833831787109,148.0263519287109,15,57913.6891155,-0.967681884765625,0.1908111572265625,0.02642822265625,57913.6779765,-0.05039339941091538,0.002988865691395929,0.04114690410616026,57913.6607955,17.46456909179688,-10.52978515625,-524.1553955078125,57913.6830425,-3.022526791235933,-1.5985632806834,-0.1951559050724621,-0.04002072289586067,-0.01820911094546318,0.0457518994808197,0.01347637176513672,-0.004649460315704346,0.0003057718276977539,1,0.716222882270813,-0.02535681799054146,0.6885207891464233,-0.1110004261136055,-0.9806394577026367,0.1939194798469543,0.02723637036979198,0,0,0,-1,57913.66143650001,3,2,1561234021.944976,1561233790.755775,20,1.561009,0,0,17.35344,0,0,1561233932.152863,57910.945652,0,-0.4492188,74.43526,2650659446,177292352,1,1,0.59,-23.98126,-34.93845,3
1561234021.99071,21,0,0,1561234012.379212,4.603124512472283,-74.0647421846958,2650.46,-1,-1,10,65,-9999,1561234021.972661,-20.35013198852539,-10.83800411224365,10.85748291015625,140.564208984375,148.107177734375,15,57913.7093795,-0.96807861328125,0.1841278076171875,0.02789306640625,57913.6982405,-0.0003659183337768873,-0.04845914551119083,0.05040192152640363,57913.6809375,17.42803955078125,-10.38432312011719,-524.2965087890625,57913.70330650001,-3.022875641112052,-1.599558678266421,-0.1961269568537373,0.003955257590860128,-0.06889359652996063,0.0397866852581501,0.01602184772491455,-0.008165463805198669,0.001944303512573242,1,0.7165470719337463,-0.02576471120119095,0.6881300210952759,-0.1112369820475578,-0.9804231524467468,0.1948720067739487,0.02820705249905586,0,0,0,-1,57913.66143650001,3,2,1561234021.944976,1561233790.755775,20,1.561009,0,0,17.35344,0,0,1561233932.152863,57910.945652,0,-0.4492188,74.43526,2650659446,177292352,1,1,0.59,-23.98126,-34.93845,3
1561234022.038252,22,0,0,1561234012.379212,4.603124512472283,-74.0647421846958,2650.46,-1,-1,10,65,-9999,1561234022.021293,-20.14834785461426,-10.85674285888672,10.87628173828125,140.5314636230469,148.0744323730469,15,57913.7296435,-0.9785308837890625,0.1848907470703125,0.0242462158203125,57913.7185045,0.02735172965954981,-0.07466145484426244,0.01752519786937544,57913.7010785,17.25509643554688,-10.26211547851562,-523.9957275390625,57913.72357050001,-3.022514050886549,-1.601096196028047,-0.1966136704778086,0.02275664173066616,-0.07251522690057755,0.004775970242917538,0.006238937377929688,-0.009649917483329773,-0.003924131393432617,1,0.7170734405517578,-0.02571889944374561,0.6875319480895996,-0.1115535944700241,-0.9802837371826172,0.1953493654727936,0.02971156127750874,0,0,0,-1,57913.66143650001,3,2,1561234021.944976,1561233790.755775,20,1.561009,0,0,17.35344,0,0,1561233932.152863,57910.945652,0,-0.4492188,74.43526,2650659446,177292352,1,1,0.59,-25.6531,-33.24057,3
1561234022.041705,23,0,0,1561234012.379212,4.603124512472283,-74.0647421846958,2650.46,-1,-1,10,65,-9999,1561234022.021293,-20.14834785461426,-10.85674285888672,10.87628173828125,140.5314636230469,148.0744323730469,15,57913.7499065,-0.9805450439453125,0.1858367919921875,0.0244293212890625,57913.73876750001,0.007832889398141056,-0.02112792219203463,-0.008790029493915533,57913.7211895,17.23481750488281,-10.23809814453125,-523.8988647460938,57913.7438335,-3.022262519664904,-1.601935913023044,-0.1964617381397877,-0.003653127234429121,-0.01113335788249969,-0.01212604716420174,-0.0008521080017089844,-0.0108131617307663,-0.006411433219909668,1,0.7173674702644348,-0.02552899904549122,0.6872251629829407,-0.1115969344973564,-0.980288028717041,0.1952003687620163,0.03053563460707664,0,0,0,-1,57913.66143650001,3,2,1561234021.944976,1561233790.755775,20,1.561009,0,0,17.35344,0,0,1561233932.152863,57910.945652,0,-0.4492188,74.43526,2650659446,177292352,1,1,0.59,-25.6531,-33.24057,3
1561234022.051447,24,0,0,1561234012.379212,4.603124512472283,-74.0647421846958,2650.46,-1,-1,10,65,-9999,1561234022.045884,-20.38699150085449,-10.68108940124512,10.818603515625,140.558837890625,148.101806640625,15,57913.7701705,-0.97467041015625,0.18902587890625,0.026580810546875,57913.75903150001,-0.02729047695447799,0.02490694777885707,-0.007953796911630652,57913.7413315,17.48307800292969,-10.12251281738281,-524.27587890625,57913.7640975,-3.022734814372189,-1.601847898749772,-0.1961999903230747,-0.03734557703137398,0.01888765767216682,-0.01053001545369625,0.004282772541046143,-0.007901415228843689,-0.006693005561828613,1,0.7173349857330322,-0.02561226487159729,0.687297523021698,-0.111340694129467,-0.9803417325019836,0.1949436366558075,0.03045094013214111,0,0,0,-1,57913.66143650001,3,2,1561234021.944976,1561233790.755775,20,1.561009,0,0,17.35344,0,0,1561233932.152863,57910.945652,0,-0.4492188,74.43526,2650659446,177292352,1,1,0.59,-25.6531,-33.24057,3
1561234022.072642,25,0,0,1561234012.379212,4.603124512472283,-74.0647421846958,2650.46,-1,-1,10,65,-9999,1561234022.045884,-20.38699150085449,-10.68108940124512,10.818603515625,140.558837890625,148.101806640625,15,57913.79043450001,-0.9704437255859375,0.1910552978515625,0.0319671630859375,57913.7792955,-0.03328764941322742,0.02197534005089784,0.002675411631093603,57913.7614735,17.4410400390625,-10.31268310546875,-524.0093994140625,57913.7843615,-3.023493799834595,-1.601678160426907,-0.1960874611027232,-0.03266267478466034,0.01310566812753677,0.002286447444930673,0.005316972732543945,-0.002892971038818359,0.0006138086318969727,1,0.7172685265541077,-0.02585476823151112,0.6874068379402161,-0.1110377609729767,-0.9803688526153564,0.1948332786560059,0.03028521686792374,0,0,0,-1,57913.66143650001,3,2,1561234021.944976,1561233790.755775,20,1.561009,0,0,17.35344,0,0,1561233932.152863,57910.945652,0,-0.4492188,74.43526,2650659446,177292352,1,1,0.59,-26.21038,-33.53463,3
1561234022.10665,26,0,0,1561234012.379212,4.603124512472283,-74.0647421846958,2650.46,-1,-1,10,65,-9999,1561234022.096239,-20.23948669433594,-10.65302562713623,10.87677001953125,140.6289825439453,148.1719512939453,15,57913.8106975,-0.962799072265625,0.192413330078125,0.0286407470703125,57913.7995585,-0.01755555790580234,0.01374430806978994,0.002749713825506813,57913.7816145,17.38223266601562,-10.26612854003906,-523.99951171875,57913.8046245,-3.024006717970589,-1.601574826832441,-0.196068906070118,-0.01380456425249577,0.001973389182239771,-0.0003932253457605839,0.01778995990753174,-0.005468770861625671,0.0004403591156005859,1,0.7172266244888306,-0.02603799849748611,0.6874732375144958,-0.1108535379171371,-0.9803754091262817,0.194815069437027,0.03018401563167572,0,0,0,-1,57913.66143650001,3,2,1561234021.944976,1561233790.755775,20,1.561009,0,0,17.35344,0,0,1561233932.152863,57910.945652,0,-0.4492188,74.43526,2650659446,177292352,1,1,0.59,-26.76766,-33.78789,3
1561234022.112429,27,0,0,1561234012.379212,4.603124512472283,-74.0647421846958,2650.46,-1,-1,10,65,-9999,1561234022.096239,-20.23948669433594,-10.65302562713623,10.87677001953125,140.6289825439453,148.1719512939453,15,57913.8309615,-0.9666748046875,0.1956787109375,0.0335540771484375,57913.8198225,-0.005372661183125856,-0.0004561994947305735,0.01597630337938535,57913.8017565,17.42561340332031,-10.25234985351562,-524.0010375976562,57913.82488850001,-3.024207004724613,-1.601694996266758,-0.1961949524647575,-0.01118428073823452,-0.01211979333311319,0.01768697611987591,0.01481705904006958,-0.0006943047046661377,0.001391410827636719,1,0.7172634601593018,-0.02614700421690941,0.6874344348907471,-0.1108309626579285,-0.9803473949432373,0.1949387043714523,0.03030107356607914,0,0,0,-1,57913.66143650001,3,2,1561234021.944976,1561233790.755775,20,1.561009,0,0,17.35344,0,0,1561233932.152863,57910.945652,0,-0.4492188,74.43526,2650659446,177292352,1,1,0.59,-27.32494,-34.10528,3
1561234022.133084,28,0,0,1561234012.379212,4.603124512472283,-74.0647421846958,2650.46,-1,-1,10,65,-9999,1561234022.124724,-20.36757850646973,-10.5241174697876,10.7149658203125,140.6487884521484,148.1917572021484,15,57913.8512255,-0.9852752685546875,0.2008819580078125,0.036834716796875,57913.8400555,-0.01883840260289351,-0.002753175934923917,0.02322835734378012,57913.84203950001,17.25198364257812,-10.12300109863281,-524,57913.84515250001,-3.024593388968347,-1.601986088858279,-0.1965534458355825,-0.02519490383565426,0.0005272929556667805,0.02019247785210609,0.006986558437347412,0.003272324800491333,0.005655407905578613,1,0.7173531055450439,-0.02639414742588997,0.6873316168785095,-0.1108291298151016,-0.9802684783935547,0.1952903121709824,0.03058425895869732,0,0,0,-1,57913.66143650001,3,2,1561234021.944976,1561233790.755775,20,1.561009,0,0,17.35344,0,0,1561233932.152863,57910.945652,0,-0.4492188,74.43526,2650659446,177292352,1,1,0.59,-27.88222,-34.38243,3
1561234022.152782,29,0,0,1561234012.379212,4.603124512472283,-74.0647421846958,2650.46,-1,-1,10,65,-9999,1561234022.146786,-20.39751815795898,-10.55995273590088,10.9022216796875,140.6844787597656,148.2274475097656,15,57913.8714885,-0.9933929443359375,0.19927978515625,0.0302734375,57913.8603195,-0.02274046623207761,0.04402098755457377,0.01624155422395724,57913.8621815,17.36727905273438,-10.33621215820312,-524.0614624023438,57913.8654155,-3.02514554333394,-1.601579751084153,-0.1968552028649332,-0.02275065518915653,0.04494908824563026,0.01115077920258045,-0.01178252696990967,0.005219414830207825,0.002835869789123535,1,0.7172015905380249,-0.02671963535249233,0.6874913573265076,-0.1107409745454788,-0.9802218675613403,0.1955862492322922,0.03018411993980408,0,0,0,-1,57913.66143650001,3,2,1561234021.944976,1561233790.755775,20,1.561009,0,0,17.35344,0,0,1561233932.152863,57910.945652,0,-0.4492188,74.43526,2650659446,177292352,1,1,0.59,-27.88222,-34.38243,3
1561234022.179315,30,0,0,1561234012.379212,4.603124512472283,-74.0647421846958,2650.46,-1,-1,10,65,-9999,1561234022.173199,-20.36737251281738,-10.57638835906982,10.84771728515625,140.708984375,148.251953125,15,57913.89175250001,-0.9837493896484375,0.1977386474609375,0.0360260009765625,57913.8805835,-0.01465084810485291,0.05354205476771606,0.0249349109703029,57913.8823225,17.18264770507812,-10.3218994140625,-524.084716796875,57913.8856795,-3.025541222714355,-1.60072406853917,-0.1971979402055593,-0.0197460763156414,0.0443328320980072,0.02471186220645905,-0.01095432043075562,0.003632083535194397,0.002211809158325195,1,0.7168968915939331,-0.02702811546623707,0.6878012418746948,-0.1107149496674538,-0.9801803231239319,0.1959223449230194,0.02934334427118301,0,0,0,-1,57913.66143650001,3,2,1561234021.944976,1561233790.755775,20,1.561009,0,0,17.35344,0,0,1561233932.152863,57910.945652,0,-0.4492188,74.43526,2650659446,177292352,1,1,0.59,-28.99677,-36.16335,3
1561234022.193461,31,0,0,1561234012.379212,4.603124512472283,-74.0647421846958,2650.46,-1,-1,10,65,-9999,1561234022.173199,-20.36737251281738,-10.57638835906982,10.84771728515625,140.708984375,148.251953125,15,57913.91201650001,-0.9778289794921875,0.20111083984375,0.0391693115234375,57913.9008465,-0.02346830815799626,0.03210760273421331,0.03313691449552893,57913.9024645,16.9490966796875,-10.33966064453125,-524.2176513671875,57913.90591250001,-3.026044706581136,-1.600179574344931,-0.1977567963409372,-0.02924397401511669,0.01538373529911041,0.03691819310188293,0.002806901931762695,-0.0006390511989593506,0.01054596900939941,1,0.7166942358016968,-0.02743321098387241,0.687993586063385,-0.1107324361801147,-0.9800865650177002,0.1964703500270844,0.0288064181804657,0,0,0,-1,57913.66143650001,3,2,1561234021.944976,1561233790.755775,20,1.561009,0,0,17.35344,0,0,1561233932.152863,57910.945652,0,-0.4492188,74.43526,2650659446,177292352,1,1,0.59,-28.99677,-36.16335,3
1561234022.213547,32,0,0,1561234012.379212,4.603124512472283,-74.0647421846958,2650.46,-1,-1,10,65,-9999,1561234022.197424,-20.50446128845215,-10.71791839599609,10.80029296875,140.7503814697266,148.2933502197266,15,57913.932281,-0.976287841796875,0.1990966796875,0.0441741943359375,57913.921112,-0.03260747807082118,0.02322356365381798,0.05271114850761134,57913.922607,17.19781494140625,-10.31256103515625,-523.9053955078125,57913.926178,-3.026768691051445,-1.600055302155398,-0.1986746499912917,-0.03393806144595146,0.02000432088971138,0.04866193607449532,0.003286004066467285,0.005373299121856689,0.0142437219619751,1,0.7166272401809692,-0.0280190147459507,0.6880277991294861,-0.1108069121837616,-0.9799095392227173,0.1973702311515808,0.02867933362722397,0,0,0,-1,57913.66143650001,3,2,1561234021.944976,1561233790.755775,20,1.561009,0,0,17.35344,0,0,1561233932.152863,57910.945652,0,-0.4492188,74.43526,2650659446,177292352,1,1,0.59,-29.55405,-36.85507,3
1561234022.23375,33,0,0,1561234012.379212,4.603124512472283,-74.0647421846958,2650.46,-1,-1,10,65,-9999,1561234022.223968,-20.45839691162109,-10.55128288269043,10.675048828125,140.7958374023438,148.3388061523438,15,57913.952545,-0.9846954345703125,0.1985015869140625,0.0446319580078125,57913.941376,-0.01795929312705835,0.02708381565388784,0.03925552709998599,57913.94271800001,16.96415710449219,-10.31011962890625,-524.1017456054688,57913.946442,-3.027336625339701,-1.599762530175962,-0.1994903056630819,-0.02058736979961395,0.01840163022279739,0.0355360135436058,-0.001139402389526367,-0.0006142258644104004,0.01508450508117676,1,0.7165056467056274,-0.0285226684063673,0.6881192922592163,-0.1108963862061501,-0.9797565937042236,0.1981697678565979,0.0283877681940794,0,0,0,-1,57913.66143650001,3,2,1561234021.944976,1561233790.755775,20,1.561009,0,0,17.35344,0,0,1561233932.152863,57910.945652,0,-0.4492188,74.43526,2650659446,177292352,1,1,0.59,-30.11133,-37.36504,3
1561234022.262806,34,0,0,1561234012.379212,4.603124512472283,-74.0647421846958,2650.46,-1,-1,10,65,-9999,1561234022.257056,-20.48318099975586,-10.53529071807861,10.78729248046875,140.8305511474609,148.3735198974609,15,57913.97280900001,-0.9830169677734375,0.200958251953125,0.0506591796875,57913.961639,-0.02355619247396888,0.04535895968622958,0.03042608282193728,57913.96286000001,17.10720825195312,-10.18783569335938,-524.1982421875,57913.96670500001,-3.027847870379812,-1.599237589539472,-0.2000778235399961,-0.02781705185770988,0.04544656351208687,0.02014374174177647,-0.004964351654052734,0.001587033271789551,0.02132415771484375,1,0.7163082957267761,-0.02893947064876556,0.6883033514022827,-0.1109210476279259,-0.9796547889709473,0.1987456083297729,0.02787013538181782,0,0,0,-1,57913.66143650001,3,2,1561234021.944976,1561233790.755775,20,1.561009,0,0,17.35344,0,0,1561233932.152863,57910.945652,0,-0.4492188,74.43526,2650659446,177292352,1,1,0.59,-30.66861,-37.71935,3
1561234022.274892,35,0,0,1561234012.379212,4.603124512472283,-74.0647421846958,2650.46,-1,-1,10,65,-9999,1561234022.257056,-20.48318099975586,-10.53529071807861,10.78729248046875,140.8305511474609,148.3735198974609,15,57913.993042,-0.97930908203125,0.2093353271484375,0.0497283935546875,57913.981903,-0.01880644466981256,0.06238880959285028,-0.01413206432450548,57913.983002,17.00019836425781,-10.24874877929688,-524.0458984375,57913.98696900001,-3.028330173719279,-1.598296307680966,-0.199978374459656,-0.01443120650947094,0.05031189322471619,-0.03080492652952671,-0.003637075424194336,0.004431083798408508,0.02145230770111084,1,0.7159788608551025,-0.02912968397140503,0.6886726021766663,-0.1107061356306076,-0.9797003865242004,0.198648139834404,0.02694853581488132,0,0,0,-1,57913.66143650001,3,2,1561234021.944976,1561233790.755775,20,1.561009,0,0,17.35344,0,0,1561233932.152863,57910.945652,0,-0.4492188,74.43526,2650659446,177292352,1,1,0.59,-31.22589,-38.15514,3
1561234022.294585,36,0,0,1561234012.379212,4.603124512472283,-74.0647421846958,2650.46,-1,-1,10,65,-9999,1561234022.257056,-20.48318099975586,-10.53529071807861,10.78729248046875,140.8305511474609,148.3735198974609,15,57914.013306,-0.9595947265625,0.2129058837890625,0.047882080078125,57914.00216700001,0.01080764033575956,0.01097142474279944,-0.04412751399817694,57914.003143,16.99638366699219,-10.14659118652344,-523.9468994140625,57914.007233,-3.028325752549645,-1.597865044005409,-0.1991225571595218,0.008331630378961563,-0.02319667860865593,-0.04369356110692024,0.008125424385070801,0.01395216584205627,0.02327406406402588,1,0.7158440947532654,-0.02885375171899796,0.6888736486434937,-0.1103984266519547,-0.9798814654350281,0.1978093087673187,0.02653061412274837,0,0,0,-1,57913.66143650001,3,2,1561234021.944976,1561233790.755775,20,1.561009,0,0,17.35344,0,0,1561233932.152863,57910.945652,0,-0.4492188,74.43526,2650659446,177292352,1,1,0.59,-28.87694,-34.8557,3
1561234022.314803,37,0,0,1561234012.379212,4.603124512472283,-74.0647421846958,2650.46,-1,-1,10,65,-9999,1561234022.29959,-20.5089054107666,-10.67789840698242,10.6881103515625,140.8464813232422,148.3894500732422,15,57914.03356900001,-0.9574432373046875,0.1998291015625,0.0479583740234375,57914.02243,0.002092445668475257,-0.07131439398625085,-0.009586847292067241,57914.023285,17.4052734375,-10.34074401855469,-524.1243286132812,57914.027496,-3.028274287168925,-1.599134877404851,-0.1986350333801806,-0.01078027859330177,-0.0842408612370491,-0.0004395642317831516,0.02986991405487061,0.00937943160533905,0.02097415924072266,1,0.7162898182868958,-0.0285954438149929,0.6884428262710571,-0.1102617457509041,-0.9799432158470154,0.1973313838243484,0.02777760662138462,0,0,0,-1,57913.66143650001,3,2,1561234021.944976,1561233790.755775,20,1.561009,0,0,17.35344,0,0,1561233932.152863,57910.945652,0,-0.4492188,74.43526,2650659446,177292352,1,1,0.59,-28.87694,-34.8557,3
1561234022.346772,38,0,0,1561234012.379212,4.603124512472283,-74.0647421846958,2650.46,-1,-1,10,65,-9999,1561234022.325248,-20.30014228820801,-10.73464679718018,10.7347412109375,140.8635711669922,148.4065399169922,15,57914.05383300001,-0.988067626953125,0.2080078125,0.0374908447265625,57914.042694,-0.0192549209973819,-0.05076837249239853,0.02684013641414559,57914.043426,17.34852600097656,-10.0269775390625,-524.2779541015625,57914.04776,-3.028680203909395,-1.600636659937296,-0.1989785687643313,-0.02694140560925007,-0.03836631029844284,0.02668366581201553,0.007420539855957031,0.004449769854545593,0.01288235187530518,1,0.7167952656745911,-0.02877766266465187,0.687908411026001,-0.110265351831913,-0.979832649230957,0.1976681500673294,0.0292472131550312,0,0,0,-1,57913.66143650001,3,2,1561234021.944976,1561233790.755775,20,1.561009,0,0,17.35344,0,0,1561233932.152863,57910.945652,0,-0.4492188,74.43526,2650659446,177292352,1,1,0.59,-17.05824,-17.05824,3
1561234022.355411,39,0,0,1561234012.379212,4.603124512472283,-74.0647421846958,2650.46,-1,-1,10,65,-9999,1561234022.350059,-20.0771541595459,-10.62904167175293,10.771240234375,140.9208526611328,148.4638214111328,15,57914.074097,-1.004104614257812,0.2126617431640625,0.033935546875,57914.062958,-0.0446534883134676,0.04348622480768587,0.04633367664519859,57914.06356800001,16.95811462402344,-10.11244201660156,-524.13818359375,57914.068024,-3.029546253827129,-1.600653098548978,-0.1997112109591722,-0.05356929078698158,0.05892429128289223,0.04673327505588531,-0.02078592777252197,0.0134972482919693,0.005332708358764648,1,0.7167764902114868,-0.02934207953512669,0.6879101991653442,-0.1102274283766747,-0.9796870946884155,0.1983862966299057,0.02925898879766464,0,0,0,-1,57913.66143650001,3,2,1561234021.944976,1561233790.755775,20,1.561009,0,0,17.35344,0,0,1561233932.152863,57910.945652,0,-0.4492188,74.43526,2650659446,177292352,1,1,0.59,-17.05824,-17.05824,3
1561234022.375851,40,0,0,1561234012.379212,4.603124512472283,-74.0647421846958,2650.46,-1,-1,10,65,-9999,1561234022.350059,-20.0771541595459,-10.62904167175293,10.771240234375,140.9208526611328,148.4638214111328,15,57914.09436,-0.9874267578125,0.2067108154296875,0.0290985107421875,57914.083221,-0.03778519586215324,0.06758783267290297,0.02441319771275638,57914.08371000001,17.06991577148438,-10.25732421875,-524.19921875,57914.08828700001,-3.030543133875891,-1.599599715865881,-0.2003513367720491,-0.02754940465092659,0.04025153815746307,0.008637287653982639,-0.01726639270782471,0.01123720407485962,0.002813100814819336,1,0.7163887619972229,-0.02998006716370583,0.6883075833320618,-0.1100956946611404,-0.9795902967453003,0.1990136504173279,0.02822332456707954,0,0,0,-1,57913.66143650001,3,2,1561234021.944976,1561233790.755775,20,1.561009,0,0,17.35344,0,0,1561233932.152863,57910.945652,0,-0.4492188,74.43526,2650659446,177292352,1,1,0.59,-13.52971,-17.46067,3
1561234022.3959,41,0,0,1561234012.379212,4.603124512472283,-74.0647421846958,2650.46,-1,-1,10,65,-9999,1561234022.375864,-20.50773048400879,-10.63201236724854,10.652099609375,140.977783203125,148.520751953125,15,57914.114624,-0.9700775146484375,0.204345703125,0.041107177734375,57914.10348500001,0.01357599628889693,-0.02542306839811442,-0.008625446138548636,57914.10385100001,17.13661193847656,-10.33985900878906,-524.1891479492188,57914.108551,-3.030581613046255,-1.599802787686457,-0.2002570340062866,0.0209084078669548,-0.05561161041259766,-0.0141734853386879,0.001072347164154053,0.005088776350021362,0.006489276885986328,1,0.7164596319198608,-0.0299498476088047,0.6882420778274536,-0.110052078962326,-0.9796032309532166,0.1989212334156036,0.02842279523611069,0,0,0,-1,57913.66143650001,3,2,1561234021.944976,1561233790.755775,20,1.561009,0,0,17.35344,0,0,1561233932.152863,57910.945652,0,-0.4492188,74.43526,2650659446,177292352,1,1,0.59,-13.52971,-17.56327,3
1561234022.427053,42,0,0,1561234012.379212,4.603124512472283,-74.0647421846958,2650.46,-1,-1,10,65,-9999,1561234022.400138,-20.4994068145752,-10.59707260131836,10.68603515625,140.9512329101562,148.4942016601562,15,57914.134888,-0.9656982421875,0.2028961181640625,0.04071044921875,57914.12374900001,0.04316584652854933,-0.07395571715539144,-0.01589774012722801,57914.123993,17.19148254394531,-10.20899963378906,-524.0638427734375,57914.128815,-3.029886257843802,-1.601252414389152,-0.1999623913850622,0.03822960704565048,-0.07750998437404633,-0.01684064231812954,0.01411986351013184,0.005469083786010742,0.01201033592224121,1,0.7169734835624695,-0.02951830253005028,0.6877005100250244,-0.1102083772420883,-0.9796197414398193,0.1986324787139893,0.02984461188316345,0,0,0,-1,57913.66143650001,3,2,1561234021.944976,1561233790.755775,20,1.561009,0,0,17.35344,0,0,1561233932.152863,57910.945652,0,-0.4492188,74.43526,2650659446,177292352,1,1,0.59,-13.52971,-18.38533,3
1561234022.437666,43,0,0,1561234012.379212,4.603124512472283,-74.0647421846958,2650.46,-1,-1,10,65,-9999,1561234022.426706,-20.46866416931152,-10.62647914886475,10.81719970703125,140.8939819335938,148.4369506835938,15,57914.15515100001,-0.9673309326171875,0.2008209228515625,0.035491943359375,57914.144012,0.03727014050733191,-0.02871393655712534,-0.0001941444434667765,57914.144134,17.08439636230469,-10.11053466796875,-524.1515502929688,57914.149078,-3.029154380649057,-1.602111051072322,-0.1998212475443799,0.02753674983978271,-0.01740909740328789,0.006980535574257374,0.0139998197555542,0.003501713275909424,0.006773710250854492,1,0.717281699180603,-0.02915943041443825,0.6873599886894226,-0.1104225069284439,-0.9796217679977417,0.1984941363334656,0.03068661689758301,0,0,0,-1,57913.66143650001,3,2,1561234021.944976,1561233790.755775,20,1.561009,0,0,17.35344,0,0,1561233932.152863,57910.945652,0,-0.4492188,74.43526,2650659446,177292352,1,1,0.59,-13.52971,-19.22194,3
1561234022.456698,44,0,0,1561234012.379212,4.603124512472283,-74.0647421846958,2650.46,-1,-1,10,65,-9999,1561234022.450854,-20.48634147644043,-10.48518943786621,10.75164794921875,140.8650054931641,148.4079742431641,15,57914.17541500001,-0.967681884765625,0.1923828125,0.036834716796875,57914.164276,0.01664608839354028,0.02049701932979486,0.04188459972811221,57914.164276,17.44757080078125,-10.15119934082031,-524.0184326171875,57914.169342,-3.028802524990228,-1.601946764232638,-0.2004307491726029,0.009067194536328316,0.007809706497937441,0.04860654100775719,0.01069462299346924,0.0006460845470428467,0.007274150848388672,1,0.7172204256057739,-0.02925426699221134,0.6873660087585449,-0.1107572317123413,-0.9795056581497192,0.1990914791822433,0.03052190132439137,0,0,0,-1,57913.66143650001,3,2,1561234021.944976,1561233790.755775,20,1.561009,0,0,17.35344,0,0,1561233932.152863,57910.945652,0,-0.4492188,74.43526,2650659446,177292352,1,1,0.59,-13.52971,-20.02018,3
1561234022.477253,45,0,0,1561234012.379212,4.603124512472283,-74.0647421846958,2650.46,-1,-1,10,65,-9999,1561234022.450854,-20.48634147644043,-10.48518943786621,10.75164794921875,140.8650054931641,148.4079742431641,15,57914.195679,-0.972320556640625,0.1950225830078125,0.0463104248046875,57914.18454,-0.008119445531433581,0.01044358621474573,0.06308762306288708,57914.184418,17.13192749023438,-10.13166809082031,-523.8535766601562,57914.189606,-3.028949951399475,-1.601917710928305,-0.2015966853461658,-0.01812607608735561,0.008498398587107658,0.06047705188393593,0.01139354705810547,-0.009712696075439453,0.01033103466033936,1,0.7171890735626221,-0.02971417829394341,0.6873204708099365,-0.1111196577548981,-0.979273796081543,0.2002339363098145,0.03048620000481606,0,0,0,-1,57913.66143650001,3,2,1561234021.944976,1561233790.755775,20,1.561009,0,0,17.35344,0,0,1561233932.152863,57910.945652,0,-0.4492188,74.43526,2650659446,177292352,1,1,0.59,-13.52971,-20.02018,3
1561234022.50955,46,0,0,1561234012.379212,4.603124512472283,-74.0647421846958,2650.46,-1,-1,10,65,-9999,1561234022.50686,-20.42558860778809,-10.63831615447998,10.6707763671875,140.9661407470703,148.5091094970703,15,57914.215942,-0.977935791015625,0.19970703125,0.034698486328125,57914.204773,-0.04825434842336374,0.03949840739140122,0.05617352424082336,57914.20455900001,16.98252868652344,-10.13516235351562,-524.1602783203125,57914.20986900001,-3.029817782329963,-1.601626031758994,-0.2027077774375524,-0.06628881394863129,0.04371098428964615,0.05141244828701019,0.001718878746032715,-0.003736346960067749,0.01240885257720947,1,0.7170571684837341,-0.03042794205248356,0.6874120235443115,-0.1112110316753387,-0.9790595769882202,0.2013224065303802,0.03019368462264538,0,0,0,-1,57913.66143650001,3,2,1561234021.944976,1561233790.755775,20,1.561009,0,0,17.35344,0,0,1561233932.152863,57910.945652,0,-0.4492188,74.43526,2650659446,177292352,1,1,0.59,-13.52971,-21.914,3
1561234022.517498,47,0,0,1561234012.379212,4.603124512472283,-74.0647421846958,2650.46,-1,-1,10,65,-9999,1561234022.50686,-20.42558860778809,-10.63831615447998,10.6707763671875,140.9661407470703,148.5091094970703,15,57914.236206,-0.979248046875,0.2069854736328125,0.0273284912109375,57914.225037,-0.07236927209403124,0.07553736852678949,0.05867263460775371,57914.22470100001,16.78404235839844,-10.17338562011719,-524.0274047851562,57914.230133,-3.031376226416492,-1.600761465683102,-0.2037517612946625,-0.06508905440568924,0.05391568318009377,0.06267628073692322,-0.001395702362060547,0.003419861197471619,0.004121661186218262,1,0.7167179584503174,-0.03139772266149521,0.6877509951591492,-0.1110320091247559,-0.978874683380127,0.2023448944091797,0.02934089861810207,0,0,0,-1,57913.66143650001,3,2,1561234021.944976,1561233790.755775,20,1.561009,0,0,17.35344,0,0,1561233932.152863,57910.945652,0,-0.4492188,74.43526,2650659446,177292352,1,1,0.59,-13.52971,-21.914,3
1561234022.538209,48,0,0,1561234012.379212,4.603124512472283,-74.0647421846958,2650.46,-1,-1,10,65,-9999,1561234022.527914,-20.52399635314941,-10.68232345581055,10.75299072265625,141.0461730957031,148.5891418457031,15,57914.25647,-0.9560089111328125,0.1930999755859375,0.034423828125,57914.2453,-0.01541224586050657,-0.01874838775804883,0.08765208832555996,57914.244842,17.05780029296875,-10.2529296875,-524.197998046875,57914.250397,-3.03215962131656,-1.600917126343993,-0.2052924932399381,-0.003632088424637914,-0.04876701906323433,0.08511102199554443,0.01012778282165527,-0.001552492380142212,-0.001773953437805176,1,0.7167319655418396,-0.03220578655600548,0.6876538991928101,-0.1113112419843674,-0.9785573482513428,0.2038535177707672,0.02948384545743465,0,0,0,-1,57913.66143650001,3,2,1561234021.944976,1561233790.755775,20,1.561009,0,0,17.35344,0,0,1561233932.152863,57910.945652,0,-0.4492188,74.43526,2650659446,177292352,1,1,0.59,-13.52971,-22.79556,3
1561234022.558261,49,0,0,1561234012.379212,4.603124512472283,-74.0647421846958,2650.46,-1,-1,10,65,-9999,1561234022.552152,-20.46928596496582,-10.70431041717529,10.62359619140625,141.0498962402344,148.5928649902344,15,57914.27673300001,-0.9661865234375,0.1578216552734375,0.0449066162109375,57914.265564,0.004164651312665912,-0.05603823565744733,0.1022890879927445,57914.264984,17.13008117675781,-10.36566162109375,-524.1339721679688,57914.27066,-3.032197824565722,-1.602179113723123,-0.2071720871958705,-0.004690694622695446,-0.04719601944088936,0.1048501059412956,0.02006584405899048,-0.02710440754890442,0.006631612777709961,1,0.7171313166618347,-0.03280261904001236,0.6870997548103333,-0.1119850277900696,-0.9781346917152405,0.2056932896375656,0.03070667386054993,0,0,0,-1,57913.66143650001,3,2,1561234021.944976,1561233790.755775,20,1.561009,0,0,17.35344,0,0,1561233932.152863,57910.945652,0,-0.4492188,74.43526,2650659446,177292352,1,1,0.59,-13.52971,-23.75445,3
1561234022.588419,50,0,0,1561234012.379212,4.603124512472283,-74.0647421846958,2650.46,-1,-1,10,65,-9999,1561234022.552152,-20.46928596496582,-10.70431041717529,10.62359619140625,141.0498962402344,148.5928649902344,15,57914.296997,-0.9797821044921875,0.1146087646484375,0.0637969970703125,57914.285828,-0.0123717148439631,0.03116297949556221,0.1084652248767472,57914.28509500001,16.9207763671875,-10.23902893066406,-523.9051513671875,57914.290893,-3.032533577966903,-1.602279192272775,-0.2092977248233936,-0.02334773540496826,0.03920518234372139,0.09498602151870728,0.002609908580780029,-0.07395341992378235,0.02824556827545166,1,0.7171210646629333,-0.03365624323487282,0.6869644522666931,-0.1126251369714737,-0.9776923060417175,0.2077730000019073,0.03079072758555412,0,0,0,-1,57913.66143650001,3,2,1561234021.944976,1561233790.755775,20,1.561009,0,0,17.35344,0,0,1561233932.152863,57910.945652,0,-0.4492188,74.43526,2650659446,177292352,1,1,0.59,-13.52971,-24.65108,3
1561234022.598496,51,0,0,1561234012.379212,4.603124512472283,-74.0647421846958,2650.46,-1,-1,10,65,-9999,1561234022.552152,-20.46928596496582,-10.70431041717529,10.62359619140625,141.0498962402344,148.5928649902344,15,57914.317261,-0.9960174560546875,0.068817138671875,0.080108642578125,57914.30609100001,-0.05998717092181682,0.1019119843823892,0.08583767667488897,57914.305237,16.91755676269531,-10.12294006347656,-524.0889892578125,57914.311157,-3.033673684522517,-1.600945047686839,-0.2109736197481484,-0.09193558990955353,0.1298895329236984,0.09070099145174026,-0.007037758827209473,-0.1167911887168884,0.04065358638763428,1,0.7166116237640381,-0.03472275659441948,0.6874133348464966,-0.1128046587109566,-0.977383017539978,0.2094120383262634,0.02947577834129333,0,0,0,-1,57913.66143650001,3,2,1561234021.944976,1561233790.755775,20,1.561009,0,0,17.35344,0,0,1561233932.152863,57911.895453,0,-0.237793,74.4333,2650659446,177292352,1,1,0.59,-13.52971,-25.61671,3
1561234022.618843,52,0,0,1561234012.379212,4.603124512472283,-74.0647421846958,2650.46,-1,-1,10,65,-9999,1561234022.604997,-20.83904266357422,-10.45321273803711,10.69781494140625,141.2217407226562,148.7647094726562,15,57914.337524,-1.017425537109375,0.00543212890625,0.0890350341796875,57914.326355,-0.2273636496399888,0.2081633234449536,0.09005639015768349,57914.325378,16.85191345214844,-10.14479064941406,-524.1002197265625,57914.331421,-3.037508219320483,-1.598169136980445,-0.2126458404842973,-0.2663598358631134,0.2185152769088745,0.07599874585866928,-0.02195948362350464,-0.160814955830574,0.05323362350463867,1,0.7155555486679077,-0.03683364391326904,0.6885297298431396,-0.1120281741023064,-0.9771097302436829,0.2110468745231628,0.02675292082130909,0,0,0,-1,57913.66143650001,3,2,1561234021.944976,1561233790.755775,20,1.561009,0,0,17.35344,0,0,1561233932.152863,57911.895453,0,-0.237793,74.4333,2650659446,177292352,1,1,0.59,-13.52971,-25.61671,3
1561234022.639094,53,0,0,1561234012.379212,4.603124512472283,-74.0647421846958,2650.46,-1,-1,10,65,-9999,1561234022.629008,-20.85002517700195,-10.49038791656494,10.6727294921875,141.6449279785156,149.1878967285156,15,57914.35775700001,-1.043655395507812,-0.1029510498046875,0.0865631103515625,57914.346619,-0.345709734793148,0.2727977104689587,0.04774488570683157,57914.34552,16.95896911621094,-10.28193664550781,-524.5093383789062,57914.351684,-3.044224834523337,-1.594467834101797,-0.2135413812131865,-0.3581002950668335,0.2783871591091156,0.02794279158115387,-0.05788403749465942,-0.261162281036377,0.0678718090057373,1,0.7141327857971191,-0.03975182771682739,0.690176248550415,-0.1099589839577675,-0.9770128130912781,0.2119221687316895,0.02313168719410896,0,0,0,-1,57913.66143650001,3,2,1561234021.944976,1561233790.755775,20,1.561009,0,0,17.35344,0,0,1561233932.152863,57911.895453,0,-0.237793,74.4333,2650659446,177292352,1,1,0.59,-13.52971,-26.55867,3
1561234022.659259,54,0,0,1561234012.379212,4.603124512472283,-74.0647421846958,2650.46,-1,-1,10,65,-9999,1561234022.65345,-20.84382247924805,-10.49940395355225,10.3580322265625,142.2498626708984,149.7928314208984,15,57914.378021,-1.072998046875,-0.274658203125,0.032379150390625,57914.366882,-0.4435050047624928,0.3675724231299355,-0.06241144646211595,57914.365662,16.9498291015625,-10.11788940429688,-524.5108032226562,57914.371948,-3.052808372211857,-1.589664934486743,-0.2126687685141002,-0.5051270723342896,0.4191474914550781,-0.1102888509631157,-0.06806737184524536,-0.3985998034477234,0.04379820823669434,1,0.7123146057128906,-0.04276814311742783,0.6924004554748535,-0.1065848767757416,-0.9772970676422119,0.2110692858695984,0.0184424240142107,0,0,0,-1,57913.66143650001,3,2,1561234021.944976,1561233790.755775,20,1.561009,0,0,17.35344,0,0,1561233932.152863,57911.895453,0,-0.237793,74.4333,2650659446,177292352,1,1,0.59,-13.52971,-27.50374,3
1561234022.679563,55,0,0,1561234012.379212,4.603124512472283,-74.0647421846958,2650.46,-1,-1,10,65,-9999,1561234022.65345,-20.84382247924805,-10.49940395355225,10.3580322265625,142.2498626708984,149.7928314208984,15,57914.398285,-1.177627563476562,-0.399627685546875,0.007110595703125,57914.387146,-0.7549214805147995,0.723211221415226,-0.3472620913925553,57914.385803,16.89405822753906,-10.84628295898438,-525.11962890625,57914.39221200001,-3.066562275111469,-1.580139037664695,-0.2070921033532023,-0.8634939789772034,0.8250929117202759,-0.4757307171821594,-0.1400774717330933,-0.5449552536010742,0.00970160961151123,1,0.7088284492492676,-0.04619204252958298,0.6967796683311462,-0.09963176399469376,-0.9785901308059692,0.2056150138378143,0.009142950177192688,0,0,0,-1,57913.66143650001,3,2,1561234021.944976,1561233790.755775,20,1.561009,0,0,17.35344,0,0,1561233932.152863,57911.895453,0,-0.237793,74.4333,2650659446,177292352,1,1,0.59,-13.52971,-28.526,3
1561234022.699794,56,0,0,1561234012.379212,4.603124512472283,-74.0647421846958,2650.46,-1,-1,10,65,-9999,1561234022.679883,-20.8692512512207,-11.27795028686523,9.6920166015625,143.3350372314453,150.8780059814453,15,57914.418548,-1.310150146484375,-0.5103759765625,-0.017242431640625,57914.40741000001,-1.207058056686348,1.088900523338367,-1.016460411159339,57914.40594500001,16.83631896972656,-11.24818420410156,-525.6112060546875,57914.412475,-3.089176764674924,-1.564381758488972,-0.1902639349066423,-1.3175288438797,1.130627989768982,-1.241225481033325,-0.2740623950958252,-0.646805465221405,-0.00294804573059082,1,0.703173041343689,-0.04897232353687286,0.7041666507720947,-0.08543325215578079,-0.9819343090057373,0.1891180723905563,-0.006298771128058434,0,0,0,-1,57913.66143650001,3,2,1561234021.944976,1561233790.755775,20,1.561009,0,0,17.35344,0,0,1561233932.152863,57911.895453,0,-0.237793,74.4333,2650659446,177292352,1,1,0.59,-13.52971,-29.52069,3
1561234022.721834,57,0,0,1561234012.379212,4.603124512472283,-74.0647421846958,2650.46,-1,-1,10,65,-9999,1561234022.704063,-20.70051002502441,-11.85787391662598,9.00579833984375,145.2310180664062,152.7739868164062,15,57914.438812,-1.321090698242188,-0.544921875,-0.0570220947265625,57914.42767300001,-1.543953260903552,1.067937450817808,-1.831850029488824,57914.42608600001,17.05644226074219,-12.14300537109375,-526.5322875976562,57914.432739,-3.120058850268633,-1.547575956920296,-0.1574581941241701,-1.570976853370667,0.9661826491355896,-1.975479483604431,-0.3350705504417419,-0.6941618919372559,-0.008227348327636719,1,0.6972502470016479,-0.04875003919005394,0.7124199867248535,-0.06263701617717743,-0.9873629212379456,0.1568083614110947,-0.0229310542345047,0,0,0,-1,57913.66143650001,3,2,1561234021.944976,1561233790.755775,20,1.561009,0,0,17.35344,0,0,1561233932.152863,57911.895453,0,-0.237793,74.4333,2650659446,177292352,1,1,0.59,-13.52971,-30.57788,3
1561234022.742718,58,0,0,1561234012.379212,4.603124512472283,-74.0647421846958,2650.46,-1,-1,10,65,-9999,1561234022.733816,-20.58601379394531,-12.89912605285645,8.1141357421875,147.574462890625,155.117431640625,15,57914.45907600001,-1.3441162109375,-0.628814697265625,-0.104736328125,57914.447937,-1.495219010851756,0.6283483581221675,-2.261981438205266,57914.446228,17.46977233886719,-13.52297973632812,-527.4693603515625,57914.453003,3.130539427643722,-1.537068134048604,-0.1143055487260072,-1.448617577552795,0.5124140977859497,-2.351946353912354,-0.3315382599830627,-0.6920444965362549,-0.04907882213592529,1,0.6937096118927002,-0.04490103200078011,0.7179651260375977,-0.03573688864707947,-0.9929093718528748,0.114056795835495,-0.03350174427032471,0,0,0,-1,57913.66143650001,3,2,1561234021.944976,1561233790.755775,20,1.561009,0,0,17.35344,0,0,1561233932.152863,57911.895453,0,-0.237793,74.4333,2650659446,177292352,1,1,0.59,-13.52971,-31.53439,3
1561234022.760554,59,0,0,1561234012.379212,4.603124512472283,-74.0647421846958,2650.46,-1,-1,10,65,-9999,1561234022.754851,-19.94321250915527,-14.13820171356201,7.35107421875,149.7554779052734,157.2984466552734,15,57914.47934000001,-1.42755126953125,-0.668365478515625,-0.14495849609375,57914.468201,-1.366955580115251,0.3372552635965825,-2.724409800409425,57914.46637,18.15571594238281,-15.12210083007812,-527.693359375,57914.473267,3.100323270900615,-1.531957312713735,-0.06277105122564755,-1.396998882293701,0.3487750589847565,-2.879709243774414,-0.3996487855911255,-0.7237558364868164,-0.09312891960144043,1,0.6922870874404907,-0.03690794482827187,0.7206449508666992,-0.006886441726237535,-0.9972780346870422,0.06272983551025391,-0.03875278308987617,0,0,0,-1,57913.66143650001,3,2,1561234021.944976,1561233790.755775,20,1.561009,0,0,17.35344,0,0,1561233932.152863,57911.895453,0,-0.237793,74.4333,2650659446,177292352,1,1,0.59,-13.52971,-32.38759,3
1561234022.781071,60,0,0,1561234012.379212,4.603124512472283,-74.0647421846958,2650.46,-1,-1,10,65,-9999,1561234022.754851,-19.94321250915527,-14.13820171356201,7.35107421875,149.7554779052734,157.2984466552734,15,57914.499603,-1.464324951171875,-0.68011474609375,-0.1016693115234375,57914.488464,-1.670608408657758,0.5339033448041425,-3.281335373888976,57914.486511,18.770751953125,-16.34977722167969,-528.7455444335938,57914.49353000001,3.06572637237804,-1.523663993463919,-0.0002914023571621275,-1.800497889518738,0.5855748057365417,-3.427944183349609,-0.4433559775352478,-0.6700759530067444,-0.08484309911727905,1,0.6897476315498352,-0.02628235332667828,0.7230560183525085,0.02734030783176422,-0.9988895058631897,0.0002914023643825203,-0.04711488634347916,0,0,0,-1,57913.66143650001,3,2,1561234021.944976,1561233790.755775,20,1.561009,0,0,17.35344,0,0,1561233932.152863,57911.895453,0,-0.237793,74.4333,2650659446,177292352,1,1,0.59,-13.52971,-32.38759,3
1561234022.802026,61,0,0,1561234012.379212,4.603124512472283,-74.0647421846958,2650.46,-1,-1,10,65,-9999,1561234022.781084,-18.23863410949707,-17.36740112304688,5.87408447265625,152.3610687255859,159.9040374755859,15,57914.519867,-1.512313842773438,-0.6945343017578125,-0.02777099609375,57914.508728,-2.132694288345734,0.672020471573941,-3.972306633463812,57914.506653,20.47233581542969,-18.10557556152344,-529.3670654296875,57914.51379400001,3.020528526063415,-1.508920310566985,0.07411875688134133,-2.229247808456421,0.6587342619895935,-4.182752132415771,-0.494964599609375,-0.620361328125,0.006445229053497314,1,0.6848047971725464,-0.01445700228214264,0.7252724170684814,0.06937848776578903,-0.9953460693359375,-0.0740509107708931,-0.06166676804423332,0,0,0,-1,57913.66143650001,3,2,1561234021.944976,1561233790.755775,20,1.561009,0,0,17.35344,0,0,1561233932.152863,57911.895453,0,-0.237793,74.4333,2650659446,177292352,1,1,0.59,-13.52971,-33.30278,3
1561234022.825743,62,0,0,1561234012.379212,4.603124512472283,-74.0647421846958,2650.46,-1,-1,10,65,-9999,1561234022.805725,-16.6219654083252,-18.97019195556641,5.0179443359375,155.8953857421875,163.4383544921875,15,57914.540131,-1.48223876953125,-0.65350341796875,-0.0784149169921875,57914.52899200001,-2.324762797742794,0.6646099595246864,-4.703199476727263,57914.526794,22.17160034179688,-19.58335876464844,-530.6322021484375,57914.534058,2.966986143998834,-1.489263747760722,0.162521510541026,-2.319073915481567,0.6431920528411865,-4.819979667663574,-0.5306922793388367,-0.5185824036598206,0.04869180917739868,1,0.6780967116355896,0.0005656167631968856,0.7253231406211853,0.1187046691775322,-0.9835441708564758,-0.1618070006370544,-0.08036906272172928,0,0,0,-1,57913.66143650001,3,2,1561234021.944976,1561233790.755775,20,1.561009,0,0,17.35344,0,0,1561233932.152863,57911.895453,0,-0.237793,74.4333,2650659446,177292352,1,1,0.59,-13.52971,-33.98865,3
1561234022.841697,63,0,0,1561234012.379212,4.603124512472283,-74.0647421846958,2650.46,-1,-1,10,65,-9999,1561234022.831727,-14.92219734191895,-20.84221267700195,3.927734375,159.8640289306641,167.4069976806641,15,57914.560394,-1.42572021484375,-0.5961151123046875,-0.1851348876953125,57914.54925500001,-2.16879556745063,0.6750665952287735,-4.914053658137632,57914.54693600001,24.53140258789062,-21.52801513671875,-531.613037109375,57914.554321,2.911563494347977,-1.464436168148332,0.2570703982753234,-2.065759658813477,0.7079665064811707,-4.842568397521973,-0.4713706970214844,-0.3668606877326965,-0.04088348150253296,1,0.6695655584335327,0.01861061714589596,0.7228513360023499,0.1697689592838287,-0.9616736769676208,-0.254248321056366,-0.1026712134480476,0,0,0,-1,57913.66143650001,3,2,1561234021.944976,1561233790.755775,20,1.561009,0,0,17.35344,0,0,1561233932.152863,57911.895453,0,-0.237793,74.4333,2650659446,177292352,1,1,0.59,-13.52971,-34.7963,3
1561234022.861937,64,0,0,1561234012.379212,4.603124512472283,-74.0647421846958,2650.46,-1,-1,10,65,-9999,1561234022.856075,-12.50154876708984,-22.30069351196289,3.03955078125,163.4891815185547,171.0321502685547,15,57914.58065800001,-1.442520141601562,-0.6246795654296875,-0.2123870849609375,57914.569488,-1.67682768875142,0.8300290148416503,-4.525684343739159,57914.567078,26.80928039550781,-22.90687561035156,-532.5730590820312,57914.574585,2.861539362093724,-1.43366603619216,0.34590357236636,-1.586318731307983,0.8497183322906494,-4.49022912979126,-0.5163958072662354,-0.2553134858608246,-0.07394111156463623,1,0.6589714884757996,0.03813856467604637,0.7195940017700195,0.2156074345111847,-0.9319379329681396,-0.3390468657016754,-0.1286040544509888,0,0,0,-1,57913.66143650001,3,2,1561234021.944976,1561233790.755775,20,1.561009,0,0,17.35344,0,0,1561233932.152863,57911.895453,0,-0.237793,74.4333,2650659446,177292352,1,1,0.59,-13.52971,-35.04051,3
1561234022.905155,65,0,0,1561234012.379212,4.603124512472283,-74.0647421846958,2650.46,-1,-1,10,65,-9999,1561234022.882956,-7.672863006591797,-24.73875045776367,1.31439208984375,166.7876739501953,174.3306427001953,15,57914.60092200001,-1.4078369140625,-0.66705322265625,-0.1915435791015625,57914.58975200001,-1.364576578313483,0.8571991169148566,-4.54435150508396,57914.58718900001,29.23733520507812,-24.07896423339844,-533.3989868164062,57914.594849,2.815199141711751,-1.398785341755385,0.4319558579214224,-1.288790702819824,0.8206238150596619,-4.562270641326904,-0.5258007645606995,-0.228172242641449,-0.04997146129608154,1,0.6470863223075867,0.05964990705251694,0.7151088714599609,0.2575664520263672,-0.894746720790863,-0.418647825717926,-0.1554423570632935,0,0,0,-1,57913.66143650001,3,2,1561234021.944976,1561233790.755775,20,1.561009,0,0,17.35344,0,0,1561233932.152863,57911.895453,0,-0.237793,74.4333,2650659446,177292352,1,1,0.59,-13.52971,-36.61417,3
1561234022.923367,66,0,0,1561234012.379212,4.603124512472283,-74.0647421846958,2650.46,-1,-1,10,65,-9999,1561234022.906855,-5.252693176269531,-25.08300018310547,0.904296875,169.9075622558594,177.4505310058594,15,57914.621185,-1.360183715820312,-0.6798553466796875,-0.19500732421875,57914.61001600001,-1.014427886615391,0.6852774211642464,-4.534089812771667,57914.607361,31.65423583984375,-24.56086730957031,-533.81982421875,57914.61511200001,2.770893719176302,-1.363752370944399,0.5182340897088519,-0.9485892057418823,0.6327431201934814,-4.502964496612549,-0.5488444566726685,-0.1835319101810455,0.001482367515563965,1,0.635437548160553,0.08325380831956863,0.7078583240509033,0.2970260977745056,-0.8501424193382263,-0.495346873998642,-0.1785758584737778,0,0,0,-1,57913.66143650001,3,2,1561234021.944976,1561233790.755775,20,1.561009,0,0,17.35344,0,0,1561233932.152863,57911.895453,0,-0.237793,74.4333,2650659446,177292352,1,1,0.59,-13.52971,-37.41526,3
1561234022.924927,67,0,0,1561234012.379212,4.603124512472283,-74.0647421846958,2650.46,-1,-1,10,65,-9999,1561234022.906855,-5.252693176269531,-25.08300018310547,0.904296875,169.9075622558594,177.4505310058594,15,57914.641449,-1.319610595703125,-0.704437255859375,-0.2374725341796875,57914.630279,-0.7922960169368626,0.638683819996656,-4.263074556020298,57914.627502,33.95245361328125,-24.89720153808594,-534.3814697265625,57914.63537600001,2.728030445947875,-1.328315990953714,0.6004109751078357,-0.7436120510101318,0.6705350279808044,-4.166120529174805,-0.5194538831710815,-0.1206568479537964,-0.01721549034118652,1,0.6240927577018738,0.1070044934749603,0.6987702250480652,0.3328339457511902,-0.800965428352356,-0.5649816393852234,-0.1981165409088135,0,0,0,-1,57913.66143650001,3,2,1561234021.944976,1561233790.755775,20,1.561009,0,0,17.35344,0,0,1561233932.152863,57911.895453,0,-0.237793,74.4333,2650659446,177292352,1,1,0.59,-13.52971,-37.41526,3
1561234022.942997,68,0,0,1561234012.379212,4.603124512472283,-74.0647421846958,2650.46,-1,-1,10,65,-9999,1561234022.933025,-2.994876861572266,-25.55031585693359,0.37432861328125,172.9049224853516,180.4478912353516,15,57914.661713,-1.3341064453125,-0.7397918701171875,-0.303253173828125,57914.650543,-0.5595450587277524,0.8695596464822414,-3.874065550327988,57914.647613,36.34597778320312,-25.443359375,-534.4782104492188,57914.655609,2.686942016243379,-1.287752251818941,0.6747592056161306,-0.5043203830718994,0.9535757303237915,-3.772341012954712,-0.5877071619033813,-0.1084755063056946,-0.05407804250717163,1,0.611549437046051,0.1302628815174103,0.6904882192611694,0.3636822402477264,-0.7497867941856384,-0.6247093081474304,-0.2180777341127396,0,0,0,-1,57913.66143650001,3,2,1561234021.944976,1561233790.755775,20,1.561009,0,0,17.35344,0,0,1561233932.152863,57911.895453,0,-0.237793,74.4333,2650659446,177292352,1,1,0.59,-13.52971,-37.41526,3
1561234022.972112,69,0,0,1561234012.379212,4.603124512472283,-74.0647421846958,2650.46,-1,-1,10,65,-9999,1561234022.957236,-0.6364669799804688,-25.92566680908203,0.301025390625,175.5450134277344,183.0879821777344,15,57914.68197600001,-1.242324829101562,-0.7040252685546875,-0.3720245361328125,57914.670807,-0.2430557937310628,1.315945925228091,-3.325100697978902,57914.667755,38.16519165039062,-25.85122680664062,-534.4898681640625,57914.675873,2.650404668474108,-1.239946757454117,0.7400024483634954,-0.1310365498065948,1.425515055656433,-3.123934030532837,-0.6042864322662354,-0.05985641479492188,-0.09739178419113159,1,0.5969980955123901,0.1537824124097824,0.6849623322486877,0.3882921934127808,-0.6984173655509949,-0.6742897033691406,-0.2398884892463684,0,0,0,-1,57913.66143650001,3,2,1561234021.944976,1561233790.755775,20,1.561009,0,0,17.35344,0,0,1561233932.152863,57911.895453,0,-0.237793,74.4333,2650659446,177292352,1,1,0.59,-13.52971,-36.40566,3
1561234022.983752,70,0,0,1561234012.379212,4.603124512472283,-74.0647421846958,2650.46,-1,-1,10,65,-9999,1561234022.957236,-0.6364669799804688,-25.92566680908203,0.301025390625,175.5450134277344,183.0879821777344,15,57914.70224000001,-1.030227661132812,-0.7025604248046875,-0.478302001953125,57914.69107,0.3298929547630585,1.579588486817684,-2.5251432992181,57914.687897,39.77693176269531,-25.85179138183594,-534.3001098632812,57914.69613600001,2.628247064620329,-1.193523510924884,0.7930012278217119,0.5178181529045105,1.510426998138428,-2.384373426437378,-0.4794445037841797,0.03257662057876587,-0.1616044044494629,1,0.5824816823005676,0.1773832142353058,0.6828962564468384,0.4036125242710114,-0.6523609757423401,-0.7124624848365784,-0.2585005760192871,0,0,0,-1,57913.66143650001,3,2,1561234021.944976,1561233790.755775,20,1.561009,0,0,17.35344,0,0,1561233932.152863,57911.895453,0,-0.237793,74.4333,2650659446,177292352,1,1,0.59,-13.52971,-36.40566,3
1561234023.003628,71,0,0,1561234012.379212,4.603124512472283,-74.0647421846958,2650.46,-1,-1,10,65,-9999,1561234022.985163,2.518161773681641,-26.36123275756836,0.5855712890625,176.8650360107422,184.4080047607422,15,57914.722473,-0.942169189453125,-0.7224884033203125,-0.479400634765625,57914.71133400001,1.086279972825729,1.215080829470212,-2.104472503958055,57914.708038,41.12455749511719,-25.65185546875,-533.7156982421875,57914.7164,2.62802815123876,-1.166963166856847,0.8410135311512973,1.262543797492981,1.098103642463684,-2.000990390777588,-0.3692057132720947,0.02209842205047607,-0.2515085339546204,1,0.5729695558547974,0.2017815411090851,0.6797475814819336,0.4110150337219238,-0.6130788326263428,-0.7453192472457886,-0.2619802057743073,0,0,0,-1,57913.66143650001,3,2,1561234021.944976,1561233790.755775,20,1.561009,0,0,17.35344,0,0,1561233932.152863,57911.895453,0,-0.237793,74.4333,2650659446,177292352,1,1,0.59,-13.52971,-37.0848,3
1561234023.024406,72,0,0,1561234012.379212,4.603124512472283,-74.0647421846958,2650.46,-1,-1,10,65,-9999,1561234023.008377,3.783927917480469,-26.36807632446289,1.2977294921875,176.1487121582031,183.6916809082031,15,57914.742737,-0.755218505859375,-0.7408599853515625,-0.4195404052734375,57914.73159800001,1.764352211660766,0.5528980749630236,-1.549664676177336,57914.72818000001,42.06765747070312,-25.98368835449219,-533.0507202148438,57914.736664,2.652984738164041,-1.1709652408897,0.8855437034274843,1.893002390861511,0.3273358047008514,-1.383721351623535,-0.2730047702789307,0.04888689517974854,-0.1841440200805664,1,0.5708586573600769,0.2257084399461746,0.6734447479248047,0.4118838012218475,-0.5829522013664246,-0.7742592096328735,-0.2463521808385849,0,0,0,-1,57913.66143650001,3,2,1561234021.944976,1561233790.755775,20,1.561009,0,0,17.35344,0,0,1561233932.152863,57911.895453,0,-0.237793,74.4333,2650659446,177292352,1,1,0.59,-13.52971,-37.90733,3
1561234023.049847,73,0,0,1561234012.379212,4.603124512472283,-74.0647421846958,2650.46,-1,-1,10,65,-9999,1561234023.034442,4.512073516845703,-26.42586517333984,2.21807861328125,173.0661468505859,180.6091156005859,15,57914.76300000001,-0.733428955078125,-0.7830657958984375,-0.3677825927734375,57914.751861,2.212033585644721,-0.2216005690410574,-0.8651063085074109,57914.74832100001,42.63972473144531,-26.29747009277344,-531.788330078125,57914.756927,2.704211774769349,-1.212164793172564,0.9210080875124256,2.234893798828125,-0.2851960361003876,-0.7594980001449585,-0.1397885084152222,0.03624796867370605,-0.1896814107894897,1,0.5773968100547791,0.2458339482545853,0.6638110280036926,0.4068582952022552,-0.5665255784988403,-0.7962119579315186,-0.2123571932315826,0,0,0,-1,57913.66143650001,3,2,1561234021.944976,1561233790.755775,20,1.561009,0,0,17.35344,0,0,1561233932.152863,57911.895453,0,-0.237793,74.4333,2650659446,177292352,1,1,0.59,-13.52971,-38.47856,3
1561234023.064421,74,0,0,1561234012.379212,4.603124512472283,-74.0647421846958,2650.46,-1,-1,10,65,-9999,1561234023.058557,4.867424011230469,-26.28399658203125,3.43841552734375,168.7701873779297,176.3131561279297,15,57914.78326400001,-0.777435302734375,-0.82763671875,-0.2511444091796875,57914.772125,2.00948527104209,0.1058057922121941,-0.6057889868442153,57914.768463,42.66529846191406,-26.30363464355469,-530.7826538085938,57914.777191,2.764523790968859,-1.261785207607353,0.9474434455163445,1.837557196617126,0.3299646079540253,-0.5023130774497986,-0.2658038735389709,-0.009576916694641113,-0.1438644528388977,1,0.5846485495567322,0.2634774446487427,0.6554092168807983,0.3990043699741364,-0.5561107993125916,-0.8119257688522339,-0.1775314211845398,0,0,0,-1,57913.66143650001,3,2,1561234021.944976,1561233790.755775,20,1.561009,0,0,17.35344,0,0,1561233932.152863,57911.895453,0,-0.237793,74.4333,2650659446,177292352,1,1,0.59,-13.52971,-38.73167,3
1561234023.084909,75,0,0,1561234012.379212,4.603124512472283,-74.0647421846958,2650.46,-1,-1,10,65,-9999,1561234023.058557,4.867424011230469,-26.28399658203125,3.43841552734375,168.7701873779297,176.3131561279297,15,57914.803528,-0.50177001953125,-0.7745361328125,-0.2617645263671875,57914.792389,1.452865428455681,0.6135766025038251,0.1444333459271394,57914.788635,42.89547729492188,-26.06944274902344,-529.6331176757812,57914.797455,2.816222045097943,-1.293042478382011,0.9583588203263691,1.45473849773407,0.5425530672073364,0.4453767836093903,-0.08190393447875977,0.01028108596801758,-0.08834624290466309,1,0.5871123075485229,0.2765617668628693,0.6539495587348938,0.3887964189052582,-0.55283123254776,-0.8182492256164551,-0.1576254516839981,0,0,0,-1,57913.66143650001,3,2,1561234021.944976,1561233790.755775,20,1.561009,0,0,17.35344,0,0,1561233932.152863,57911.895453,0,-0.237793,74.4333,2650659446,177292352,1,1,0.59,-13.52971,-39.14487,3
1561234023.104952,76,0,0,1561234012.379212,4.603124512472283,-74.0647421846958,2650.46,-1,-1,10,65,-9999,1561234023.084918,5.177898406982422,-26.49993133544922,5.490478515625,164.985107421875,172.528076171875,15,57914.823791,-0.3480682373046875,-0.6971282958984375,-0.3038787841796875,57914.812652,1.883525474648503,-0.02027917275262638,1.420100823880545,57914.80877700001,42.45677185058594,-26.35678100585938,-528.5671997070312,57914.81771800001,2.883913666665305,-1.344563484973744,0.9456501264860974,2.115857839584351,-0.2927977740764618,1.720919847488403,0.1840274333953857,0.07615160942077637,-0.1492489576339722,1,0.5956298112869263,0.2821184694766998,0.6543488502502441,0.3707586228847504,-0.5703036785125732,-0.8108775615692139,-0.1312685906887054,0,0,0,-1,57913.66143650001,3,2,1561234021.944976,1561233790.755775,20,1.561009,0,0,17.35344,0,0,1561233932.152863,57911.895453,0,-0.237793,74.4333,2650659446,177292352,1,1,0.59,-13.52971,-39.14487,3
1561234023.1301,77,0,0,1561234012.379212,4.603124512472283,-74.0647421846958,2650.46,-1,-1,10,65,-9999,1561234023.109218,4.409614562988281,-26.76338195800781,6.57049560546875,159.1600646972656,166.7030334472656,15,57914.844055,-0.480987548828125,-0.6031341552734375,-0.237945556640625,57914.83291600001,2.66467456452673,-0.6912434346382419,2.553292379308019,57914.82891800001,41.37220764160156,-26.29049682617188,-527.5711669921875,57914.837982,2.98046346987702,-1.433797404182603,0.9094478419483488,2.726116180419922,-0.6385974884033203,2.772326946258545,0.1986827254295349,0.1444351077079773,-0.2167494297027588,1,0.6150135397911072,0.282522052526474,0.6518216133117676,0.3421524465084076,-0.6084269881248474,-0.7891647219657898,-0.0838792696595192,0,0,0,-1,57913.66143650001,3,2,1561234021.944976,1561233790.755775,20,1.561009,0,0,17.35344,0,0,1561233932.152863,57911.895453,0,-0.237793,74.4333,2650659446,177292352,1,1,0.59,-13.52971,-39.14935,3
1561234023.145491,78,0,0,1561234012.379212,4.603124512472283,-74.0647421846958,2650.46,-1,-1,10,65,-9999,1561234023.135648,3.017688751220703,-26.56772232055664,7.7691650390625,152.2632598876953,159.8062286376953,15,57914.864319,-0.5169219970703125,-0.5079345703125,-0.1179351806640625,57914.85318000001,2.41610975576473,-0.2968670940849858,3.245866595542974,57914.84906,39.54669189453125,-26.15730285644531,-525.9714965820312,57914.858246,3.070646270472557,-1.511849104449525,0.8520354410466853,2.17402172088623,-0.2229401022195816,3.353772163391113,0.1654877066612244,0.1825538277626038,-0.1304284930229187,1,0.6349208950996399,0.2783517837524414,0.6521300673484802,0.3067933917045593,-0.6573090553283691,-0.7526221871376038,-0.0387914814054966,0,0,0,-1,57913.66143650001,3,2,1561234021.944976,1561233790.755775,20,1.561009,0,0,17.35344,0,0,1561233932.152863,57911.895453,0,-0.237793,74.4333,2650659446,177292352,1,1,0.59,-13.52971,-35.37846,3
1561234023.165789,79,0,0,1561234012.379212,4.603124512472283,-74.0647421846958,2650.46,-1,-1,10,65,-9999,1561234023.159838,-0.6769866943359375,-26.36336898803711,10.23590087890625,148.1278381347656,155.6708068847656,15,57914.88458200001,-0.7431640625,-0.4638824462890625,0.0268707275390625,57914.873444,1.490081240476775,0.05363553172197784,3.398622319876611,57914.869202,37.54664611816406,-26.10475158691406,-525.0208740234375,57914.878509,3.125278946909302,-1.552644706795443,0.7846334962186196,1.333560943603516,0.1693645566701889,3.266528606414795,0.128764808177948,0.2372665405273438,-0.02414309978485107,1,0.6496316194534302,0.2675007283687592,0.6570808887481689,0.2732522785663605,-0.707530677318573,-0.7065658569335938,-0.01284423843026161,0,0,0,-1,57913.66143650001,3,2,1561234021.944976,1561233790.755775,20,1.561009,0,0,17.35344,0,0,1561233932.152863,57911.895453,0,-0.237793,74.4333,2650659446,177292352,1,1,0.59,-13.52971,-35.70997,3
1561234023.186245,80,0,0,1561234012.379212,4.603124512472283,-74.0647421846958,2650.46,-1,-1,10,65,-9999,1561234023.159838,-0.6769866943359375,-26.36336898803711,10.23590087890625,148.1278381347656,155.6708068847656,15,57914.904846,-0.9997100830078125,-0.392547607421875,0.1308746337890625,57914.893707,1.168571650509177,0.5691153944210612,2.293306337895105,57914.889343,35.85758972167969,-25.83073425292969,-524.0974731445312,57914.898773,-3.123533420156819,-1.567513551111845,0.7313221658824772,1.127498865127563,0.4903532266616821,1.815661549568176,-0.211171567440033,0.2166061401367188,0.1013050079345703,1,0.6569598317146301,0.2591951191425323,0.6636935472488403,0.2464397549629211,-0.7442880272865295,-0.6678543090820312,-0.002443339442834258,0,0,0,-1,57913.66143650001,3,2,1561234021.944976,1561233790.755775,20,1.561009,0,0,17.35344,0,0,1561233932.152863,57911.895453,0,-0.237793,74.4333,2650659446,177292352,1,1,0.59,-13.52971,-35.83243,3
1561234023.214017,81,0,0,1561234012.379212,4.603124512472283,-74.0647421846958,2650.46,-1,-1,10,65,-9999,1561234023.212529,-3.223712921142578,-25.94943618774414,11.514404296875,144.3901824951172,151.9331512451172,15,57914.92511679167,-0.868499755859375,-0.2243804931640625,0.18621826171875,57914.913971,0.8071596516128128,-0.1794882690397434,0.5528221748719564,57914.90949179167,34.80929565429688,-25.54206848144531,-523.2832641601562,57914.91904379167,-3.098739728602481,-1.582839922056197,0.7118344477746696,0.6832686066627502,-0.4482384920120239,0.2945667803287506,-0.1858832240104675,0.3217724561691284,0.10835862159729,1,0.6613695621490479,0.2591325640678406,0.6639466881752014,0.2336994707584381,-0.7571099996566772,-0.6532238721847534,0.009118767455220222,0,0,0,-1,57913.66143650001,3,2,1561234021.944976,1561233790.755775,20,1.561009,0,0,17.35344,0,0,1561233932.152863,57911.895453,0,-0.237793,74.4333,2650659446,177292352,1,1,0.59,-13.52971,-36.21056,3
1561234023.227086,82,0,0,1561234012.379212,4.603124512472283,-74.0647421846958,2650.46,-1,-1,10,65,-9999,1561234023.212529,-3.223712921142578,-25.94943618774414,11.514404296875,144.3901824951172,151.9331512451172,15,57914.94537979167,-0.6535491943359375,-0.0216064453125,0.1976165771484375,57914.93424179167,0.275667266543519,-1.199672312035231,-0.0721093475716395,57914.92963279167,34.43331909179688,-25.60475158691406,-522.9727783203125,57914.93930679167,-3.087760681549667,-1.609356192510538,0.7109857694340272,0.1278618574142456,-1.343900322914124,-0.08103775233030319,-0.01574766635894775,0.5439841747283936,0.2039439678192139,1,0.6688122749328613,0.2594133615493774,0.6565065383911133,0.2332253009080887,-0.75715571641922,-0.6525810360908508,0.02921030297875404,0,0,0,-1,57913.66143650001,3,2,1561234021.944976,1561233790.755775,20,1.561009,0,0,17.35344,0,0,1561233932.152863,57911.895453,0,-0.237793,74.4333,2650659446,177292352,1,1,0.59,-13.52971,-32.91927,3
1561234023.2469,83,0,0,1561234012.379212,4.603124512472283,-74.0647421846958,2650.46,-1,-1,10,65,-9999,1561234023.236995,-3.180618286132812,-26.02463150024414,12.03179931640625,144.3321075439453,151.8750762939453,15,57914.96564379167,-0.4445648193359375,0.0836639404296875,0.0399322509765625,57914.95447479167,-0.2546898129530739,-1.48586811963227,0.2344708276410833,57914.94977479167,34.78013610839844,-25.70852661132812,-522.7666015625,57914.95957079167,-3.09148816257038,-1.636301700381992,0.7088697147849373,-0.2714509069919586,-1.475792646408081,0.3926182389259338,0.2407311201095581,0.7157955169677734,0.06005179882049561,1,0.6783579587936401,0.254313200712204,0.6472272872924805,0.2371751517057419,-0.7574700117111206,-0.6509761810302734,0.04968944936990738,0,0,0,-1,57913.66143650001,3,2,1561234021.944976,1561233790.755775,20,1.561009,0,0,17.35344,0,0,1561233932.152863,57911.895453,0,-0.237793,74.4333,2650659446,177292352,1,1,0.59,-13.52971,-33.4759,3
1561234023.267181,84,0,0,1561234012.379212,4.603124512472283,-74.0647421846958,2650.46,-1,-1,10,65,-9999,1561234023.261356,-3.319713592529297,-26.19290542602539,12.1663818359375,144.8011474609375,152.3441162109375,15,57914.98590779167,-0.5698089599609375,0.16448974609375,0.0357818603515625,57914.97473779167,-0.1410101186619515,-0.9971929733048339,0.8788639323826513,57914.96991679167,34.40061950683594,-25.75384521484375,-522.7732543945312,57914.97983479167,-3.09801022179572,-1.656100171024925,0.6946485573729716,-0.1201258301734924,-0.684117317199707,1.031334280967712,0.2532780170440674,0.7349183559417725,-0.06205487251281738,1,0.6874479651451111,0.2452429980039597,0.6412408351898193,0.2368148863315582,-0.7654850482940674,-0.64011549949646,0.06545766443014145,0,0,0,-1,57913.66143650001,3,2,1561234021.944976,1561233790.755775,20,1.561009,0,0,17.35344,0,0,1561233932.152863,57911.895453,0,-0.237793,74.4333,2650659446,177292352,1,1,0.59,-13.52971,-33.4759,3
1561234023.300042,85,0,0,1561234012.379212,4.603124512472283,-74.0647421846958,2650.46,-1,-1,10,65,-9999,1561234023.29058,-4.181480407714844,-26.17267227172852,12.22540283203125,145.2833099365234,152.8262786865234,15,57915.00617079167,-0.476959228515625,0.1927947998046875,0.1978607177734375,57914.99500179167,-0.1230992950667326,0.1072644055412305,1.632551570364417,57914.99005779167,33.88388061523438,-25.910888671875,-522.77392578125,57915.00009779167,-3.104334874845585,-1.655067840245343,0.6660811548087594,-0.1473731696605682,0.1608347147703171,1.928537487983704,0.2289544343948364,0.8308612108230591,0.06699872016906738,1,0.6915674209594727,0.2341463267803192,0.6438836455345154,0.2287438362836838,-0.7834588289260864,-0.6179095506668091,0.06617999821901321,0,0,0,-1,57913.66143650001,3,2,1561234021.944976,1561233790.755775,20,1.561009,0,0,17.35344,0,0,1561233932.152863,57911.895453,0,-0.237793,74.4333,2650659446,177292352,1,1,0.59,-14.08698,-34.78849,3
1561234023.307799,86,0,0,1561234012.379212,4.603124512472283,-74.0647421846958,2650.46,-1,-1,10,65,-9999,1561234023.29058,-4.181480407714844,-26.17267227172852,12.22540283203125,145.2833099365234,152.8262786865234,15,57915.02643479167,-0.5848541259765625,0.1593017578125,0.277435302734375,57915.01526579167,-0.07611926922497181,-0.1714372667483249,2.452129542140269,57915.01019979167,32.65264892578125,-25.66763305664062,-522.69970703125,57915.02033179167,-3.111862999880337,-1.651310072040909,0.6198761490268619,-0.03214271366596222,-0.4241730868816376,2.393600940704346,0.3602332472801208,0.7270067930221558,0.1905637979507446,1,0.696820080280304,0.2171945720911026,0.6490278244018555,0.214548721909523,-0.8113136291503906,-0.5809343457221985,0.06546341627836227,0,0,0,-1,57913.66143650001,3,2,1561234021.944976,1561233790.755775,20,1.561009,0,0,17.35344,0,0,1561233932.152863,57911.895453,0,-0.237793,74.4333,2650659446,177292352,1,1,0.59,-14.08698,-34.78849,3
1561234023.327982,87,0,0,1561234012.379212,4.603124512472283,-74.0647421846958,2650.46,-1,-1,10,65,-9999,1561234023.311973,-5.268569946289062,-25.93996047973633,12.28662109375,145.7111358642578,153.2541046142578,15,57915.04669879167,-0.7034454345703125,0.2150726318359375,0.3039093017578125,57915.03552879167,-0.04348862165266694,-1.006286603163018,1.695707636667319,57915.03034079167,31.77398681640625,-25.84066772460938,-522.5035400390625,57915.04059479167,-3.116761556503014,-1.665332345145312,0.5805450746595372,-0.1588487327098846,-1.080791234970093,1.401882171630859,0.1162590980529785,0.7718226909637451,0.2260322570800781,1,0.706336498260498,0.2013795226812363,0.6473344564437866,0.2036989331245422,-0.8324303030967712,-0.5484797954559326,0.07892992347478867,0,0,0,-1,57913.66143650001,3,2,1561234021.944976,1561233790.755775,20,1.561009,0,0,17.35344,0,0,1561233932.152863,57911.895453,0,-0.237793,74.4333,2650659446,177292352,1,1,0.59,-14.64426,-34.84267,3
1561234023.348239,88,0,0,1561234012.379212,4.603124512472283,-74.0647421846958,2650.46,-1,-1,10,65,-9999,1561234023.338891,-6.218334197998047,-26.06056976318359,12.41436767578125,146.4506072998047,153.9935760498047,15,57915.06696179167,-0.5579681396484375,0.0113677978515625,0.2249755859375,57915.05579279167,-0.712318626240693,-0.7769761827661817,0.8912108798284766,57915.05048279167,30.98846435546875,-25.6102294921875,-522.727294921875,57915.06085879167,-3.131779678366958,-1.675789336495563,0.5606572631433617,-0.9117640852928162,-0.6337398886680603,0.8558290004730225,0.2077969908714294,0.64110267162323,0.1774488687515259,1,0.7133069038391113,0.1886033415794373,0.6439144611358643,0.2024753391742706,-0.8422421813011169,-0.5317429304122925,0.08875592052936554,0,0,0,-1,57913.66143650001,3,2,1561234021.944976,1561233790.755775,20,1.561009,0,0,17.35344,0,0,1561233932.152863,57911.895453,0,-0.237793,74.4333,2650659446,177292352,1,1,0.59,-15.20154,-31.76036,3
1561234023.388185,89,0,0,1561234012.379212,4.603124512472283,-74.0647421846958,2650.46,-1,-1,10,65,-9999,1561234023.362687,-7.034873962402344,-26.29069137573242,11.752685546875,148.6128540039062,156.1558227539062,15,57915.08722579167,-0.5016937255859375,0.0821533203125,0.1196441650390625,57915.07605679167,-1.394082805294907,-0.2195488697372603,0.9479138404940077,57915.07062479167,30.5809326171875,-26.19940185546875,-522.9531860351562,57915.08112279167,3.11977992358785,-1.666676556246138,0.544889383041845,-1.523177027702332,-0.1438916325569153,1.012902736663818,0.3348231315612793,0.517377495765686,0.07503628730773926,1,0.7148102521896362,0.1731507182121277,0.6453967690467834,0.206223726272583,-0.8512569069862366,-0.5183234810829163,0.08186973631381989,0,0,0,-1,57913.66143650001,3,2,1561234021.944976,1561233790.755775,20,1.561009,0,0,17.35344,0,0,1561233932.152863,57911.895453,0,-0.237793,74.4333,2650659446,177292352,1,1,0.59,-16.3161,-33.30003,3
1561234023.391675,90,0,0,1561234012.379212,4.603124512472283,-74.0647421846958,2650.46,-1,-1,10,65,-9999,1561234023.362687,-7.034873962402344,-26.29069137573242,11.752685546875,148.6128540039062,156.1558227539062,15,57915.10745879167,-0.50811767578125,0.0382232666015625,0.027252197265625,57915.09631979167,-1.747915980361124,-0.1790672232714019,1.260303701624738,57915.09076579167,30.05096435546875,-25.77857971191406,-523.9956665039062,57915.10138579167,3.077916941258527,-1.648521165301723,0.5241563654413205,-1.750888466835022,-0.2132491320371628,1.301020860671997,0.3702127933502197,0.6213018894195557,0.001106619834899902,1,0.7142223715782166,0.1532890796661377,0.6495247483253479,0.2109656035900116,-0.8631327748298645,-0.5004827976226807,0.06722227483987808,0,0,0,-1,57913.66143650001,3,2,1561234021.944976,1561233790.755775,20,1.561009,0,0,17.35344,0,0,1561233932.152863,57911.895453,0,-0.237793,74.4333,2650659446,177292352,1,1,0.59,-16.3161,-33.30003,3
1561234023.409188,91,0,0,1561234012.379212,4.603124512472283,-74.0647421846958,2650.46,-1,-1,10,65,-9999,1561234023.392065,-7.890457153320312,-26.35615921020508,10.7340087890625,151.5931854248047,159.1361541748047,15,57915.12772279167,-0.59637451171875,-0.113616943359375,-0.094085693359375,57915.11658379167,-0.9576357100533419,-0.2387465327712055,1.234098729130577,57915.11090779167,29.23124694824219,-25.91941833496094,-524.3200073242188,57915.12164979167,3.04694363492426,-1.637082443075338,0.500288843734236,-0.7128270268440247,-0.2578605711460114,1.129947066307068,0.3240645527839661,0.4062232077121735,-0.09001064300537109,1,0.7146347761154175,0.1354881078004837,0.652729332447052,0.2118598818778992,-0.8755171895027161,-0.4796789884567261,0.05811978131532669,0,0,0,-1,57913.66143650001,3,2,1561234021.944976,1561233790.755775,20,1.561009,0,0,17.35344,0,0,1561233932.152863,57911.895453,0,-0.237793,74.4333,2650659446,177292352,1,1,0.59,-16.87338,-33.55783,3
1561234023.429424,92,0,0,1561234012.379212,4.603124512472283,-74.0647421846958,2650.46,-1,-1,10,65,-9999,1561234023.413569,-8.532506942749023,-26.38613128662109,10.2291259765625,153.0440216064453,160.5869903564453,15,57915.14798679167,-0.4504547119140625,-0.1930084228515625,0.0088958740234375,57915.13684779167,-0.1940821254972686,-0.4893768892746717,1.176854614131541,57915.13104879167,28.73527526855469,-26.08978271484375,-524.8389282226562,57915.14191379167,3.037431191569023,-1.640443188371624,0.4776633386830419,-0.1601632684469223,-0.7309615015983582,1.259918928146362,0.3868188858032227,0.3078651130199432,-0.02135038375854492,1,0.7179753184318542,0.1241456642746925,0.6527944803237915,0.2072648555040359,-0.8859185576438904,-0.4597053229808807,0.06180140748620033,0,0,0,-1,57913.66143650001,3,2,1561234021.944976,1561233790.755775,20,1.561009,0,0,17.35344,0,0,1561233932.152863,57911.895453,0,-0.237793,74.4333,2650659446,177292352,1,1,0.59,-16.87338,-33.55783,3
1561234023.478114,93,0,0,1561234012.379212,4.603124512472283,-74.0647421846958,2650.46,-1,-1,10,65,-9999,1561234023.464322,-9.973381042480469,-25.65074920654297,10.54449462890625,153.2398834228516,160.7828521728516,15,57915.16824979167,-0.70184326171875,-0.1287689208984375,0.0955352783203125,57915.15711079167,0.03928988187804801,-1.136019832505138,1.525217123686518,57915.15119079167,28.32225036621094,-25.97257995605469,-524.7284545898438,57915.16217679167,3.034030954602178,-1.659745785119908,0.4486836220297563,0.1301399320363998,-1.156860113143921,1.582237362861633,0.3315083980560303,0.2888365983963013,-0.01174116134643555,1,0.7263873219490051,0.1112708896398544,0.6482803225517273,0.1992809921503067,-0.8974568843841553,-0.4337798357009888,0.08003950119018555,0,0,0,-1,57913.66143650001,3,2,1561234021.944976,1561233790.755775,20,1.561009,0,0,17.35344,0,0,1561233932.152863,57911.895453,0,-0.237793,74.4333,2650659446,177292352,1,1,0.59,-18.54522,-30.3518,3
1561234023.481822,94,0,0,1561234012.379212,4.603124512472283,-74.0647421846958,2650.46,-1,-1,10,65,-9999,1561234023.464322,-9.973381042480469,-25.65074920654297,10.54449462890625,153.2398834228516,160.7828521728516,15,57915.18851379167,-0.83367919921875,-0.261383056640625,0.1249847412109375,57915.17737479167,0.3390449078491157,-0.7482374788109186,1.626853737212193,57915.17133279167,27.87557983398438,-25.28215026855469,-524.5988159179688,57915.18244079167,3.036466336065911,-1.679333066837871,0.4155119918197271,0.3344469964504242,-0.4695421755313873,1.606690764427185,0.1076003313064575,0.2163873016834259,-0.01420652866363525,1,0.7346425652503967,0.099264957010746,0.6443831324577332,0.1876620650291443,-0.9095260500907898,-0.4036584198474884,0.09910646080970764,0,0,0,-1,57913.66143650001,3,2,1561234021.944976,1561233790.755775,20,1.561009,0,0,17.35344,0,0,1561233932.152863,57911.895453,0,-0.237793,74.4333,2650659446,177292352,1,1,0.59,-18.54522,-30.3518,3
1561234023.490356,95,0,0,1561234012.379212,4.603124512472283,-74.0647421846958,2650.46,-1,-1,10,65,-9999,1561234023.464322,-9.973381042480469,-25.65074920654297,10.54449462890625,153.2398834228516,160.7828521728516,15,57915.20877779167,-0.8193511962890625,-0.32049560546875,0.2260894775390625,57915.19763879167,0.101196925629703,0.365470922713754,1.461819774988854,57915.19144379167,27.08230590820312,-24.94645690917969,-524.1182861328125,57915.20270479167,3.036884768510606,-1.677817099695202,0.3846131762072195,-0.0126987099647522,0.5049462914466858,1.410022497177124,0.08513838052749634,0.05487281084060669,0.07650887966156006,1,0.7358841300010681,0.08933663368225098,0.6476172208786011,0.1763108521699905,-0.9216404557228088,-0.3752005994319916,0.09901297092437744,0,0,0,-1,57913.66143650001,3,2,1561234021.944976,1561233790.755775,20,1.561009,0,0,17.35344,0,0,1561233932.152863,57911.895453,0,-0.237793,74.4333,2650659446,177292352,1,1,0.59,-18.54522,-30.3518,3
1561234023.510844,96,0,0,1561234012.379212,4.603124512472283,-74.0647421846958,2650.46,-1,-1,10,65,-9999,1561234023.490352,-10.6823558807373,-25.33499145507812,10.766845703125,153.3006591796875,160.8436279296875,15,57915.22904079167,-0.745147705078125,-0.2812957763671875,0.2198028564453125,57915.21790179167,-0.2407564204458883,0.3324623725827669,1.33428365354605,57915.21158479167,26.44013977050781,-24.6077880859375,-524.331298828125,57915.22296779167,3.030217442282793,-1.667041118413928,0.3576670827444738,-0.2621636688709259,0.1267313361167908,1.310913681983948,0.1581348776817322,0.0776594877243042,0.1467251777648926,1,0.7340229749679565,0.07885264605283737,0.653197169303894,0.1683034896850586,-0.9323810935020447,-0.3500899076461792,0.09001493453979492,0,0,0,-1,57913.66143650001,3,2,1561234021.944976,1561233790.755775,20,1.561009,0,0,17.35344,0,0,1561233932.152863,57911.895453,0,-0.237793,74.4333,2650659446,177292352,1,1,0.59,-19.1025,-31.25152,3
1561234023.552398,97,0,0,1561234012.379212,4.603124512472283,-74.0647421846958,2650.46,-1,-1,10,65,-9999,1561234023.541786,-12.19586753845215,-24.83526992797852,10.46978759765625,154.1678619384766,161.7108306884766,15,57915.24930479167,-0.857177734375,-0.327178955078125,0.19061279296875,57915.23816579167,-0.180282423676805,-0.4638006891138777,1.158885200992341,57915.23172679167,25.60227966308594,-24.83761596679688,-524.491943359375,57915.24323179167,3.023117745073379,-1.670234715314649,0.3336209383697711,-0.1328464299440384,-0.6181625127792358,1.070110678672791,0.1655522584915161,0.0138220489025116,0.1149088144302368,1,0.7363989353179932,0.06794881075620651,0.6533270478248596,0.162059485912323,-0.9401952028274536,-0.3274664580821991,0.0938008651137352,0,0,0,-1,57913.66143650001,3,2,1561234021.944976,1561233790.755775,20,1.561009,0,0,17.35344,0,0,1561233932.152863,57911.895453,0,-0.237793,74.4333,2650659446,177292352,1,1,0.59,-20.21705,-33.0666,3
1561234023.556574,98,0,0,1561234012.379212,4.603124512472283,-74.0647421846958,2650.46,-1,-1,10,65,-9999,1561234023.541786,-12.19586753845215,-24.83526992797852,10.46978759765625,154.1678619384766,161.7108306884766,15,57915.26956879167,-1.023635864257812,-0.3344268798828125,0.1372528076171875,57915.25842979167,-0.04926927911479293,-0.7813078142791956,0.744821974712892,57915.25189879167,25.11579895019531,-24.54525756835938,-524.2913818359375,57915.26349579167,3.019600889848802,-1.684214324967604,0.3165629999815675,-0.05306370928883553,-0.7537616491317749,0.6409313678741455,-0.004967629909515381,0.00014495849609375,0.05168938636779785,1,0.7417500615119934,0.05985454469919205,0.6491772532463074,0.1574585437774658,-0.9442053437232971,-0.3113021850585938,0.1075514405965805,0,0,0,-1,57913.66143650001,3,2,1561234021.944976,1561233790.755775,20,1.561009,0,0,17.35344,0,0,1561233932.152863,57912.845227,0,-0.1057129,74.43205,2650659446,177292352,1,1,0.59,-20.21705,-33.0666,3
1561234023.571736,99,0,0,1561234012.379212,4.603124512472283,-74.0647421846958,2650.46,-1,-1,10,65,-9999,1561234023.565195,-12.51857566833496,-24.39048767089844,10.70013427734375,154.4234924316406,161.9664611816406,15,57915.28983179167,-1.1143798828125,-0.3428192138671875,0.126800537109375,57915.27869279167,-0.1601699648084176,-0.2770214839578243,0.4067467238166741,57915.27204079167,25.22860717773438,-23.98640441894531,-524.1795654296875,57915.28375879167,3.015821944572048,-1.692344623725324,0.3071907854602732,-0.2285622954368591,-0.05454177781939507,0.3554088175296783,-0.1424077153205872,-0.05708444118499756,0.00629878044128418,1,0.7448444962501526,0.05471067130565643,0.6465567350387573,0.1554922014474869,-0.9461542963981628,-0.3023821413516998,0.1155731603503227,0,0,0,-1,57913.66143650001,3,2,1561234021.944976,1561233790.755775,20,1.561009,0,0,17.35344,0,0,1561233932.152863,57912.845227,0,-0.1057129,74.43205,2650659446,177292352,1,1,0.59,-20.77433,-34.0405,3
1561234023.591402,100,0,0,1561234012.379212,4.603124512472283,-74.0647421846958,2650.46,-1,-1,10,65,-9999,1561234023.565195,-12.51857566833496,-24.39048767089844,10.70013427734375,154.4234924316406,161.9664611816406,15,57915.31009579167,-1.06427001953125,-0.306732177734375,0.12841796875,57915.29895679167,-0.3802703752074333,0.5009286168189994,0.3386464989500399,57915.29218179167,24.88227844238281,-23.67813110351562,-524.4344482421875,57915.30402279167,3.00795858182782,-1.683556495678388,0.3012383798142875,-0.3889636695384979,0.5287997126579285,0.3420546650886536,-0.1548241376876831,-0.0221598744392395,0.02682280540466309,1,0.7424131035804749,0.05049791559576988,0.6496542096138,0.1556348353624344,-0.9489051103591919,-0.296703040599823,0.1074545085430145,0,0,0,-1,57913.66143650001,3,2,1561234021.944976,1561233790.755775,20,1.561009,0,0,17.35344,0,0,1561233932.152863,57912.845227,0,-0.1057129,74.43205,2650659446,177292352,1,1,0.59,-20.77433,-34.0405,3
1561234023.616798,101,0,0,1561234012.379212,4.603124512472283,-74.0647421846958,2650.46,-1,-1,10,65,-9999,1561234023.593381,-12.69928359985352,-24.28342437744141,10.39141845703125,155.0005950927734,162.5435638427734,15,57915.33035979167,-1.061477661132812,-0.312713623046875,0.13604736328125,57915.31918979167,-0.230932019184586,0.182433458889262,0.3194709401531424,57915.31232379167,24.86796569824219,-23.60890197753906,-524.5700073242188,57915.32428679167,3.001024396966292,-1.675131711177683,0.295312471931672,-0.1586276888847351,0.01902804896235466,0.2848978936672211,-0.09370315074920654,-0.01518982648849487,0.02914631366729736,1,0.7400314211845398,0.04660911485552788,0.6526797413825989,0.1555320173501968,-0.951508641242981,-0.2910388112068176,0.09963782876729965,0,0,0,-1,57913.66143650001,3,2,1561234021.944976,1561233790.755775,20,1.561009,0,0,17.35344,0,0,1561233932.152863,57912.845227,0,-0.1057129,74.43205,2650659446,177292352,1,1,0.59,-21.33161,-34.83453,3
1561234023.63193,102,0,0,1561234012.379212,4.603124512472283,-74.0647421846958,2650.46,-1,-1,10,65,-9999,1561234023.615922,-13.03100776672363,-24.03245544433594,10.3502197265625,155.3168792724609,162.8598480224609,15,57915.35062279167,-1.096527099609375,-0.327484130859375,0.134368896484375,57915.33945379167,0.00485893740884957,-0.3018304274085665,0.04108192297556233,57915.33246479167,24.65391540527344,-23.76713562011719,-524.5237426757812,57915.34454979167,2.999745345863936,-1.678951787906754,0.2928495924891266,0.02610125578939915,-0.3726480901241302,-0.06702021509408951,-0.1319093704223633,-0.02734312415122986,0.04151797294616699,1,0.7413824796676636,0.04501686245203018,0.6513499021530151,0.1551413834095001,-0.9518308639526367,-0.2886816561222076,0.1033490002155304,0,0,0,-1,57913.66143650001,3,2,1561234021.944976,1561233790.755775,20,1.561009,0,0,17.35344,0,0,1561233932.152863,57912.845227,0,-0.1057129,74.43205,2650659446,177292352,1,1,0.59,-21.88889,-35.52663,3
1561234023.652103,103,0,0,1561234012.379212,4.603124512472283,-74.0647421846958,2650.46,-1,-1,10,65,-9999,1561234023.642278,-13.13776779174805,-24.08320617675781,10.3804931640625,155.2454986572266,162.7884674072266,15,57915.37088679167,-1.12200927734375,-0.3004913330078125,0.142333984375,57915.35971779167,0.05908116351897186,-0.4243435607193727,-0.3115251327247819,57915.35260679167,24.87899780273438,-23.67253112792969,-524.7805786132812,57915.36481379167,3.001309236336651,-1.687828909451398,0.2974794882969034,0.05273472890257835,-0.3810775279998779,-0.3646231293678284,-0.1638954281806946,-0.03417444229125977,0.01552963256835938,1,0.7440842390060425,0.04644551873207092,0.6478285789489746,0.1565238535404205,-0.9495384097099304,-0.2931113243103027,0.1116370782256126,0,0,0,-1,57913.66143650001,3,2,1561234021.944976,1561233790.755775,20,1.561009,0,0,17.35344,0,0,1561233932.152863,57912.845227,0,-0.1057129,74.43205,2650659446,177292352,1,1,0.59,-22.44617,-36.33315,3
1561234023.672546,104,0,0,1561234012.379212,4.603124512472283,-74.0647421846958,2650.46,-1,-1,10,65,-9999,1561234023.666548,-12.63762474060059,-24.36923599243164,10.31561279296875,155.1732940673828,162.7162628173828,15,57915.39115079167,-1.075668334960938,-0.265625,0.1268768310546875,57915.37998079167,-0.0448990317659729,-0.0974645053619569,-0.3996201047396221,57915.37274879167,24.90655517578125,-23.92716979980469,-524.606689453125,57915.38507779167,3.002094767426433,-1.692082082448034,0.305446475829052,-0.09635834395885468,-0.01800476759672165,-0.3798138201236725,-0.1643620133399963,0.02618288993835449,0.02795267105102539,1,0.7451772689819336,0.04904112964868546,0.6457050442695618,0.1592821031808853,-0.9467067122459412,-0.3007190227508545,0.115388385951519,0,0,0,-1,57913.66143650001,3,2,1561234021.944976,1561233790.755775,20,1.561009,0,0,17.35344,0,0,1561233932.152863,57912.845227,0,-0.1057129,74.43205,2650659446,177292352,1,1,0.59,-23.00345,-37.32292,3
1561234023.700432,105,0,0,1561234012.379212,4.603124512472283,-74.0647421846958,2650.46,-1,-1,10,65,-9999,1561234023.692917,-12.57140159606934,-24.5565185546875,10.3192138671875,155.3791809082031,162.9221496582031,15,57915.41141379167,-1.018386840820312,-0.2650604248046875,0.1237945556640625,57915.40024479167,-0.1886226452626062,0.2264762843647745,-0.2387768928076324,57915.39288979167,25.15170288085938,-24.16304016113281,-524.640625,57915.40531079167,2.999387488060128,-1.688447555664476,0.3116835703268386,-0.1910462528467178,0.2495041489601135,-0.2094069272279739,-0.09809619188308716,0.04482069611549377,0.01561009883880615,1,0.7438568472862244,0.05039070546627045,0.6463608741760254,0.1623433083295822,-0.9452387094497681,-0.3066615164279938,0.111724466085434,0,0,0,-1,57913.66143650001,3,2,1561234021.944976,1561233790.755775,20,1.561009,0,0,17.35344,0,0,1561233932.152863,57912.845227,0,-0.1057129,74.43205,2650659446,177292352,1,1,0.59,-23.56073,-37.8761,3
1561234023.712901,106,0,0,1561234012.379212,4.603124512472283,-74.0647421846958,2650.46,-1,-1,10,65,-9999,1561234023.692917,-12.57140159606934,-24.5565185546875,10.3192138671875,155.3791809082031,162.9221496582031,15,57915.43167779167,-0.99658203125,-0.2715606689453125,0.09979248046875,57915.42050879167,-0.1334699106676102,0.2204074728727019,-0.1897201339478278,57915.41303179167,25.04649353027344,-24.11241149902344,-524.6483154296875,57915.42557479167,2.996529251804822,-1.682950799526469,0.315969476606445,-0.1122382432222366,0.1898269951343536,-0.1916529536247253,-0.05512517690658569,0.04152727127075195,0.001470088958740234,1,0.7420026659965515,0.05120095238089561,0.6478334665298462,0.1646885722875595,-0.9445238709449768,-0.3107380867004395,0.1063789874315262,0,0,0,-1,57913.66143650001,3,2,1561234021.944976,1561233790.755775,20,1.561009,0,0,17.35344,0,0,1561233932.152863,57912.845227,0,-0.1057129,74.43205,2650659446,177292352,1,1,0.59,-24.11801,-38.74096,3
1561234023.73319,107,0,0,1561234012.379212,4.603124512472283,-74.0647421846958,2650.46,-1,-1,10,65,-9999,1561234023.717678,-12.60019874572754,-24.49120330810547,10.25787353515625,155.5225067138672,163.0654754638672,15,57915.45194179167,-0.9941253662109375,-0.2722625732421875,0.07666015625,57915.44077179167,-0.03391935122379422,0.144049051781841,-0.1463582787630487,57915.43317279167,25.39756774902344,-24.16969299316406,-524.6851806640625,57915.44583779167,2.99560920476343,-1.679564985525271,0.3194578374915826,-0.01211137790232897,0.1454331576824188,-0.1377524435520172,-0.06380343437194824,0.05289769172668457,-0.009312152862548828,1,0.7408074736595154,0.05230055004358292,0.6487357616424561,0.1661655753850937,-0.9437955021858215,-0.3140518665313721,0.1030621230602264,0,0,0,-1,57913.66143650001,3,2,1561234021.944976,1561233790.755775,20,1.561009,0,0,17.35344,0,0,1561233932.152863,57912.845227,0,-0.1057129,74.43205,2650659446,177292352,1,1,0.59,-24.11801,-38.74096,3
1561234023.753513,108,0,0,1561234012.379212,4.603124512472283,-74.0647421846958,2650.46,-1,-1,10,65,-9999,1561234023.744105,-12.42055702209473,-24.23299407958984,10.24676513671875,155.4490814208984,162.9920501708984,15,57915.47217479167,-0.956085205078125,-0.2969818115234375,0.031768798828125,57915.46103579167,0.1455899567885608,0.1050385355021423,-0.1568974724609283,57915.45331479167,25.1781005859375,-23.927490234375,-524.7923583984375,57915.46610179167,2.997818699954238,-1.677783016425333,0.322322447593419,0.2067075073719025,0.03259129822254181,-0.1539756208658218,-0.02695262432098389,0.03245323896408081,-0.04862558841705322,1,0.7400688529014587,0.05422100424766541,0.6493505239486694,0.1664395034313202,-0.9430791735649109,-0.3167702555656433,0.1012836471199989,0,0,0,-1,57913.66143650001,3,2,1561234021.944976,1561233790.755775,20,1.561009,0,0,17.35344,0,0,1561233932.152863,57912.845227,0,-0.1057129,74.43205,2650659446,177292352,1,1,0.59,-24.67528,-39.40482,3
1561234023.781304,109,0,0,1561234012.379212,4.603124512472283,-74.0647421846958,2650.46,-1,-1,10,65,-9999,1561234023.771989,-12.31830978393555,-24.36283111572266,10.12652587890625,154.9637603759766,162.5067291259766,15,57915.49243879167,-0.963409423828125,-0.3049774169921875,0.0922393798828125,57915.48129979167,0.3745538999275783,-0.08404856505457374,-0.1196614204155493,57915.47345679167,25.21165466308594,-24.08851623535156,-524.6605224609375,57915.48636579167,3.004889938935604,-1.681136014124358,0.3243106402089324,0.3803144693374634,-0.09083316475152969,-0.1026751548051834,-0.01260548830032349,0.01418155431747437,-0.05562388896942139,1,0.7408868670463562,0.05722306668758392,0.6485372185707092,0.1649596393108368,-0.9421064257621765,-0.3186554312705994,0.1043756604194641,0,0,0,-1,57913.66143650001,3,2,1561234021.944976,1561233790.755775,20,1.561009,0,0,17.35344,0,0,1561233932.152863,57912.845227,0,-0.1057129,74.43205,2650659446,177292352,1,1,0.59,-25.78984,-40.01132,3
1561234023.794168,110,0,0,1561234012.379212,4.603124512472283,-74.0647421846958,2650.46,-1,-1,10,65,-9999,1561234023.771989,-12.31830978393555,-24.36283111572266,10.12652587890625,154.9637603759766,162.5067291259766,15,57915.51270179167,-0.9506683349609375,-0.3275299072265625,0.15740966796875,57915.50156279167,0.2405654717957297,0.03621686029620558,-0.03906564371426334,57915.49359779167,25.26325988769531,-24.14141845703125,-524.4148559570312,57915.50662879167,3.011263453033435,-1.683501208423741,0.3249363103430501,0.1670194864273071,0.07259757071733475,-0.03765380755066872,-0.0174936056137085,0.001911401748657227,0.02983236312866211,1,0.7414435744285583,0.05959879979491234,0.6481345891952515,0.1631899923086166,-0.941658616065979,-0.3192484378814697,0.1065811812877655,0,0,0,-1,57913.66143650001,3,2,1561234021.944976,1561233790.755775,20,1.561009,0,0,17.35344,0,0,1561233932.152863,57912.845227,0,-0.1057129,74.43205,2650659446,177292352,1,1,0.59,-25.78984,-40.01132,3
1561234023.814236,111,0,0,1561234012.379212,4.603124512472283,-74.0647421846958,2650.46,-1,-1,10,65,-9999,1561234023.79417,-12.12115859985352,-24.51690673828125,10.470703125,154.5694274902344,162.1123962402344,15,57915.53296579167,-0.947265625,-0.3247833251953125,0.1411590576171875,57915.52182679167,-0.001722798909172259,0.1350012282944058,-0.07876565240018354,57915.51373979167,25.19050598144531,-24.1356201171875,-524.4938354492188,57915.52689279167,3.012488332807275,-1.681643805854754,0.3260862345123753,-0.03224967047572136,0.1121614873409271,-0.1103423908352852,-0.009331285953521729,-0.006352692842483521,0.04804074764251709,1,0.7407597303390503,0.06058606877923012,0.6488335132598877,0.1631550788879395,-0.9414896368980408,-0.3203379809856415,0.1047912985086441,0,0,0,-1,57913.66143650001,3,2,1561234021.944976,1561233790.755775,20,1.561009,0,0,17.35344,0,0,1561233932.152863,57912.845227,0,-0.1057129,74.43205,2650659446,177292352,1,1,0.59,-26.34712,-38.36146,3
1561234023.834548,112,0,0,1561234012.379212,4.603124512472283,-74.0647421846958,2650.46,-1,-1,10,65,-9999,1561234023.818509,-12.53908920288086,-24.43137359619141,10.2742919921875,154.56396484375,162.10693359375,15,57915.55322979167,-0.9343719482421875,-0.328125,0.1169586181640625,57915.54209079167,-0.04005420911090075,0.01000975727317182,-0.1805945461565623,57915.53388079167,25.44375610351562,-24.35037231445312,-524.6336059570312,57915.54715679167,3.011905081208776,-1.680593916851381,0.3293491849334892,-0.02907251752912998,-0.02798869274556637,-0.1939443498849869,9.483098983764648e-05,-0.006483018398284912,0.01713144779205322,1,0.7403084635734558,0.0615403801202774,0.6489197015762329,0.1644974648952484,-0.9405550360679626,-0.3234272599220276,0.1036876812577248,0,0,0,-1,57913.66143650001,3,2,1561234021.944976,1561233790.755775,20,1.561009,0,0,17.35344,0,0,1561233932.152863,57912.845227,0,-0.1057129,74.43205,2650659446,177292352,1,1,0.59,-26.9044,-39.39661,3
1561234023.865644,113,0,0,1561234012.379212,4.603124512472283,-74.0647421846958,2650.46,-1,-1,10,65,-9999,1561234023.844778,-12.25663948059082,-24.69628524780273,10.3385009765625,154.5606231689453,162.1035919189453,15,57915.57349279167,-0.90997314453125,-0.3133392333984375,0.134674072265625,57915.56235379167,-0.00387889412770041,-0.0669332276769615,-0.1847112605696068,57915.55402279167,25.44302368164062,-24.15798950195312,-524.4189453125,57915.56741979167,3.012072932680662,-1.681779269244154,0.3331835412991307,-0.01019709743559361,-0.06749695539474487,-0.1781190484762192,0.01182407140731812,0.00709158182144165,0.02270078659057617,1,0.7405343055725098,0.06277851015329361,0.6481932401657104,0.1658720821142197,-0.9391922354698181,-0.3270531594753265,0.1046644002199173,0,0,0,-1,57913.66143650001,3,2,1561234021.944976,1561233790.755775,20,1.561009,0,0,17.35344,0,0,1561233932.152863,57912.845227,0,-0.1057129,74.43205,2650659446,177292352,1,1,0.59,-27.46168,-40.25233,3
1561234023.875001,114,0,0,1561234012.379212,4.603124512472283,-74.0647421846958,2650.46,-1,-1,10,65,-9999,1561234023.873367,-12.07987976074219,-24.68397903442383,10.5390625,154.4977416992188,162.0407104492188,15,57915.59375679167,-0.8835296630859375,-0.3081207275390625,0.09100341796875,57915.58261779167,0.04730386623031445,-0.09603012679884022,-0.1390961047865116,57915.57416479167,25.28073120117188,-24.23565673828125,-524.3045043945312,57915.58768379167,3.012908513419831,-1.683798809994413,0.3362100047533303,0.09100808203220367,-0.1354405879974365,-0.119992621243,0.04338347911834717,0.02427810430526733,0.01766622066497803,1,0.7410385012626648,0.06392448395490646,0.6472752094268799,0.1667647510766983,-0.9379910230636597,-0.3299116790294647,0.1064487993717194,0,0,0,-1,57913.66143650001,3,2,1561234021.944976,1561233790.755775,20,1.561009,0,0,17.35344,0,0,1561233932.152863,57912.845227,0,-0.1057129,74.43205,2650659446,177292352,1,1,0.59,-28.01896,-41.11287,3
1561234023.895355,115,0,0,1561234012.379212,4.603124512472283,-74.0647421846958,2650.46,-1,-1,10,65,-9999,1561234023.873367,-12.07987976074219,-24.68397903442383,10.5390625,154.4977416992188,162.0407104492188,15,57915.61402079167,-0.895843505859375,-0.312408447265625,0.06182861328125,57915.60288179167,0.242326087592381,-0.2136755342691996,-0.01233576216924703,57915.59430579167,25.42189025878906,-24.14675903320312,-524.1600341796875,57915.60794779167,3.01711647671887,-1.689194242371326,0.3368003282139487,0.2692041993141174,-0.2096250653266907,0.01236355118453503,0.05361855030059814,0.02097487449645996,-0.04408693313598633,1,0.742621898651123,0.06523218750953674,0.6455771327018738,0.16579370200634,-0.9372092485427856,-0.3304688930511475,0.1114850416779518,0,0,0,-1,57913.66143650001,3,2,1561234021.944976,1561233790.755775,20,1.561009,0,0,17.35344,0,0,1561233932.152863,57912.845227,0,-0.1057129,74.43205,2650659446,177292352,1,1,0.59,-28.01896,-41.11287,3
1561234023.915561,116,0,0,1561234012.379212,4.603124512472283,-74.0647421846958,2650.46,-1,-1,10,65,-9999,1561234023.895548,-11.91679954528809,-24.67029571533203,10.62359619140625,154.1567687988281,161.6997375488281,15,57915.63428379167,-0.9331207275390625,-0.3325347900390625,0.10125732421875,57915.62314479167,0.2561814494796273,-0.04896541243441489,0.06029636392437503,57915.61444779167,25.56668090820312,-24.3560791015625,-524.10498046875,57915.62821079167,3.022647959061728,-1.69333279644638,0.3352753344894311,0.2146000564098358,0.01749517023563385,0.07148519903421402,0.02902060747146606,0.008960843086242676,-0.03717720508575439,1,0.7438396215438843,0.06644348800182343,0.6446133255958557,0.1635893434286118,-0.9372389912605286,-0.3290291726589203,0.1154242381453514,0,0,0,-1,57913.66143650001,3,2,1561234021.944976,1561233790.755775,20,1.561009,0,0,17.35344,0,0,1561233932.152863,57912.845227,0,-0.1057129,74.43205,2650659446,177292352,1,1,0.59,-28.57624,-41.88202,3
1561234023.945257,117,0,0,1561234012.379212,4.603124512472283,-74.0647421846958,2650.46,-1,-1,10,65,-9999,1561234023.920062,-12.01874542236328,-24.53854751586914,10.75360107421875,153.8301086425781,161.3730773925781,15,57915.65454779167,-0.9560699462890625,-0.344879150390625,0.1276702880859375,57915.64340879167,0.09784373950118419,0.1948243484930737,0.05582278592525992,57915.63458879167,25.56216430664062,-24.03736877441406,-523.8389282226562,57915.64847479167,3.025370386289462,-1.691538021130634,0.3337090037497493,0.06731367856264114,0.2157832384109497,0.02167822420597076,-0.009646177291870117,-0.01566627621650696,0.01270675659179688,1,0.7432371973991394,0.06708502024412155,0.6456224918365479,0.1620791256427765,-0.9379551410675049,-0.3275496661663055,0.1138038635253906,0,0,0,-1,57913.66143650001,3,2,1561234021.944976,1561233790.755775,20,1.561009,0,0,17.35344,0,0,1561233932.152863,57912.845227,0,-0.1057129,74.43205,2650659446,177292352,1,1,0.59,-29.69079,-42.94362,3
1561234023.956115,118,0,0,1561234012.379212,4.603124512472283,-74.0647421846958,2650.46,-1,-1,10,65,-9999,1561234023.946388,-12.20926094055176,-24.32349395751953,11.043212890625,153.7133483886719,161.2563171386719,15,57915.67481179167,-0.9309539794921875,-0.3469390869140625,0.135406494140625,57915.66367279167,0.05589868601632718,0.1815724589088394,-0.06895776273763973,57915.65473079167,25.59664916992188,-23.91139221191406,-523.7503051757812,57915.66873879167,3.026660631032317,-1.688092665764533,0.3343922961410744,0.05416963994503021,0.1204721555113792,-0.08932951837778091,-0.01157248020172119,-0.01883545517921448,0.01732325553894043,1,0.7420507669448853,0.06806878745555878,0.6469541788101196,0.1617951393127441,-0.9381192922592163,-0.328195184469223,0.1105454042553902,0,0,0,-1,57913.66143650001,3,2,1561234021.944976,1561233790.755775,20,1.561009,0,0,17.35344,0,0,1561233932.152863,57912.845227,0,-0.1057129,74.43205,2650659446,177292352,1,1,0.59,-29.69079,-42.94362,3
1561234023.976858,119,0,0,1561234012.379212,4.603124512472283,-74.0647421846958,2650.46,-1,-1,10,65,-9999,1561234023.971823,-12.03271484375,-24.47773742675781,10.9661865234375,153.6221923828125,161.1651611328125,15,57915.69507479167,-0.9268646240234375,-0.3388214111328125,0.15472412109375,57915.68390579167,0.04381911994394577,-0.04307476641926862,-0.1104836346669183,57915.67487279167,25.27859497070312,-23.98280334472656,-523.9782104492188,57915.68900179167,3.027866788890948,-1.68830062794817,0.3364339760143243,0.02922194637358189,-0.09379060566425323,-0.1227103769779205,0.01065570116043091,-0.01136860251426697,0.03370165824890137,1,0.7419877052307129,0.06917436420917511,0.6468186378479004,0.1621567010879517,-0.9374287724494934,-0.330123096704483,0.110661692917347,0,0,0,-1,57913.66143650001,3,2,1561234021.944976,1561233790.755775,20,1.561009,0,0,17.35344,0,0,1561233932.152863,57912.845227,0,-0.1057129,74.43205,2650659446,177292352,1,1,0.59,-30.24807,-42.60086,3
1561234023.996877,120,0,0,1561234012.379212,4.603124512472283,-74.0647421846958,2650.46,-1,-1,10,65,-9999,1561234023.971823,-12.03271484375,-24.47773742675781,10.9661865234375,153.6221923828125,161.1651611328125,15,57915.71533879167,-0.910552978515625,-0.33978271484375,0.1426849365234375,57915.70416979167,0.0190767555204556,-0.1330187711789508,-0.1577382324170662,57915.69501379167,25.66510009765625,-24.01753234863281,-523.8321533203125,57915.70926579167,3.028600800985896,-1.691064583729835,0.3393606585397088,0.02661790885031223,-0.1435805261135101,-0.180431991815567,0.01560878753662109,-0.004930049180984497,0.0418475866317749,1,0.7427257299423218,0.07018856704235077,0.6456282734870911,0.1630836427211761,-0.9361562728881836,-0.332884281873703,0.113135889172554,0,0,0,-1,57913.66143650001,3,2,1561234021.944976,1561233790.755775,20,1.561009,0,0,17.35344,0,0,1561233932.152863,57912.845227,0,-0.1057129,74.43205,2650659446,177292352,1,1,0.59,-30.80535,-43.20348,3
1561234024.025195,121,0,0,1561234012.379212,4.603124512472283,-74.0647421846958,2650.46,-1,-1,10,65,-9999,1561234024.021167,-11.89432907104492,-24.59648132324219,10.99078369140625,153.4017028808594,160.9446716308594,15,57915.73560279167,-0.8724365234375,-0.3214263916015625,0.126922607421875,57915.72443279167,0.07928470249663999,-0.106373578156599,-0.1875813492763852,57915.71515579167,25.65243530273438,-24.25346374511719,-523.89453125,57915.72952979167,3.030369951523768,-1.694162625609114,0.3430216412576564,0.08897289633750916,-0.1208749562501907,-0.1685937196016312,0.04191577434539795,0.0039215087890625,0.01787364482879639,1,0.7434966564178467,0.07179932296276093,0.644340455532074,0.163960263133049,-0.9345854520797729,-0.336334228515625,0.1158848404884338,0,0,0,-1,57913.66143650001,3,2,1561234021.944976,1561233790.755775,20,1.561009,0,0,17.35344,0,0,1561233932.152863,57912.845227,0,-0.1057129,74.43205,2650659446,177292352,1,1,0.59,-31.36263,-43.48137,3
1561234024.037252,122,0,0,1561234012.379212,4.603124512472283,-74.0647421846958,2650.46,-1,-1,10,65,-9999,1561234024.021167,-11.89432907104492,-24.59648132324219,10.99078369140625,153.4017028808594,160.9446716308594,15,57915.75586579167,-0.8728485107421875,-0.316741943359375,0.1357269287109375,57915.74469679167,0.07138763091622803,-0.1276636868590194,-0.06183860051163991,57915.73529679167,26.01866149902344,-24.20352172851562,-523.645751953125,57915.74979279167,3.032305829117471,-1.697486276904774,0.3448536226645744,0.0536268875002861,-0.1255810260772705,-0.0241803452372551,0.07205581665039062,0.01976057887077332,0.008529067039489746,1,0.7444119453430176,0.07284942269325256,0.6431220173835754,0.1641273945569992,-0.9335822463035583,-0.3380589187145233,0.1189123690128326,0,0,0,-1,57913.66143650001,3,2,1561234021.944976,1561233790.755775,20,1.561009,0,0,17.35344,0,0,1561233932.152863,57912.845227,0,-0.1057129,74.43205,2650659446,177292352,1,1,0.59,-31.91991,-43.63196,3
