loggingTime,loggingSample,identifierForVendor,deviceID,locationTimestamp_since1970,locationLatitude,locationLongitude,locationAltitude,locationSpeed,locationCourse,locationVerticalAccuracy,locationHorizontalAccuracy,locationFloor,locationHeadingTimestamp_since1970,locationHeadingX,locationHeadingY,locationHeadingZ,locationTrueHeading,locationMagneticHeading,locationHeadingAccuracy,accelerometerTimestamp_sinceReboot,accelerometerAccelerationX,accelerometerAccelerationY,accelerometerAccelerationZ,gyroTimestamp_sinceReboot,gyroRotationX,gyroRotationY,gyroRotationZ,magnetometerTimestamp_sinceReboot,magnetometerX,magnetometerY,magnetometerZ,motionTimestamp_sinceReboot,motionYaw,motionRoll,motionPitch,motionRotationRateX,motionRotationRateY,motionRotationRateZ,motionUserAccelerationX,motionUserAccelerationY,motionUserAccelerationZ,motionAttitudeReferenceFrame,motionQuaternionX,motionQuaternionY,motionQuaternionZ,motionQuaternionW,motionGravityX,motionGravityY,motionGravityZ,motionMagneticFieldX,motionMagneticFieldY,motionMagneticFieldZ,motionMagneticFieldCalibrationAccuracy,activityTimestamp_sinceReboot,activity,activityActivityConfidence,activityActivityStartDate,pedometerStartDate,pedometerNumberofSteps,pedometerAverageActivePace,pedometerCurrentPace,pedometerCurrentCadence,pedometerDistance,pedometerFloorAscended,pedometerFloorDescended,pedometerEndDate,altimeterTimestamp_sinceReboot,altimeterReset,altimeterRelativeAltitude,altimeterPressure,IP_en0,IP_pdp_ip0,deviceOrientation,batteryState,batteryLevel,avAudioRecorderPeakPower,avAudioRecorderAveragePower,label
1561241834.23449,1,0,0,1561241833.855518,4.603061631722978,-74.06477642606116,2651.27,-1,-1,10,65,-9999,1561241834.220105,-27.44893646240234,5.086937427520752,0.79888916015625,259.9564514160156,267.5001525878906,15,64294.59286291667,-0.9277496337890625,0.8066558837890625,0.1492156982421875,64294.58373791667,-0.04197248404408482,-0.05729791085305481,-0.6305547870852982,64294.57378991667,9.532577514648438,6.021087646484375,-532.5875244140625,64294.57360591667,-2.559732406320975,-1.995770227906023,-1.061608796967891,0.04313437268137932,-0.2179071605205536,-0.4139257967472076,-0.4384149610996246,-0.02473694086074829,-0.0152517557144165,1,0.7729584574699402,-0.05500961095094681,0.3258233666419983,-0.5416164398193359,-0.4441076219081879,0.8731408715248108,0.2009816616773605,0,0,0,-1,64292.214797125,3,2,1561241831.877712,1561241546.732582,16,16.27515,0,0,14.2948,0,0,1561241691.513234,64291.735996,0,-0.2617188,74.43233,2650659446,177292352,1,1,0.2,-16.055,-24.62748,0
1561241834.248233,2,0,0,1561241833.855518,4.603061631722978,-74.06477642606116,2651.27,-1,-1,10,65,-9999,1561241834.246092,-27.58840560913086,4.61990213394165,0.79583740234375,260.2090148925781,267.7527160644531,15,64294.61312691667,-0.8922119140625,0.767181396484375,0.202880859375,64294.60400191667,-0.1695192581312498,0.1532438817614485,-1.135444057077463,64294.59393091667,9.665145874023438,5.828887939453125,-532.3117065429688,64294.59386991667,-2.550616462558515,-1.989273775614192,-1.04945285323005,-0.1275457590818405,0.0550660640001297,-0.880617082118988,-0.4726808071136475,-0.06049501895904541,-0.05317509174346924,1,0.773769199848175,-0.04976550862193108,0.3287387490272522,-0.5391989946365356,-0.455068826675415,0.8671508431434631,0.2023907601833344,0,0,0,-1,64292.214797125,3,2,1561241831.877712,1561241546.732582,16,16.27515,0,0,14.2948,0,0,1561241691.513234,64291.735996,0,-0.2617188,74.43233,2650659446,177292352,1,1,0.2,-16.055,-25.02965,0
1561241834.281047,3,0,0,1561241833.855518,4.603061631722978,-74.06477642606116,2651.27,-1,-1,10,65,-9999,1561241834.270285,-27.67824172973633,3.729636669158936,0.71783447265625,260.6183471679688,268.1620483398438,15,64294.63338991667,-0.842132568359375,0.7820892333984375,0.1892242431640625,64294.62426591667,-0.3211370137310959,0.1343458243501373,-1.551686814393033,64294.61407291667,9.839401245117188,4.853912353515625,-532.56103515625,64294.61413391667,-2.538923557330083,-1.976541481449018,-1.026996669611386,-0.2295709252357483,0.1609046012163162,-1.365220785140991,-0.4168283343315125,-0.08856755495071411,-0.001335382461547852,1,0.7748088240623474,-0.04218265786767006,0.3358443081378937,-0.5339480638504028,-0.4753835797309875,0.8557489514350891,0.2042161822319031,0,0,0,-1,64292.214797125,3,2,1561241831.877712,1561241546.732582,16,16.27515,0,0,14.2948,0,0,1561241691.513234,64291.735996,0,-0.2617188,74.43233,2650659446,177292352,1,1,0.2,-16.055,-25.22966,0
1561241834.286318,4,0,0,1561241833.855518,4.603061631722978,-74.06477642606116,2651.27,-1,-1,10,65,-9999,1561241834.270285,-27.67824172973633,3.729636669158936,0.71783447265625,260.6183471679688,268.1620483398438,15,64294.65365391667,-0.786773681640625,0.821685791015625,0.2220001220703125,64294.64452891667,-0.4054510959463505,0.051287955221073,-1.808950572539668,64294.63421391667,9.255096435546875,4.013809204101562,-532.708740234375,64294.63439691667,-2.527270807584045,-1.964095482813323,-0.9955746775209807,-0.4017781019210815,0.08993695676326752,-1.703186511993408,-0.3396477103233337,-0.05698251724243164,-0.01926505565643311,1,0.7766805291175842,-0.03181271255016327,0.3450285494327545,-0.5260329842567444,-0.5024848580360413,0.8390717506408691,0.2084893882274628,0,0,0,-1,64292.214797125,3,2,1561241831.877712,1561241546.732582,16,16.27515,0,0,14.2948,0,0,1561241691.513234,64291.735996,0,-0.2617188,74.43233,2650659446,177292352,1,1,0.2,-16.055,-25.22966,0
1561241834.306508,5,0,0,1561241833.855518,4.603061631722978,-74.06477642606116,2651.27,-1,-1,10,65,-9999,1561241834.29771,-27.84239196777344,1.713866233825684,0.56817626953125,260.9595031738281,268.5032043457031,15,64294.67391791667,-0.7099151611328125,0.8199005126953125,0.2101898193359375,64294.66479291667,-0.3278170206933417,-0.03011049823276289,-1.912983232098088,64294.65432491667,9.4833984375,2.989990234375,-532.388427734375,64294.65466091667,-2.51610149257604,-1.953988835758315,-0.9586663696568831,-0.3866372406482697,-0.01015555299818516,-1.873708248138428,-0.2538352012634277,0.003259778022766113,0.007162332534790039,1,0.7791328430175781,-0.01925862953066826,0.3547729849815369,-0.5164466500282288,-0.5329384803771973,0.8184259533882141,0.2148377597332001,0,0,0,-1,64292.214797125,3,2,1561241831.877712,1561241546.732582,16,16.27515,0,0,14.2948,0,0,1561241691.513234,64291.735996,0,-0.2617188,74.43233,2650659446,177292352,1,1,0.2,-16.055,-25.78274,0
1561241834.327287,6,0,0,1561241833.855518,4.603061631722978,-74.06477642606116,2651.27,-1,-1,10,65,-9999,1561241834.320975,-27.8780574798584,0.5976164937019348,0.7298583984375,261.0952758789062,268.6389770507812,15,64294.69418091667,-0.60906982421875,0.81634521484375,0.20703125,64294.68505691667,-0.1545400422639901,-0.05923908897161357,-1.964107136596012,64294.67446691667,9.668045043945312,1.884017944335938,-532.5814819335938,64294.67492491667,-2.502268288254768,-1.943614671401815,-0.920136592102699,-0.2526701092720032,-0.06673227995634079,-1.955628991127014,-0.1458131670951843,0.0242161750793457,-0.01043558120727539,1,0.7812084555625916,-0.005102837458252907,0.3643554151058197,-0.5068851113319397,-0.5641019344329834,0.7956843376159668,0.2206253856420517,0,0,0,-1,64292.214797125,3,2,1561241831.877712,1561241546.732582,16,16.27515,0,0,14.2948,0,0,1561241691.513234,64291.735996,0,-0.2617188,74.43233,2650659446,177292352,1,1,0.2,-16.055,-25.81977,0
1561241834.360398,7,0,0,1561241833.855518,4.603061631722978,-74.06477642606116,2651.27,-1,-1,10,65,-9999,1561241834.347514,-27.72249221801758,-0.7037379145622253,0.68267822265625,261.1015625,268.645263671875,15,64294.71444491667,-0.52532958984375,0.7992706298828125,0.226165771484375,64294.70531991667,0.06128492932101244,0.03668104927420639,-1.83060819747252,64294.69460891667,9.702560424804688,0.724945068359375,-532.5242919921875,64294.71545191667,-2.462866611789718,-1.913714066009239,-0.8475572314590439,0.1232326701283455,0.1148380488157272,-1.698309540748596,0.06023478507995605,0.05756974220275879,-0.003578424453735352,1,0.7814448475837708,0.02464461140334606,0.3832937479019165,-0.4917546212673187,-0.6232840418815613,0.7496659755706787,0.2225268185138702,0,0,0,-1,64292.214797125,3,2,1561241831.877712,1561241546.732582,16,16.27515,0,0,14.2948,0,0,1561241691.513234,64291.735996,0,-0.2617188,74.43233,2650659446,177292352,1,1,0.2,-16.055,-25.82707,0
1561241834.367381,8,0,0,1561241833.855518,4.603061631722978,-74.06477642606116,2651.27,-1,-1,10,65,-9999,1561241834.347514,-27.72249221801758,-0.7037379145622253,0.68267822265625,261.1015625,268.645263671875,15,64294.73470891667,-0.4563751220703125,0.7819366455078125,0.233673095703125,64294.72558391667,0.1424620740882627,0.2139343935271553,-1.550660698425026,64294.71474991667,9.52239990234375,-0.368438720703125,-532.493408203125,64294.71545191667,-2.462866611789718,-1.913714066009239,-0.8475572314590439,0.1232326701283455,0.1148380488157272,-1.698309540748596,0.06023478507995605,0.05756974220275879,-0.003578424453735352,1,0.7814448475837708,0.02464461140334606,0.3832937479019165,-0.4917546212673187,-0.6232840418815613,0.7496659755706787,0.2225268185138702,0,0,0,-1,64292.214797125,3,2,1561241831.877712,1561241546.732582,16,16.27515,0,0,14.2948,0,0,1561241691.513234,64291.735996,0,-0.2617188,74.43233,2650659446,177292352,1,1,0.2,-16.055,-26.27623,0
1561241834.387606,9,0,0,1561241833.855518,4.603061631722978,-74.06477642606116,2651.27,-1,-1,10,65,-9999,1561241834.371595,-27.58615112304688,-1.664287805557251,0.6556396484375,261.2047119140625,268.7484130859375,15,64294.75497191667,-0.41943359375,0.7727813720703125,0.2413787841796875,64294.74584791667,0.1086628314296311,0.2208298502215884,-1.247767936057626,64294.73489191667,9.741195678710938,-1.185714721679688,-532.2752685546875,64294.73571591667,-2.44373170384549,-1.895588220451483,-0.8187349489197114,0.1251544058322906,0.2419451326131821,-1.40119206905365,0.1910538077354431,0.0516543984413147,0.01567339897155762,1,0.7795315980911255,0.03647387772798538,0.3924919664859772,-0.4867753982543945,-0.6474289298057556,0.730282187461853,0.2179997116327286,0,0,0,-1,64292.214797125,3,2,1561241831.877712,1561241546.732582,16,16.27515,0,0,14.2948,0,0,1561241691.513234,64291.735996,0,-0.2617188,74.43233,2650659446,177292352,1,1,0.2,-16.055,-26.57391,0
1561241834.407829,10,0,0,1561241833.855518,4.603061631722978,-74.06477642606116,2651.27,-1,-1,10,65,-9999,1561241834.403696,-27.38767242431641,-3.136043787002563,0.73333740234375,261.2908020019531,268.8345031738281,15,64294.77523591667,-0.3961334228515625,0.7755126953125,0.228179931640625,64294.76611091667,0.04163985522393393,-0.03182663923920995,-1.037376345728604,64294.75503291667,9.860885620117188,-2.037521362304688,-532.32373046875,64294.75597891667,-2.429367405294093,-1.88110432516569,-0.79522909353516,0.07748835533857346,0.1269322484731674,-1.122939109802246,0.2472496628761292,0.05875736474990845,0.0275954008102417,1,0.7776853442192078,0.0457952618598938,0.4002121388912201,-0.4826371371746063,-0.6666831970214844,0.7140240073204041,0.213783398270607,0,0,0,-1,64292.214797125,3,2,1561241831.877712,1561241546.732582,16,16.27515,0,0,14.2948,0,0,1561241691.513234,64291.735996,0,-0.2617188,74.43233,2650659446,177292352,1,1,0.2,-16.055,-26.57391,0
1561241834.441701,11,0,0,1561241833.855518,4.603061631722978,-74.06477642606116,2651.27,-1,-1,10,65,-9999,1561241834.424628,-27.34456634521484,-3.727502584457397,0.77777099609375,261.0106506347656,268.5543518066406,15,64294.79548966667,-0.447845458984375,0.807525634765625,0.2156524658203125,64294.78639566667,-0.02056652783424592,-0.4425920731408136,-0.880906310622633,64294.77519566667,10.00828552246094,-2.552764892578125,-532.5230102539062,64294.77624291667,-2.419349928289523,-1.87494071354593,-0.7753224923979198,-0.004947667475789785,-0.2410020977258682,-0.9666486382484436,0.2852826714515686,0.07556629180908203,0.01429498195648193,1,0.7771654725074768,0.05437201261520386,0.4049111604690552,-0.478648453950882,-0.6814160943031311,0.6999464631080627,0.2138849794864655,0,0,0,-1,64292.214797125,3,2,1561241831.877712,1561241546.732582,16,16.27515,0,0,14.2948,0,0,1561241691.513234,64291.735996,0,-0.2617188,74.43233,2650659446,177292352,1,1,0.2,-16.055,-26.53423,0
1561241834.44906,12,0,0,1561241833.855518,4.603061631722978,-74.06477642606116,2651.27,-1,-1,10,65,-9999,1561241834.424628,-27.34456634521484,-3.727502584457397,0.77777099609375,261.0106506347656,268.5543518066406,15,64294.81575366667,-0.478912353515625,0.83050537109375,0.192413330078125,64294.80662866667,-0.02286776533218339,-0.6922831327278088,-0.7823424523626914,64294.79533766667,9.986373901367188,-3.11260986328125,-532.104248046875,64294.79649666667,-2.41240215323152,-1.87899367419374,-0.7581127223862129,-0.02307740226387978,-0.5975378155708313,-0.8071154356002808,0.2440752983093262,0.119973361492157,-0.00461423397064209,1,0.7785354852676392,0.06337094306945801,0.4057424366474152,-0.4745941758155823,-0.6919207572937012,0.687552273273468,0.2202667593955994,0,0,0,-1,64292.214797125,3,2,1561241831.877712,1561241546.732582,16,16.27515,0,0,14.2948,0,0,1561241691.513234,64291.735996,0,-0.2617188,74.43233,2650659446,177292352,1,1,0.2,-16.055,-26.53423,0
1561241834.468604,13,0,0,1561241833.855518,4.603061631722978,-74.06477642606116,2651.27,-1,-1,10,65,-9999,1561241834.459709,-27.35444259643555,-3.977896451950073,0.90753173828125,260.3606872558594,267.9043884277344,15,64294.83601766667,-0.47161865234375,0.8614501953125,0.192230224609375,64294.82689266667,-0.02746304979311512,-0.665837676787213,-0.8772287514733426,64294.81547866667,10.27894592285156,-3.44781494140625,-531.668212890625,64294.81676066667,-2.406300779994128,-1.888751570192373,-0.7425937556706393,-0.03260565921664238,-0.7344253659248352,-0.8228057026863098,0.2208781838417053,0.1543043255805969,-0.03790283203125,1,0.7809301018714905,0.07284416258335114,0.404148280620575,-0.4706443846225739,-0.6997905373573303,0.6762010455131531,0.2303161919116974,0,0,0,-1,64292.214797125,3,2,1561241831.877712,1561241546.732582,16,16.27515,0,0,14.2948,0,0,1561241691.513234,64291.735996,0,-0.2617188,74.43233,2650659446,177292352,1,1,0.2,-16.055,-27.16109,0
1561241834.488858,14,0,0,1561241833.855518,4.603061631722978,-74.06477642606116,2651.27,-1,-1,10,65,-9999,1561241834.459709,-27.35444259643555,-3.977896451950073,0.90753173828125,260.3606872558594,267.9043884277344,15,64294.85628066667,-0.4673614501953125,0.8489990234375,0.20745849609375,64294.84715566667,-0.01097595211665257,-0.3928476860875506,-0.7814827839628138,64294.83562066667,10.22134399414062,-4.0306396484375,-531.45556640625,64294.83702466667,-2.39960014034185,-1.897716284211852,-0.7257172810677042,-0.02783540636301041,-0.5582846999168396,-0.8714536428451538,0.236786425113678,0.1977779865264893,-0.04798078536987305,1,0.7831085324287415,0.08274379372596741,0.4030308723449707,-0.4663266539573669,-0.708405077457428,0.663672149181366,0.2402110248804092,0,0,0,-1,64292.214797125,3,2,1561241831.877712,1561241546.732582,16,16.27515,0,0,14.2948,0,0,1561241691.513234,64291.735996,0,-0.2617188,74.43233,2650659446,177292352,1,1,0.2,-16.055,-26.50783,0
1561241834.515818,15,0,0,1561241833.855518,4.603061631722978,-74.06477642606116,2651.27,-1,-1,10,65,-9999,1561241834.499724,-26.874267578125,-5.411017417907715,1.91448974609375,259.4710693359375,267.0147705078125,15,64294.87654466667,-0.425201416015625,0.80718994140625,0.2045440673828125,64294.86741966667,0.007039001077188435,-0.06377178914692842,-0.5363015213657588,64294.85576166667,10.38818359375,-4.355636596679688,-531.2278442382812,64294.85728766667,-2.393202682681922,-1.901492263680154,-0.7107209826473636,-0.003278930671513081,-0.2151411920785904,-0.6591233015060425,0.2494651079177856,0.1966186761856079,-0.03862988948822021,1,0.7841017842292786,0.09071173518896103,0.4035720229148865,-0.4626936316490173,-0.7168265581130981,0.6523803472518921,0.2460884600877762,0,0,0,-1,64292.214797125,3,2,1561241831.877712,1561241546.732582,16,16.27515,0,0,14.2948,0,0,1561241691.513234,64291.735996,0,-0.2617188,74.43233,2650659446,177292352,1,1,0.2,-16.055,-26.97043,0
1561241834.532128,16,0,0,1561241833.855518,4.603061631722978,-74.06477642606116,2651.27,-1,-1,10,65,-9999,1561241834.523617,-26.99497413635254,-5.844950675964355,2.06201171875,259.5121765136719,267.0558776855469,15,64294.89680866667,-0.3803863525390625,0.756256103515625,0.2101593017578125,64294.88768366667,0.02253007650596135,0.1339106638280183,-0.3634684918901234,64294.87590366667,10.46774291992188,-4.82183837890625,-530.9864501953125,64294.87755166667,-2.388427740012667,-1.899954848386635,-0.7002886163155544,0.00872952863574028,0.04333270713686943,-0.4470856189727783,0.2984039783477783,0.1627515554428101,-0.04262864589691162,1,0.7838893532752991,0.09541399031877518,0.4055076837539673,-0.4604097604751587,-0.7236053943634033,0.6444383859634399,0.2471726983785629,0,0,0,-1,64292.214797125,3,2,1561241831.877712,1561241546.732582,16,16.27515,0,0,14.2948,0,0,1561241691.513234,64291.735996,0,-0.2617188,74.43233,2650659446,177292352,1,1,0.2,-16.055,-27.63878,0
1561241834.549869,17,0,0,1561241833.855518,4.603061631722978,-74.06477642606116,2651.27,-1,-1,10,65,-9999,1561241834.523617,-26.99497413635254,-5.844950675964355,2.06201171875,259.5121765136719,267.0558776855469,15,64294.91707166667,-0.3550872802734375,0.716064453125,0.2335357666015625,64294.90794666667,0.02478204552373235,0.1795833438906592,-0.1827543698006166,64294.89604566667,10.47259521484375,-4.730209350585938,-531.1517944335938,64294.89781566667,-2.384880058628665,-1.895341742002458,-0.6937145509099442,0.02891416102647781,0.1564291566610336,-0.2823595106601715,0.3483512401580811,0.1168584823608398,-0.03501832485198975,1,0.7829644083976746,0.09775255620479584,0.4080323874950409,-0.4592610001564026,-0.7287375330924988,0.6393976211547852,0.2451776564121246,0,0,0,-1,64292.214797125,3,2,1561241831.877712,1561241546.732582,16,16.27515,0,0,14.2948,0,0,1561241691.513234,64291.735996,0,-0.2617188,74.43233,2650659446,177292352,1,1,0.2,-16.055,-26.44615,0
1561241834.569923,18,0,0,1561241833.855518,4.603061631722978,-74.06477642606116,2651.27,-1,-1,10,65,-9999,1561241834.549866,-26.84089660644531,-5.89080810546875,2.00238037109375,259.6551513671875,267.1988525390625,15,64294.93733566667,-0.3572235107421875,0.695404052734375,0.24041748046875,64294.92821066667,-0.03300242486047993,0.2180628258489961,0.06360480894658047,64294.91618666667,10.51063537597656,-4.956710815429688,-531.119873046875,64294.91807866667,-2.382857336956081,-1.890562555156005,-0.6903110869513304,0.001638862304389477,0.1884821653366089,-0.07601407170295715,0.3768754005432129,0.07928735017776489,-0.008839011192321777,1,0.7819764614105225,0.09848962724208832,0.4102317988872528,-0.4588272571563721,-0.7319626808166504,0.6367771029472351,0.2423747926950455,0,0,0,-1,64292.214797125,3,2,1561241831.877712,1561241546.732582,16,16.27515,0,0,14.2948,0,0,1561241691.513234,64291.735996,0,-0.2617188,74.43233,2650659446,177292352,1,1,0.2,-16.055,-26.44615,0
1561241834.598032,19,0,0,1561241833.855518,4.603061631722978,-74.06477642606116,2651.27,-1,-1,10,65,-9999,1561241834.574661,-26.87101745605469,-6.065944194793701,1.80804443359375,259.9194946289062,267.4631958007812,15,64294.95759966667,-0.436126708984375,0.704254150390625,0.2492218017578125,64294.94847466667,-0.08283602781026066,0.2939567916457472,0.3722454718946976,64294.93632866667,10.44950866699219,-5.186920166015625,-531.400390625,64294.93834266667,-2.384256171695402,-1.887155552606292,-0.6913549419892147,-0.06883396953344345,0.2408119440078735,0.2207523435354233,0.3749285936355591,0.05782246589660645,0.0007448196411132812,1,0.7813182473182678,0.09684070199728012,0.411640852689743,-0.4590375125408173,-0.7321520447731018,0.6375815868377686,0.2396726459264755,0,0,0,-1,64292.214797125,3,2,1561241831.877712,1561241546.732582,16,16.27515,0,0,14.2948,0,0,1561241691.513234,64291.735996,0,-0.2617188,74.43233,2650659446,177292352,1,1,0.2,-16.055,-26.79233,0
1561241834.610512,20,0,0,1561241833.855518,4.603061631722978,-74.06477642606116,2651.27,-1,-1,10,65,-9999,1561241834.600476,-27.04949569702148,-5.693606853485107,1.57879638671875,260.331298828125,267.875,15,64294.97786266667,-0.518280029296875,0.711639404296875,0.2358856201171875,64294.96873766667,-0.06540563847569204,0.368497072660411,0.5863425845644568,64294.95646966667,10.44517517089844,-4.919570922851562,-531.6268310546875,64294.95860666667,-2.389280304010936,-1.884589720629065,-0.6978589477174483,-0.08246775716543198,0.3286808431148529,0.4941623210906982,0.2926779389381409,0.0616755485534668,0.01271355152130127,1,0.7808564901351929,0.09228897839784622,0.4122810661792755,-0.4601848423480988,-0.7288046479225159,0.642578661441803,0.2365082204341888,0,0,0,-1,64292.214797125,3,2,1561241831.877712,1561241546.732582,16,16.27515,0,0,14.2948,0,0,1561241691.513234,64291.735996,0,-0.2617188,74.43233,2650659446,177292352,1,1,0.2,-16.055,-26.79233,0
1561241834.631688,21,0,0,1561241833.855518,4.603061631722978,-74.06477642606116,2651.27,-1,-1,10,65,-9999,1561241834.624952,-27.35999298095703,-5.398654937744141,1.139892578125,260.7757263183594,268.3194274902344,15,64294.99812666667,-0.568450927734375,0.7109222412109375,0.224029541015625,64294.98900166667,-0.04771372672207765,0.3803097899915665,0.6663857553395512,64294.97661166667,10.02760314941406,-4.345672607421875,-531.886962890625,64294.97886966667,-2.39575942114627,-1.881523135990474,-0.708560938793211,-0.05822660028934479,0.3794777095317841,0.6372244358062744,0.2046573162078857,0.06089764833450317,0.003729462623596191,1,0.780207633972168,0.08575635403394699,0.4124769270420074,-0.4623684585094452,-0.7229373455047607,0.6507417559623718,0.2321562021970749,0,0,0,-1,64292.214797125,3,2,1561241831.877712,1561241546.732582,16,16.27515,0,0,14.2948,0,0,1561241691.513234,64291.735996,0,-0.2617188,74.43233,2650659446,177292352,1,1,0.2,-16.055,-27.00624,0
1561241834.651218,22,0,0,1561241833.855518,4.603061631722978,-74.06477642606116,2651.27,-1,-1,10,65,-9999,1561241834.624952,-27.35999298095703,-5.398654937744141,1.139892578125,260.7757263183594,268.3194274902344,15,64295.01839066667,-0.606201171875,0.7156829833984375,0.2299041748046875,64295.00926566667,-0.04036979370007514,0.2896877444183502,0.7196495097733541,64294.99675366667,10.26364135742188,-4.042434692382812,-532.0125122070312,64294.99913366667,-2.402504247261101,-1.878459336226954,-0.7210402234618729,-0.04701123014092445,0.3484492003917694,0.6872844099998474,0.1473990082740784,0.05075585842132568,-0.003433704376220703,1,0.7794609069824219,0.07856398075819016,0.4123233556747437,-0.4650354385375977,-0.7158499360084534,0.6601663827896118,0.2274632155895233,0,0,0,-1,64292.214797125,3,2,1561241831.877712,1561241546.732582,16,16.27515,0,0,14.2948,0,0,1561241691.513234,64291.735996,0,-0.2617188,74.43233,2650659446,177292352,1,1,0.2,-16.055,-27.75629,0
1561241834.678604,23,0,0,1561241833.855518,4.603061631722978,-74.06477642606116,2651.27,-1,-1,10,65,-9999,1561241834.676015,-27.38638305664062,-4.346921443939209,0.84088134765625,261.2195434570312,268.7632446289062,15,64295.03865366667,-0.652252197265625,0.712066650390625,0.2346038818359375,64295.02952966667,-0.04005127963370166,0.04852252874513471,0.7697896425646029,64295.01689466667,9.631317138671875,-3.776535034179688,-532.3036499023438,64295.01939766667,-2.40951971184591,-1.877627915707712,-0.7346465898309881,-0.04048195853829384,0.1643517911434174,0.7510673403739929,0.1012086272239685,0.04535800218582153,0.005770325660705566,1,0.7790793776512146,0.07143037766218185,0.4111043512821198,-0.4678955972194672,-0.7074097394943237,0.6703249216079712,0.2241339534521103,0,0,0,-1,64292.214797125,3,2,1561241831.877712,1561241546.732582,16,16.27515,0,0,14.2948,0,0,1561241691.513234,64291.735996,0,-0.2617188,74.43233,2650659446,177292352,1,1,0.2,-16.055,-28.37911,0
1561241834.691645,24,0,0,1561241833.855518,4.603061631722978,-74.06477642606116,2651.27,-1,-1,10,65,-9999,1561241834.676015,-27.38638305664062,-4.346921443939209,0.84088134765625,261.2195434570312,268.7632446289062,15,64295.05891766667,-0.714569091796875,0.69561767578125,0.2300567626953125,64295.04979266667,-0.05751495848189627,-0.09920141902490659,0.740047193194489,64295.03703666667,9.919876098632812,-3.183486938476562,-532.0806884765625,64295.03966066667,-2.417075361786755,-1.881810961847698,-0.7490879790643201,-0.05195032805204391,-0.0560988113284111,0.7601553797721863,0.04492461681365967,0.03109550476074219,0.0104987621307373,1,0.7796325087547302,0.06500548869371414,0.4078692495822906,-0.4707337319850922,-0.6971768140792847,0.6809711456298828,0.2241051197052002,0,0,0,-1,64292.214797125,3,2,1561241831.877712,1561241546.732582,16,16.27515,0,0,14.2948,0,0,1561241691.513234,64291.735996,0,-0.2617188,74.43233,2650659446,177292352,1,1,0.2,-16.055,-28.86876,0
1561241834.711847,25,0,0,1561241833.855518,4.603061631722978,-74.06477642606116,2651.27,-1,-1,10,65,-9999,1561241834.701948,-27.47060585021973,-3.780456066131592,0.9417724609375,261.2117309570312,268.7554321289062,15,64295.07918166667,-0.7446136474609375,0.6895599365234375,0.2204132080078125,64295.07005666667,-0.079654615572052,-0.02387257601147029,0.678206195837868,64295.05714766667,9.686737060546875,-3.03564453125,-532.3114624023438,64295.05992466667,-2.425047458605184,-1.889185742913259,-0.7629028779725501,-0.07191631197929382,-0.09067302942276001,0.707575261592865,-0.02806514501571655,0.004595041275024414,0.003782987594604492,1,0.7807759046554565,0.05937870964407921,0.403640478849411,-0.4732202589511871,-0.6865039467811584,0.6910226345062256,0.2262736856937408,0,0,0,-1,64292.214797125,3,2,1561241831.877712,1561241546.732582,16,16.27515,0,0,14.2948,0,0,1561241691.513234,64291.735996,0,-0.2617188,74.43233,2650659446,177292352,1,1,0.2,-16.055,-25.92869,0
1561241834.731994,26,0,0,1561241833.855518,4.603061631722978,-74.06477642606116,2651.27,-1,-1,10,65,-9999,1561241834.726192,-27.54620361328125,-3.231166839599609,0.8538818359375,261.331298828125,268.875,15,64295.09941466667,-0.73016357421875,0.70550537109375,0.2216644287109375,64295.09032066667,-0.0607759992366983,0.08810216254978334,0.623390351120767,64295.07728966667,9.557861328125,-2.374954223632812,-532.3019409179688,64295.08018866667,-2.433189558176265,-1.895485491031984,-0.7753896375591278,-0.07864683121442795,0.02840468287467957,0.6465790867805481,-0.06777936220169067,-0.01043444871902466,-0.007410287857055664,1,0.7816720008850098,0.0538577139377594,0.4001896679401398,-0.4753278791904449,-0.6768342852592468,0.6999943852424622,0.2278235405683517,0,0,0,-1,64292.214797125,3,2,1561241831.877712,1561241546.732582,16,16.27515,0,0,14.2948,0,0,1561241691.513234,64291.735996,0,-0.2617188,74.43233,2650659446,177292352,1,1,0.2,-16.055,-25.92869,0
1561241834.759332,27,0,0,1561241833.855518,4.603061631722978,-74.06477642606116,2651.27,-1,-1,10,65,-9999,1561241834.75507,-27.73388671875,-3.036358833312988,0.78619384765625,261.4660339355469,269.0097351074219,15,64295.11967766667,-0.699462890625,0.71484375,0.2314910888671875,64295.11055366667,-0.009025985566496555,0.1081629560930232,0.6129824512646284,64295.09743066667,9.621261596679688,-1.8177490234375,-532.2055053710938,64295.10042166667,-2.440547251028613,-1.899151598523099,-0.7869526094514991,-0.03798222541809082,0.106823593378067,0.6118887662887573,-0.06187587976455688,-0.002699732780456543,-0.006013393402099609,1,0.7819876670837402,0.04831318929791451,0.3978056311607361,-0.4774011373519897,-0.6682877540588379,0.7082051038742065,0.2276777476072311,0,0,0,-1,64292.214797125,3,2,1561241831.877712,1561241546.732582,16,16.27515,0,0,14.2948,0,0,1561241691.513234,64292.685419,0,-0.2617188,74.43233,2650659446,177292352,1,1,0.2,-16.055,-26.6142,0
1561241834.772651,28,0,0,1561241833.855518,4.603061631722978,-74.06477642606116,2651.27,-1,-1,10,65,-9999,1561241834.75507,-27.73388671875,-3.036358833312988,0.78619384765625,261.4660339355469,269.0097351074219,15,64295.13994166667,-0.66412353515625,0.7092132568359375,0.2348175048828125,64295.13081666667,0.01402314103592124,0.0425463952589969,0.6200235828706888,64295.11757266667,9.507736206054688,-1.842605590820312,-532.3988647460938,64295.12068566667,-2.44664492553962,-1.901566265969878,-0.7986035964089966,0.007371673360466957,0.07380545884370804,0.6135237216949463,-0.03957587480545044,-0.001538753509521484,0.004895567893981934,1,0.7819549441337585,0.04294458404183388,0.3955967128276825,-0.4797974526882172,-0.6598870158195496,0.7163825035095215,0.226595550775528,0,0,0,-1,64292.214797125,3,2,1561241831.877712,1561241546.732582,16,16.27515,0,0,14.2948,0,0,1561241691.513234,64292.685419,0,-0.2617188,74.43233,2650659446,177292352,1,1,0.2,-16.055,-26.6142,0
1561241834.792804,29,0,0,1561241833.855518,4.603061631722978,-74.06477642606116,2651.27,-1,-1,10,65,-9999,1561241834.777254,-27.74558067321777,-2.507010221481323,0.8826904296875,261.4920654296875,269.0357666015625,15,64295.16020566667,-0.576507568359375,0.6669769287109375,0.2409515380859375,64295.15108066667,0.07110187373126252,0.05603317565137618,0.6244063470766322,64295.13771366667,9.417709350585938,-1.349777221679688,-532.2489013671875,64295.14094866667,-2.452096391769846,-1.904728668699692,-0.8104458680920443,0.03712397813796997,0.006748923100531101,0.6228050589561462,-0.01301759481430054,-0.01538127660751343,0.008932828903198242,1,0.7819855809211731,0.03795860335230827,0.3929006457328796,-0.4823761880397797,-0.6511059403419495,0.7245945334434509,0.2258846014738083,0,0,0,-1,64292.214797125,3,2,1561241831.877712,1561241546.732582,16,16.27515,0,0,14.2948,0,0,1561241691.513234,64292.685419,0,-0.2617188,74.43233,2650659446,177292352,1,1,0.2,-16.055,-26.7976,0
1561241834.815005,30,0,0,1561241833.855518,4.603061631722978,-74.06477642606116,2651.27,-1,-1,10,65,-9999,1561241834.80859,-27.84994888305664,-1.783988237380981,0.5802001953125,261.6387939453125,269.1824951171875,15,64295.18046866667,-0.430267333984375,0.6279144287109375,0.2579345703125,64295.17134466667,0.056027050380869,0.5064213865672877,0.6922471800530927,64295.15785566667,9.584381103515625,-0.9725799560546875,-532.8201904296875,64295.16121266667,-2.456354970289046,-1.906363600869566,-0.8226089723179272,0.07436349242925644,0.2067709714174271,0.6337668895721436,0.06585860252380371,-0.06594634056091309,0.01692163944244385,1,0.7816182971000671,0.03298133239150047,0.3904417455196381,-0.4853250086307526,-0.6423661708831787,0.7329232096672058,0.2240298539400101,0,0,0,-1,64292.214797125,3,2,1561241831.877712,1561241546.732582,16,16.27515,0,0,14.2948,0,0,1561241691.513234,64292.685419,0,-0.2617188,74.43233,2650659446,177292352,1,1,0.2,-16.055,-27.6482,0
1561241834.838541,31,0,0,1561241833.855518,4.603061631722978,-74.06477642606116,2651.27,-1,-1,10,65,-9999,1561241834.80859,-27.84994888305664,-1.783988237380981,0.5802001953125,261.6387939453125,269.1824951171875,15,64295.20073266667,-0.3219146728515625,0.68048095703125,0.3059539794921875,64295.19160766667,-0.06772764863013213,1.242450135992956,1.112633017076499,64295.17799766667,9.320449829101562,-0.4891357421875,-533.0623779296875,64295.18147666667,-2.461919576983875,-1.900111162045133,-0.8362660226742185,-0.004852235782891512,0.852092981338501,0.8383917212486267,0.2039556503295898,-0.1142312288284302,0.04118287563323975,1,0.7795799374580383,0.0251193530857563,0.3910290598869324,-0.4885903298854828,-0.6342229843139648,0.7421456575393677,0.2167517244815826,0,0,0,-1,64292.214797125,3,2,1561241831.877712,1561241546.732582,16,16.27515,0,0,14.2948,0,0,1561241691.513234,64292.685419,0,-0.2617188,74.43233,2650659446,177292352,1,1,0.2,-16.055,-28.08001,0
1561241834.853688,32,0,0,1561241833.855518,4.603061631722978,-74.06477642606116,2651.27,-1,-1,10,65,-9999,1561241834.80859,-27.84994888305664,-1.783988237380981,0.5802001953125,261.6387939453125,269.1824951171875,15,64295.22099666667,-0.26177978515625,0.7601165771484375,0.2783966064453125,64295.21187166667,-0.2524479639474452,1.654331434391303,1.685084553395102,64295.19813866667,9.287841796875,0.0904388427734375,-533.4849853515625,64295.20173966667,-2.474972278255967,-1.885180763745243,-0.8572765787143362,-0.1633318960666656,1.536348819732666,1.427466154098511,0.3005051016807556,-0.07558190822601318,0.103562593460083,1,0.77530437707901,0.009940682910382748,0.395086795091629,-0.4926566779613495,-0.6224197149276733,0.7560628652572632,0.2023913860321045,0,0,0,-1,64292.214797125,3,2,1561241831.877712,1561241546.732582,16,16.27515,0,0,14.2948,0,0,1561241691.513234,64292.685419,0,-0.2617188,74.43233,2650659446,177292352,1,1,0.2,-16.055,-28.65027,0
1561241834.873913,33,0,0,1561241833.855518,4.603061631722978,-74.06477642606116,2651.27,-1,-1,10,65,-9999,1561241834.853959,-28.1992073059082,-0.6449217796325684,-0.6099853515625,264.7195129394531,272.2632141113281,15,64295.24125966667,-0.287139892578125,0.8179168701171875,0.181854248046875,64295.23213566667,-0.3683556588065279,1.306934320731481,1.841534348476788,64295.21828066667,9.228652954101562,1.075408935546875,-534.4895629882812,64295.22200366667,-2.49822626903258,-1.870430924992164,-0.8878024287489222,-0.3168103992938995,1.549560785293579,1.811814665794373,0.3412183523178101,-0.01557010412216187,0.09210884571075439,1,0.7700632214546204,-0.01210507564246655,0.3993436098098755,-0.4973737895488739,-0.6029981374740601,0.7756866812705994,0.1862877905368805,0,0,0,-1,64292.214797125,3,2,1561241831.877712,1561241546.732582,16,16.27515,0,0,14.2948,0,0,1561241691.513234,64292.685419,0,-0.2617188,74.43233,2650659446,177292352,1,1,0.2,-16.055,-29.11366,0
1561241834.894124,34,0,0,1561241833.855518,4.603061631722978,-74.06477642606116,2651.27,-1,-1,10,65,-9999,1561241834.878574,-28.02284049987793,0.3452300429344177,-1.58172607421875,266.4862670898438,274.0299682617188,15,64295.26152366667,-0.3942413330078125,0.9262237548828125,0.0897674560546875,64295.25239866667,-0.4073781593111319,0.4713720560929729,1.703613496679328,64295.23842166667,9.25006103515625,2.060546875,-535.1268310546875,64295.24226766667,-2.527319368942734,-1.867508489071759,-0.9209447933588623,-0.4160480201244354,0.9030776023864746,1.788388967514038,0.2914886474609375,0.02174323797225952,0.004945755004882812,1,0.7663434147834778,-0.03423414379358292,0.3999329805374146,-0.5015968680381775,-0.5786285400390625,0.796173632144928,0.1769084185361862,0,0,0,-1,64292.214797125,3,2,1561241831.877712,1561241546.732582,16,16.27515,0,0,14.2948,0,0,1561241691.513234,64292.685419,0,-0.2617188,74.43233,2650659446,177292352,1,1,0.2,-16.055,-29.11366,0
1561241834.918861,35,0,0,1561241833.855518,4.603061631722978,-74.06477642606116,2651.27,-1,-1,10,65,-9999,1561241834.907179,-27.86940002441406,2.227273464202881,-2.35052490234375,267.009033203125,274.552734375,15,64295.28178766667,-0.512054443359375,1.064651489257812,0.07745361328125,64295.27266266667,-0.3420204577350613,-0.4856079836999915,1.744649346968032,64295.25856366667,9.480926513671875,3.04949951171875,-535.5598754882812,64295.26253066667,-2.55806207903574,-1.88304355429516,-0.95155733861826,-0.3918044865131378,-0.01314728707075119,1.667265653610229,0.1581084728240967,0.1119033694267273,-0.08853495121002197,1,0.7658345103263855,-0.05146575346589088,0.3945660591125488,-0.5051398873329163,-0.5523498058319092,0.8143203854560852,0.1783024370670319,0,0,0,-1,64292.214797125,3,2,1561241831.877712,1561241546.732582,16,16.27515,0,0,14.2948,0,0,1561241691.513234,64292.685419,0,-0.2617188,74.43233,2650659446,177292352,1,1,0.2,-16.055,-25.0193,0
1561241834.934572,36,0,0,1561241833.855518,4.603061631722978,-74.06477642606116,2651.27,-1,-1,10,65,-9999,1561241834.931186,-27.8432559967041,3.346078872680664,-1.72906494140625,265.9696044921875,273.5133056640625,15,64295.30205066667,-0.5620269775390625,1.121017456054688,0.1277618408203125,64295.29292666667,-0.05763533336316785,-1.278874456538079,1.713936175380584,64295.27870566667,9.2442626953125,3.980682373046875,-535.0936279296875,64295.28279466667,-2.589393484552571,-1.918558976236445,-0.9826307021356993,-0.2493352293968201,-0.9075137376785278,1.778353810310364,0.009567975997924805,0.2326916456222534,-0.1116318702697754,1,0.7684221863746643,-0.06379757821559906,0.3817246556282043,-0.5096505880355835,-0.5216224193572998,0.8319598436355591,0.1890855729579926,0,0,0,-1,64292.214797125,3,2,1561241831.877712,1561241546.732582,16,16.27515,0,0,14.2948,0,0,1561241691.513234,64292.685419,0,-0.2617188,74.43233,2650659446,177292352,1,1,0.2,-16.055,-25.45401,0
1561241834.955098,37,0,0,1561241833.855518,4.603061631722978,-74.06477642606116,2651.27,-1,-1,10,65,-9999,1561241834.931186,-27.8432559967041,3.346078872680664,-1.72906494140625,265.9696044921875,273.5133056640625,15,64295.32231466667,-0.6922149658203125,1.028961181640625,0.16619873046875,64295.31318966667,0.4931210274512141,-1.875214015202475,1.508845873517473,64295.29884666667,9.680953979492188,5.195510864257812,-534.4805297851562,64295.30305866667,-2.614052432314395,-1.96529013078052,-1.014494840921168,0.2020072042942047,-1.649952173233032,1.599171280860901,-0.07453674077987671,0.2718035578727722,-0.07518911361694336,1,0.7723286151885986,-0.07059703767299652,0.362820029258728,-0.516610324382782,-0.4874902665615082,0.8492138981819153,0.2029508650302887,0,0,0,-1,64292.214797125,3,2,1561241831.877712,1561241546.732582,16,16.27515,0,0,14.2948,0,0,1561241691.513234,64292.685419,0,-0.2617188,74.43233,2650659446,177292352,1,1,0.2,-16.055,-26.17102,0
1561241834.975273,38,0,0,1561241833.855518,4.603061631722978,-74.06477642606116,2651.27,-1,-1,10,65,-9999,1561241834.955113,-27.85053443908691,4.445169925689697,-1.18865966796875,263.4117736816406,270.9554748535156,15,64295.34257866667,-0.7841339111328125,0.9505462646484375,0.1586456298828125,64295.33345366667,0.8004958899332165,-1.774205108745732,1.41866591268521,64295.31898866667,9.525466918945312,5.941360473632812,-533.7312622070312,64295.32332166667,-2.620934693520101,-2.008505276413474,-1.04651325200983,0.7135088443756104,-1.906360030174255,1.457888245582581,-0.2388160228729248,0.1632781624794006,-0.04598510265350342,1,0.7752709984779358,-0.07104058563709259,0.3407121002674103,-0.5270894169807434,-0.4533989429473877,0.8656830787658691,0.2121837735176086,0,0,0,-1,64292.214797125,3,2,1561241831.877712,1561241546.732582,16,16.27515,0,0,14.2948,0,0,1561241691.513234,64292.685419,0,-0.2617188,74.43233,2650659446,177292352,1,1,0.2,-16.055,-26.9567,0
1561241835.000991,39,0,0,1561241833.855518,4.603061631722978,-74.06477642606116,2651.27,-1,-1,10,65,-9999,1561241834.98086,-27.60831069946289,5.373013973236084,-0.2418212890625,260.6430053710938,268.1867065429688,15,64295.36284166667,-0.806365966796875,0.916534423828125,0.228973388671875,64295.35371766667,0.6768016446789602,-1.182752184365522,1.144849543099296,64295.33909966667,9.972885131835938,6.749725341796875,-532.5866088867188,64295.36384966667,-2.614520399674252,-2.062159013934823,-1.105630913734541,0.6023581027984619,-0.7703457474708557,0.9153469204902649,-0.4074628353118896,0.05031388998031616,-0.02979385852813721,1,0.7751621603965759,-0.07033944129943848,0.3049092292785645,-0.5488226413726807,-0.3955004513263702,0.8937473893165588,0.211648017168045,0,0,0,-1,64292.214797125,3,2,1561241831.877712,1561241546.732582,16,16.27515,0,0,14.2948,0,0,1561241691.513234,64292.685419,0,-0.2617188,74.43233,2650659446,177292352,1,1,0.2,-16.055,-27.08925,0
1561241835.016259,40,0,0,1561241833.855518,4.603061631722978,-74.06477642606116,2651.27,-1,-1,10,65,-9999,1561241835.007072,-27.19961929321289,6.67169189453125,1.03009033203125,259.0616760253906,266.6053771972656,15,64295.38310566667,-0.740997314453125,0.835418701171875,0.2596435546875,64295.37398066667,0.4793511530349593,-0.2358458177118912,0.6632192568034471,64295.35924066667,10.00360107421875,7.293426513671875,-532.1307983398438,64295.36384966667,-2.614520399674252,-2.062159013934823,-1.105630913734541,0.6023581027984619,-0.7703457474708557,0.9153469204902649,-0.4074628353118896,0.05031388998031616,-0.02979385852813721,1,0.7751621603965759,-0.07033944129943848,0.3049092292785645,-0.5488226413726807,-0.3955004513263702,0.8937473893165588,0.211648017168045,0,0,0,-1,64292.214797125,3,2,1561241831.877712,1561241546.732582,16,16.27515,0,0,14.2948,0,0,1561241691.513234,64292.685419,0,-0.2617188,74.43233,2650659446,177292352,1,1,0.2,-16.055,-27.66165,0
1561241835.036014,41,0,0,1561241833.855518,4.603061631722978,-74.06477642606116,2651.27,-1,-1,10,65,-9999,1561241835.030857,-27.08224105834961,6.917576313018799,0.917724609375,259.4539794921875,266.9976806640625,15,64295.40333866667,-0.6847991943359375,0.7894134521484375,0.2536468505859375,64295.39421466667,0.03795244237861022,0.8213969108003764,0.3505241974117933,64295.37938266667,10.24176025390625,7.82421875,-532.1259155273438,64295.38411266667,-2.610406046881825,-2.063221497287519,-1.121967394294009,0.2689476311206818,0.3244776129722595,0.4472867846488953,-0.3586401343345642,-0.06553715467453003,0.05450606346130371,1,0.7728260159492493,-0.07286054641008377,0.2996668219566345,-0.5546449422836304,-0.3823571503162384,0.900955855846405,0.2051374167203903,0,0,0,-1,64292.214797125,3,2,1561241831.877712,1561241546.732582,16,16.27515,0,0,14.2948,0,0,1561241691.513234,64292.685419,0,-0.2617188,74.43233,2650659446,177292352,1,1,0.2,-16.055,-28.55399,0
1561241835.056232,42,0,0,1561241833.855518,4.603061631722978,-74.06477642606116,2651.27,-1,-1,10,65,-9999,1561241835.030857,-27.08224105834961,6.917576313018799,0.917724609375,259.4539794921875,266.9976806640625,15,64295.42360266667,-0.6090240478515625,0.778167724609375,0.2496337890625,64295.41447766667,-0.2640076809750431,1.34666149366052,0.3302010825011806,64295.39952466667,10.03094482421875,8.1644287109375,-532.4962158203125,64295.40434566667,-2.616656841645578,-2.052935223446397,-1.128908514033399,-0.1502760052680969,1.162904143333435,0.3384002447128296,-0.3059020042419434,-0.114532470703125,0.05535757541656494,1,0.7698989510536194,-0.08000132441520691,0.303790956735611,-0.5554875731468201,-0.3788971900939941,0.9039459824562073,0.1982892155647278,0,0,0,-1,64292.214797125,3,2,1561241831.877712,1561241546.732582,16,16.27515,0,0,14.2948,0,0,1561241691.513234,64292.685419,0,-0.2617188,74.43233,2650659446,177292352,1,1,0.2,-16.055,-28.55399,0
1561241835.077546,43,0,0,1561241833.855518,4.603061631722978,-74.06477642606116,2651.27,-1,-1,10,65,-9999,1561241835.05624,-27.22215270996094,7.167238712310791,0.4532470703125,261.2934875488281,268.8371887207031,15,64295.44386666667,-0.528900146484375,0.7861785888671875,0.205902099609375,64295.43474166667,-0.3856526237704835,1.28629402333504,0.1417725816820412,64295.41966566667,10.45207214355469,8.176742553710938,-533.0853881835938,64295.42460966667,-2.634705510251997,-2.042724740097575,-1.13216602288828,-0.3546158373355865,1.360160231590271,0.2604529857635498,-0.2307466864585876,-0.1271665096282959,0.05656325817108154,1,0.7670190334320068,-0.09064827114343643,0.3119789659976959,-0.5532936453819275,-0.3782773911952972,0.9053342342376709,0.1930706202983856,0,0,0,-1,64292.214797125,3,2,1561241831.877712,1561241546.732582,16,16.27515,0,0,14.2948,0,0,1561241691.513234,64292.685419,0,-0.2617188,74.43233,2650659446,177292352,1,1,0.2,-16.61228,-29.36127,0
1561241835.098456,44,0,0,1561241833.855518,4.603061631722978,-74.06477642606116,2651.27,-1,-1,10,65,-9999,1561241835.08144,-27.00574493408203,7.296553134918213,0.043212890625,263.232666015625,270.7763671875,15,64295.46412966667,-0.4904937744140625,0.832305908203125,0.1906585693359375,64295.45500566667,-0.4173477028518435,1.051394160442345,-0.04831213901901845,64295.43980766667,10.22270202636719,8.49407958984375,-533.8863525390625,64295.44487366667,-2.654168571476297,-2.034570290264077,-1.131166907784075,-0.4090883731842041,1.162286281585693,0.01915914937853813,-0.1482518911361694,-0.1187308430671692,0.01551783084869385,1,0.7649679780006409,-0.1000805795192719,0.3206927478313446,-0.5495126843452454,-0.3806482553482056,0.9049094319343567,0.19038425385952,0,0,0,-1,64292.214797125,3,2,1561241831.877712,1561241546.732582,16,16.27515,0,0,14.2948,0,0,1561241691.513234,64292.685419,0,-0.2617188,74.43233,2650659446,177292352,1,1,0.2,-17.16956,-22.86369,0
1561241835.116975,45,0,0,1561241833.855518,4.603061631722978,-74.06477642606116,2651.27,-1,-1,10,65,-9999,1561241835.107065,-27.02805519104004,7.362644672393799,-1.24658203125,264.775634765625,272.3193359375,15,64295.48439366667,-0.492431640625,0.89630126953125,0.2064666748046875,64295.47526866667,-0.3716963280779232,0.7401763565073578,0.03376382261613359,64295.45994866667,10.61727905273438,8.143997192382812,-534.3659057617188,64295.46513666667,-2.671161886395071,-2.028888085903039,-1.126771276596737,-0.4177457988262177,0.9008530378341675,-0.04046263545751572,-0.1052062511444092,-0.0707240104675293,0.0006831884384155273,1,0.7639049887657166,-0.1069433018565178,0.3284908831119537,-0.5450744032859802,-0.3852875232696533,0.9030299186706543,0.1899754106998444,0,0,0,-1,64292.214797125,3,2,1561241831.877712,1561241546.732582,16,16.27515,0,0,14.2948,0,0,1561241691.513234,64292.685419,0,-0.2617188,74.43233,2650659446,177292352,1,1,0.2,-17.72684,-23.30021,0
1561241835.137195,46,0,0,1561241833.855518,4.603061631722978,-74.06477642606116,2651.27,-1,-1,10,65,-9999,1561241835.135282,-27.29288673400879,7.600629329681396,-1.63330078125,265.5151672363281,273.0588684082031,15,64295.50465766667,-0.472564697265625,0.9068450927734375,0.1977386474609375,64295.49553266667,-0.1292543929781238,0.2105053073075693,0.08216704174443275,64295.48009066667,10.17205810546875,8.409423828125,-534.7911376953125,64295.48540066667,-2.687026816800899,-2.028687528772149,-1.124054951134897,-0.2656103074550629,0.4837135970592499,0.08848974853754044,-0.1049072742462158,-0.005558431148529053,0.01548504829406738,1,0.7634619474411011,-0.1123241558670998,0.333473414182663,-0.541576087474823,-0.3875243663787842,0.9018597006797791,0.1909817159175873,0,0,0,-1,64292.214797125,3,2,1561241831.877712,1561241546.732582,16,16.27515,0,0,14.2948,0,0,1561241691.513234,64292.685419,0,-0.2617188,74.43233,2650659446,177292352,1,1,0.2,-18.28411,-23.43146,0
1561241835.158499,47,0,0,1561241833.855518,4.603061631722978,-74.06477642606116,2651.27,-1,-1,10,65,-9999,1561241835.135282,-27.29288673400879,7.600629329681396,-1.63330078125,265.5151672363281,273.0588684082031,15,64295.52492066667,-0.5052490234375,0.8835601806640625,0.1837005615234375,64295.51579666667,0.07306435713854191,-0.2463067144737225,-0.08057287351591132,64295.50023266667,10.266357421875,8.678497314453125,-534.8317260742188,64295.50566466667,-2.694189608477421,-2.031000297779873,-1.124035191028705,-0.02114598825573921,-0.06768802553415298,0.006925120018422604,-0.08546751737594604,0.004993915557861328,0.005853533744812012,1,0.7634454369544983,-0.1144274920225143,0.3345323503017426,-0.5405047535896301,-0.387097179889679,0.9018511772155762,0.1918851733207703,0,0,0,-1,64292.214797125,3,2,1561241831.877712,1561241546.732582,16,16.27515,0,0,14.2948,0,0,1561241691.513234,64292.685419,0,-0.2617188,74.43233,2650659446,177292352,1,1,0.2,-18.84139,-23.95557,0
1561241835.177718,48,0,0,1561241833.855518,4.603061631722978,-74.06477642606116,2651.27,-1,-1,10,65,-9999,1561241835.157697,-27.13671493530273,7.615756511688232,-1.64215087890625,265.2732543945312,272.8169555664062,15,64295.54518466667,-0.5483551025390625,0.8639678955078125,0.185943603515625,64295.53605966667,0.1140802337190703,-0.3106159295286289,-0.1712156917456303,64295.52037366667,10.39013671875,8.388534545898438,-534.6033935546875,64295.52592766667,-2.690005715437825,-2.031909912631687,-1.123186661331393,0.1162885725498199,-0.318311482667923,-0.1431770175695419,-0.1176408529281616,-0.01792407035827637,-0.008877396583557129,1,0.7639796733856201,-0.112356573343277,0.3332381546497345,-0.5409837961196899,-0.3876081705093384,0.9014842510223389,0.1925778836011887,0,0,0,-1,64292.214797125,3,2,1561241831.877712,1561241546.732582,16,16.27515,0,0,14.2948,0,0,1561241691.513234,64292.685419,0,-0.2617188,74.43233,2650659446,177292352,1,1,0.2,-19.39867,-24.68,0
1561241835.198301,49,0,0,1561241833.855518,4.603061631722978,-74.06477642606116,2651.27,-1,-1,10,65,-9999,1561241835.183628,-27.11796569824219,7.431317806243896,-1.50213623046875,264.8145141601562,272.3582153320312,15,64295.56544866667,-0.529388427734375,0.8455352783203125,0.1941070556640625,64295.55632366667,0.04192348188002737,-0.1656592724472889,-0.2819976004546374,64295.54051566667,10.30987548828125,8.086593627929688,-534.5369262695312,64295.54619166667,-2.681831176286393,-2.030784704732809,-1.120959182026126,0.08542919158935547,-0.2643938958644867,-0.21439528465271,-0.1587325930595398,-0.03655004501342773,-0.007088780403137207,1,0.7646230459213257,-0.1089393347501755,0.3319408595561981,-0.5415708422660828,-0.3896225392818451,0.9005179405212402,0.193032369017601,0,0,0,-1,64292.214797125,3,2,1561241831.877712,1561241546.732582,16,16.27515,0,0,14.2948,0,0,1561241691.513234,64292.685419,0,-0.2617188,74.43233,2650659446,177292352,1,1,0.2,-19.95595,-25.57267,0
1561241835.218381,50,0,0,1561241833.855518,4.603061631722978,-74.06477642606116,2651.27,-1,-1,10,65,-9999,1561241835.208321,-27.30313682556152,7.235198497772217,-1.1380615234375,264.7258605957031,272.2695617675781,15,64295.58571166667,-0.5055694580078125,0.842376708984375,0.1986541748046875,64295.57658766667,-0.1228577463558624,0.1493484760349896,-0.3880337561011233,64295.56065666667,10.28213500976562,8.246414184570312,-534.2634887695312,64295.56645566667,-2.674561558778991,-2.02764030927164,-1.116062643697415,-0.0351097397506237,-0.0490935705602169,-0.3604880571365356,-0.1352079510688782,-0.05284273624420166,0.0003578662872314453,1,0.7653131484985352,-0.1056901216506958,0.332248330116272,-0.5410512685775757,-0.3941804766654968,0.8983780145645142,0.1937492340803146,0,0,0,-1,64292.214797125,3,2,1561241831.877712,1561241546.732582,16,16.27515,0,0,14.2948,0,0,1561241691.513234,64292.685419,0,-0.2617188,74.43233,2650659446,177292352,1,1,0.2,-19.95595,-25.57267,0
1561241835.238577,51,0,0,1561241833.855518,4.603061631722978,-74.06477642606116,2651.27,-1,-1,10,65,-9999,1561241835.233525,-27.20172882080078,6.880703926086426,-1.4793701171875,265.3919067382812,272.9356079101562,15,64295.60597566667,-0.4688262939453125,0.8666534423828125,0.18304443359375,64295.59685066667,-0.3005867311794995,0.565514267995056,-0.3140841642162391,64295.58079866667,10.17924499511719,7.83685302734375,-534.5180053710938,64295.58671866667,-2.672063637817343,-2.022419425950696,-1.10798354625927,-0.2177788913249969,0.363292396068573,-0.3743860125541687,-0.1038652062416077,-0.05242353677749634,0.003804206848144531,1,0.7659100890159607,-0.1039555966854095,0.3353465497493744,-0.5386258363723755,-0.4017042815685272,0.8948002457618713,0.1948500573635101,0,0,0,-1,64292.214797125,3,2,1561241831.877712,1561241546.732582,16,16.27515,0,0,14.2948,0,0,1561241691.513234,64292.685419,0,-0.2617188,74.43233,2650659446,177292352,1,1,0.2,-20.51323,-26.54736,0
1561241835.259356,52,0,0,1561241833.855518,4.603061631722978,-74.06477642606116,2651.27,-1,-1,10,65,-9999,1561241835.233525,-27.20172882080078,6.880703926086426,-1.4793701171875,265.3919067382812,272.9356079101562,15,64295.62623966667,-0.4106292724609375,0.910675048828125,0.177947998046875,64295.61711466667,-0.321911460976091,0.756148931461217,-0.2511800329524584,64295.60094066667,10.01792907714844,7.827667236328125,-534.6961059570312,64295.60698266667,-2.677786438604437,-2.0164562623579,-1.099584726453369,-0.3391271531581879,0.6939936280250549,-0.2696958184242249,-0.05920052528381348,-0.02436542510986328,-0.01263928413391113,1,0.7659758329391479,-0.1054651364684105,0.3410056233406067,-0.5346712470054626,-0.409625768661499,0.8910189270973206,0.1956837475299835,0,0,0,-1,64292.214797125,3,2,1561241831.877712,1561241546.732582,16,16.27515,0,0,14.2948,0,0,1561241691.513234,64292.685419,0,-0.2617188,74.43233,2650659446,177292352,1,1,0.2,-21.07051,-27.44172,0
1561241835.281409,53,0,0,1561241833.855518,4.603061631722978,-74.06477642606116,2651.27,-1,-1,10,65,-9999,1561241835.259543,-27.3184814453125,6.675495624542236,-1.60113525390625,266.5595092773438,274.1032104492188,15,64295.64650266667,-0.3914947509765625,0.92333984375,0.17431640625,64295.63737866667,-0.1821836543790126,0.5550214133001438,-0.2102927870525809,64295.62108166667,10.15669250488281,7.745819091796875,-535.213134765625,64295.62724666667,-2.685574746389151,-2.008567020561671,-1.09199477758476,-0.2803277373313904,0.6920551061630249,-0.2268495559692383,0.006640613079071045,0.02312731742858887,-0.01735937595367432,1,0.765431821346283,-0.1084795072674751,0.3477535843849182,-0.5304844975471497,-0.4172699153423309,0.8875477313995361,0.1953073590993881,0,0,0,-1,64292.214797125,3,2,1561241831.877712,1561241546.732582,16,16.27515,0,0,14.2948,0,0,1561241691.513234,64292.685419,0,-0.2617188,74.43233,2650659446,177292352,1,1,0.2,-21.62779,-28.22874,0
1561241835.299635,54,0,0,1561241833.855518,4.603061631722978,-74.06477642606116,2651.27,-1,-1,10,65,-9999,1561241835.284056,-27.37323951721191,6.713221549987793,-2.2069091796875,267.370849609375,274.91455078125,15,64295.66676666667,-0.3906097412109375,0.918212890625,0.162017822265625,64295.65764166667,-0.01698883722583348,0.1453124554029745,-0.2209901725192112,64295.64122366667,9.954879760742188,7.729171752929688,-535.374755859375,64295.64750966667,-2.688776971902567,-2.000402313305627,-1.08615965056224,-0.0966295599937439,0.3617357611656189,-0.2180259674787521,0.0320570170879364,0.03849560022354126,-0.01973140239715576,1,0.7647645473480225,-0.110268272459507,0.352990597486496,-0.5276113748550415,-0.4235517978668213,0.8848443031311035,0.1940478086471558,0,0,0,-1,64292.214797125,3,2,1561241831.877712,1561241546.732582,16,16.27515,0,0,14.2948,0,0,1561241691.513234,64292.685419,0,-0.2617188,74.43233,2650659446,177292352,1,1,0.2,-22.18507,-29.19437,0
1561241835.321971,55,0,0,1561241833.855518,4.603061631722978,-74.06477642606116,2651.27,-1,-1,10,65,-9999,1561241835.284056,-27.37323951721191,6.713221549987793,-2.2069091796875,267.370849609375,274.91455078125,15,64295.68703066667,-0.4454498291015625,0.894744873046875,0.1687469482421875,64295.67790566667,0.08495563772185473,-0.2206154657538371,-0.2424328803520932,64295.66136466667,10.03861999511719,7.404571533203125,-535.4656372070312,64295.66777366667,-2.685445873723453,-1.994538750759522,-1.081581110606122,0.04679950699210167,-0.06406426429748535,-0.236882746219635,0.0377611517906189,0.03551095724105835,-0.03120684623718262,1,0.7646371126174927,-0.1092815846204758,0.3553490936756134,-0.5264168381690979,-0.428370863199234,0.8827019333839417,0.1932247579097748,0,0,0,-1,64292.214797125,3,2,1561241831.877712,1561241546.732582,16,16.27515,0,0,14.2948,0,0,1561241691.513234,64292.685419,0,-0.2617188,74.43233,2650659446,177292352,1,1,0.2,-22.74235,-29.97995,0
1561241835.339944,56,0,0,1561241833.855518,4.603061631722978,-74.06477642606116,2651.27,-1,-1,10,65,-9999,1561241835.326548,-27.30690765380859,6.657784938812256,-2.26763916015625,267.3858337402344,274.9295349121094,15,64295.70726366667,-0.4319610595703125,0.86175537109375,0.1823272705078125,64295.69813866667,0.1136432089841883,-0.235974182076433,-0.3648599935596898,64295.68150666667,10.03787231445312,7.43756103515625,-535.2561645507812,64295.68803766667,-2.677776296745699,-1.992116500408915,-1.077496123583332,0.1062790751457214,-0.323583722114563,-0.2771342992782593,-0.0133252739906311,0.0139700174331665,-0.02491271495819092,1,0.765260636806488,-0.1058582216501236,0.3551474511623383,-0.5263463854789734,-0.4321245551109314,0.8807749152183533,0.1936596035957336,0,0,0,-1,64292.214797125,3,2,1561241831.877712,1561241546.732582,16,16.27515,0,0,14.2948,0,0,1561241691.513234,64292.685419,0,-0.2617188,74.43233,2650659446,177292352,1,1,0.2,-23.29963,-30.73477,0
1561241835.360039,57,0,0,1561241833.855518,4.603061631722978,-74.06477642606116,2651.27,-1,-1,10,65,-9999,1561241835.326548,-27.30690765380859,6.657784938812256,-2.26763916015625,267.3858337402344,274.9295349121094,15,64295.72752766667,-0.4167938232421875,0.899932861328125,0.2325286865234375,64295.71840266667,-0.03532789712433713,0.3435701511733784,-0.3202541758297346,64295.70164866667,9.902023315429688,7.177947998046875,-534.9544067382812,64295.70827066667,-2.667716419761493,-1.987462047070336,-1.071744518751301,0.04833268746733665,0.01999735087156296,-0.4121499061584473,0.005685597658157349,-0.0162813663482666,-0.01136600971221924,1,0.7658437490463257,-0.1016367003321648,0.3555433452129364,-0.526063084602356,-0.4376466572284698,0.8780367374420166,0.1936933398246765,0,0,0,-1,64292.214797125,3,2,1561241831.877712,1561241546.732582,16,16.27515,0,0,14.2948,0,0,1561241691.513234,64292.685419,0,-0.2617188,74.43233,2650659446,177292352,1,1,0.2,-23.29963,-30.73477,0
1561241835.381816,58,0,0,1561241833.855518,4.603061631722978,-74.06477642606116,2651.27,-1,-1,10,65,-9999,1561241835.361116,-27.26198577880859,6.351486682891846,-1.8876953125,267.27001953125,274.813720703125,15,64295.74779066667,-0.3748016357421875,0.9263916015625,0.262420654296875,64295.73866566667,-0.118003336320866,0.7382037530879361,0.02236975420833858,64295.72178966667,9.947128295898438,7.192413330078125,-535.1338500976562,64295.72853466667,-2.663780806079694,-1.977348307897467,-1.065975244122833,-0.09613021463155746,0.6115511655807495,-0.1467134356498718,0.02743473649024963,0.02467185258865356,0.04127132892608643,1,0.7651092410087585,-0.1011754721403122,0.3596522212028503,-0.5244251489639282,-0.4442285597324371,0.8752610087394714,0.1912572532892227,0,0,0,-1,64292.214797125,3,2,1561241831.877712,1561241546.732582,16,16.27515,0,0,14.2948,0,0,1561241691.513234,64292.685419,0,-0.2617188,74.43233,2650659446,177292352,1,1,0.2,-23.8569,-31.40967,0
1561241835.404124,59,0,0,1561241833.855518,4.603061631722978,-74.06477642606116,2651.27,-1,-1,10,65,-9999,1561241835.385317,-27.4919319152832,6.098250389099121,-2.37939453125,268.2622375488281,275.8059387207031,15,64295.76805466667,-0.3490142822265625,0.898101806640625,0.2385101318359375,64295.75892966667,-0.07322308153951064,0.5001895896165024,0.1392724060506748,64295.74193166667,9.693756103515625,7.042190551757812,-535.566650390625,64295.74879766667,-2.668367021873711,-1.967219169737516,-1.06544668591528,-0.1130668595433235,0.6776303648948669,0.123246930539608,0.07176777720451355,0.05138635635375977,0.07549428939819336,1,0.7631168961524963,-0.105431392788887,0.3648395538330078,-0.5229042768478394,-0.446569412946701,0.8750052452087402,0.1869263499975204,0,0,0,-1,64292.214797125,3,2,1561241831.877712,1561241546.732582,16,16.27515,0,0,14.2948,0,0,1561241691.513234,64292.685419,0,-0.2617188,74.43233,2650659446,177292352,1,1,0.2,-24.41418,-32.20838,0
1561241835.420919,60,0,0,1561241833.855518,4.603061631722978,-74.06477642606116,2651.27,-1,-1,10,65,-9999,1561241835.411007,-27.28975105285645,6.041638374328613,-2.83258056640625,268.7210693359375,276.2647705078125,15,64295.78832862501,-0.37530517578125,0.8762969970703125,0.207427978515625,64295.77919366667,0.0003102582669942312,-0.04807485136589239,0.02294659490044974,64295.76207266667,10.17921447753906,7.00799560546875,-535.6268310546875,64295.76906166667,-2.673310786471429,-1.961827678739194,-1.067332611369283,-0.04155725240707397,0.2310110628604889,0.09610132873058319,0.09703025221824646,0.02218508720397949,0.05462336540222168,1,0.7615815997123718,-0.1092559620738029,0.3677703440189362,-0.5223041772842407,-0.4460445642471313,0.8759167194366455,0.1838867962360382,0,0,0,-1,64292.214797125,3,2,1561241831.877712,1561241546.732582,16,16.27515,0,0,14.2948,0,0,1561241691.513234,64292.685419,0,-0.2617188,74.43233,2650659446,177292352,1,1,0.2,-24.97146,-32.85272,0
1561241835.441337,61,0,0,1561241833.855518,4.603061631722978,-74.06477642606116,2651.27,-1,-1,10,65,-9999,1561241835.435425,-27.32135391235352,6.199934959411621,-2.73760986328125,268.3202209472656,275.8639221191406,15,64295.80859162501,-0.4212799072265625,0.873199462890625,0.221954345703125,64295.799466625,0.09120314732307161,-0.4069288840352355,-0.135614021661233,64295.78222462501,9.980499267578125,7.159423828125,-535.7881469726562,64295.78933562501,-2.673538222510767,-1.962939474903729,-1.067656915628848,0.05326486378908157,-0.2884814143180847,-0.07261977344751358,0.070272296667099,0.0002238750457763672,0.02315390110015869,1,0.7617248296737671,-0.1091435849666595,0.3673348724842072,-0.5224252939224243,-0.4455774426460266,0.8760731220245361,0.1842740774154663,0,0,0,-1,64292.214797125,3,2,1561241831.877712,1561241546.732582,16,16.27515,0,0,14.2948,0,0,1561241691.513234,64292.685419,0,-0.2617188,74.43233,2650659446,177292352,1,1,0.2,-25.52874,-33.54336,0
1561241835.461967,62,0,0,1561241833.855518,4.603061631722978,-74.06477642606116,2651.27,-1,-1,10,65,-9999,1561241835.435425,-27.32135391235352,6.199934959411621,-2.73760986328125,268.3202209472656,275.8639221191406,15,64295.828855625,-0.43463134765625,0.8692779541015625,0.2312774658203125,64295.819730625,0.04766339297747515,-0.3113570872599979,-0.1584327848293589,64295.802366625,10.00480651855469,7.01849365234375,-535.6394653320312,64295.809598625,-2.668505746244334,-1.966511060853172,-1.065897678484921,0.08666196465492249,-0.4199451506137848,-0.1620774865150452,0.02505779266357422,-0.002024054527282715,0.03549635410308838,1,0.762912929058075,-0.1057964265346527,0.3650464713573456,-0.5229838490486145,-0.4463376998901367,0.8752235174179077,0.1864580363035202,0,0,0,-1,64292.214797125,3,2,1561241831.877712,1561241546.732582,16,16.27515,0,0,14.2948,0,0,1561241691.513234,64292.685419,0,-0.2617188,74.43233,2650659446,177292352,1,1,0.2,-26.08602,-33.70395,0
1561241835.483091,63,0,0,1561241833.855518,4.603061631722978,-74.06477642606116,2651.27,-1,-1,10,65,-9999,1561241835.46745,-27.58250045776367,5.900836944580078,-2.5223388671875,267.8382568359375,275.3819580078125,15,64295.849119625,-0.4349365234375,0.8676300048828125,0.2328948974609375,64295.83999462501,-0.1031024173896547,0.0182330660871185,-0.002458896634470161,64295.822507625,9.714813232421875,6.797103881835938,-535.6687622070312,64295.829862625,-2.665196746499193,-1.970046642809522,-1.063565248601308,-0.03454195335507393,-0.171383798122406,-0.0927886962890625,0.01292398571968079,-0.00481492280960083,0.0424494743347168,1,0.7640777826309204,-0.1029520779848099,0.3633467257022858,-0.5230346322059631,-0.4475553035736084,0.8740928769111633,0.1888279765844345,0,0,0,-1,64292.214797125,3,2,1561241831.877712,1561241546.732582,16,16.27515,0,0,14.2948,0,0,1561241691.513234,64292.685419,0,-0.2617188,74.43233,2650659446,177292352,1,1,0.2,-26.6433,-34.33733,0
1561241835.502048,64,0,0,1561241833.855518,4.603061631722978,-74.06477642606116,2651.27,-1,-1,10,65,-9999,1561241835.46745,-27.58250045776367,5.900836944580078,-2.5223388671875,267.8382568359375,275.3819580078125,15,64295.869382625,-0.4063720703125,0.8956146240234375,0.203216552734375,64295.86025862501,-0.2480010175592309,0.2368271925735854,0.09639524618429009,64295.842649625,9.93463134765625,6.76123046875,-535.5154418945312,64295.850126625,-2.669637984875975,-1.973933931394327,-1.062653299896467,-0.191101461648941,0.1671625673770905,0.04218138009309769,0.01261419057846069,-0.006019532680511475,0.04201602935791016,1,0.7646911144256592,-0.1033776178956032,0.3632223904132843,-0.522139847278595,-0.4475507140159607,0.873649537563324,0.1908788681030273,0,0,0,-1,64292.214797125,3,2,1561241831.877712,1561241546.732582,16,16.27515,0,0,14.2948,0,0,1561241691.513234,64292.685419,0,-0.2617188,74.43233,2650659446,177292352,1,1,0.2,-27.20058,-34.79669,0
1561241835.52226,65,0,0,1561241833.855518,4.603061631722978,-74.06477642606116,2651.27,-1,-1,10,65,-9999,1561241835.514898,-27.50970840454102,5.839036464691162,-2.4439697265625,268.3714904785156,275.9151916503906,15,64295.889646625,-0.3891143798828125,0.902374267578125,0.198822021484375,64295.880521625,-0.1637007837816447,0.07515573754258115,0.1203605002016951,64295.862790625,9.639175415039062,6.824066162109375,-535.6214599609375,64295.870389625,-2.680355120347733,-1.979129087745227,-1.062587895068957,-0.2251361310482025,0.1868955343961716,0.1183557733893394,0.04023361206054688,0.02199691534042358,0.009992361068725586,1,0.7650843262672424,-0.1061039194464684,0.3640432953834534,-0.5204425454139709,-0.4466056525707245,0.8736177086830139,0.1932241320610046,0,0,0,-1,64292.214797125,3,2,1561241831.877712,1561241546.732582,16,16.27515,0,0,14.2948,0,0,1561241691.513234,64292.685419,0,-0.2617188,74.43233,2650659446,177292352,1,1,0.2,-27.20058,-34.79669,0
1561241835.556255,66,0,0,1561241833.855518,4.603061631722978,-74.06477642606116,2651.27,-1,-1,10,65,-9999,1561241835.536658,-27.30686950683594,5.956406593322754,-2.413330078125,268.3001098632812,275.8438110351562,15,64295.90991062501,-0.3933563232421875,0.8914642333984375,0.1767578125,64295.900785625,-0.04909803785670083,-0.2360889643194155,0.05792002528369732,64295.88293262501,9.972732543945312,6.92138671875,-535.5311889648438,64295.89065362501,-2.688864882509249,-1.985377029261076,-1.063401302587117,-0.1108742728829384,-0.0910189151763916,0.09564726054668427,0.05562439560890198,0.02836102247238159,0.003097772598266602,1,0.7656410932540894,-0.1079622507095337,0.3636881411075592,-0.5194888710975647,-0.4447388052940369,0.8740132451057434,0.1957242637872696,0,0,0,-1,64292.214797125,3,2,1561241831.877712,1561241546.732582,16,16.27515,0,0,14.2948,0,0,1561241691.513234,64292.685419,0,-0.2617188,74.43233,2650659446,177292352,1,1,0.2,-28.31513,-35.8384,0
1561241835.565826,67,0,0,1561241833.855518,4.603061631722978,-74.06477642606116,2651.27,-1,-1,10,65,-9999,1561241835.536658,-27.30686950683594,5.956406593322754,-2.413330078125,268.3001098632812,275.8438110351562,15,64295.93017362501,-0.437469482421875,0.87213134765625,0.171356201171875,64295.921049625,0.01260074669770992,-0.385568734196146,-0.03050810818351172,64295.90307462501,10.03518676757812,6.956024169921875,-535.44140625,64295.91091762501,-2.692114849738475,-1.99301378307768,-1.063887843020059,-0.01206966862082481,-0.3436261415481567,0.005347996018826962,0.04948705434799194,0.01721471548080444,-0.02218294143676758,1,0.7667754292488098,-0.1073582172393799,0.3615018725395203,-0.5194670557975769,-0.4428434073925018,0.8742495179176331,0.1989406943321228,0,0,0,-1,64292.214797125,3,2,1561241831.877712,1561241546.732582,16,16.27515,0,0,14.2948,0,0,1561241691.513234,64292.685419,0,-0.2617188,74.43233,2650659446,177292352,1,1,0.2,-28.31513,-35.8384,0
1561241835.583109,68,0,0,1561241833.855518,4.603061631722978,-74.06477642606116,2651.27,-1,-1,10,65,-9999,1561241835.565047,-27.31088638305664,6.14532995223999,-2.40740966796875,267.8245849609375,275.3682861328125,15,64295.950437625,-0.4599609375,0.85845947265625,0.170440673828125,64295.94131262501,-0.01971058785989446,-0.2695941939937024,-0.07213597918254029,64295.92321562501,9.70172119140625,6.98077392578125,-535.36181640625,64295.931180625,-2.691429134842065,-2.00014646987694,-1.063303807239209,0.01757850497961044,-0.3711754679679871,-0.06902717053890228,0.004407942295074463,-0.001834511756896973,-0.03095054626464844,1,0.7681870460510254,-0.1050812378525734,0.3587120175361633,-0.5197809934616089,-0.4418773949146271,0.873965859413147,0.2023068070411682,0,0,0,-1,64292.214797125,3,2,1561241831.877712,1561241546.732582,16,16.27515,0,0,14.2948,0,0,1561241691.513234,64292.685419,0,-0.2617188,74.43233,2650659446,177292352,1,1,0.2,-28.87241,-36.31226,0
1561241835.603356,69,0,0,1561241833.855518,4.603061631722978,-74.06477642606116,2651.27,-1,-1,10,65,-9999,1561241835.587169,-27.67345428466797,5.950295925140381,-2.02581787109375,267.5322875976562,275.0759887695312,15,64295.970701625,-0.4598541259765625,0.8541412353515625,0.17950439453125,64295.96157662501,-0.1100018688257229,0.01039431773457927,0.0005813680659642977,64295.943357625,9.797439575195312,6.932098388671875,-535.1591796875,64295.951444625,-2.691361606088568,-2.00558699758336,-1.061958658454043,-0.07938718795776367,-0.1456203758716583,-0.0363890640437603,-0.0181247889995575,-0.01485180854797363,-0.03476214408874512,1,0.769373893737793,-0.1032727435231209,0.3568913042545319,-0.5196413993835449,-0.4418361186981201,0.8733113408088684,0.2052028924226761,0,0,0,-1,64292.214797125,3,2,1561241831.877712,1561241546.732582,16,16.27515,0,0,14.2948,0,0,1561241691.513234,64292.685419,0,-0.2617188,74.43233,2650659446,177292352,1,1,0.2,-29.42969,-35.38437,0
1561241835.636112,70,0,0,1561241833.855518,4.603061631722978,-74.06477642606116,2651.27,-1,-1,10,65,-9999,1561241835.614165,-27.64235687255859,5.963983058929443,-2.086669921875,267.7590637207031,275.3027648925781,15,64295.99093462501,-0.4368743896484375,0.8756561279296875,0.1627349853515625,64295.98184062501,-0.1930243179122891,0.2659722949111946,0.07251148489624147,64295.963498625,9.786727905273438,6.760894775390625,-535.0128173828125,64295.971708625,-2.695737505721664,-2.00934357900278,-1.06104849476457,-0.1517223715782166,0.1576835811138153,0.02177650481462479,-0.01807254552841187,-0.01872634887695312,-0.0276942253112793,1,0.7699602842330933,-0.1037328094244003,0.3567758202552795,-0.5187597870826721,-0.441781610250473,0.8728675842285156,0.2071986645460129,0,0,0,-1,64292.214797125,3,2,1561241831.877712,1561241546.732582,16,16.27515,0,0,14.2948,0,0,1561241691.513234,64292.685419,0,-0.2617188,74.43233,2650659446,177292352,1,1,0.2,-29.98697,-36.23346,0
1561241835.643715,71,0,0,1561241833.855518,4.603061631722978,-74.06477642606116,2651.27,-1,-1,10,65,-9999,1561241835.638035,-27.70451927185059,6.217523574829102,-2.219970703125,268.2127990722656,275.7565002441406,15,64296.011197625,-0.4183502197265625,0.8864288330078125,0.1624298095703125,64296.002073625,-0.1280277409800333,0.2297746093748376,0.1487276931848922,64295.983640625,9.81817626953125,7.375137329101562,-535.2088623046875,64295.991941625,-2.70391905348886,-2.011560883605587,-1.060929250182285,-0.1898561716079712,0.2766296565532684,0.1223281398415565,0.004540473222732544,0.002846717834472656,-0.04548704624176025,1,0.7699457406997681,-0.106275737285614,0.3580666184425354,-0.5173752903938293,-0.44141486287117,0.8728094100952148,0.2082219570875168,0,0,0,-1,64292.214797125,3,2,1561241831.877712,1561241546.732582,16,16.27515,0,0,14.2948,0,0,1561241691.513234,64292.685419,0,-0.2617188,74.43233,2650659446,177292352,1,1,0.2,-30.54425,-36.7957,0
1561241835.665406,72,0,0,1561241833.855518,4.603061631722978,-74.06477642606116,2651.27,-1,-1,10,65,-9999,1561241835.638035,-27.70451927185059,6.217523574829102,-2.219970703125,268.2127990722656,275.7565002441406,15,64296.031461625,-0.425811767578125,0.8837127685546875,0.146392822265625,64296.02233662501,0.005019792338690356,-0.01305241881858735,0.1159718770413536,64296.003782625,9.754608154296875,7.440017700195312,-535.4346923828125,64296.032468625,-2.712936538254884,-2.015358007601017,-1.064471559894853,0.06606560945510864,-0.1230290457606316,0.06215908005833626,0.01970604062080383,0.01514619588851929,-0.05790042877197266,1,0.7695735096931458,-0.1097245812416077,0.358191579580307,-0.517122745513916,-0.4378273487091064,0.8745327591896057,0.20856574177742,0,0,0,-1,64292.214797125,3,2,1561241831.877712,1561241546.732582,16,16.27515,0,0,14.2948,0,0,1561241691.513234,64292.685419,0,-0.2617188,74.43233,2650659446,177292352,1,1,0.2,-31.10153,-35.23674,0
1561241835.684377,73,0,0,1561241833.855518,4.603061631722978,-74.06477642606116,2651.27,-1,-1,10,65,-9999,1561241835.664794,-27.50700378417969,6.348183631896973,-2.16741943359375,268.2730102539062,275.8167114257812,15,64296.051725625,-0.449920654296875,0.865478515625,0.1555633544921875,64296.04260062501,0.1161851962446689,-0.1663959028048048,0.006600644761761392,64296.02392362501,9.856033325195312,7.39697265625,-535.3795776367188,64296.032468625,-2.712936538254884,-2.015358007601017,-1.064471559894853,0.06606560945510864,-0.1230290457606316,0.06215908005833626,0.01970604062080383,0.01514619588851929,-0.05790042877197266,1,0.7695735096931458,-0.1097245812416077,0.358191579580307,-0.517122745513916,-0.4378273487091064,0.8745327591896057,0.20856574177742,0,0,0,-1,64292.214797125,3,2,1561241831.877712,1561241546.732582,16,16.27515,0,0,14.2948,0,0,1561241691.513234,64292.685419,0,-0.2617188,74.43233,2650659446,177292352,1,1,0.2,-31.10153,-35.23674,0
1561241835.717943,74,0,0,1561241833.855518,4.603061631722978,-74.06477642606116,2651.27,-1,-1,10,65,-9999,1561241835.714869,-27.61834526062012,6.257489204406738,-2.17694091796875,267.9698791503906,275.5135803222656,15,64296.071988625,-0.4657135009765625,0.8482513427734375,0.1729736328125,64296.062864625,0.1059804955797033,-0.05244989240467456,-0.0235332892885942,64296.04406562501,9.888412475585938,7.236679077148438,-535.2444458007812,64296.052732625,-2.708731430254792,-2.01480908486981,-1.065498204419829,0.1286738812923431,-0.1444456577301025,-0.02713564410805702,-0.01278984546661377,-0.009551644325256348,-0.05237627029418945,1,0.769540011882782,-0.108526386320591,0.3570985794067383,-0.5181803107261658,-0.4371308088302612,0.8750302195549011,0.2079396098852158,0,0,0,-1,64292.214797125,3,2,1561241831.877712,1561241546.732582,16,16.27515,0,0,14.2948,0,0,1561241691.513234,64293.634648,0,-0.7451172,74.43686,2650659446,177292352,1,1,0.2,-32.21609,-35.20691,0
1561241835.724891,75,0,0,1561241833.855518,4.603061631722978,-74.06477642606116,2651.27,-1,-1,10,65,-9999,1561241835.714869,-27.61834526062012,6.257489204406738,-2.17694091796875,267.9698791503906,275.5135803222656,15,64296.09225262501,-0.45892333984375,0.8480682373046875,0.18975830078125,64296.083127625,0.02860767642963118,0.1183982831105248,0.008349010017398411,64296.06420662501,9.846603393554688,7.24432373046875,-535.4503173828125,64296.07299662501,-2.704337394041931,-2.012103566248249,-1.065970010239721,0.06205036491155624,0.0352383553981781,-0.01049195323139429,-0.0283951461315155,-0.02700716257095337,-0.03360617160797119,1,0.7692191004753113,-0.1076655015349388,0.3569003641605377,-0.5189722776412964,-0.4373183250427246,0.8752585053443909,0.2065797746181488,0,0,0,-1,64292.214797125,3,2,1561241831.877712,1561241546.732582,16,16.27515,0,0,14.2948,0,0,1561241691.513234,64293.634648,0,-0.7451172,74.43686,2650659446,177292352,1,1,0.2,-32.21609,-35.20691,0
1561241835.745172,76,0,0,1561241833.855518,4.603061631722978,-74.06477642606116,2651.27,-1,-1,10,65,-9999,1561241835.739259,-27.49137878417969,6.285748481750488,-2.3048095703125,268.1787719726562,275.7224731445312,15,64296.11251662501,-0.4366607666015625,0.8655853271484375,0.1865081787109375,64296.103391625,-0.02235111208070802,0.1761270934279544,0.0328397057178761,64296.084348625,9.789459228515625,7.213119506835938,-535.1614990234375,64296.09325962501,-2.70324995397765,-2.008991498192991,-1.066345232347879,-0.004514371044933796,0.1538331061601639,0.01376481261104345,-0.02126145362854004,-0.02737164497375488,-0.0153203010559082,1,0.7686620354652405,-0.1081570386886597,0.3577352464199066,-0.5191206932067871,-0.43766188621521,0.8754398822784424,0.2050785422325134,0,0,0,-1,64292.214797125,3,2,1561241831.877712,1561241546.732582,16,16.27515,0,0,14.2948,0,0,1561241691.513234,64293.634648,0,-0.7451172,74.43686,2650659446,177292352,1,1,0.2,-32.77337,-35.47385,0
1561241835.765368,77,0,0,1561241833.855518,4.603061631722978,-74.06477642606116,2651.27,-1,-1,10,65,-9999,1561241835.739259,-27.49137878417969,6.285748481750488,-2.3048095703125,268.1787719726562,275.7224731445312,15,64296.132779625,-0.421844482421875,0.884063720703125,0.18731689453125,64296.123655625,0.01903414494301433,0.1007346008644652,0.07081079022411686,64296.104490625,9.731689453125,7.085281372070312,-535.604736328125,64296.113523625,-2.704339673006823,-2.006587433242431,-1.066862609113119,-0.01685625873506069,0.15346559882164,0.05566219240427017,0.001081705093383789,-0.01010453701019287,-0.0173262357711792,1,0.7680897116661072,-0.1093405336141586,0.3588316738605499,-0.5189629197120667,-0.4377424716949463,0.8756898641586304,0.2038343101739883,0,0,0,-1,64292.214797125,3,2,1561241831.877712,1561241546.732582,16,16.27515,0,0,14.2948,0,0,1561241691.513234,64293.634648,0,-0.7451172,74.43686,2650659446,177292352,1,1,0.2,-33.33065,-36.32336,0
1561241835.800641,78,0,0,1561241833.855518,4.603061631722978,-74.06477642606116,2651.27,-1,-1,10,65,-9999,1561241835.766345,-27.45975875854492,6.237022399902344,-2.34271240234375,268.32373046875,275.867431640625,15,64296.153043625,-0.425628662109375,0.8829193115234375,0.194000244140625,64296.14391862501,0.1182576682049686,-0.09131979377881708,0.04362098075884387,64296.124631625,9.85040283203125,7.173919677734375,-535.667724609375,64296.133787625,-2.704516968715295,-2.004944517706337,-1.068222387155178,0.06580959260463715,-0.006869745440781116,0.05875226110219955,0.0151519775390625,0.007718086242675781,-0.0152970552444458,1,0.7675687074661255,-0.1102055609226227,0.3592199683189392,-0.5192822217941284,-0.4369964301586151,0.8763456344604492,0.2026139795780182,0,0,0,-1,64292.214797125,3,2,1561241831.877712,1561241546.732582,16,16.27515,0,0,14.2948,0,0,1561241691.513234,64293.634648,0,-0.7451172,74.43686,2650659446,177292352,1,1,0.2,-33.88792,-36.47368,0
1561241835.806007,79,0,0,1561241833.855518,4.603061631722978,-74.06477642606116,2651.27,-1,-1,10,65,-9999,1561241835.766345,-27.45975875854492,6.237022399902344,-2.34271240234375,268.32373046875,275.867431640625,15,64296.173307625,-0.452117919921875,0.862823486328125,0.1959991455078125,64296.16418262501,0.1347666038023698,-0.1605987337439204,0.006182262154509944,64296.144773625,9.986480712890625,7.15826416015625,-535.55224609375,64296.174314625,-2.695796827427721,-2.002346221429085,-1.070941394447823,0.1132394298911095,-0.1475866585969925,-0.01383539009839296,-0.002510607242584229,-0.002514779567718506,-0.006617546081542969,1,0.767147958278656,-0.1082786172628403,0.3573678433895111,-0.5215822458267212,-0.4353556036949158,0.877652108669281,0.2004804909229279,0,0,0,-1,64292.214797125,3,2,1561241831.877712,1561241546.732582,16,16.27515,0,0,14.2948,0,0,1561241691.513234,64293.634648,0,-0.7451172,74.43686,2650659446,177292352,1,1,0.2,-34.4452,-36.64901,0
1561241835.826134,80,0,0,1561241833.855518,4.603061631722978,-74.06477642606116,2651.27,-1,-1,10,65,-9999,1561241835.810572,-27.44459915161133,6.303329467773438,-2.4501953125,268.1340942382812,275.6777954101562,15,64296.193570625,-0.4544525146484375,0.85601806640625,0.2027435302734375,64296.184446625,0.09883123963338557,-0.08954293269951621,-0.0413631527866747,64296.16491462501,10.00784301757812,7.239532470703125,-535.439208984375,64296.174314625,-2.695796827427721,-2.002346221429085,-1.070941394447823,0.1132394298911095,-0.1475866585969925,-0.01383539009839296,-0.002510607242584229,-0.002514779567718506,-0.006617546081542969,1,0.767147958278656,-0.1082786172628403,0.3573678433895111,-0.5215822458267212,-0.4353556036949158,0.877652108669281,0.2004804909229279,0,0,0,-1,64292.214797125,3,2,1561241831.877712,1561241546.732582,16,16.27515,0,0,14.2948,0,0,1561241691.513234,64293.634648,0,-0.7451172,74.43686,2650659446,177292352,1,1,0.2,-35.00248,-37.21137,0
1561241835.848385,81,0,0,1561241833.855518,4.603061631722978,-74.06477642606116,2651.27,-1,-1,10,65,-9999,1561241835.840932,-27.37932968139648,6.556647777557373,-2.2288818359375,267.8558959960938,275.3995971679688,15,64296.21383462501,-0.4462890625,0.8658905029296875,0.214935302734375,64296.204709625,0.03369484674390054,0.1131872758055667,-0.04422471937796484,64296.18505662501,9.964813232421875,7.227066040039062,-535.2890625,64296.19457862501,-2.691312069139302,-2.000153733019459,-1.070873114444389,0.07128238677978516,7.684389129281044e-05,-0.06558620184659958,-0.0186040997505188,-0.02160131931304932,0.003193140029907227,1,0.7670086026191711,-0.1071119979023933,0.3570529818534851,-0.5222432017326355,-0.4358483850955963,0.8776193857192993,0.1995503604412079,0,0,0,-1,64292.214797125,3,2,1561241831.877712,1561241546.732582,16,16.27515,0,0,14.2948,0,0,1561241691.513234,64293.634648,0,-0.7451172,74.43686,2650659446,177292352,1,1,0.2,-35.16899,-35.16899,0
1561241835.878614,82,0,0,1561241833.855518,4.603061631722978,-74.06477642606116,2651.27,-1,-1,10,65,-9999,1561241835.867445,-27.31149291992188,6.177587985992432,-2.2894287109375,268.089111328125,275.6328125,15,64296.23409862501,-0.4248046875,0.8748779296875,0.215667724609375,64296.224973625,-0.009028382411477626,0.1875893387596554,0.05305682681710362,64296.205198625,9.825836181640625,7.202590942382812,-535.45068359375,64296.21484162501,-2.689379196160269,-1.996394108330892,-1.070452569384338,-0.005667253397405148,0.1803544610738754,0.01077008806169033,-0.009357303380966187,-0.01152718067169189,0.01687252521514893,1,0.7665060758590698,-0.1072371378540993,0.358080267906189,-0.5222520232200623,-0.4369317889213562,0.8774176836013794,0.1980627328157425,0,0,0,-1,64292.214797125,3,2,1561241831.877712,1561241546.732582,16,16.27515,0,0,14.2948,0,0,1561241691.513234,64293.634648,0,-0.7451172,74.43686,2650659446,177292352,1,1,0.2,-31.63886,-35.56944,0
1561241835.886968,83,0,0,1561241833.855518,4.603061631722978,-74.06477642606116,2651.27,-1,-1,10,65,-9999,1561241835.867445,-27.31149291992188,6.177587985992432,-2.2894287109375,268.089111328125,275.6328125,15,64296.254362625,-0.4205780029296875,0.88287353515625,0.20648193359375,64296.245237625,0.04526361851920475,0.02731071697876259,0.04749082013883801,64296.225339625,9.863479614257812,7.307235717773438,-535.6021728515625,64296.235105625,-2.690407520018261,-1.993894592565151,-1.071257756807805,0.006784622091799974,0.119574747979641,0.05800364539027214,0.01197642087936401,-0.002925753593444824,0.01898789405822754,1,0.765876293182373,-0.10850540548563,0.3591325879096985,-0.5221914052963257,-0.4367810785770416,0.8778036832809448,0.1966798454523087,0,0,0,-1,64292.214797125,3,2,1561241831.877712,1561241546.732582,16,16.27515,0,0,14.2948,0,0,1561241691.513234,64293.634648,0,-0.7451172,74.43686,2650659446,177292352,1,1,0.2,-31.63886,-35.56944,0
1561241835.907175,84,0,0,1561241833.855518,4.603061631722978,-74.06477642606116,2651.27,-1,-1,10,65,-9999,1561241835.891989,-27.55041122436523,6.401617050170898,-2.42510986328125,268.079833984375,275.62353515625,15,64296.274625625,-0.434173583984375,0.8813323974609375,0.2080535888671875,64296.26550062501,0.1215610532211029,-0.1396106275091149,0.01158661495460774,64296.245481625,9.94122314453125,7.39666748046875,-535.6195068359375,64296.255369625,-2.689433013969615,-1.992606301293495,-1.072377627996304,0.08641580492258072,-0.07940652966499329,0.02386192046105862,0.01555898785591125,0.004533946514129639,0.01076757907867432,1,0.7655224800109863,-0.1087774336338043,0.359129399061203,-0.5226556062698364,-0.4361369907855988,0.8783395886421204,0.1957143992185593,0,0,0,-1,64292.214797125,3,2,1561241831.877712,1561241546.732582,16,16.27515,0,0,14.2948,0,0,1561241691.513234,64293.634648,0,-0.7451172,74.43686,2650659446,177292352,1,1,0.2,-25.45622,-35.57624,0
1561241835.927457,85,0,0,1561241833.855518,4.603061631722978,-74.06477642606116,2651.27,-1,-1,10,65,-9999,1561241835.917532,-27.51531791687012,6.307807922363281,-2.39447021484375,267.8096008300781,275.3533020019531,15,64296.29485862501,-0.4359893798828125,0.8714141845703125,0.212310791015625,64296.285764625,0.1236540315217961,-0.1263909621740706,-0.01543861115529835,64296.265592625,9.8389892578125,7.39788818359375,-535.5983276367188,64296.275632625,-2.685122106533792,-1.991588946173625,-1.073422006971311,0.1319206953048706,-0.1638612300157547,-0.004629641771316528,0.001324594020843506,0.00249403715133667,0.01315784454345703,1,0.7654100060462952,-0.1076818332076073,0.3581648170948029,-0.5237079858779907,-0.4354982078075409,0.8788383603096008,0.1948957145214081,0,0,0,-1,64292.214797125,3,2,1561241831.877712,1561241546.732582,16,16.27515,0,0,14.2948,0,0,1561241691.513234,64293.634648,0,-0.7451172,74.43686,2650659446,177292352,1,1,0.2,-22.57928,-23.7257,0
1561241835.955611,86,0,0,1561241833.855518,4.603061631722978,-74.06477642606116,2651.27,-1,-1,10,65,-9999,1561241835.943061,-27.63085556030273,6.34242582321167,-2.326416015625,267.6829833984375,275.2266845703125,15,64296.315122625,-0.437469482421875,0.8719329833984375,0.2244110107421875,64296.305997625,0.04862639202764781,0.003074885794605488,-0.003839745659676246,64296.305875625,9.875106811523438,7.325485229492188,-535.5103759765625,64296.295865625,-2.680395271688097,-1.990057560873624,-1.074004350202117,0.08802994340658188,-0.07357527315616608,-0.02353675477206707,-0.0006605088710784912,-0.007701873779296875,0.01829051971435547,1,0.7652984261512756,-0.1064353063702583,0.3573854565620422,-0.5246575474739075,-0.435328871011734,0.8791160583496094,0.1940203160047531,0,0,0,-1,64292.214797125,3,2,1561241831.877712,1561241546.732582,16,16.27515,0,0,14.2948,0,0,1561241691.513234,64293.634648,0,-0.7451172,74.43686,2650659446,177292352,1,1,0.2,-22.57928,-23.89024,0
1561241835.968325,87,0,0,1561241833.855518,4.603061631722978,-74.06477642606116,2651.27,-1,-1,10,65,-9999,1561241835.943061,-27.63085556030273,6.34242582321167,-2.326416015625,267.6829833984375,275.2266845703125,15,64296.335386625,-0.431610107421875,0.86700439453125,0.2128753662109375,64296.32626162501,-0.01805569955851922,0.04924264750389214,0.03647199112863517,64296.326017625,9.747177124023438,7.422988891601562,-535.2705688476562,64296.316129625,-2.678663965613708,-1.988756613940889,-1.07427528244711,0.003646086901426315,0.03894834220409393,0.0237647145986557,-0.002106726169586182,-0.007312178611755371,0.03105413913726807,1,0.7651158571243286,-0.1061893776059151,0.3573695719242096,-0.5249841809272766,-0.4353627562522888,0.8792451620101929,0.193356916308403,0,0,0,-1,64292.214797125,3,2,1561241831.877712,1561241546.732582,16,16.27515,0,0,14.2948,0,0,1561241691.513234,64293.634648,0,-0.7451172,74.43686,2650659446,177292352,1,1,0.2,-21.47747,-24.48168,0
1561241835.988182,88,0,0,1561241833.855518,4.603061631722978,-74.06477642606116,2651.27,-1,-1,10,65,-9999,1561241835.968547,-27.54832077026367,6.212177276611328,-2.27972412109375,267.7501220703125,275.2938232421875,15,64296.355649625,-0.43804931640625,0.879119873046875,0.2007293701171875,64296.34652562501,-0.0163408901326172,-0.006141782105940739,0.02771258798725555,64296.34615862501,9.894134521484375,7.294342041015625,-535.4239501953125,64296.336393625,-2.68002055431972,-1.98924675287845,-1.07471160624961,-0.03155530989170074,0.01724065095186234,0.02785346657037735,0.003307312726974487,-0.01244848966598511,0.01946091651916504,1,0.7650635242462158,-0.1067005395889282,0.3574429452419281,-0.5249068737030029,-0.4349174201488495,0.8794529438018799,0.1934144049882889,0,0,0,-1,64292.214797125,3,2,1561241831.877712,1561241546.732582,16,16.27515,0,0,14.2948,0,0,1561241691.513234,64293.634648,0,-0.7451172,74.43686,2650659446,177292352,1,1,0.2,-20.48894,-24.76854,0
1561241836.008465,89,0,0,1561241833.855518,4.603061631722978,-74.06477642606116,2651.27,-1,-1,10,65,-9999,1561241835.992472,-27.46113014221191,6.251742362976074,-2.29693603515625,267.7443542480469,275.2880554199219,15,64296.375913625,-0.4363555908203125,0.8877716064453125,0.1928863525390625,64296.366788625,0.04870708580867721,-0.03894686672964581,0.003024818366111999,64296.36630062501,9.901535034179688,6.983230590820312,-535.5289916992188,64296.356656625,-2.681085240647091,-1.990443112272083,-1.075034749401597,0.01412482745945454,-0.03499219566583633,0.0163816325366497,-0.003623098134994507,-0.0004867911338806152,0.006910443305969238,1,0.765170156955719,-0.1068832874298096,0.3571942746639252,-0.5248835682868958,-0.4344262480735779,0.8796066641807556,0.1938188076019287,0,0,0,-1,64292.214797125,3,2,1561241831.877712,1561241546.732582,16,16.27515,0,0,14.2948,0,0,1561241691.513234,64293.634648,0,-0.7451172,74.43686,2650659446,177292352,1,1,0.2,-20.48894,-24.76854,0
1561241836.035798,90,0,0,1561241833.855518,4.603061631722978,-74.06477642606116,2651.27,-1,-1,10,65,-9999,1561241836.018854,-27.18869781494141,6.171419143676758,-2.4364013671875,267.65185546875,275.195556640625,15,64296.39617762501,-0.4341278076171875,0.8802947998046875,0.193267822265625,64296.387052625,0.08225971975036751,-0.03601419373725055,0.01170432667478924,64296.38644262501,9.8917236328125,7.187850952148438,-535.3109741210938,64296.37692062501,-2.67946280493658,-1.989945331929976,-1.075438017053446,0.07002084702253342,-0.04554124176502228,-0.0004764418117702007,-0.002157092094421387,0.007973134517669678,-0.0005717277526855469,1,0.7651050686836243,-0.106504887342453,0.3568707704544067,-0.5252752304077148,-0.4341984987258911,0.8797984719276428,0.1934581100940704,0,0,0,-1,64292.214797125,3,2,1561241831.877712,1561241546.732582,16,16.27515,0,0,14.2948,0,0,1561241691.513234,64293.634648,0,-0.7451172,74.43686,2650659446,177292352,1,1,0.2,-17.47391,-22.27509,0
1561241836.049003,91,0,0,1561241833.855518,4.603061631722978,-74.06477642606116,2651.27,-1,-1,10,65,-9999,1561241836.043224,-27.25413513183594,6.156918048858643,-2.191162109375,267.5719604492188,275.1156616210938,15,64296.41644062501,-0.432373046875,0.8722076416015625,0.1897125244140625,64296.407316625,0.05251221037418242,-0.0153493952587807,-0.009513077729872046,64296.406583625,9.772476196289062,7.246429443359375,-535.2891845703125,64296.39718462501,-2.676749252227459,-1.988462101428569,-1.076133340709658,0.06896810233592987,-0.03799038007855415,0.008043277077376842,-0.0002016127109527588,0.0001660585403442383,0.000701904296875,1,0.7648767828941345,-0.1060493141412735,0.3565732538700104,-0.525901734828949,-0.4339261651039124,0.8801287412643433,0.1925659030675888,0,0,0,-1,64292.214797125,3,2,1561241831.877712,1561241546.732582,16,16.27515,0,0,14.2948,0,0,1561241691.513234,64293.634648,0,-0.7451172,74.43686,2650659446,177292352,1,1,0.2,-17.47391,-22.27509,0
1561241836.069163,92,0,0,1561241833.855518,4.603061631722978,-74.06477642606116,2651.27,-1,-1,10,65,-9999,1561241836.043224,-27.25413513183594,6.156918048858643,-2.191162109375,267.5719604492188,275.1156616210938,15,64296.436704625,-0.434173583984375,0.8726043701171875,0.19549560546875,64296.427579625,0.01050111049429144,0.03210813536643133,-0.03304929649566533,64296.426725625,9.938095092773438,7.146240234375,-535.6212158203125,64296.417447625,-2.674729528381524,-1.987192032157733,-1.076266164452165,0.02855463325977325,-0.009287629276514053,-0.03410151228308678,0.00169062614440918,-0.007984161376953125,-0.002254843711853027,1,0.7647367119789124,-0.10564786195755,0.356498658657074,-0.5262367725372314,-0.4340636432170868,0.8801918029785156,0.1919674128293991,0,0,0,-1,64292.214797125,3,2,1561241831.877712,1561241546.732582,16,16.27515,0,0,14.2948,0,0,1561241691.513234,64293.634648,0,-0.7451172,74.43686,2650659446,177292352,1,1,0.2,-17.47391,-22.57268,0
1561241836.089462,93,0,0,1561241833.855518,4.603061631722978,-74.06477642606116,2651.27,-1,-1,10,65,-9999,1561241836.07003,-27.51947784423828,6.371027946472168,-2.32733154296875,267.5948791503906,275.1385803222656,15,64296.456968625,-0.4305877685546875,0.8761444091796875,0.189178466796875,64296.44784362501,-0.0266289477397023,0.07023315058367868,0.02033403387108201,64296.446866625,9.97943115234375,7.410598754882812,-535.5927734375,64296.437711625,-2.673987288203648,-1.986085803870527,-1.075755968798766,-0.01944458484649658,0.05062843486666679,-0.00780120026320219,0.0005127787590026855,-0.007345199584960938,0.003827452659606934,1,0.7646574378013611,-0.1055134534835815,0.3568381369113922,-0.5261487364768982,-0.4346863329410553,0.8799495100975037,0.1916681677103043,0,0,0,-1,64292.214797125,3,2,1561241831.877712,1561241546.732582,16,16.27515,0,0,14.2948,0,0,1561241691.513234,64293.634648,0,-0.7451172,74.43686,2650659446,177292352,1,1,0.2,-17.47391,-23.06007,0
1561241836.116063,94,0,0,1561241833.855518,4.603061631722978,-74.06477642606116,2651.27,-1,-1,10,65,-9999,1561241836.093766,-27.19329452514648,6.353612899780273,-2.32659912109375,267.6854248046875,275.2291259765625,15,64296.477231625,-0.4207763671875,0.8812713623046875,0.1773834228515625,64296.46810762501,0.01480318091920545,-0.008193215093628777,0.004672516132544023,64296.467008625,10.149169921875,7.337005615234375,-535.4122314453125,64296.457975625,-2.675225923938357,-1.986047817624883,-1.075802982576024,-0.01542134769260883,0.03956806287169456,0.02203232795000076,0.004068195819854736,-0.003827452659606934,-0.002456545829772949,1,0.7645779252052307,-0.1060100197792053,0.3571682274341583,-0.5259405374526978,-0.4346559643745422,0.8799718618392944,0.1916350573301315,0,0,0,-1,64292.214797125,3,2,1561241831.877712,1561241546.732582,16,16.27515,0,0,14.2948,0,0,1561241691.513234,64293.634648,0,-0.7451172,74.43686,2650659446,177292352,1,1,0.2,-17.47391,-23.73536,0
1561241836.130156,95,0,0,1561241833.855518,4.603061631722978,-74.06477642606116,2651.27,-1,-1,10,65,-9999,1561241836.120129,-27.41535568237305,6.26579475402832,-2.16558837890625,267.5999755859375,275.1436767578125,15,64296.497495625,-0.434814453125,0.876434326171875,0.175994873046875,64296.488370625,0.07705084297428152,-0.1116610181848423,-0.0383383344205627,64296.48715062501,10.08146667480469,7.182571411132812,-535.166015625,64296.478238625,-2.674779818708341,-1.986005533580989,-1.0759169745459,0.04264195635914803,-0.07769491523504257,-0.02248081006109715,0.01379546523094177,0.001245319843292236,-0.01419258117675781,1,0.7645763158798218,-0.1058823242783546,0.3570418655872345,-0.5260542035102844,-0.4345718324184418,0.8800260424613953,0.1915760189294815,0,0,0,-1,64292.214797125,3,2,1561241831.877712,1561241546.732582,16,16.27515,0,0,14.2948,0,0,1561241691.513234,64293.634648,0,-0.7451172,74.43686,2650659446,177292352,1,1,0.2,-17.47391,-24.60443,0
1561241836.150292,96,0,0,1561241833.855518,4.603061631722978,-74.06477642606116,2651.27,-1,-1,10,65,-9999,1561241836.144519,-27.49836730957031,6.278935432434082,-1.9862060546875,267.4122924804688,274.9559936523438,15,64296.51775962501,-0.4421844482421875,0.871826171875,0.1795654296875,64296.508634625,0.0792615329951563,-0.07240362687209326,-0.06602801922244356,64296.50729162501,10.04147338867188,7.237091064453125,-535.1698608398438,64296.49850262501,-2.671288700469374,-1.985205643748615,-1.075731218018566,0.08993037790060043,-0.124419279396534,-0.05899035185575485,6.031990051269531e-05,-0.00350344181060791,-0.01529932022094727,1,0.7646461129188538,-0.1047064810991287,0.3564698398113251,-0.5265758633613586,-0.4348747432231903,0.8799377679824829,0.191294252872467,0,0,0,-1,64292.214797125,3,2,1561241831.877712,1561241546.732582,16,16.27515,0,0,14.2948,0,0,1561241691.513234,64293.634648,0,-0.7451172,74.43686,2650659446,177292352,1,1,0.2,-17.47391,-24.60443,0
1561241836.170571,97,0,0,1561241833.855518,4.603061631722978,-74.06477642606116,2651.27,-1,-1,10,65,-9999,1561241836.144519,-27.49836730957031,6.278935432434082,-1.9862060546875,267.4122924804688,274.9559936523438,15,64296.53802262501,-0.4322357177734375,0.871185302734375,0.1933746337890625,64296.528898625,0.02207946964951994,0.06170464350880892,-0.04353256381065324,64296.527433625,9.951431274414062,7.149978637695312,-535.284912109375,64296.51876662501,-2.667312850413155,-1.983210114388805,-1.07510371970448,0.0484982468187809,-0.005075573921203613,-0.06216377392411232,-0.006423264741897583,-0.007813334465026855,-0.01108181476593018,1,0.764593780040741,-0.1035373359918594,0.3563236892223358,-0.5269817113876343,-0.4357611835002899,0.8796395063400269,0.1906472593545914,0,0,0,-1,64292.214797125,3,2,1561241831.877712,1561241546.732582,16,16.27515,0,0,14.2948,0,0,1561241691.513234,64293.634648,0,-0.7451172,74.43686,2650659446,177292352,1,1,0.2,-17.47391,-25.51667,0
1561241836.194907,98,0,0,1561241833.855518,4.603061631722978,-74.06477642606116,2651.27,-1,-1,10,65,-9999,1561241836.173135,-27.33415222167969,6.086318492889404,-2.18463134765625,267.4463806152344,274.9900817871094,15,64296.558286625,-0.4150390625,0.872283935546875,0.19134521484375,64296.54916162501,-0.0375955787925396,0.1104127945819222,0.004759068867971599,64296.547574625,10.30537414550781,7.307296752929688,-535.41748046875,64296.539029625,-2.665809489068768,-1.980894416650289,-1.074409697618623,-0.01037332601845264,0.08739710599184036,-0.02625530958175659,0.004525840282440186,-0.008123874664306641,0.003493547439575195,1,0.7643646597862244,-0.1033790856599808,0.3569661378860474,-0.5269104838371277,-0.4367615580558777,0.8793091773986816,0.1898811310529709,0,0,0,-1,64292.214797125,3,2,1561241831.877712,1561241546.732582,16,16.27515,0,0,14.2948,0,0,1561241691.513234,64293.634648,0,-0.7451172,74.43686,2650659446,177292352,1,1,0.2,-17.47391,-22.2157,0
1561241836.211122,99,0,0,1561241833.855518,4.603061631722978,-74.06477642606116,2651.27,-1,-1,10,65,-9999,1561241836.195231,-27.41339683532715,6.252306461334229,-2.15435791015625,267.6076354980469,275.1513366699219,15,64296.578550625,-0.41717529296875,0.881683349609375,0.182525634765625,64296.56942562501,-0.04158952147933143,0.07185634726808197,0.03844779034136495,64296.567716625,9.989822387695312,7.4322509765625,-535.3074340820312,64296.559293625,-2.667341476763955,-1.98024303556916,-1.074163922720125,-0.05946816504001617,0.09582573920488358,0.02495248429477215,0.02204418182373047,-0.006908178329467773,0.001662611961364746,1,0.7642062902450562,-0.10406743735075,0.3576727509498596,-0.5265253186225891,-0.4370832443237305,0.8791921138763428,0.1896825730800629,0,0,0,-1,64292.214797125,3,2,1561241831.877712,1561241546.732582,16,16.27515,0,0,14.2948,0,0,1561241691.513234,64293.634648,0,-0.7451172,74.43686,2650659446,177292352,1,1,0.2,-17.47391,-23.077,0
1561241836.231399,100,0,0,1561241833.855518,4.603061631722978,-74.06477642606116,2651.27,-1,-1,10,65,-9999,1561241836.222011,-27.28721618652344,6.265661239624023,-2.1175537109375,267.6494140625,275.193115234375,15,64296.59878362501,-0.4254913330078125,0.893341064453125,0.1730194091796875,64296.589658625,0.0555732477311195,-0.06428205081178762,0.008069111786831083,64296.587858625,10.06967163085938,7.15191650390625,-535.5092163085938,64296.579557625,-2.669331297889684,-1.980803106486488,-1.074479424847899,0.001745388843119144,0.004507544916123152,0.02743055671453476,0.01954704523086548,0.002340972423553467,-0.007291078567504883,1,0.7641543745994568,-0.1047684326767921,0.3579127788543701,-0.5262984037399292,-0.4367223083972931,0.8793423771858215,0.1898166686296463,0,0,0,-1,64292.214797125,3,2,1561241831.877712,1561241546.732582,16,16.27515,0,0,14.2948,0,0,1561241691.513234,64293.634648,0,-0.7451172,74.43686,2650659446,177292352,1,1,0.2,-17.47391,-24.04933,0
1561241836.251644,101,0,0,1561241833.855518,4.603061631722978,-74.06477642606116,2651.27,-1,-1,10,65,-9999,1561241836.24632,-27.14652252197266,6.000973224639893,-2.4278564453125,267.4608764648438,275.0045776367188,15,64296.619047625,-0.440887451171875,0.883697509765625,0.175628662109375,64296.609922625,0.111011473194972,-0.1085946545057251,-0.01752093681163131,64296.607999625,10.14254760742188,7.462997436523438,-535.6737060546875,64296.599790625,-2.667383258700025,-1.980380271368069,-1.074985333921135,0.09260445833206177,-0.1098616421222687,-0.01341940462589264,0.01090341806411743,0.01375788450241089,-0.01643550395965576,1,0.7641032934188843,-0.1042766720056534,0.3574499785900116,-0.5267846584320068,-0.4363947212696075,0.8795831799507141,0.1894549280405045,0,0,0,-1,64292.214797125,3,2,1561241831.877712,1561241546.732582,16,16.27515,0,0,14.2948,0,0,1561241691.513234,64293.634648,0,-0.7451172,74.43686,2650659446,177292352,1,1,0.2,-17.47391,-24.60039,0
1561241836.276034,102,0,0,1561241833.855518,4.603061631722978,-74.06477642606116,2651.27,-1,-1,10,65,-9999,1561241836.272962,-27.44836044311523,6.012758255004883,-2.3262939453125,267.3502502441406,274.8939514160156,15,64296.639310625,-0.440032958984375,0.871551513671875,0.18914794921875,64296.63018562501,0.0920833220633428,-0.02735971914282005,-0.03666001030159476,64296.628110625,9.922988891601562,6.913604736328125,-535.49560546875,64296.620054625,-2.663003313374924,-1.978738597794603,-1.075406811956647,0.1018088757991791,-0.08746658265590668,-0.03011236526072025,-0.004522651433944702,0.003913938999176025,-0.0129624605178833,1,0.76397305727005,-0.1031540259718895,0.3568293154239655,-0.5276147127151489,-0.4363647997379303,0.8797836303710938,0.1885911673307419,0,0,0,-1,64292.214797125,3,2,1561241831.877712,1561241546.732582,16,16.27515,0,0,14.2948,0,0,1561241691.513234,64293.634648,0,-0.7451172,74.43686,2650659446,177292352,1,1,0.2,-17.47391,-25.503,0
1561241836.292173,103,0,0,1561241833.855518,4.603061631722978,-74.06477642606116,2651.27,-1,-1,10,65,-9999,1561241836.272962,-27.44836044311523,6.012758255004883,-2.3262939453125,267.3502502441406,274.8939514160156,15,64296.659574625,-0.428924560546875,0.867919921875,0.198394775390625,64296.65044962501,0.01997131133061322,0.08881535708970656,-0.01647378187101215,64296.648252625,9.760955810546875,7.040847778320312,-535.5269775390625,64296.640317625,-2.659138387115239,-1.976042411117742,-1.07541734560662,0.05421978235244751,0.02750953286886215,-0.03762780502438545,-0.003169625997543335,-0.008237123489379883,0.001737594604492188,1,0.7636890411376953,-0.1023925319314003,0.3568366169929504,-0.5281690359115601,-0.4368633031845093,0.8797886371612549,0.187410369515419,0,0,0,-1,64292.214797125,3,2,1561241831.877712,1561241546.732582,16,16.27515,0,0,14.2948,0,0,1561241691.513234,64293.634648,0,-0.7451172,74.43686,2650659446,177292352,1,1,0.2,-17.47391,-26.27325,0
1561241836.312481,104,0,0,1561241833.855518,4.603061631722978,-74.06477642606116,2651.27,-1,-1,10,65,-9999,1561241836.297388,-27.46369934082031,5.998076438903809,-2.24603271484375,267.4473571777344,274.9910583496094,15,64296.679838625,-0.4155426025390625,0.8730010986328125,0.1929168701171875,64296.670713625,-0.02541294838597212,0.08019470464112007,0.01485404729602596,64296.668393625,9.95806884765625,7.284652709960938,-535.4454956054688,64296.660581625,-2.658087274614084,-1.973617482619193,-1.07523910436291,-0.01107826456427574,0.1012897491455078,-0.007154052145779133,0.008536010980606079,-0.01178395748138428,0.01198291778564453,1,0.763336718082428,-0.1025816202163696,0.3575243949890137,-0.528176486492157,-0.4374606013298035,0.8797038793563843,0.1864118725061417,0,0,0,-1,64292.214797125,3,2,1561241831.877712,1561241546.732582,16,16.27515,0,0,14.2948,0,0,1561241691.513234,64293.634648,0,-0.7451172,74.43686,2650659446,177292352,1,1,0.2,-17.47391,-26.27325,0
1561241836.333134,105,0,0,1561241833.855518,4.603061631722978,-74.06477642606116,2651.27,-1,-1,10,65,-9999,1561241836.32277,-27.30642318725586,6.199613571166992,-2.22955322265625,267.517822265625,275.0615234375,15,64296.70010162501,-0.41796875,0.88836669921875,0.18548583984375,64296.690976625,0.005729524769196473,-0.03216725754263108,0.02855148373063051,64296.68853562501,10.031982421875,6.917373657226562,-535.501220703125,64296.68084562501,-2.659158449784941,-1.973151545547918,-1.07528951222406,-0.02340097725391388,0.02086414769291878,0.02181554771959782,0.02196398377418518,-0.006726741790771484,0.00672614574432373,1,0.7631906867027283,-0.1031276062130928,0.3579738140106201,-0.5279767513275146,-0.4375066161155701,0.879727840423584,0.1861906498670578,0,0,0,-1,64292.214797125,3,2,1561241831.877712,1561241546.732582,16,16.27515,0,0,14.2948,0,0,1561241691.513234,64293.634648,0,-0.7451172,74.43686,2650659446,177292352,1,1,0.2,-17.47391,-26.86869,0
1561241836.356762,106,0,0,1561241833.855518,4.603061631722978,-74.06477642606116,2651.27,-1,-1,10,65,-9999,1561241836.347859,-27.25177001953125,6.032314777374268,-2.29736328125,267.3770141601562,274.9207153320312,15,64296.72036562501,-0.4332275390625,0.894989013671875,0.1795806884765625,64296.711240625,0.07415811739823745,-0.1145119321317721,0.03385410377708727,64296.70867762501,9.889678955078125,6.70428466796875,-535.3580932617188,64296.70110862501,-2.659411619400261,-1.974145262213406,-1.075805158257438,0.03453076630830765,-0.09270502626895905,0.02872405201196671,0.01893514394760132,0.008393764495849609,-0.0009614229202270508,1,0.763277530670166,-0.1031067371368408,0.3575465381145477,-0.5281447172164917,-0.4369039237499237,0.8799729347229004,0.1864471733570099,0,0,0,-1,64292.214797125,3,2,1561241831.877712,1561241546.732582,16,16.27515,0,0,14.2948,0,0,1561241691.513234,64293.634648,0,-0.7451172,74.43686,2650659446,177292352,1,1,0.2,-17.47391,-27.6379,0
1561241836.373446,107,0,0,1561241833.855518,4.603061631722978,-74.06477642606116,2651.27,-1,-1,10,65,-9999,1561241836.347859,-27.25177001953125,6.032314777374268,-2.29736328125,267.3770141601562,274.9207153320312,15,64296.740629625,-0.448577880859375,0.8873748779296875,0.18109130859375,64296.731504625,0.1120168165064769,-0.1121406534971656,0.01354350572359797,64296.728818625,10.00224304199219,7.146575927734375,-535.4014892578125,64296.741636625,-2.653261177323188,-1.973424440915509,-1.077920731112062,0.1022933050990105,-0.081548772752285,0.00667334720492363,-0.004098027944564819,0.01250255107879639,-0.005577445030212402,1,0.7631446719169617,-0.1015450358390808,0.3557225465774536,-0.5298681855201721,-0.4353245496749878,0.8809759020805359,0.1854023635387421,0,0,0,-1,64292.214797125,3,2,1561241831.877712,1561241546.732582,16,16.27515,0,0,14.2948,0,0,1561241691.513234,64293.634648,0,-0.7451172,74.43686,2650659446,177292352,1,1,0.2,-17.47391,-28.30688,0
1561241836.393461,108,0,0,1561241833.855518,4.603061631722978,-74.06477642606116,2651.27,-1,-1,10,65,-9999,1561241836.373411,-27.40144348144531,6.327113628387451,-2.0789794921875,267.1683349609375,274.7120361328125,15,64296.760892625,-0.45635986328125,0.874786376953125,0.184600830078125,64296.75176862501,0.09033016311774364,-0.01416162541260536,0.0102374575463736,64296.748960625,10.01544189453125,7.43304443359375,-534.9586181640625,64296.741636625,-2.653261177323188,-1.973424440915509,-1.077920731112062,0.1022933050990105,-0.081548772752285,0.00667334720492363,-0.004098027944564819,0.01250255107879639,-0.005577445030212402,1,0.7631446719169617,-0.1015450358390808,0.3557225465774536,-0.5298681855201721,-0.4353245496749878,0.8809759020805359,0.1854023635387421,0,0,0,-1,64292.214797125,3,2,1561241831.877712,1561241546.732582,16,16.27515,0,0,14.2948,0,0,1561241691.513234,64293.634648,0,-0.7451172,74.43686,2650659446,177292352,1,1,0.2,-17.47391,-29.04208,0
1561241836.413713,109,0,0,1561241833.855518,4.603061631722978,-74.06477642606116,2651.27,-1,-1,10,65,-9999,1561241836.397705,-27.26979827880859,6.271685600280762,-2.1512451171875,267.1064147949219,274.6501159667969,15,64296.78116066667,-0.440277099609375,0.876800537109375,0.1915435791015625,64296.77203162501,0.06161382971563722,0.08954453059617026,-0.003074885794605488,64296.769101625,9.983749389648438,7.044387817382812,-535.3501586914062,64296.761899625,-2.650086157124015,-1.971065353055997,-1.078741579775664,0.06827967613935471,0.04370581358671188,0.004169442690908909,-0.0212654173374176,-0.006577610969543457,0.0005078315734863281,1,0.762762725353241,-0.1011904776096344,0.3555966317653656,-0.5305699706077576,-0.4350944459438324,0.8813639879226685,0.1840929687023163,0,0,0,-1,64292.214797125,3,2,1561241831.877712,1561241546.732582,16,16.27515,0,0,14.2948,0,0,1561241691.513234,64293.634648,0,-0.7451172,74.43686,2650659446,177292352,1,1,0.2,-17.47391,-29.82601,0
1561241836.435688,110,0,0,1561241833.855518,4.603061631722978,-74.06477642606116,2651.27,-1,-1,10,65,-9999,1561241836.424153,-27.32599639892578,6.05177640914917,-2.01947021484375,267.1810607910156,274.7247619628906,15,64296.80142466667,-0.4276580810546875,0.8778076171875,0.1893463134765625,64296.79229966667,0.03610074647267812,0.06324821167661886,-0.0005262406313996575,64296.78924766667,9.988082885742188,7.1439208984375,-535.345947265625,64296.78216766667,-2.647833354167664,-1.967590100327191,-1.079156596840729,0.04476742446422577,0.07937593013048172,-0.008102670311927795,-0.004882574081420898,-0.004759430885314941,0.00910496711730957,1,0.7621963024139404,-0.1013709753751755,0.3562304973602295,-0.5309243202209473,-0.4353944957256317,0.8815599679946899,0.1824385523796082,0,0,0,-1,64292.214797125,3,2,1561241831.877712,1561241546.732582,16,16.27515,0,0,14.2948,0,0,1561241691.513234,64293.634648,0,-0.7451172,74.43686,2650659446,177292352,1,1,0.2,-17.47391,-30.71334,0
1561241836.454334,111,0,0,1561241833.855518,4.603061631722978,-74.06477642606116,2651.27,-1,-1,10,65,-9999,1561241836.449014,-27.32378387451172,6.204924583435059,-2.2645263671875,267.19921875,274.742919921875,15,64296.82168766667,-0.4278106689453125,0.881591796875,0.18353271484375,64296.81256366667,0.02531787353505629,0.001141697159316969,0.01268303837539336,64296.80938966667,10.10835266113281,7.229446411132812,-535.3589477539062,64296.80243166667,-2.646415728110548,-1.965215786011434,-1.079395567232998,0.0269924234598875,0.02643734589219093,0.002005357993766665,0.007973551750183105,-0.00386512279510498,0.00802302360534668,1,0.7618093490600586,-0.1015289127826691,0.3567047119140625,-0.5311309695243835,-0.435631662607193,0.881672739982605,0.1813232153654099,0,0,0,-1,64292.214797125,3,2,1561241831.877712,1561241546.732582,16,16.27515,0,0,14.2948,0,0,1561241691.513234,64293.634648,0,-0.7451172,74.43686,2650659446,177292352,1,1,0.2,-17.47391,-31.50264,0
1561241836.474668,112,0,0,1561241833.855518,4.603061631722978,-74.06477642606116,2651.27,-1,-1,10,65,-9999,1561241836.449014,-27.32378387451172,6.204924583435059,-2.2645263671875,267.19921875,274.742919921875,15,64296.84195166667,-0.4334869384765625,0.8875274658203125,0.179840087890625,64296.83282666667,0.05144881015091378,-0.06427379501240836,-0.003113767946520645,64296.82953066667,9.932342529296875,7.2908935546875,-535.4987182617188,64296.82269466667,-2.645509343063946,-1.964559553250528,-1.07975242516952,0.03517152369022369,-0.04554843157529831,0.008926114998757839,0.007649689912796021,-0.000249326229095459,0.002615928649902344,1,0.7616852521896362,-0.1014590188860893,0.3566334843635559,-0.531370222568512,-0.4354603290557861,0.8818410634994507,0.1809167116880417,0,0,0,-1,64292.214797125,3,2,1561241831.877712,1561241546.732582,16,16.27515,0,0,14.2948,0,0,1561241691.513234,64293.634648,0,-0.7451172,74.43686,2650659446,177292352,1,1,0.2,-17.47391,-31.50264,0
1561241836.494754,113,0,0,1561241833.855518,4.603061631722978,-74.06477642606116,2651.27,-1,-1,10,65,-9999,1561241836.47469,-27.58366012573242,6.175994873046875,-2.12884521484375,267.1072082519531,274.6509094238281,15,64296.86221566667,-0.4440765380859375,0.886871337890625,0.18389892578125,64296.85309066667,0.07797203039533994,-0.06556569445720581,-0.008847553773461246,64296.84967266667,9.6932373046875,7.154922485351562,-535.3305053710938,64296.84295866667,-2.64351242104597,-1.964154034116475,-1.07999366586652,0.05972134321928024,-0.07549460977315903,-0.01363725122064352,0.001849949359893799,0.005572617053985596,-0.0008183717727661133,1,0.7616780996322632,-0.1008746922016144,0.3562025129795074,-0.5317805409431458,-0.4353369176387787,0.8819548487663269,0.1806584596633911,0,0,0,-1,64292.214797125,3,2,1561241831.877712,1561241546.732582,16,16.27515,0,0,14.2948,0,0,1561241691.513234,64293.634648,0,-0.7451172,74.43686,2650659446,177292352,1,1,0.2,-17.47391,-32.32196,0
1561241836.515093,114,0,0,1561241833.855518,4.603061631722978,-74.06477642606116,2651.27,-1,-1,10,65,-9999,1561241836.498963,-27.51893424987793,6.058911800384521,-2.22747802734375,266.978515625,274.522216796875,15,64296.88244866667,-0.440399169921875,0.87615966796875,0.180328369140625,64296.87335466667,0.07000225451716881,-0.02016945051571511,-0.01398266098735203,64296.86981466667,9.749847412109375,7.199325561523438,-535.3189697265625,64296.86322266667,-2.64044923105764,-1.962880179212312,-1.080292095138064,0.07937413454055786,-0.05560319498181343,-0.01390090398490429,-0.008753150701522827,0.004775881767272949,0.003895759582519531,1,0.7615610361099243,-0.1001317575573921,0.3558050692081451,-0.5323543548583984,-0.4353233873844147,0.8820954561233521,0.1800031661987305,0,0,0,-1,64292.214797125,3,2,1561241831.877712,1561241546.732582,16,16.27515,0,0,14.2948,0,0,1561241691.513234,64293.634648,0,-0.7451172,74.43686,2650659446,177292352,1,1,0.2,-17.47391,-33.21698,0
1561241836.535861,115,0,0,1561241833.855518,4.603061631722978,-74.06477642606116,2651.27,-1,-1,10,65,-9999,1561241836.525324,-27.38158798217773,6.218147754669189,-2.20941162109375,266.9302368164062,274.4739379882812,15,64296.90271166667,-0.436798095703125,0.8756256103515625,0.187530517578125,64296.89358766667,0.03375849629395343,0.01284602383410621,-0.00681130080398666,64296.88995566667,9.926544189453125,6.872085571289062,-535.3990478515625,64296.88345566667,-2.637587161731855,-1.960954478006134,-1.080499389980272,0.05023489519953728,-0.006558954250067472,-0.01466336660087109,-0.004899114370346069,-0.006033420562744141,0.001233458518981934,1,0.761330783367157,-0.09961382299661636,0.355728954076767,-0.5328314900398254,-0.4355000555515289,0.8821930885314941,0.1790949553251266,0,0,0,-1,64292.214797125,3,2,1561241831.877712,1561241546.732582,16,16.27515,0,0,14.2948,0,0,1561241691.513234,64293.634648,0,-0.7451172,74.43686,2650659446,177292352,1,1,0.2,-17.47391,-33.2998,0
1561241836.555528,116,0,0,1561241833.855518,4.603061631722978,-74.06477642606116,2651.27,-1,-1,10,65,-9999,1561241836.549748,-27.37906646728516,5.896921634674072,-2.12890625,266.9190063476562,274.4627075195312,15,64296.92297566667,-0.43609619140625,0.875030517578125,0.1879119873046875,64296.91385066667,0.01787407197217581,-0.009745039060817948,0.0002572613613016544,64296.91009766667,9.837173461914062,6.7332763671875,-535.129638671875,64296.90371966667,-2.636152248741364,-1.959633331758672,-1.080569127452313,0.02027726173400879,0.003577569033950567,-0.005230184644460678,-0.001118630170822144,-0.006600320339202881,0.009034395217895508,1,0.7611569166183472,-0.09943953901529312,0.3558336198329926,-0.5330425500869751,-0.4356794357299805,0.8822259306907654,0.1784961521625519,0,0,0,-1,64292.214797125,3,2,1561241831.877712,1561241546.732582,16,16.27515,0,0,14.2948,0,0,1561241691.513234,64293.634648,0,-0.7451172,74.43686,2650659446,177292352,1,1,0.2,-17.47391,-33.56662,0
1561241836.575894,117,0,0,1561241833.855518,4.603061631722978,-74.06477642606116,2651.27,-1,-1,10,65,-9999,1561241836.549748,-27.37906646728516,5.896921634674072,-2.12890625,266.9190063476562,274.4627075195312,15,64296.94323966667,-0.442474365234375,0.8817138671875,0.1795196533203125,64296.93411466667,0.01350622146833686,-0.07249044592362984,0.0007318366675537747,64296.93023866667,10.02626037597656,6.968338012695312,-535.2000732421875,64296.92398266667,-2.635546391550958,-1.959480580710007,-1.080632953463992,0.009116219356656075,-0.04595775902271271,-0.004136157687753439,-0.0004418492317199707,-0.007225453853607178,0.009503841400146484,1,0.7611504197120667,-0.09926789253950119,0.3557156026363373,-0.5331624746322632,-0.43565434217453,0.8822559714317322,0.178408145904541,0,0,0,-1,64292.214797125,3,2,1561241831.877712,1561241546.732582,16,16.27515,0,0,14.2948,0,0,1561241691.513234,64293.634648,0,-0.7451172,74.43686,2650659446,177292352,1,1,0.2,-17.47391,-30.7646,0
1561241836.597669,118,0,0,1561241833.855518,4.603061631722978,-74.06477642606116,2651.27,-1,-1,10,65,-9999,1561241836.576024,-27.35759162902832,6.170747756958008,-1.99859619140625,266.8368225097656,274.3805236816406,15,64296.96350266667,-0.45294189453125,0.8866729736328125,0.16766357421875,64296.95437866667,0.05151831865536485,-0.1335495391842036,-0.01493021370320223,64296.95038066667,10.01779174804688,7.2576904296875,-535.291259765625,64296.94424666667,-2.634951341214254,-1.960541774139668,-1.08065401984926,0.02814770117402077,-0.1099524572491646,-0.007560450583696365,-0.007026910781860352,-0.0005519986152648926,0.0006563663482666016,1,0.7613653540611267,-0.09876447916030884,0.3551481664180756,-0.5333272814750671,-0.4354474246501923,0.8822658658027649,0.1788632422685623,0,0,0,-1,64292.214797125,3,2,1561241831.877712,1561241546.732582,16,16.27515,0,0,14.2948,0,0,1561241691.513234,64293.634648,0,-0.7451172,74.43686,2650659446,177292352,1,1,0.2,-17.47391,-30.96987,0
1561241836.616354,119,0,0,1561241833.855518,4.603061631722978,-74.06477642606116,2651.27,-1,-1,10,65,-9999,1561241836.601236,-27.31549072265625,6.249842166900635,-2.17822265625,266.6196899414062,274.1633911132812,15,64296.98376666667,-0.448333740234375,0.8833770751953125,0.1726837158203125,64296.97464166667,0.1160935835031702,-0.1573792383021236,-0.07601221014915062,64296.97052266667,10.23211669921875,7.07879638671875,-535.1497192382812,64296.96451066667,-2.632518976152153,-1.961209777761731,-1.080634325500902,0.08438087999820709,-0.164039671421051,-0.04477040469646454,-0.01759758591651917,0.004416406154632568,-0.01149725914001465,1,0.7616062164306641,-0.09765449911355972,0.3542495965957642,-0.533785343170166,-0.4353443086147308,0.8822566270828247,0.179160863161087,0,0,0,-1,64292.214797125,3,2,1561241831.877712,1561241546.732582,16,16.27515,0,0,14.2948,0,0,1561241691.513234,64293.634648,0,-0.7451172,74.43686,2650659446,177292352,1,1,0.2,-17.47391,-31.02057,0
1561241836.63723,120,0,0,1561241833.855518,4.603061631722978,-74.06477642606116,2651.27,-1,-1,10,65,-9999,1561241836.626725,-27.18891906738281,6.051434993743896,-2.03741455078125,266.372314453125,273.916015625,15,64297.00403066667,-0.4445037841796875,0.8793792724609375,0.183258056640625,64296.99490566667,0.09523304268457951,-0.07105233893498705,-0.09254005419029139,64296.99063366667,10.02716064453125,7.085784912109375,-535.067626953125,64296.98477366667,-2.627035887768633,-1.959573289532242,-1.079999870570726,0.1124250292778015,-0.132062554359436,-0.09884055703878403,-0.01217901706695557,0.001419365406036377,-0.005976557731628418,1,0.7616745829582214,-0.09582262486219406,0.3535535037517548,-0.5344808101654053,-0.4361547231674194,0.8819577693939209,0.1786602884531021,0,0,0,-1,64292.214797125,3,2,1561241831.877712,1561241546.732582,16,16.27515,0,0,14.2948,0,0,1561241691.513234,64293.634648,0,-0.7451172,74.43686,2650659446,177292352,1,1,0.2,-17.47391,-31.02057,0
1561241836.656936,121,0,0,1561241833.855518,4.603061631722978,-74.06477642606116,2651.27,-1,-1,10,65,-9999,1561241836.651039,-27.30025863647461,6.212304592132568,-2.23175048828125,266.3193359375,273.863037109375,15,64297.02429366667,-0.427398681640625,0.8748626708984375,0.1874847412109375,64297.01516966667,0.03679157045944467,0.03296167849580172,-0.07831584449206916,64297.01077466667,9.951309204101562,6.974594116210938,-535.0322265625,64297.00503766667,-2.621861170237037,-1.956602803732342,-1.078899839501314,0.06745143234729767,-0.01967635378241539,-0.09061512351036072,-0.006921708583831787,-0.002059459686279297,0.005529165267944336,1,0.7615549564361572,-0.09433178603649139,0.3535537719726562,-0.5349161028862,-0.4375820755958557,0.8814387321472168,0.1777288764715195,0,0,0,-1,64292.214797125,3,2,1561241831.877712,1561241546.732582,16,16.27515,0,0,14.2948,0,0,1561241691.513234,64294.584054,0,-1.117676,74.44035,2650659446,177292352,1,1,0.2,-17.47391,-28.34918,0
1561241836.685204,122,0,0,1561241833.855518,4.603061631722978,-74.06477642606116,2651.27,-1,-1,10,65,-9999,1561241836.67757,-27.45929145812988,6.123493671417236,-2.00665283203125,266.4041442871094,273.9478454589844,15,64297.04455766667,-0.4146270751953125,0.8799896240234375,0.1819610595703125,64297.03543266667,-0.01934120741670047,0.06120263764332899,-0.01830310722378758,64297.03091666667,10.09600830078125,6.96728515625,-534.9771728515625,64297.02530166667,-2.619357907643189,-1.953928748574511,-1.077690896405452,-0.004958852659910917,0.05341276898980141,-0.05092257261276245,0.01164528727531433,-0.006004452705383301,0.0105283260345459,1,0.7613735198974609,-0.09374739229679108,0.3541808724403381,-0.5348623394966125,-0.4390439689159393,0.8808671236038208,0.1769564151763916,0,0,0,-1,64292.214797125,3,2,1561241831.877712,1561241546.732582,16,16.27515,0,0,14.2948,0,0,1561241691.513234,64294.584054,0,-1.117676,74.44035,2650659446,177292352,1,1,0.2,-17.47391,-27.04953,0
