loggingTime,loggingSample,identifierForVendor,deviceID,locationTimestamp_since1970,locationLatitude,locationLongitude,locationAltitude,locationSpeed,locationCourse,locationVerticalAccuracy,locationHorizontalAccuracy,locationFloor,locationHeadingTimestamp_since1970,locationHeadingX,locationHeadingY,locationHeadingZ,locationTrueHeading,locationMagneticHeading,locationHeadingAccuracy,accelerometerTimestamp_sinceReboot,accelerometerAccelerationX,accelerometerAccelerationY,accelerometerAccelerationZ,gyroTimestamp_sinceReboot,gyroRotationX,gyroRotationY,gyroRotationZ,magnetometerTimestamp_sinceReboot,magnetometerX,magnetometerY,magnetometerZ,motionTimestamp_sinceReboot,motionYaw,motionRoll,motionPitch,motionRotationRateX,motionRotationRateY,motionRotationRateZ,motionUserAccelerationX,motionUserAccelerationY,motionUserAccelerationZ,motionAttitudeReferenceFrame,motionQuaternionX,motionQuaternionY,motionQuaternionZ,motionQuaternionW,motionGravityX,motionGravityY,motionGravityZ,motionMagneticFieldX,motionMagneticFieldY,motionMagneticFieldZ,motionMagneticFieldCalibrationAccuracy,activityTimestamp_sinceReboot,activity,activityActivityConfidence,activityActivityStartDate,pedometerStartDate,pedometerNumberofSteps,pedometerAverageActivePace,pedometerCurrentPace,pedometerCurrentCadence,pedometerDistance,pedometerFloorAscended,pedometerFloorDescended,pedometerEndDate,altimeterTimestamp_sinceReboot,altimeterReset,altimeterRelativeAltitude,altimeterPressure,IP_en0,IP_pdp_ip0,deviceOrientation,batteryState,batteryLevel,avAudioRecorderPeakPower,avAudioRecorderAveragePower,label
1561841475.973436,1,0,0,1561841474.996839,4.634603080344046,-74.15097931406846,2553.15,0.37,310.78125,4,30,-9999,1561841475.950112,-20.23635101318359,-23.64813995361328,3.6490478515625,144.0657958984375,151.5590057373047,15,169292.261759625,-0.888519287109375,0.141204833984375,-0.3802337646484375,169292.261759625,-0.1264474211891803,-0.07465825905095434,0.2152659740721949,169292.236948625,-93.28860473632812,-49.9071044921875,-557.0887451171875,169292.256693625,-0.2664375894608266,-1.123429013213975,-0.1117697593372318,-0.1275527328252792,-0.06965609639883041,0.212618425488472,0.01048064231872559,0.03262784332036972,0.04943156242370605,1,-0.1174915581941605,-0.520815372467041,-0.08275280147790909,0.8414862155914307,-0.8959634304046631,0.1115371882915497,-0.4298941493034363,0,0,0,-1,169286.386338,3,2,1561841470.332837,1561841239.621676,8,3.056457,0,0,7.575853,0,0,1561841413.282218,169289.570668,0,-0.2719727,75.19553,0,182478453,3,1,1,-30.90959,-32.98975,0
1561841475.993342,2,0,0,1561841474.996839,4.634603080344046,-74.15097931406846,2553.15,0.37,310.78125,4,30,-9999,1561841475.974754,-20.54602813720703,-23.54531097412109,3.4776611328125,144.1056213378906,151.5988311767578,15,169292.282023625,-0.899810791015625,0.137603759765625,-0.3877105712890625,169292.282023625,-0.1490121187893126,-0.1040712753942255,0.2111133069844343,169292.257059625,-93.25822448730469,-49.96702575683594,-557.071533203125,169292.276957625,-0.2670276067164531,-1.12536386363448,-0.1168540952495123,-0.1420323401689529,-0.1041874438524246,0.2081445902585983,0.002379834651947021,0.02098490297794342,0.0440598726272583,1,-0.1198427453637123,-0.5212319493293762,-0.08152896910905838,0.8410160541534424,-0.8962701559066772,0.1165883392095566,-0.4279099404811859,0,0,0,-1,169286.386338,3,2,1561841470.332837,1561841239.621676,8,3.056457,0,0,7.575853,0,0,1561841413.282218,169289.570668,0,-0.2719727,75.19553,0,182478453,3,1,1,-30.90959,-33.11093,0
1561841476.006319,3,0,0,1561841474.996839,4.634603080344046,-74.15097931406846,2553.15,0.37,310.78125,4,30,-9999,1561841476.000535,-20.76906585693359,-23.6302490234375,3.502685546875,144.1772918701172,151.6705017089844,15,169292.302286625,-0.9076080322265625,0.1351470947265625,-0.392730712890625,169292.302286625,-0.1601182994832701,-0.1082116919409717,0.2025800062196025,169292.277170625,-93.14068603515625,-49.63491821289062,-556.9614868164062,169292.297220625,-0.2680781768432126,-1.127825204195045,-0.122046304515767,-0.1616087108850479,-0.1176409348845482,0.2011583149433136,-0.007275819778442383,0.01607383787631989,0.03630781173706055,1,-0.122376836836338,-0.5218287110328674,-0.08043263107538223,0.8403863906860352,-0.8967616558074951,0.1217435449361801,-0.4254374206066132,0,0,0,-1,169286.386338,3,2,1561841470.332837,1561841239.621676,8,3.056457,0,0,7.575853,0,0,1561841413.282218,169289.570668,0,-0.2719727,75.19553,0,182478453,3,1,1,-30.90959,-34.01801,0
1561841476.026402,4,0,0,1561841474.996839,4.634603080344046,-74.15097931406846,2553.15,0.37,310.78125,4,30,-9999,1561841476.024783,-20.84429168701172,-23.43277740478516,3.2921142578125,144.2712554931641,151.7644653320312,15,169292.322550625,-0.9114532470703125,0.12799072265625,-0.3941802978515625,169292.322550625,-0.1546849182272904,-0.07750251509515897,0.1936360460146803,169292.297281625,-93.335693359375,-49.59703063964844,-556.9536743164062,169292.317484625,-0.2693440773774077,-1.13018880756304,-0.1271415719185055,-0.1586131900548935,-0.08883059024810791,0.1951195895671844,-0.01407819986343384,0.003251358866691589,0.02949190139770508,1,-0.1249192580580711,-0.5223714113235474,-0.07945220917463303,0.8397681713104248,-0.8971920013427734,0.1267993152141571,-0.4230465888977051,0,0,0,-1,169286.386338,3,2,1561841470.332837,1561841239.621676,8,3.056457,0,0,7.575853,0,0,1561841413.282218,169289.570668,0,-0.2719727,75.19553,0,182478453,3,1,1,-30.90959,-34.01801,0
1561841476.047462,5,0,0,1561841474.996839,4.634603080344046,-74.15097931406846,2553.15,0.37,310.78125,4,30,-9999,1561841476.024783,-20.84429168701172,-23.43277740478516,3.2921142578125,144.2712554931641,151.7644653320312,15,169292.342814625,-0.9142608642578125,0.121795654296875,-0.3973388671875,169292.342814625,-0.1336906867219778,-0.05349784629362075,0.1819769930784224,169292.317362625,-93.50914001464844,-49.73240661621094,-557.131103515625,169292.337717625,-0.270528278330575,-1.131970879471316,-0.1319022455840212,-0.1404813230037689,-0.06334228068590164,0.1801121532917023,-0.0139738917350769,-0.005848720669746399,0.02523541450500488,1,-0.127275213599205,-0.5226931571960449,-0.07855813205242157,0.8392981290817261,-0.8973878026008606,0.1315201073884964,-0.4211857616901398,0,0,0,-1,169286.386338,3,2,1561841470.332837,1561841239.621676,8,3.056457,0,0,7.575853,0,0,1561841413.282218,169289.570668,0,-0.2719727,75.19553,0,182478453,3,1,1,-30.90959,-34.81646,0
1561841476.074278,6,0,0,1561841475.996824,4.634603080344046,-74.15097931406846,2553.157,0,285.8203125,4,30,-9999,1561841476.053254,-21.16432189941406,-23.44509124755859,3.6331787109375,144.3558959960938,151.8491058349609,15,169292.363047625,-0.914825439453125,0.126129150390625,-0.40118408203125,169292.363047625,-0.1297140545822714,-0.06778277606469676,0.1762120482667279,169292.337473625,-93.78701782226562,-49.57769775390625,-556.9722900390625,169292.357981625,-0.2714444571557685,-1.133398885599662,-0.1363233199769044,-0.1288006901741028,-0.06658973544836044,0.1769789457321167,-0.0181201696395874,-0.01407529413700104,0.02069723606109619,1,-0.1294038742780685,-0.5229033231735229,-0.07766145467758179,0.8389251828193665,-0.8974528908729553,0.135901466012001,-0.4196535050868988,0,0,0,-1,169286.386338,3,2,1561841470.332837,1561841239.621676,8,3.056457,0,0,7.575853,0,0,1561841413.282218,169289.570668,0,-0.2719727,75.19553,0,182478453,3,1,1,-30.90959,-35.56999,0
1561841476.087313,7,0,0,1561841475.996824,4.634603080344046,-74.15097931406846,2553.157,0,285.8203125,4,30,-9999,1561841476.075501,-21.16454315185547,-23.31657791137695,3.50238037109375,144.4263458251953,151.9195556640625,15,169292.383310625,-0.9208221435546875,0.1288909912109375,-0.4032440185546875,169292.383310625,-0.1297462788314614,-0.06718303218721093,0.1616269802408,169292.357584625,-94.01084899902344,-49.32373046875,-556.9945068359375,169292.378245625,-0.2724519338469332,-1.135118117252559,-0.1405578815559343,-0.135096400976181,-0.07519041001796722,0.1601991653442383,-0.02012711763381958,-0.009007260203361511,0.01500076055526733,1,-0.1314882040023804,-0.5232391357421875,-0.07683082669973373,0.8384680151939392,-0.8976432681083679,0.140095517039299,-0.4178633093833923,0,0,0,-1,169286.386338,3,2,1561841470.332837,1561841239.621676,8,3.056457,0,0,7.575853,0,0,1561841413.282218,169289.570668,0,-0.2719727,75.19553,0,182478453,3,1,1,-30.90959,-36.32883,0
1561841476.107593,8,0,0,1561841475.996824,4.634603080344046,-74.15097931406846,2553.157,0,285.8203125,4,30,-9999,1561841476.101788,-21.06414031982422,-23.52649688720703,3.216796875,144.5098419189453,152.0030517578125,15,169292.403574625,-0.92327880859375,0.1241302490234375,-0.40582275390625,169292.403574625,-0.1241256773508492,-0.0576302733570967,0.1362513161100889,169292.377695625,-93.62518310546875,-49.53507995605469,-557.1707153320312,169292.398508625,-0.2735874217421728,-1.136818925712143,-0.1444538150791858,-0.1275154501199722,-0.06953652203083038,0.1398579329252243,-0.022483229637146,-0.01843315362930298,0.0125998854637146,1,-0.1334629654884338,-0.5235799551010132,-0.07614266872406006,0.8380059003829956,-0.8978506326675415,0.143951952457428,-0.416103333234787,0,0,0,-1,169286.386338,3,2,1561841470.332837,1561841239.621676,8,3.056457,0,0,7.575853,0,0,1561841413.282218,169289.570668,0,-0.2719727,75.19553,0,182478453,3,1,1,-30.90959,-37.14003,0
1561841476.129778,9,0,0,1561841475.996824,4.634603080344046,-74.15097931406846,2553.157,0,285.8203125,4,30,-9999,1561841476.126647,-21.22562408447266,-23.21714782714844,3.32196044921875,144.5948638916016,152.0880737304688,15,169292.423838625,-0.9150848388671875,0.1178131103515625,-0.4060821533203125,169292.423838625,-0.1086907946210769,-0.04927354017253706,0.1105901611105214,169292.397806625,-93.81294250488281,-49.5654296875,-557.1641845703125,169292.418772625,-0.2747306384575435,-1.138298701375724,-0.1477581873390483,-0.1130129471421242,-0.05657811462879181,0.1145709678530693,-0.02206099033355713,-0.02721074223518372,0.008612573146820068,1,-0.1351849138736725,-0.5238689780235291,-0.07562912255525589,0.8375957608222961,-0.8980287313461304,0.1472211182117462,-0.4145726561546326,0,0,0,-1,169286.386338,3,2,1561841470.332837,1561841239.621676,8,3.056457,0,0,7.575853,0,0,1561841413.282218,169289.570668,0,-0.2719727,75.19553,0,182478453,3,1,1,-30.90959,-37.53455,0
1561841476.152779,10,0,0,1561841475.996824,4.634603080344046,-74.15097931406846,2553.157,0,285.8203125,4,30,-9999,1561841476.126647,-21.22562408447266,-23.21714782714844,3.32196044921875,144.5948638916016,152.0880737304688,15,169292.444101625,-0.9193115234375,0.1114349365234375,-0.4056396484375,169292.444101625,-0.1106391632745789,-0.02379587697207601,0.08577535870538111,169292.417917625,-93.83811950683594,-49.46369934082031,-557.2003173828125,169292.439036625,-0.2759395716421613,-1.139558004241711,-0.1504775298150896,-0.1105609759688377,-0.03721000626683235,0.08758648484945297,-0.01714587211608887,-0.03482849895954132,0.007022619247436523,1,-0.136672779917717,-0.5241032838821411,-0.07531386613845825,0.8372361063957214,-0.8981831073760986,0.1499102860689163,-0.4132725894451141,0,0,0,-1,169286.386338,3,2,1561841470.332837,1561841239.621676,8,3.056457,0,0,7.575853,0,0,1561841413.282218,169289.570668,0,-0.2719727,75.19553,0,182478453,3,1,1,-30.90959,-36.54656,0
1561841476.168304,11,0,0,1561841475.996824,4.634603080344046,-74.15097931406846,2553.157,0,285.8203125,4,30,-9999,1561841476.153391,-21.26541900634766,-23.13525390625,3.2047119140625,144.6944427490234,152.1876525878906,15,169292.464365625,-0.9185943603515625,0.1103363037109375,-0.4034271240234375,169292.464365625,-0.1222601330072487,-0.004905809044034965,0.04317783075345469,169292.438028625,-93.97734069824219,-49.14167785644531,-557.3707885742188,169292.459299625,-0.2774644598265942,-1.140331960451615,-0.1526963156769408,-0.1212711483240128,-0.01590179093182087,0.05055442824959755,-0.02303600311279297,-0.04195043444633484,0.007865965366363525,1,-0.1380177289247513,-0.5241491794586182,-0.0752979964017868,0.836988091468811,-0.8981981873512268,0.1521036177873611,-0.4124374985694885,0,0,0,-1,169286.386338,3,2,1561841470.332837,1561841239.621676,8,3.056457,0,0,7.575853,0,0,1561841413.282218,169289.570668,0,-0.2719727,75.19553,0,182478453,3,1,1,-30.90959,-36.54656,0
1561841476.188572,12,0,0,1561841475.996824,4.634603080344046,-74.15097931406846,2553.157,0,285.8203125,4,30,-9999,1561841476.176696,-21.24390411376953,-23.05345916748047,3.17523193359375,144.8311462402344,152.3243560791016,15,169292.484629625,-0.9138336181640625,0.1112213134765625,-0.4043731689453125,169292.484629625,-0.1439904622378592,-0.01597204232164122,0.02865002069096344,169292.458109625,-93.84405517578125,-49.17340087890625,-557.4426879882812,169292.479532625,-0.2795825869387534,-1.140994357052874,-0.1543590209583333,-0.1406344473361969,-0.01685120724141598,0.02742993459105492,-0.01728743314743042,-0.04394452273845673,0.009087562561035156,1,-0.1392840296030045,-0.5241485834121704,-0.0756877139210701,0.8367434144020081,-0.8982399106025696,0.1537467688322067,-0.4117364287376404,0,0,0,-1,169286.386338,3,2,1561841470.332837,1561841239.621676,8,3.056457,0,0,7.575853,0,0,1561841413.282218,169289.570668,0,-0.2719727,75.19553,0,182478453,3,1,1,-30.90959,-36.10312,0
1561841476.208807,13,0,0,1561841475.996824,4.634603080344046,-74.15097931406846,2553.157,0,285.8203125,4,30,-9999,1561841476.202949,-21.35409545898438,-23.1187858581543,3.11248779296875,145.0114898681641,152.5046997070312,15,169292.504862625,-0.9093475341796875,0.1199951171875,-0.4091949462890625,169292.504862625,-0.1431528980750293,-0.02993659381358072,0.03055071876095299,169292.478220625,-93.94715881347656,-49.07725524902344,-557.42431640625,169292.499796625,-0.282103455324994,-1.14184200535777,-0.1559823836699914,-0.1499003916978836,-0.02698932774364948,0.02735190466046333,-0.0136725902557373,-0.03926177322864532,0.005536139011383057,1,-0.1406464278697968,-0.5241977572441101,-0.07624258100986481,0.8364343643188477,-0.898360550403595,0.1553506255149841,-0.4108705818653107,0,0,0,-1,169286.386338,3,2,1561841470.332837,1561841239.621676,8,3.056457,0,0,7.575853,0,0,1561841413.282218,169289.570668,0,-0.2719727,75.19553,0,182478453,3,1,1,-30.90959,-36.34543,0
1561841476.231212,14,0,0,1561841475.996824,4.634603080344046,-74.15097931406846,2553.157,0,285.8203125,4,30,-9999,1561841476.227453,-21.40437316894531,-23.38775634765625,3.1966552734375,145.1746520996094,152.6678619384766,15,169292.525126625,-0.9086456298828125,0.1208953857421875,-0.4141845703125,169292.525126625,-0.09038715476507132,-0.03583549562810623,0.01243642965845203,169292.498331625,-93.90876770019531,-49.35636901855469,-557.3655395507812,169292.520060625,-0.2844090525874998,-1.143057079970365,-0.1574339042802852,-0.1104243546724319,-0.04567379876971245,0.01564358361065388,-0.008268535137176514,-0.03692658245563507,-0.002790927886962891,1,-0.1418955773115158,-0.5244266390800476,-0.07672674208879471,0.836035430431366,-0.8986528515815735,0.1567843705415726,-0.4096846878528595,0,0,0,-1,169286.386338,3,2,1561841470.332837,1561841239.621676,8,3.056457,0,0,7.575853,0,0,1561841413.282218,169289.570668,0,-0.2719727,75.19553,0,182478453,3,1,1,-30.90959,-37.15656,0
1561841476.249317,15,0,0,1561841475.996824,4.634603080344046,-74.15097931406846,2553.157,0,285.8203125,4,30,-9999,1561841476.227453,-21.40437316894531,-23.38775634765625,3.1966552734375,145.1746520996094,152.6678619384766,15,169292.545389625,-0.912384033203125,0.1206207275390625,-0.41619873046875,169292.545389625,-0.03611725807143661,-0.007102117995023313,-0.008567122910675901,169292.518442625,-93.89421081542969,-49.49264526367188,-557.3631591796875,169292.540323625,-0.2858102647161747,-1.143921999850179,-0.1579903899476365,-0.04678305983543396,-0.0155585091561079,-0.005912308115512133,-0.01342606544494629,-0.03595027327537537,-0.005466043949127197,1,-0.1425255239009857,-0.52464359998703,-0.07709969580173492,0.8357579112052917,-0.8989274501800537,0.1573339402675629,-0.4088711440563202,0,0,0,-1,169286.386338,3,2,1561841470.332837,1561841239.621676,8,3.056457,0,0,7.575853,0,0,1561841413.282218,169289.570668,0,-0.2719727,75.19553,0,182478453,3,1,1,-30.90959,-37.98613,0
1561841476.269548,16,0,0,1561841475.996824,4.634603080344046,-74.15097931406846,2553.157,0,285.8203125,4,30,-9999,1561841476.25361,-21.22796630859375,-23.27116012573242,3.1900634765625,145.2613677978516,152.7545776367188,15,169292.565653625,-0.909393310546875,0.1199493408203125,-0.4169769287109375,169292.565653625,-0.01798858789904922,0.0004271710388487098,-0.02502732266012865,169292.538523625,-93.92152404785156,-49.30126953125,-557.5425415039062,169292.560587625,-0.2865219359537435,-1.144316439310163,-0.1578054603210026,-0.0185245256870985,-0.006508022546768188,-0.02700827270746231,-0.01191091537475586,-0.03524884581565857,-0.01023370027542114,1,-0.1426513344049454,-0.5247726440429688,-0.07741920650005341,0.8356258273124695,-0.8991150856018066,0.1571513116359711,-0.4085285365581512,0,0,0,-1,169286.386338,3,2,1561841470.332837,1561841239.621676,8,3.056457,0,0,7.575853,0,0,1561841413.282218,169289.570668,0,-0.2719727,75.19553,0,182478453,3,1,1,-30.90959,-38.83616,0
1561841476.289702,17,0,0,1561841475.996824,4.634603080344046,-74.15097931406846,2553.157,0,285.8203125,4,30,-9999,1561841476.278532,-21.29975128173828,-23.39907836914062,3.14013671875,145.3099670410156,152.8031768798828,15,169292.585917625,-0.90765380859375,0.119110107421875,-0.4135284423828125,169292.585917625,-0.03115365843174693,0.002469549278830478,-0.03750742816045798,169292.558634625,-93.84638977050781,-49.34852600097656,-557.4188842773438,169292.580851625,-0.2871798408846667,-1.144525659482002,-0.1572536388390837,-0.02443061769008636,-0.001333233900368214,-0.03816132619976997,-0.009091615676879883,-0.03862535953521729,-0.005564212799072266,1,-0.1426049023866653,-0.5248578190803528,-0.07782917469739914,0.8355422019958496,-0.8992793560028076,0.1566063314676285,-0.4083762168884277,0,0,0,-1,169286.386338,3,2,1561841470.332837,1561841239.621676,8,3.056457,0,0,7.575853,0,0,1561841413.282218,169289.570668,0,-0.2719727,75.19553,0,182478453,3,1,1,-30.90959,-39.28566,0
1561841476.310245,18,0,0,1561841475.996824,4.634603080344046,-74.15097931406846,2553.157,0,285.8203125,4,30,-9999,1561841476.304318,-21.33404541015625,-23.27560806274414,3.0833740234375,145.3814849853516,152.8746948242188,15,169292.606180625,-0.9066009521484375,0.122802734375,-0.4132232666015625,169292.606180625,-0.04889537129774581,0.01021775015430701,-0.04430781000397531,169292.578745625,-93.75880432128906,-49.47064208984375,-557.478515625,169292.601114625,-0.2882358631246536,-1.144716179294815,-0.1566619040177164,-0.04729491844773293,0.001782664563506842,-0.04606318846344948,-0.008304059505462646,-0.03508070111274719,-0.004934430122375488,1,-0.1426459103822708,-0.5249100923538208,-0.07841762155294418,0.8354472517967224,-0.8994413018226624,0.1560218632221222,-0.4082430899143219,0,0,0,-1,169286.386338,3,2,1561841470.332837,1561841239.621676,8,3.056457,0,0,7.575853,0,0,1561841413.282218,169289.570668,0,-0.2719727,75.19553,0,182478453,3,1,1,-30.90959,-40.15172,0
1561841476.330391,19,0,0,1561841475.996824,4.634603080344046,-74.15097931406846,2553.157,0,285.8203125,4,30,-9999,1561841476.328675,-21.42204284667969,-23.22016906738281,3.08935546875,145.4794464111328,152.97265625,15,169292.626444625,-0.90289306640625,0.128143310546875,-0.4132843017578125,169292.626444625,-0.03589088937877988,-0.005110073499644042,-0.04089576801536579,169292.598826625,-93.84226989746094,-49.73358154296875,-557.3589477539062,169292.621348625,-0.2895899408444279,-1.144936018206444,-0.1560958552648309,-0.04557185247540474,-0.00686222268268466,-0.04628929123282433,-0.006272435188293457,-0.02919623255729675,-0.005645036697387695,1,-0.1427769660949707,-0.5249512791633606,-0.07912144809961319,0.8353326916694641,-0.8996113538742065,0.1554627269506454,-0.4080817997455597,0,0,0,-1,169286.386338,3,2,1561841470.332837,1561841239.621676,8,3.056457,0,0,7.575853,0,0,1561841413.282218,169289.570668,0,-0.2719727,75.19553,0,182478453,3,1,1,-30.90959,-40.15172,0
1561841476.350717,20,0,0,1561841475.996824,4.634603080344046,-74.15097931406846,2553.157,0,285.8203125,4,30,-9999,1561841476.328675,-21.42204284667969,-23.22016906738281,3.08935546875,145.4794464111328,152.97265625,15,169292.646677625,-0.8980865478515625,0.134735107421875,-0.4112396240234375,169292.646677625,0.00575429216733421,-0.01997397449170329,-0.0272742316718285,169292.618937625,-93.79391479492188,-48.92918395996094,-557.4202880859375,169292.641611625,-0.2904436793914757,-1.145329090966011,-0.1554540511008955,-0.006368258967995644,-0.02244064956903458,-0.03588272258639336,-0.0005128979682922363,-0.02250447869300842,-0.004477441310882568,1,-0.142752543091774,-0.5251067280769348,-0.0796244889497757,0.8351914286613464,-0.8998624682426453,0.1548286974430084,-0.4077692627906799,0,0,0,-1,169286.386338,3,2,1561841470.332837,1561841239.621676,8,3.056457,0,0,7.575853,0,0,1561841413.282218,169289.570668,0,-0.2719727,75.19553,0,182478453,3,1,1,-30.90959,-40.87835,0
1561841476.370885,21,0,0,1561841475.996824,4.634603080344046,-74.15097931406846,2553.157,0,285.8203125,4,30,-9999,1561841476.355097,-21.15969085693359,-23.24576950073242,3.16326904296875,145.5257415771484,153.0189514160156,15,169292.666941625,-0.9053497314453125,0.130096435546875,-0.4110870361328125,169292.666941625,0.01777526869573388,-0.06534891314447336,-0.03257125907999611,169292.639048625,-93.79087829589844,-49.20291137695312,-557.38720703125,169292.661875625,-0.2905116672987007,-1.146010096678178,-0.1547405002823974,0.01844973862171173,-0.05279535800218582,-0.02796860784292221,0.001497626304626465,-0.0206092894077301,-0.003183364868164062,1,-0.142503947019577,-0.5254443287849426,-0.07979843765497208,0.8350048661231995,-0.9002403020858765,0.1541237086057663,-0.4072017669677734,0,0,0,-1,169286.386338,3,2,1561841470.332837,1561841239.621676,8,3.056457,0,0,7.575853,0,0,1561841413.282218,169289.570668,0,-0.2719727,75.19553,0,182478453,3,1,1,-30.90959,-41.55439,0
1561841476.400188,22,0,0,1561841475.996824,4.634603080344046,-74.15097931406846,2553.157,0,285.8203125,4,30,-9999,1561841476.379318,-21.45183563232422,-23.20956039428711,3.19757080078125,145.5324096679688,153.0256195068359,15,169292.687204625,-0.9150238037109375,0.1065521240234375,-0.4258270263671875,169292.687204625,-0.03333798315782992,-0.1560178303528751,-0.1330395438354534,169292.659159625,-93.80314636230469,-49.34539794921875,-557.2271118164062,169292.682139625,-0.290878534815656,-1.148029419587736,-0.153489069152191,-0.01393856108188629,-0.1466036140918732,-0.1067616865038872,-0.00861513614654541,-0.03138136863708496,-0.01240009069442749,1,-0.1421664357185364,-0.5263627767562866,-0.08014862984418869,0.8344501852989197,-0.9012359380722046,0.1528871059417725,-0.4054618775844574,0,0,0,-1,169286.386338,3,2,1561841470.332837,1561841239.621676,8,3.056457,0,0,7.575853,0,0,1561841413.282218,169289.570668,0,-0.2719727,75.19553,0,182478453,3,1,1,-30.90959,-42.17043,0
1561841476.411876,23,0,0,1561841475.996824,4.634603080344046,-74.15097931406846,2553.157,0,285.8203125,4,30,-9999,1561841476.405841,-21.00417327880859,-23.27741241455078,3.19183349609375,145.6814727783203,153.1746826171875,15,169292.707468625,-0.9478607177734375,0.07550048828125,-0.43841552734375,169292.707468625,-0.1179767047099652,-0.1284727551981855,-0.2541997913124993,169292.679239625,-93.54945373535156,-49.614990234375,-557.209228515625,169292.702402625,-0.2933486351642666,-1.151586359870238,-0.1507415061527007,-0.09838367253541946,-0.1449162364006042,-0.2315142750740051,-0.02767229080200195,-0.05996131896972656,-0.02715754508972168,1,-0.141832247376442,-0.5278939604759216,-0.081675685942173,0.8333911299705505,-0.903052806854248,0.1501712650060654,-0.4024231731891632,0,0,0,-1,169286.386338,3,2,1561841470.332837,1561841239.621676,8,3.056457,0,0,7.575853,0,0,1561841413.282218,169289.570668,0,-0.2719727,75.19553,0,182478453,3,1,1,-31.46687,-33.263,0
1561841476.431842,24,0,0,1561841475.996824,4.634603080344046,-74.15097931406846,2553.157,0,285.8203125,4,30,-9999,1561841476.405841,-21.00417327880859,-23.27741241455078,3.19183349609375,145.6814727783203,153.1746826171875,15,169292.727732625,-0.953125,0.0179290771484375,-0.4432830810546875,169292.727732625,-0.2440885676017955,-0.1847868943445651,-0.3625190749615102,169292.699350625,-93.47853088378906,-49.54365539550781,-557.2583618164062,169292.722666625,-0.2984217250848489,-1.155071669298996,-0.1466429122556211,-0.2027790397405624,-0.1541768461465836,-0.3351131081581116,-0.05320090055465698,-0.09234592318534851,-0.04477167129516602,1,-0.1416358202695847,-0.5293203592300415,-0.08466203510761261,0.8322209119796753,-0.9050052762031555,0.1461179107427597,-0.3995184898376465,0,0,0,-1,169286.386338,3,2,1561841470.332837,1561841239.621676,8,3.056457,0,0,7.575853,0,0,1561841413.282218,169289.570668,0,-0.2719727,75.19553,0,182478453,3,1,1,-32.02415,-33.68682,0
1561841476.452222,25,0,0,1561841475.996824,4.634603080344046,-74.15097931406846,2553.157,0,285.8203125,4,30,-9999,1561841476.430878,-20.90251922607422,-23.45303726196289,3.05224609375,146.0651245117188,153.5583343505859,15,169292.747995625,-1.004379272460938,-0.0540008544921875,-0.4347076416015625,169292.747995625,-0.4201898283671761,-0.2293631509864203,-0.4920397840486418,169292.719462625,-93.78594970703125,-49.44404602050781,-557.6093139648438,169292.742930625,-0.3072656620236266,-1.160782582138874,-0.1417111467135222,-0.391257107257843,-0.2581035196781158,-0.4564152956008911,-0.05055880546569824,-0.1613484025001526,-0.05137306451797485,1,-0.1422091275453568,-0.5314729809761047,-0.08928527683019638,0.8302657604217529,-0.9079220294952393,0.1412373185157776,-0.3946260809898376,0,0,0,-1,169286.386338,3,2,1561841470.332837,1561841239.621676,8,3.056457,0,0,7.575853,0,0,1561841413.282218,169289.570668,0,-0.2719727,75.19553,0,182478453,3,1,1,-31.94081,-32.00436,0
1561841476.488157,26,0,0,1561841475.996824,4.634603080344046,-74.15097931406846,2553.157,0,285.8203125,4,30,-9999,1561841476.481049,-20.30865478515625,-23.83623504638672,2.9324951171875,147.76806640625,155.2612762451172,15,169292.768259625,-1.11834716796875,-0.1267242431640625,-0.4220123291015625,169292.768259625,-0.411447469456773,0.04851081083633836,-0.7380825792583375,169292.739573625,-93.4443359375,-49.50689697265625,-557.28369140625,169292.763163625,-0.3198232775182976,-1.165998408439867,-0.134911403083791,-0.4390877485275269,-0.04359946399927139,-0.6671568155288696,-0.1567211151123047,-0.2226372957229614,-0.03409260511398315,1,-0.143014520406723,-0.5333101153373718,-0.0959913358092308,0.8281984925270081,-0.9108296036720276,0.1345025151968002,-0.3902543485164642,0,0,0,-1,169286.386338,3,2,1561841470.332837,1561841239.621676,8,3.056457,0,0,7.575853,0,0,1561841413.282218,169289.570668,0,-0.2719727,75.19553,0,182478453,3,1,1,-31.94081,-32.41799,0
1561841476.492716,27,0,0,1561841475.996824,4.634603080344046,-74.15097931406846,2553.157,0,285.8203125,4,30,-9999,1561841476.481049,-20.30865478515625,-23.83623504638672,2.9324951171875,147.76806640625,155.2612762451172,15,169292.788492625,-1.12652587890625,-0.1996917724609375,-0.4156646728515625,169292.788492625,-0.1935279216744231,0.2892179628020602,-1.083129985888383,169292.759653625,-92.97857666015625,-49.75100708007812,-557.7485961914062,169292.783426625,-0.3333248205818032,-1.16548792145694,-0.122330364877238,-0.259979248046875,0.2364662736654282,-1.004335403442383,-0.2197378873825073,-0.2893991470336914,-0.02226442098617554,1,-0.1414536237716675,-0.5332101583480835,-0.1050802543759346,0.8274273872375488,-0.9121133685112,0.1220254898071289,-0.3913556039333344,0,0,0,-1,169286.386338,3,2,1561841470.332837,1561841239.621676,8,3.056457,0,0,7.575853,0,0,1561841413.282218,169289.570668,0,-0.2719727,75.19553,0,182478453,3,1,1,-31.94081,-32.41799,0
1561841476.513073,28,0,0,1561841475.996824,4.634603080344046,-74.15097931406846,2553.157,0,285.8203125,4,30,-9999,1561841476.507259,-20.08712768554688,-24.25274658203125,2.7449951171875,148.6499481201172,156.1431579589844,15,169292.808756625,-1.10626220703125,-0.2132720947265625,-0.4302978515625,169292.808756625,-0.01363751531007776,0.4852987906974333,-1.31962641385458,169292.779764625,-92.79466247558594,-50.36749267578125,-557.6156616210938,169292.803690625,-0.345254305549507,-1.160062356466146,-0.1019449790703668,-0.03665745258331299,0.4383357465267181,-1.282700419425964,-0.2088732123374939,-0.3201217651367188,-0.02556592226028442,1,-0.1360006779432297,-0.531882643699646,-0.1159821674227715,0.8277395963668823,-0.9120679497718811,0.1017684862017632,-0.3972093462944031,0,0,0,-1,169286.386338,3,2,1561841470.332837,1561841239.621676,8,3.056457,0,0,7.575853,0,0,1561841413.282218,169289.570668,0,-0.2719727,75.19553,0,182478453,3,1,1,-31.94081,-33.0205,0
1561841476.533251,29,0,0,1561841475.996824,4.634603080344046,-74.15097931406846,2553.157,0,285.8203125,4,30,-9999,1561841476.5316,-19.4144287109375,-25.03539657592773,2.63092041015625,149.4859924316406,156.9792022705078,15,169292.829020625,-1.049346923828125,-0.159027099609375,-0.489501953125,169292.829020625,-0.06969093098573854,0.5971598122801406,-1.38400726794281,169292.799875625,-92.3116455078125,-50.99980163574219,-557.8821411132812,169292.823954625,-0.3567316367151686,-1.150757069134751,-0.07721761699473953,-0.04515426978468895,0.5672223567962646,-1.382312774658203,-0.174685001373291,-0.2667161226272583,-0.04961085319519043,1,-0.1283428519964218,-0.5293746590614319,-0.1280727088451385,0.828787088394165,-0.9103521704673767,0.07714090496301651,-0.4065811634063721,0,0,0,-1,169286.386338,3,2,1561841470.332837,1561841239.621676,8,3.056457,0,0,7.575853,0,0,1561841413.282218,169289.570668,0,-0.2719727,75.19553,0,182478453,3,1,1,-31.94081,-33.90466,0
1561841476.572276,30,0,0,1561841475.996824,4.634603080344046,-74.15097931406846,2553.157,0,285.8203125,4,30,-9999,1561841476.55789,-17.83946228027344,-25.7451171875,2.11346435546875,150.4259643554688,157.9191741943359,15,169292.8493007917,-1.0101318359375,-0.090484619140625,-0.5351409912109375,169292.8493007917,-0.06866987502380216,0.6278727175514793,-1.338031786464227,169292.8400847917,-90.91693115234375,-51.69583129882812,-558.24755859375,169292.8442347917,-0.3698102594956876,-1.139149627395384,-0.05242113238633975,-0.09144214540719986,0.6510357856750488,-1.360573649406433,-0.1112801432609558,-0.1797012090682983,-0.09949582815170288,1,-0.1208072081208229,-0.5258416533470154,-0.1408831030130386,0.830089271068573,-0.9070304036140442,0.05239712819457054,-0.4177923500537872,0,0,0,-1,169286.386338,3,2,1561841470.332837,1561841239.621676,8,3.056457,0,0,7.575853,0,0,1561841413.282218,169289.570668,0,-0.2719727,75.19553,0,182478453,3,1,1,-31.94081,-35.64673,0
1561841476.575548,31,0,0,1561841475.996824,4.634603080344046,-74.15097931406846,2553.157,0,285.8203125,4,30,-9999,1561841476.55789,-17.83946228027344,-25.7451171875,2.11346435546875,150.4259643554688,157.9191741943359,15,169292.8695647917,-0.9842071533203125,0.0832977294921875,-0.66058349609375,169292.8695647917,0.3188474941419548,0.2669680508427752,-1.159834617920954,169292.8601957917,-90.23016357421875,-52.12028503417969,-558.3868408203125,169292.8644987917,-0.3812595386999838,-1.128885326504731,-0.02835734507588424,0.1486261188983917,0.3454039394855499,-1.242885947227478,-0.099479079246521,-0.04910549521446228,-0.1495763659477234,1,-0.113111712038517,-0.5229319930076599,-0.1526236236095428,0.8309355974197388,-0.903572678565979,0.02835354395210743,-0.4274957478046417,0,0,0,-1,169286.386338,3,2,1561841470.332837,1561841239.621676,8,3.056457,0,0,7.575853,0,0,1561841413.282218,169289.570668,0,-0.2719727,75.19553,0,182478453,3,1,1,-31.94081,-35.64673,0
1561841476.59397,32,0,0,1561841475.996824,4.634603080344046,-74.15097931406846,2553.157,0,285.8203125,4,30,-9999,1561841476.582721,-17.33416748046875,-25.98938369750977,2.04583740234375,150.8359985351562,158.3292083740234,15,169292.8898287917,-0.904541015625,0.266937255859375,-0.7625579833984375,169292.8898287917,1.458396547723666,0.2249028887927556,-0.6251381837441861,169292.8803067917,-89.45207214355469,-52.31668090820312,-558.2626342773438,169292.8847627917,-0.3797907448674868,-1.124333950145918,-0.004300653975540795,1.120631456375122,0.1822857558727264,-0.7854509353637695,-0.06017106771469116,0.1788353472948074,-0.2943313717842102,1,-0.1023974418640137,-0.5230947136878967,-0.1585810333490372,0.8311069011688232,-0.9019718170166016,0.004300640895962715,-0.4317733645439148,0,0,0,-1,169286.386338,3,2,1561841470.332837,1561841239.621676,8,3.056457,0,0,7.575853,0,0,1561841413.282218,169289.570668,0,-0.2719727,75.19553,0,182478453,3,1,1,-31.94081,-36.4727,0
1561841476.61418,33,0,0,1561841475.996824,4.634603080344046,-74.15097931406846,2553.157,0,285.8203125,4,30,-9999,1561841476.609143,-17.13288116455078,-26.46146774291992,2.4979248046875,149.1199798583984,156.6131896972656,15,169292.9100917917,-0.7773284912109375,0.334197998046875,-0.80377197265625,169292.9100917917,2.954042463298162,0.3164533123219736,0.06548633225672144,169292.9004177917,-89.61114501953125,-52.54158020019531,-557.4420166015625,169292.9049957917,-0.3504031586205343,-1.1193684969209,0.02004081691012694,2.57601261138916,0.3173588812351227,-0.1072421297430992,0.07165676355361938,0.3354997038841248,-0.3470247387886047,1,-0.08417661488056183,-0.5242449045181274,-0.15294249355793,0.8334807157516479,-0.8996443748474121,-0.02003947459161282,-0.4361631572246552,0,0,0,-1,169286.386338,3,2,1561841470.332837,1561841239.621676,8,3.056457,0,0,7.575853,0,0,1561841413.282218,169289.570668,0,-0.2719727,75.19553,0,182478453,3,1,1,-31.94081,-37.39602,0
1561841476.640087,34,0,0,1561841475.996824,4.634603080344046,-74.15097931406846,2553.157,0,285.8203125,4,30,-9999,1561841476.632767,-16.77587127685547,-26.35673904418945,3.51947021484375,144.5511474609375,152.0443572998047,15,169292.9303257917,-0.7227935791015625,0.353271484375,-0.829803466796875,169292.9303257917,4.17167726425376,0.09216135268328211,0.6610056373053732,169292.9204987917,-89.657958984375,-51.76362609863281,-556.2075805664062,169292.9252597917,-0.2885534339078858,-1.116000433791559,0.0452468534163036,3.925674915313721,0.1780065894126892,0.5246378779411316,0.1534432768821716,0.3988080620765686,-0.3835583329200745,1,-0.05711816623806953,-0.5266144871711731,-0.1337902396917343,0.8375648856163025,-0.8974313139915466,-0.0452314168214798,-0.4388293921947479,0,0,0,-1,169286.386338,3,2,1561841470.332837,1561841239.621676,8,3.056457,0,0,7.575853,0,0,1561841413.282218,169290.513647,0,0.2299805,75.19078,0,182478453,3,1,1,-31.94081,-38.00131,0
1561841476.6546,35,0,0,1561841475.996824,4.634603080344046,-74.15097931406846,2553.157,0,285.8203125,4,30,-9999,1561841476.632767,-16.77587127685547,-26.35673904418945,3.51947021484375,144.5511474609375,152.0443572998047,15,169292.9505887917,-0.75616455078125,0.351806640625,-0.84344482421875,169292.9505887917,4.772277081713955,-0.3426926395941973,1.083451163115846,169292.9406097917,-89.99734497070312,-51.19573974609375,-553.9224243164062,169292.9455227917,-0.2025585803280569,-1.121534479296805,0.06967011643719542,4.653799533843994,-0.2546223104000092,0.9852856397628784,0.1745379567146301,0.4153779149055481,-0.4091752767562866,1,-0.02439644187688828,-0.5317717790603638,-0.1039974689483643,0.8401239514350891,-0.8985827565193176,-0.06961376965045929,-0.4332471787929535,0,0,0,-1,169286.386338,3,2,1561841470.332837,1561841239.621676,8,3.056457,0,0,7.575853,0,0,1561841413.282218,169290.513647,0,0.2299805,75.19078,0,182478453,3,1,1,-31.94081,-38.00131,0
1561841476.674857,36,0,0,1561841475.996824,4.634603080344046,-74.15097931406846,2553.157,0,285.8203125,4,30,-9999,1561841476.659003,-17.38665771484375,-24.57117462158203,7.109375,138.0404663085938,145.5336761474609,15,169292.9708527917,-0.8935089111328125,0.3798675537109375,-0.7404632568359375,169292.9708527917,5.52412900275633,-0.542695771143039,1.610556789237562,169292.9607207917,-90.31486511230469,-49.88731384277344,-551.6737060546875,169292.9657867917,-0.1018040018361759,-1.13761801365325,0.09027904793961872,5.253078460693359,-0.4894284307956696,1.451825618743896,0.08761000633239746,0.4567183554172516,-0.3938719034194946,1,0.01059229765087366,-0.539317786693573,-0.06709866225719452,0.8393580317497253,-0.903939962387085,-0.09015646576881409,-0.4180482625961304,0,0,0,-1,169286.386338,3,2,1561841470.332837,1561841239.621676,8,3.056457,0,0,7.575853,0,0,1561841413.282218,169290.513647,0,0.2299805,75.19078,0,182478453,3,1,1,-31.94081,-38.87329,0
1561841476.695385,37,0,0,1561841475.996824,4.634603080344046,-74.15097931406846,2553.157,0,285.8203125,4,30,-9999,1561841476.683396,-17.87942504882812,-23.39479446411133,9.43115234375,129.9748687744141,137.4680786132812,15,169292.9911167917,-0.9911041259765625,0.403106689453125,-0.4667510986328125,169292.9911167917,7.297395879850026,-0.8241652667535138,2.283913368730395,169292.9808317917,-90.96626281738281,-48.01495361328125,-549.184814453125,169292.9860507917,0.02306665491003052,-1.162585497748853,0.1064479949171723,6.775453090667725,-0.7726710438728333,2.122148513793945,-0.04688107967376709,0.4970551729202271,-0.238106906414032,1,0.05078208446502686,-0.5477780103683472,-0.01958465948700905,0.8348513841629028,-0.9126373529434204,-0.1062470823526382,-0.3947208523750305,0,0,0,-1,169286.386338,3,2,1561841470.332837,1561841239.621676,8,3.056457,0,0,7.575853,0,0,1561841413.282218,169290.513647,0,0.2299805,75.19078,0,182478453,3,1,1,-31.94081,-35.77772,0
1561841476.725945,38,0,0,1561841475.996824,4.634603080344046,-74.15097931406846,2553.157,0,285.8203125,4,30,-9999,1561841476.710002,-18.52281951904297,-21.02519607543945,12.14013671875,118.6841506958008,126.1773529052734,15,169293.0113797917,-0.8770904541015625,0.4591522216796875,-0.0460205078125,169293.0113797917,8.844860784966958,-0.7613623356111562,2.52574464099224,169293.0009427917,-91.60758972167969,-44.88162231445312,-546.1671752929688,169293.0063137917,0.1880956971161458,-1.198256929537357,0.1218653641972741,8.638613700866699,-0.812365710735321,2.528613805770874,-0.05673325061798096,0.5481386780738831,0.1136780977249146,1,0.1029258072376251,-0.5556663274765015,0.04322060570120811,0.8238770365715027,-0.9244984984397888,-0.1215639486908913,-0.3612824082374573,0,0,0,-1,169286.386338,3,2,1561841470.332837,1561841239.621676,8,3.056457,0,0,7.575853,0,0,1561841413.282218,169290.513647,0,0.2299805,75.19078,0,182478453,3,1,1,-31.94081,-37.29721,0
1561841476.735739,39,0,0,1561841475.996824,4.634603080344046,-74.15097931406846,2553.157,0,285.8203125,4,30,-9999,1561841476.734121,-19.22942352294922,-17.67456436157227,15.3441162109375,105.6656036376953,113.158805847168,15,169293.0316437917,-0.600921630859375,0.565948486328125,0.1887359619140625,169293.0316437917,7.685726844728803,-0.9956398177570998,2.363195674382054,169293.0210237917,-92.21250915527344,-40.91609191894531,-543.2369384765625,169293.0265777917,0.3723730454552915,-1.23803361401077,0.1356138477696605,8.245040893554688,-0.8885848522186279,2.398458242416382,0.2183565497398376,0.6301479339599609,0.4268056750297546,1,0.1613912582397461,-0.5586812496185303,0.1117841005325317,0.8058116436004639,-0.9364656805992126,-0.1351985484361649,-0.3236562609672546,0,0,0,-1,169286.386338,3,2,1561841470.332837,1561841239.621676,8,3.056457,0,0,7.575853,0,0,1561841413.282218,169290.513647,0,0.2299805,75.19078,0,182478453,3,1,1,-31.94081,-37.29721,0
1561841476.756086,40,0,0,1561841475.996824,4.634603080344046,-74.15097931406846,2553.157,0,285.8203125,4,30,-9999,1561841476.734121,-19.22942352294922,-17.67456436157227,15.3441162109375,105.6656036376953,113.158805847168,15,169293.0519077917,-0.6025543212890625,0.70501708984375,0.38055419921875,169293.0519077917,4.844040218343885,-1.225479408262535,2.404003824397556,169293.0411347917,-92.25202941894531,-37.00450134277344,-541.3695068359375,169293.0468107917,0.5227561665279036,-1.280466595805118,0.1335476927050929,5.564931392669678,-1.222851037979126,2.380482196807861,0.386568546295166,0.7919340133666992,0.5576754808425903,1,0.2057193070650101,-0.5619786381721497,0.1682673394680023,0.7832915186882019,-0.949617862701416,-0.1331510692834854,-0.2837191522121429,0,0,0,-1,169286.386338,3,2,1561841470.332837,1561841239.621676,8,3.056457,0,0,7.575853,0,0,1561841413.282218,169290.513647,0,0.2299805,75.19078,0,182478453,3,1,1,-31.94081,-38.043,0
1561841476.77627,41,0,0,1561841475.996824,4.634603080344046,-74.15097931406846,2553.157,0,285.8203125,4,30,-9999,1561841476.760379,-19.54941558837891,-10.07136535644531,19.65814208984375,96.16690826416016,103.6601104736328,15,169293.0721407917,-0.7128143310546875,0.68975830078125,0.4596405029296875,169293.0721407917,2.336538763450906,-0.9459268560046996,2.287500646718732,169293.0612457917,-92.19709777832031,-34.13526916503906,-539.8370361328125,169293.0670747917,0.6180109883527246,-1.31634010661867,0.1098495727005951,2.888995885848999,-1.071046829223633,2.336662530899048,0.306586742401123,0.8167821168899536,0.7001989483833313,1,0.2271082252264023,-0.5686131119728088,0.2082350850105286,0.7627182602882385,-0.9619669914245605,-0.1096287816762924,-0.2502019703388214,0,0,0,-1,169286.386338,3,2,1561841470.332837,1561841239.621676,8,3.056457,0,0,7.575853,0,0,1561841413.282218,169290.513647,0,0.2299805,75.19078,0,182478453,3,1,1,-31.94081,-38.59305,0
1561841476.804037,42,0,0,1561841475.996824,4.634603080344046,-74.15097931406846,2553.157,0,285.8203125,4,30,-9999,1561841476.784926,-19.68361663818359,-7.668567657470703,20.5711669921875,91.39453125,98.88773345947266,15,169293.0924037917,-0.896728515625,0.61376953125,0.41961669921875,169293.0924037917,0.6532254784968157,-0.343692922899631,2.060859778998591,169293.0813567917,-91.93669128417969,-32.58126831054688,-539.6546630859375,169293.0873377917,0.6659345863448924,-1.337073724474429,0.07534663688323405,0.9983521699905396,-0.4884385466575623,2.107192277908325,0.1721078157424927,0.7312507033348083,0.6692520976066589,1,0.2303827255964279,-0.5757187604904175,0.234242245554924,0.7487338185310364,-0.9700509309768677,-0.07527536153793335,-0.2309434115886688,0,0,0,-1,169286.386338,3,2,1561841470.332837,1561841239.621676,8,3.056457,0,0,7.575853,0,0,1561841413.282218,169290.513647,0,0.2299805,75.19078,0,182478453,3,1,1,-31.94081,-38.88079,0
1561841476.816929,43,0,0,1561841475.996824,4.634603080344046,-74.15097931406846,2553.157,0,285.8203125,4,30,-9999,1561841476.811168,-19.43095397949219,-6.000579833984375,20.90411376953125,89.86263275146484,97.3558349609375,15,169293.1126677917,-0.9786376953125,0.498870849609375,0.4091033935546875,169293.1126677917,-0.3716662343576054,-0.2159168506426103,1.965936461948787,169293.1014677917,-91.84902954101562,-31.48080444335938,-539.33349609375,169293.1076017917,0.6825329916816493,-1.343816029827272,0.03718991470610512,-0.1746506690979004,-0.1898598372936249,1.961824417114258,0.01904100179672241,0.5976977348327637,0.6322903633117676,1,0.2220092713832855,-0.581611156463623,0.2509809136390686,0.7412481904029846,-0.9736766219139099,-0.03718134388327599,-0.2248806953430176,0,0,0,-1,169286.386338,3,2,1561841470.332837,1561841239.621676,8,3.056457,0,0,7.575853,0,0,1561841413.282218,169290.513647,0,0.2299805,75.19078,0,182478453,3,1,1,-31.94081,-38.88079,0
1561841476.837039,44,0,0,1561841475.996824,4.634603080344046,-74.15097931406846,2553.157,0,285.8203125,4,30,-9999,1561841476.811168,-19.43095397949219,-6.000579833984375,20.90411376953125,89.86263275146484,97.3558349609375,15,169293.1329317917,-1.04974365234375,0.3823089599609375,0.410919189453125,169293.1329317917,-0.8130537597373761,-0.5694861064448001,2.123285340214484,169293.1215787917,-92.30172729492188,-30.61553955078125,-539.409912109375,169293.1278657917,0.6817136705372819,-1.34995901526545,-0.004523073705487099,-0.7307424545288086,-0.4693250358104706,2.07406210899353,-0.03805899620056152,0.4402248561382294,0.6334426403045654,1,0.20722995698452,-0.589519739151001,0.2623217403888702,0.7353295683860779,-0.9757044315338135,0.004523058421909809,-0.2190444469451904,0,0,0,-1,169286.386338,3,2,1561841470.332837,1561841239.621676,8,3.056457,0,0,7.575853,0,0,1561841413.282218,169290.513647,0,0.2299805,75.19078,0,182478453,3,1,1,-31.94081,-39.26181,0
1561841476.857327,45,0,0,1561841475.996824,4.634603080344046,-74.15097931406846,2553.157,0,285.8203125,4,30,-9999,1561841476.835903,-19.231689453125,-4.495485305786133,21.0750732421875,89.95439147949219,97.44759368896484,15,169293.1531947917,-1.112518310546875,0.252105712890625,0.3665771484375,169293.1531947917,-1.163794472145793,-0.8180847373526449,2.216083987346622,169293.1416597917,-92.0450439453125,-30.37101745605469,-539.332275390625,169293.1481287917,0.673257613728566,-1.363532331498451,-0.05104997460732431,-1.067074418067932,-0.7978400588035583,2.214297771453857,-0.1009243726730347,0.2616247832775116,0.5964148044586182,1,0.1893754899501801,-0.6011483669281006,0.2715674638748169,0.7273297905921936,-0.9773226976394653,0.0510278046131134,-0.205515131354332,0,0,0,-1,169286.386338,3,2,1561841470.332837,1561841239.621676,8,3.056457,0,0,7.575853,0,0,1561841413.282218,169290.513647,0,0.2299805,75.19078,0,182478453,3,1,1,-31.94081,-39.75235,0
1561841476.897012,46,0,0,1561841475.996824,4.634603080344046,-74.15097931406846,2553.157,0,285.8203125,4,30,-9999,1561841476.864833,-19.35561370849609,-4.29914665222168,21.21783447265625,90.72583770751953,98.21903991699219,15,169293.1734587917,-1.226608276367188,0.0738372802734375,0.3069915771484375,169293.1734587917,-1.677957668001941,-0.7414035411376663,1.964083700778419,169293.1617707917,-91.69197082519531,-30.20054626464844,-538.7574462890625,169293.1683927917,0.6564138088634665,-1.381334623525223,-0.09923892116227491,-1.527870178222656,-0.7877381443977356,2.058523178100586,-0.1825621724128723,0.08225932717323303,0.5248517990112305,1,0.1689071506261826,-0.614628791809082,0.2780759930610657,0.7185927629470825,-0.9772736430168152,0.09907611459493637,-0.1874036490917206,0,0,0,-1,169286.386338,3,2,1561841470.332837,1561841239.621676,8,3.056457,0,0,7.575853,0,0,1561841413.282218,169290.513647,0,0.2299805,75.19078,0,182478453,3,1,1,-31.94081,-36.72464,0
1561841476.900652,47,0,0,1561841475.996824,4.634603080344046,-74.15097931406846,2553.157,0,285.8203125,4,30,-9999,1561841476.887905,-18.97809600830078,-4.211112976074219,21.648193359375,92.44863128662109,99.94183349609375,15,169293.1937227917,-1.303466796875,-0.1466217041015625,0.265960693359375,169293.1937227917,-2.450022449085798,-0.4463969313902099,1.421699519482919,169293.1818817917,-91.42153930664062,-30.27734375,-538.5573120117188,169293.1886257917,0.6258452590849241,-1.398888872608591,-0.142439553545497,-2.233114957809448,-0.5405840277671814,1.568812966346741,-0.2964310646057129,-0.1862393766641617,0.4551419615745544,1,0.1458760946989059,-0.6277382969856262,0.2785497903823853,0.712091863155365,-0.9752821922302246,0.1419583857059479,-0.1693295836448669,0,0,0,-1,169286.386338,3,2,1561841470.332837,1561841239.621676,8,3.056457,0,0,7.575853,0,0,1561841413.282218,169290.513647,0,0.2299805,75.19078,0,182478453,3,1,1,-31.94081,-36.72464,0
1561841476.918213,48,0,0,1561841475.996824,4.634603080344046,-74.15097931406846,2553.157,0,285.8203125,4,30,-9999,1561841476.915383,-18.95848846435547,-4.481721878051758,21.730712890625,95.7730712890625,103.2662734985352,15,169293.2139557917,-1.355148315429688,-0.3757781982421875,0.2039794921875,169293.2139557917,-3.37343174544166,-0.1822789955460374,0.7208636449143212,169293.2019927917,-91.38412475585938,-31.12290954589844,-538.757080078125,169293.2088897917,0.5757580462713213,-1.414436888166067,-0.1762887372282364,-3.141883134841919,-0.2245592325925827,0.905890166759491,-0.3547486662864685,-0.4345780909061432,0.3913162350654602,1,0.1195879578590393,-0.6395654082298279,0.2698310315608978,0.7098212242126465,-0.9724912643432617,0.1753770411014557,-0.1533096134662628,0,0,0,-1,169286.386338,3,2,1561841470.332837,1561841239.621676,8,3.056457,0,0,7.575853,0,0,1561841413.282218,169290.513647,0,0.2299805,75.19078,0,182478453,3,1,1,-31.94081,-34.372,0
1561841476.93832,49,0,0,1561841475.996824,4.634603080344046,-74.15097931406846,2553.157,0,285.8203125,4,30,-9999,1561841476.936836,-18.60016632080078,-6.834236145019531,21.34893798828125,101.0410079956055,108.5342102050781,15,169293.2342197917,-1.417572021484375,-0.57159423828125,0.0833282470703125,169293.2342197917,-4.283394475137603,-0.1979000332360062,-0.1502635381855409,169293.2221037917,-91.38482666015625,-32.4932861328125,-538.8019409179688,169293.2291537917,0.5038796828768575,-1.431613374742245,-0.1972949075190926,-4.054451465606689,-0.1836424171924591,0.08760538697242737,-0.4192630648612976,-0.679705798625946,0.2932692170143127,1,0.09082168340682983,-0.6509455442428589,0.2497753202915192,0.7110792398452759,-0.9711177349090576,0.1960174292325974,-0.1360426396131516,0,0,0,-1,169286.386338,3,2,1561841470.332837,1561841239.621676,8,3.056457,0,0,7.575853,0,0,1561841413.282218,169290.513647,0,0.2299805,75.19078,0,182478453,3,1,1,-31.80623,-32.25668,0
1561841476.972076,50,0,0,1561841475.996824,4.634603080344046,-74.15097931406846,2553.157,0,285.8203125,4,30,-9999,1561841476.963476,-18.42534637451172,-9.209609985351562,20.84765625,108.1701354980469,115.6633377075195,15,169293.2544827917,-1.435821533203125,-0.6520843505859375,-0.1594390869140625,169293.2544827917,-5.077958972690995,-0.3649348283863211,-1.13564352784311,169293.2421847917,-91.0732421875,-34.38473510742188,-539.4141845703125,169293.2494167917,0.4104823124646054,-1.455104281379765,-0.2007444063552311,-4.922008991241455,-0.3217747211456299,-0.9037117958068848,-0.4601191878318787,-0.8229798078536987,0.09051775932312012,1,0.06159385293722153,-0.6630597114562988,0.2166763842105865,0.7138692736625671,-0.9733677506446838,0.1993988454341888,-0.1131160333752632,0,0,0,-1,169286.386338,3,2,1561841470.332837,1561841239.621676,8,3.056457,0,0,7.575853,0,0,1561841413.282218,169290.513647,0,0.2299805,75.19078,0,182478453,3,1,1,-30.4751,-31.03672,0
1561841476.97902,51,0,0,1561841475.996824,4.634603080344046,-74.15097931406846,2553.157,0,285.8203125,4,30,-9999,1561841476.963476,-18.42534637451172,-9.209609985351562,20.84765625,108.1701354980469,115.6633377075195,15,169293.2747467917,-1.380828857421875,-0.6620330810546875,-0.43896484375,169293.2747467917,-5.314576574486791,-0.3704499686877661,-1.947655458962047,169293.2622957917,-90.81246948242188,-37.4879150390625,-540.0256958007812,169293.2696807917,0.3015612451058302,-1.484140542286808,-0.1841120028349147,-5.307267189025879,-0.4179175198078156,-1.761473655700684,-0.4291743040084839,-0.8484636545181274,-0.2214034199714661,1,0.0340970866382122,-0.6754961609840393,0.1716667711734772,0.7162910103797913,-0.9794103503227234,0.1830736100673676,-0.08508464694023132,0,0,0,-1,169286.386338,3,2,1561841470.332837,1561841239.621676,8,3.056457,0,0,7.575853,0,0,1561841413.282218,169290.513647,0,0.2299805,75.19078,0,182478453,3,1,1,-30.4751,-31.03672,0
1561841476.999284,52,0,0,1561841475.996824,4.634603080344046,-74.15097931406846,2553.157,0,285.8203125,4,30,-9999,1561841476.988005,-18.01840972900391,-12.17221832275391,20.01080322265625,116.1732635498047,123.6664657592773,15,169293.2950107917,-1.314620971679688,-0.601104736328125,-0.69921875,169293.2950107917,-5.243718912627489,0.0953132038333909,-2.62096676471635,169293.2824067917,-89.90715026855469,-40.56759643554688,-541.1605224609375,169293.2899447917,0.1897104466260388,-1.508573950689884,-0.1490655753393574,-5.273131847381592,-0.07425414025783539,-2.46879243850708,-0.362963855266571,-0.7883914709091187,-0.5096438527107239,1,0.01065423060208559,-0.6849380731582642,0.1195927485823631,0.7186402678489685,-0.9869964718818665,0.14851413667202,-0.06149264797568321,0,0,0,-1,169286.386338,3,2,1561841470.332837,1561841239.621676,8,3.056457,0,0,7.575853,0,0,1561841413.282218,169290.513647,0,0.2299805,75.19078,0,182478453,3,1,1,-29.78126,-31.0773,0
1561841477.019547,53,0,0,1561841475.996824,4.634603080344046,-74.15097931406846,2553.157,0,285.8203125,4,30,-9999,1561841477.014007,-17.25910949707031,-15.15936660766602,18.8768310546875,124.0492172241211,131.5424194335938,15,169293.3152737917,-1.269805908203125,-0.468597412109375,-0.89422607421875,169293.3152737917,-4.952221017616211,0.7119300710376504,-3.17058808627414,169293.3025177917,-89.41496276855469,-43.33653259277344,-542.7340087890625,169293.3102077917,0.08049260988919792,-1.516916836517211,-0.09896845716513682,-5.080494403839111,0.579617977142334,-3.054008483886719,-0.2976430058479309,-0.6425386667251587,-0.751891016960144,1,-0.008236536756157875,-0.6878497004508972,0.06316501647233963,0.7230526208877563,-0.9936625361442566,0.09880697727203369,-0.05358989909291267,0,0,0,-1,169286.386338,3,2,1561841470.332837,1561841239.621676,8,3.056457,0,0,7.575853,0,0,1561841413.282218,169290.513647,0,0.2299805,75.19078,0,182478453,3,1,1,-28.59807,-31.20499,0
1561841477.050747,54,0,0,1561841475.996824,4.634603080344046,-74.15097931406846,2553.157,0,285.8203125,4,30,-9999,1561841477.040359,-15.44078063964844,-20.83164215087891,15.43505859375,131.1063232421875,138.5995330810547,15,169293.3355377917,-1.24017333984375,-0.31671142578125,-1.013168334960938,169293.3355377917,-3.981010376538409,1.046861992899248,-3.48705844282709,169293.3226287917,-88.67416381835938,-46.31367492675781,-544.7134399414062,169293.3304407917,-0.01932681662557689,-1.507684299661551,-0.03843206304484047,-4.281567573547363,0.9795035719871521,-3.441604137420654,-0.2605860829353333,-0.4301767647266388,-0.898463249206543,1,-0.02062095701694489,-0.684151291847229,0.006107053719460964,0.7290230393409729,-0.997272253036499,0.0384226031601429,-0.06302357465028763,0,0,0,-1,169286.386338,3,2,1561841470.332837,1561841239.621676,8,3.056457,0,0,7.575853,0,0,1561841413.282218,169290.513647,0,0.2299805,75.19078,0,182478453,3,1,1,-28.59807,-28.84292,0
1561841477.059934,55,0,0,1561841475.996824,4.634603080344046,-74.15097931406846,2553.157,0,285.8203125,4,30,-9999,1561841477.040359,-15.44078063964844,-20.83164215087891,15.43505859375,131.1063232421875,138.5995330810547,15,169293.3557707917,-1.176315307617188,-0.1533050537109375,-1.121932983398438,169293.3557707917,-2.765597983512482,1.391310987232352,-3.479051382693658,169293.3427097917,-87.23033142089844,-48.73080444335938,-546.4982299804688,169293.3507047917,-0.09879590747951467,-1.48558909696652,0.02697515825387536,-3.064287185668945,1.285945296287537,-3.515817165374756,-0.2189105749130249,-0.20616714656353,-0.9837439060211182,1,-0.02347135543823242,-0.6759530305862427,-0.04547841474413872,0.7351654171943665,-0.9960094690322876,-0.02697188779711723,-0.08507319539785385,0,0,0,-1,169286.386338,3,2,1561841470.332837,1561841239.621676,8,3.056457,0,0,7.575853,0,0,1561841413.282218,169290.513647,0,0.2299805,75.19078,0,182478453,3,1,1,-28.59807,-28.84292,0
1561841477.080222,56,0,0,1561841476.99681,4.634603080344046,-74.15097931406846,2553.168,0,276.6796875,4,30,-9999,1561841477.068869,-14.04494476318359,-22.89656829833984,13.68170166015625,136.2762298583984,143.7694396972656,15,169293.3760347917,-1.095947265625,-0.0157012939453125,-1.154876708984375,169293.3760347917,-1.677647942367165,1.944653011149092,-3.25128213361965,169293.3628207917,-86.21994018554688,-50.19479370117188,-547.89697265625,169293.3709687917,-0.1559823032957831,-1.451585317192406,0.09109050724954536,-1.926520347595215,1.787285566329956,-3.31881046295166,-0.1370377540588379,0.005927354097366333,-1.038607597351074,1,-0.01770752109587193,-0.6636780500411987,-0.08834314346313477,0.7425720691680908,-0.9887862205505371,-0.09096458554267883,-0.1184357777237892,0,0,0,-1,169286.386338,3,2,1561841470.332837,1561841239.621676,8,3.056457,0,0,7.575853,0,0,1561841413.282218,169290.513647,0,0.2299805,75.19078,0,182478453,3,1,1,-26.38917,-29.56111,0
1561841477.100509,57,0,0,1561841476.99681,4.634603080344046,-74.15097931406846,2553.168,0,276.6796875,4,30,-9999,1561841477.068869,-14.04494476318359,-22.89656829833984,13.68170166015625,136.2762298583984,143.7694396972656,15,169293.3962977917,-1.049346923828125,0.105560302734375,-1.110519409179688,169293.3962977917,-0.86947948533343,2.426459598709104,-3.02443140880561,169293.3829317917,-84.95162963867188,-51.55963134765625,-548.9577026367188,169293.3912317917,-0.1948027784177138,-1.404971950137547,0.151147669255535,-1.050520181655884,2.320271015167236,-3.087660312652588,-0.1053453683853149,0.1972799748182297,-0.9734742045402527,1,-0.005301070865243673,-0.6468231081962585,-0.1225629821419716,0.7527084946632385,-0.9750379323959351,-0.1505728214979172,-0.1631835252046585,0,0,0,-1,169286.386338,3,2,1561841470.332837,1561841239.621676,8,3.056457,0,0,7.575853,0,0,1561841413.282218,169290.513647,0,0.2299805,75.19078,0,182478453,3,1,1,-26.38917,-30.38892,0
1561841477.125212,58,0,0,1561841476.99681,4.634603080344046,-74.15097931406846,2553.168,0,276.6796875,4,30,-9999,1561841477.068869,-14.04494476318359,-22.89656829833984,13.68170166015625,136.2762298583984,143.7694396972656,15,169293.4165617917,-1.074310302734375,0.2176055908203125,-1.047683715820312,169293.4165617917,-0.2811280783587266,2.714834671026155,-2.794075165048699,169293.4030427917,-84.29963684082031,-52.23280334472656,-550.0155029296875,169293.4114957917,-0.2209802667960721,-1.349562949804745,0.2074895507120264,-0.4140539467334747,2.666980504989624,-2.853118181228638,-0.08759593963623047,0.3664501011371613,-0.8637495040893555,1,0.01185469888150692,-0.6264951825141907,-0.1499385684728622,0.7647755146026611,-0.9547014236450195,-0.2060039490461349,-0.2147265076637268,0,0,0,-1,169286.386338,3,2,1561841470.332837,1561841239.621676,8,3.056457,0,0,7.575853,0,0,1561841413.282218,169290.513647,0,0.2299805,75.19078,0,182478453,3,1,1,-26.38917,-30.93015,0
1561841477.140829,59,0,0,1561841476.99681,4.634603080344046,-74.15097931406846,2553.168,0,276.6796875,4,30,-9999,1561841477.122941,-12.125732421875,-25.69650268554688,11.2069091796875,141.6059265136719,149.0991363525391,15,169293.4368257917,-1.104232788085938,0.3379974365234375,-0.979461669921875,169293.4368257917,0.257013154688059,2.616254833799672,-2.500618515055669,169293.4231537917,-83.54312133789062,-52.78681945800781,-550.613037109375,169293.4317597917,-0.2381483709414799,-1.290801163881972,0.2603965164488465,0.1116913333535194,2.673618078231812,-2.591052532196045,-0.1624830961227417,0.5276663303375244,-0.7464998960494995,1,0.03213062509894371,-0.6045248508453369,-0.1716382205486298,0.7772114872932434,-0.9286576509475708,-0.2574637234210968,-0.267034649848938,0,0,0,-1,169286.386338,3,2,1561841470.332837,1561841239.621676,8,3.056457,0,0,7.575853,0,0,1561841413.282218,169290.513647,0,0.2299805,75.19078,0,182478453,3,1,1,-26.38917,-30.93015,0
1561841477.161154,60,0,0,1561841476.99681,4.634603080344046,-74.15097931406846,2553.168,0,276.6796875,4,30,-9999,1561841477.122941,-12.125732421875,-25.69650268554688,11.2069091796875,141.6059265136719,149.0991363525391,15,169293.4570887917,-1.117507934570312,0.534637451171875,-0.947418212890625,169293.4570887917,1.01232079356092,2.274600827030606,-1.926506231481292,169293.4432647917,-82.51658630371094,-52.86326599121094,-550.9056396484375,169293.4520237917,-0.2449060496235153,-1.237850982404247,0.3090772446174706,0.7717525959014893,2.346929550170898,-2.118254661560059,-0.2286971807479858,0.7345996499061584,-0.6465750932693481,1,0.05441240221261978,-0.5842676758766174,-0.186935618519783,0.7878613471984863,-0.9003006219863892,-0.3041797280311584,-0.3113411366939545,0,0,0,-1,169286.386338,3,2,1561841470.332837,1561841239.621676,8,3.056457,0,0,7.575853,0,0,1561841413.282218,169290.513647,0,0.2299805,75.19078,0,182478453,3,1,1,-23.66175,-30.57937,0
1561841477.181517,61,0,0,1561841476.99681,4.634603080344046,-74.15097931406846,2553.168,0,276.6796875,4,30,-9999,1561841477.165566,-9.656845092773438,-26.90847015380859,9.37841796875,142.8954620361328,150.388671875,15,169293.4773527917,-1.059112548828125,0.6618804931640625,-0.902008056640625,169293.4773527917,2.535153322807381,2.194614115270621,-0.9681381521281784,169293.4633757917,-82.12348937988281,-53.07583618164062,-551.0313720703125,169293.4722567917,-0.2304627933848326,-1.197475731594784,0.3507013009593343,2.056275367736816,2.175495624542236,-1.217386484146118,-0.204609751701355,0.9526568651199341,-0.5903968811035156,1,0.0793440192937851,-0.5678462982177734,-0.191189631819725,0.7966817021369934,-0.8744459748268127,-0.3435564935207367,-0.3425102233886719,0,0,0,-1,169286.386338,3,2,1561841470.332837,1561841239.621676,8,3.056457,0,0,7.575853,0,0,1561841413.282218,169290.513647,0,0.2299805,75.19078,0,182478453,3,1,1,-23.66175,-30.7188,0
1561841477.201804,62,0,0,1561841476.99681,4.634603080344046,-74.15097931406846,2553.168,0,276.6796875,4,30,-9999,1561841477.190095,-9.552734375,-26.75296783447266,9.55194091796875,140.2817230224609,147.7749328613281,15,169293.4975857917,-1.037216186523438,0.7063140869140625,-0.704833984375,169293.4975857917,4.905852187244624,2.221562109708915,-0.03158136210281366,169293.4834867917,-82.08140563964844,-52.68037414550781,-550.1199951171875,169293.4925197917,-0.1738025173046578,-1.173204851464009,0.3882309980879002,4.279901504516602,2.241071224212646,-0.2501148581504822,-0.1920592784881592,1.073269128799438,-0.4757686853408813,1,0.1129048392176628,-0.5550321936607361,-0.1772982329130173,0.8048335313796997,-0.8533813953399658,-0.3785516619682312,-0.3583835363388062,0,0,0,-1,169286.386338,3,2,1561841470.332837,1561841239.621676,8,3.056457,0,0,7.575853,0,0,1561841413.282218,169290.513647,0,0.2299805,75.19078,0,182478453,3,1,1,-23.66175,-28.20263,0
1561841477.221968,63,0,0,1561841476.99681,4.634603080344046,-74.15097931406846,2553.168,0,276.6796875,4,30,-9999,1561841477.21664,-9.773475646972656,-26.17580413818359,10.96527099609375,132.888427734375,140.3816375732422,15,169293.5178497917,-1.050506591796875,0.717254638671875,-0.293060302734375,169293.5178497917,7.289812262329917,1.88833700778995,0.6366507628204896,169293.5035677917,-82.58370971679688,-51.2872314453125,-548.12451171875,169293.5127837917,-0.06022545110533609,-1.174941474453073,0.4288760440143313,6.725389957427979,1.999909162521362,0.5039983987808228,-0.2082127928733826,1.142365694046021,-0.1760278940200806,1,0.1607359200716019,-0.546650230884552,-0.1423780471086502,0.809361457824707,-0.8391047120094299,-0.4158489108085632,-0.3506749868392944,0,0,0,-1,169293.5082977917,3,2,1561841477.454796,1561841239.621676,8,3.056457,0,0,7.575853,0,0,1561841413.282218,169290.513647,0,0.2299805,75.19078,0,182478453,3,1,1,-23.66175,-28.45326,0
1561841477.242635,64,0,0,1561841476.99681,4.634603080344046,-74.15097931406846,2553.168,0,276.6796875,4,30,-9999,1561841477.240721,-11.20700073242188,-22.09008407592773,16.12835693359375,120.6120529174805,128.1052551269531,15,169293.5381137917,-1.045867919921875,0.695526123046875,0.2257080078125,169293.5381137917,9.005038206626427,1.174700649441885,0.9550540416926191,169293.5236787917,-83.73945617675781,-49.04521179199219,-545.4108276367188,169293.5330477917,0.1080852409509987,-1.213663439957842,0.4735280944508761,8.649693489074707,1.369485139846802,0.8786526918411255,-0.2097073197364807,1.153233528137207,0.2849077582359314,1,0.2223430126905441,-0.54314124584198,-0.09043139219284058,0.8046013116836548,-0.8338107466697693,-0.4560289978981018,-0.3111223578453064,0,0,0,-1,169293.5082977917,3,2,1561841477.454796,1561841239.621676,8,3.056457,0,0,7.575853,0,0,1561841413.282218,169290.513647,0,0.2299805,75.19078,0,182478453,3,1,1,-23.66175,-27.17787,0
1561841477.285532,65,0,0,1561841476.99681,4.634603080344046,-74.15097931406846,2553.168,0,276.6796875,4,30,-9999,1561841477.267163,-12.00114440917969,-18.50871276855469,19.24639892578125,104.8924179077148,112.3856201171875,15,169293.5583767917,-1.073318481445312,0.7185516357421875,0.768524169921875,169293.5583767917,9.847323621436839,0.186164014944245,1.353873333892454,169293.5437897917,-84.62849426269531,-45.72314453125,-542.3020629882812,169293.5533107917,0.3184439842910852,-1.294118469927271,0.5125043034408355,9.773443222045898,0.4973012506961823,1.237274169921875,-0.2299550771713257,1.189152836799622,0.7345558404922485,1,0.2921249270439148,-0.5437189936637878,-0.02849181368947029,0.7862702012062073,-0.8383737206459045,-0.4903613328933716,-0.2380653619766235,0,0,0,-1,169293.5082977917,3,2,1561841477.454796,1561841239.621676,8,3.056457,0,0,7.575853,0,0,1561841413.282218,169290.513647,0,0.2299805,75.19078,0,182478453,3,1,1,-23.66175,-23.66175,0
1561841477.288253,66,0,0,1561841476.99681,4.634603080344046,-74.15097931406846,2553.168,0,276.6796875,4,30,-9999,1561841477.267163,-12.00114440917969,-18.50871276855469,19.24639892578125,104.8924179077148,112.3856201171875,15,169293.5786407917,-0.9239959716796875,0.7659454345703125,1.018692016601562,169293.5786407917,8.396240646698748,-1.056275468404351,1.714774272175632,169293.5639007917,-85.0902099609375,-41.13204956054688,-539.3104858398438,169293.5735747917,0.5451367099599838,-1.410490398733858,0.5263678117590271,9.020323753356934,-0.8226692080497742,1.659381151199341,-0.1696417927742004,1.246918201446533,1.095685720443726,1,0.3592793643474579,-0.5494647622108459,0.03551620244979858,0.7534887790679932,-0.8535515666007996,-0.5023961067199707,-0.138013631105423,0,0,0,-1,169293.5082977917,3,2,1561841477.454796,1561841239.621676,8,3.056457,0,0,7.575853,0,0,1561841413.282218,169290.513647,0,0.2299805,75.19078,0,182478453,3,1,1,-23.66175,-23.66175,0
1561841477.303075,67,0,0,1561841476.99681,4.634603080344046,-74.15097931406846,2553.168,0,276.6796875,4,30,-9999,1561841477.291277,-12.50953674316406,-13.61913681030273,21.69775390625,90.13332366943359,97.62652587890625,15,169293.5989047917,-0.8291473388671875,0.77294921875,0.9123992919921875,169293.5989047917,5.086225424714601,-0.8515865049175146,1.539711377919274,169293.5840117917,-84.97201538085938,-36.79646301269531,-537.486328125,169293.5938077917,0.7251510854993812,-1.522029250805938,0.5083531023001785,5.963265895843506,-1.062324643135071,1.637603163719177,0.0226094126701355,1.272994160652161,1.024837493896484,1,0.4069958627223969,-0.5595200061798096,0.08644834160804749,0.7168112397193909,-0.872508704662323,-0.4867392778396606,-0.04258346185088158,0,0,0,-1,169293.5082977917,3,2,1561841477.454796,1561841239.621676,8,3.056457,0,0,7.575853,0,0,1561841413.282218,169290.513647,0,0.2299805,75.19078,0,182478453,3,1,1,-23.66175,-23.66175,0
1561841477.32328,68,0,0,1561841476.99681,4.634603080344046,-74.15097931406846,2553.168,0,276.6796875,4,30,-9999,1561841477.318265,-12.30888366699219,-9.633354187011719,23.3939208984375,82.00477600097656,89.49797821044922,15,169293.6191377917,-0.81121826171875,0.659210205078125,0.7866058349609375,169293.6191377917,2.093060059738739,0.5628497753244317,1.017272142659595,169293.6041227917,-84.68917846679688,-33.62001037597656,-536.2012329101562,169293.6140717917,0.8243036908773869,-1.579879579233305,0.4816044099105088,2.729306936264038,0.1714538782835007,1.125217437744141,0.07431143522262573,1.18160080909729,0.8179998397827148,1,0.430135577917099,-0.5648082494735718,0.1186181753873825,0.6941936016082764,-0.8862163424491882,-0.4632016718387604,0.008049948140978813,0,0,0,-1,169293.5082977917,3,2,1561841477.454796,1561841239.621676,8,3.056457,0,0,7.575853,0,0,1561841413.282218,169290.513647,0,0.2299805,75.19078,0,182478453,3,1,1,-16.57589,-24.37194,0
1561841477.368726,69,0,0,1561841476.99681,4.634603080344046,-74.15097931406846,2553.168,0,276.6796875,4,30,-9999,1561841477.342166,-12.87009429931641,-5.643817901611328,24.088623046875,79.59317779541016,87.08638000488281,15,169293.6394007917,-0.8661651611328125,0.62896728515625,0.83050537109375,169293.6394007917,0.4306280882597417,1.441995203834304,1.004971800532846,169293.6242337917,-85.07176208496094,-32.24867248535156,-536.30224609375,169293.6343357917,0.8604964275555553,-1.579112590056756,0.4613538977187811,0.6981481313705444,1.360491156578064,0.943246603012085,0.05797147750854492,1.074448585510254,0.7866207361221313,1,0.4346348643302917,-0.5610845685005188,0.1383772194385529,0.6907447576522827,-0.8954195976257324,-0.4451608657836914,0.007446716539561749,0,0,0,-1,169293.5082977917,3,2,1561841477.454796,1561841239.621676,8,3.056457,0,0,7.575853,0,0,1561841413.282218,169290.513647,0,0.2299805,75.19078,0,182478453,3,1,1,-16.57589,-17.55465,0
1561841477.371285,70,0,0,1561841476.99681,4.634603080344046,-74.15097931406846,2553.168,0,276.6796875,4,30,-9999,1561841477.369687,-13.57350158691406,-5.32298469543457,23.89935302734375,79.23356628417969,86.72676849365234,15,169293.6596647917,-0.862335205078125,0.5912017822265625,0.9453277587890625,169293.6596647917,0.1510118864518531,0.8142372685258074,1.5612736616851,169293.6443147917,-85.76322937011719,-31.22213745117188,-536.5607299804688,169293.6545987917,0.8674775090509085,-1.555057741424409,0.4385881164955737,0.1105253994464874,1.079343914985657,1.388137459754944,0.04461377859115601,1.036127090454102,0.9103055000305176,1,0.4284392297267914,-0.5561615228652954,0.1538520157337189,0.6953083872795105,-0.905239999294281,-0.4246616363525391,-0.0142483739182353,0,0,0,-1,169293.5082977917,3,2,1561841477.454796,1561841239.621676,8,3.056457,0,0,7.575853,0,0,1561841413.282218,169290.513647,0,0.2299805,75.19078,0,182478453,3,1,1,-16.57589,-17.55465,0
1561841477.384167,71,0,0,1561841476.99681,4.634603080344046,-74.15097931406846,2553.168,0,276.6796875,4,30,-9999,1561841477.369687,-13.57350158691406,-5.32298469543457,23.89935302734375,79.23356628417969,86.72676849365234,15,169293.6799287917,-0.9139556884765625,0.5118560791015625,0.9497528076171875,169293.6799287917,0.7146318479635357,-0.4081470139178378,2.253533624911425,169293.6644257917,-86.44400024414062,-31.07188415527344,-536.6923217773438,169293.6748627917,0.8745212105818485,-1.547858603229047,0.4035645023156155,0.5480694174766541,-0.118870347738266,2.084764957427979,0.02577888965606689,0.9519336223602295,0.9857538342475891,1,0.4198181331157684,-0.5596482157707214,0.1697996854782104,0.6940566897392273,-0.9194251298904419,-0.3926989734172821,-0.0210932195186615,0,0,0,-1,169293.5082977917,3,2,1561841477.454796,1561841239.621676,8,3.056457,0,0,7.575853,0,0,1561841413.282218,169290.513647,0,0.2299805,75.19078,0,182478453,3,1,1,-16.57589,-18.33329,0
1561841477.404375,72,0,0,1561841476.99681,4.634603080344046,-74.15097931406846,2553.168,0,276.6796875,4,30,-9999,1561841477.393076,-13.95592498779297,-4.629400253295898,23.75799560546875,78.21037292480469,85.70357513427734,15,169293.7001917917,-0.9957733154296875,0.4310760498046875,0.8858184814453125,169293.7001917917,1.365314273935435,-1.068198440604636,2.849954676305178,169293.6845367917,-86.36314392089844,-30.02522277832031,-536.6427001953125,169293.6951267917,0.8944733511706169,-1.56795730911646,0.3551113373837032,1.214132189750671,-0.997735857963562,2.707854747772217,0.002911508083343506,0.8158191442489624,0.9094001650810242,1,0.4133393466472626,-0.5725553631782532,0.1889771223068237,0.68236243724823,-0.9376038908958435,-0.3476947546005249,-0.00266188126988709,0,0,0,-1,169293.5082977917,3,2,1561841477.454796,1561841239.621676,8,3.056457,0,0,7.575853,0,0,1561841413.282218,169290.513647,0,0.2299805,75.19078,0,182478453,3,1,1,-12.0048,-18.38368,0
1561841477.45338,73,0,0,1561841476.99681,4.634603080344046,-74.15097931406846,2553.168,0,276.6796875,4,30,-9999,1561841477.443374,-12.60575103759766,-0.6437397003173828,24.8680419921875,74.64387512207031,82.13707733154297,15,169293.7204557917,-1.055130004882812,0.3534698486328125,0.871612548828125,169293.7204557917,1.429739602813869,-1.162901514232289,3.305763485303837,169293.7046477917,-86.18888854980469,-28.72915649414062,-536.3013305664062,169293.7153897917,0.924252205052847,-1.599915176735031,0.2946832894358712,1.509773135185242,-1.170302867889404,3.193650960922241,-0.08654129505157471,0.6795358657836914,0.8554258346557617,1,0.407914400100708,-0.589521586894989,0.2130121886730194,0.6638492941856384,-0.9564884305000305,-0.2904368042945862,0.02785971760749817,0,0,0,-1,169293.5082977917,3,2,1561841477.454796,1561841239.621676,8,3.056457,0,0,7.575853,0,0,1561841413.282218,169290.513647,0,0.2299805,75.19078,0,182478453,3,1,1,-11.77021,-18.38691,0
1561841477.457167,74,0,0,1561841476.99681,4.634603080344046,-74.15097931406846,2553.168,0,276.6796875,4,30,-9999,1561841477.443374,-12.60575103759766,-0.6437397003173828,24.8680419921875,74.64387512207031,82.13707733154297,15,169293.7407197917,-1.1339111328125,0.27423095703125,0.8439788818359375,169293.7407197917,0.5176098589389286,-0.8589581348148539,3.604125411708684,169293.7247287917,-85.33871459960938,-27.10702514648438,-535.6355590820312,169293.7356227917,0.9470398582150075,-1.628528871807802,0.2248642539534082,0.8202157020568848,-0.9919112324714661,3.576186656951904,-0.1005302667617798,0.5386936664581299,0.7982748746871948,1,0.398072361946106,-0.6079986095428467,0.2384252846240997,0.6442277431488037,-0.9732002019882202,-0.22297403216362,0.05624783039093018,0,0,0,-1,169293.5082977917,3,2,1561841477.454796,1561841239.621676,8,3.056457,0,0,7.575853,0,0,1561841413.282218,169290.513647,0,0.2299805,75.19078,0,182478453,3,1,1,-11.77021,-18.38691,0
1561841477.465242,75,0,0,1561841476.99681,4.634603080344046,-74.15097931406846,2553.168,0,276.6796875,4,30,-9999,1561841477.443374,-12.60575103759766,-0.6437397003173828,24.8680419921875,74.64387512207031,82.13707733154297,15,169293.7609527917,-1.288543701171875,0.16851806640625,0.80657958984375,169293.7609527917,-0.9555608412480612,-0.3170756930687251,3.387378720070405,169293.7448397917,-84.8980712890625,-25.67369079589844,-535.4479370117188,169293.7558867917,0.9453182359354676,-1.642893309550504,0.1526437131003553,-0.5845508575439453,-0.4325084388256073,3.467776775360107,-0.2374771237373352,0.3804604411125183,0.7601019144058228,1,0.3785796463489532,-0.6263193488121033,0.2594973146915436,0.6301289796829224,-0.9858047366142273,-0.1520516276359558,0.07119695097208023,0,0,0,-1,169293.5082977917,3,2,1561841477.454796,1561841239.621676,8,3.056457,0,0,7.575853,0,0,1561841413.282218,169290.513647,0,0.2299805,75.19078,0,182478453,3,1,1,-11.77021,-18.38691,0
1561841477.48542,76,0,0,1561841476.99681,4.634603080344046,-74.15097931406846,2553.168,0,276.6796875,4,30,-9999,1561841477.469476,-12.15467834472656,0.4209766387939453,24.95556640625,75.46393585205078,82.95713806152344,15,169293.7812167917,-1.385101318359375,0.0435028076171875,0.73260498046875,169293.7812167917,-2.255230591158024,-0.2813890681455543,3.302973025113652,169293.7649507917,-84.56732177734375,-25.51644897460938,-535.4713134765625,169293.7761507917,0.9139440104876125,-1.644903802320542,0.08716502388957287,-1.960468292236328,-0.2226646542549133,3.273599863052368,-0.3378447294235229,0.196231335401535,0.705294132232666,1,0.3496390581130981,-0.6439191102981567,0.271289587020874,0.6241176128387451,-0.9934694170951843,-0.08705469220876694,0.07375857979059219,0,0,0,-1,169293.5082977917,3,2,1561841477.454796,1561841239.621676,8,3.056457,0,0,7.575853,0,0,1561841413.282218,169290.513647,0,0.2299805,75.19078,0,182478453,3,1,1,-11.77021,-19.30729,0
1561841477.533705,77,0,0,1561841476.99681,4.634603080344046,-74.15097931406846,2553.168,0,276.6796875,4,30,-9999,1561841477.520422,-10.43099212646484,-1.024990081787109,25.64306640625,83.40599060058594,90.89919281005859,15,169293.8014797917,-1.583709716796875,-0.138336181640625,0.5656585693359375,169293.8014797917,-2.965855979577644,-0.9770986239318591,3.47782925806942,169293.7850617917,-84.03520202636719,-26.02296447753906,-535.1279907226562,169293.7964137917,0.8584943981774025,-1.650855876103295,0.02333185531932295,-2.887463808059692,-0.7703940272331238,3.44450306892395,-0.4746047854423523,-0.01310825347900391,0.5743141174316406,1,0.3130031824111938,-0.6648346781730652,0.2744614481925964,0.6202376484870911,-0.9965255856513977,-0.02332973852753639,0.07995228469371796,0,0,0,-1,169293.5082977917,3,2,1561841477.454796,1561841239.621676,8,3.056457,0,0,7.575853,0,0,1561841413.282218,169290.513647,0,0.2299805,75.19078,0,182478453,3,1,1,-11.77021,-21.12137,0
1561841477.536525,78,0,0,1561841476.99681,4.634603080344046,-74.15097931406846,2553.168,0,276.6796875,4,30,-9999,1561841477.520422,-10.43099212646484,-1.024990081787109,25.64306640625,83.40599060058594,90.89919281005859,15,169293.8217437917,-1.748611450195312,-0.393218994140625,0.37420654296875,169293.8217437917,-2.813787084489139,-1.70976859459072,3.344841645875224,169293.8051727917,-83.51068115234375,-26.95574951171875,-535.092529296875,169293.8166777917,0.7926217922120123,-1.675307834507852,-0.04106468069256573,-2.892587900161743,-1.549396634101868,3.412872314453125,-0.6892629861831665,-0.3127969205379486,0.3690942525863647,1,0.2741052806377411,-0.6906395554542542,0.2723452746868134,0.6113193035125732,-0.993705153465271,0.04105313867330551,0.1042333990335464,0,0,0,-1,169293.5082977917,3,2,1561841477.454796,1561841239.621676,8,3.056457,0,0,7.575853,0,0,1561841413.282218,169290.513647,0,0.2299805,75.19078,0,182478453,3,1,1,-11.77021,-21.12137,0
1561841477.546233,79,0,0,1561841476.99681,4.634603080344046,-74.15097931406846,2553.168,0,276.6796875,4,30,-9999,1561841477.520422,-10.43099212646484,-1.024990081787109,25.64306640625,83.40599060058594,90.89919281005859,15,169293.841997,-1.79193115234375,-0.5511627197265625,0.151702880859375,169293.841997,-2.47733076921958,-2.150479943369719,2.748617402086028,169293.8252527917,-82.58970642089844,-27.92677307128906,-534.7227783203125,169293.8369417917,0.7296060501070022,-1.717274150055051,-0.09885671711819521,-2.549597024917603,-2.099358558654785,2.933932304382324,-0.8008019328117371,-0.5706195831298828,0.1111209392547607,1,0.2395624965429306,-0.7177957892417908,0.2677891552448273,0.5963789820671082,-0.9844611287117004,0.0986957773566246,0.1452419757843018,0,0,0,-1,169293.5082977917,3,2,1561841477.454796,1561841239.621676,8,3.056457,0,0,7.575853,0,0,1561841413.282218,169290.513647,0,0.2299805,75.19078,0,182478453,3,1,1,-11.77021,-22.01377,0
1561841477.566482,80,0,0,1561841476.99681,4.634603080344046,-74.15097931406846,2553.168,0,276.6796875,4,30,-9999,1561841477.545419,-9.519287109375,-1.959823608398438,26.015869140625,87.88459777832031,95.37779998779297,15,169293.86226,-1.729202270507812,-0.6511383056640625,-0.059295654296875,169293.86226,-2.401857316558953,-2.121722863602935,1.973276133913046,169293.845354,-81.22383117675781,-28.98733520507812,-534.0853881835938,169293.857194,0.6715601285870708,-1.768132218789099,-0.1411475628980922,-2.407791614532471,-2.167826175689697,2.147370100021362,-0.7912290096282959,-0.7512292861938477,-0.1392372846603394,1,0.211969405412674,-0.7430497407913208,0.2598762512207031,0.5791463255882263,-0.9708406925201416,0.1406793594360352,0.1941078901290894,0,0,0,-1,169293.5082977917,3,2,1561841477.454796,1561841239.621676,8,3.056457,0,0,7.575853,0,0,1561841413.282218,169290.513647,0,0.2299805,75.19078,0,182478453,3,1,1,-11.77021,-22.9394,0
1561841477.604547,81,0,0,1561841476.99681,4.634603080344046,-74.15097931406846,2553.168,0,276.6796875,4,30,-9999,1561841477.596723,-6.906715393066406,-4.139589309692383,26.42559814453125,95.67190551757812,103.1651077270508,15,169293.882524,-1.706680297851562,-0.727264404296875,-0.239288330078125,169293.882524,-2.175908604406123,-1.827912545817142,1.381596041891852,169293.865465,-79.94612121582031,-29.73016357421875,-533.903076171875,169293.877428,0.6160067679510483,-1.818182556995131,-0.1665524138936692,-2.280419111251831,-1.888310790061951,1.528025507926941,-0.7590097188949585,-0.8536038994789124,-0.404812216758728,1,0.1896394640207291,-0.7647077441215515,0.2481691986322403,0.5636230707168579,-0.9561392068862915,0.1657834649085999,0.2414821237325668,0,0,0,-1,169293.5082977917,3,2,1561841477.454796,1561841239.621676,8,3.056457,0,0,7.575853,0,0,1561841413.282218,169291.456356,0,0.5839844,75.18745,0,182478453,3,1,1,-11.77021,-23.96603,0
1561841477.606764,82,0,0,1561841476.99681,4.634603080344046,-74.15097931406846,2553.168,0,276.6796875,4,30,-9999,1561841477.596723,-6.906715393066406,-4.139589309692383,26.42559814453125,95.67190551757812,103.1651077270508,15,169293.902757,-1.543731689453125,-0.784515380859375,-0.374786376953125,169293.902757,-1.040903436276305,-2.610613992294776,0.9155159532009758,169293.885576,-78.69575500488281,-31.24066162109375,-533.85546875,169293.897691,0.5701055449216251,-1.865886370661978,-0.1801433757596688,-1.477712154388428,-2.306765079498291,0.9838998913764954,-0.7038633227348328,-0.9379138946533203,-0.5814231634140015,1,0.1735987663269043,-0.7828942537307739,0.2361203283071518,0.5488053560256958,-0.9412935376167297,0.1791706383228302,0.2861198782920837,0,0,0,-1,169293.5082977917,3,2,1561841477.454796,1561841239.621676,8,3.056457,0,0,7.575853,0,0,1561841413.282218,169291.456356,0,0.5839844,75.18745,0,182478453,3,1,1,-11.77021,-23.96603,0
1561841477.627211,83,0,0,1561841476.99681,4.634603080344046,-74.15097931406846,2553.168,0,276.6796875,4,30,-9999,1561841477.621398,-4.311103820800781,-5.569211959838867,26.860595703125,97.22479248046875,104.7179946899414,15,169293.923021,-1.42254638671875,-0.8472442626953125,-0.51971435546875,169293.923021,1.327019881672858,-3.783668009234665,0.8894457366579721,169293.905687,-77.71588134765625,-31.99404907226562,-533.6536254882812,169293.917955,0.5551018723608412,-1.928079254528383,-0.1946206624103099,0.712038516998291,-3.54498553276062,0.8807852268218994,-0.5441082715988159,-1.019413709640503,-0.7914154529571533,1,0.1707482635974884,-0.8015040755271912,0.2322579175233841,0.5239202976226807,-0.9191637635231018,0.1933943778276443,0.3431275188922882,0,0,0,-1,169293.5082977917,3,2,1561841477.454796,1561841239.621676,8,3.056457,0,0,7.575853,0,0,1561841413.282218,169291.456356,0,0.5839844,75.18745,0,182478453,3,1,1,-11.77021,-24.89056,0
1561841477.647617,84,0,0,1561841476.99681,4.634603080344046,-74.15097931406846,2553.168,0,276.6796875,4,30,-9999,1561841477.645895,-1.888145446777344,-4.471864700317383,27.0654296875,95.0679931640625,102.5611953735352,15,169293.943284,-1.31829833984375,-0.9166412353515625,-0.7064971923828125,169293.943284,3.024289994951727,-4.189633095271401,0.8062653621187642,169293.925767,-75.27799987792969,-30.8990478515625,-533.542724609375,169293.938219,0.5830421141111741,-2.001810875409832,-0.2254483965001959,2.753427028656006,-4.168838024139404,0.8484544157981873,-0.4891899228096008,-1.091539621353149,-1.0202876329422,1,0.1823215633630753,-0.8187605738639832,0.2447971999645233,0.4862758815288544,-0.8855506777763367,0.2235434353351593,0.4072200655937195,0,0,0,-1,169293.5082977917,3,2,1561841477.454796,1561841239.621676,8,3.056457,0,0,7.575853,0,0,1561841413.282218,169291.456356,0,0.5839844,75.18745,0,182478453,3,1,1,-11.77021,-24.9501,0
1561841477.686127,85,0,0,1561841476.99681,4.634603080344046,-74.15097931406846,2553.168,0,276.6796875,4,30,-9999,1561841477.672105,0.5339889526367188,-2.799798965454102,27.21649169921875,91.37449645996094,98.86769866943359,15,169293.963548,-1.2532958984375,-0.9956207275390625,-0.836944580078125,169293.963548,2.847998318168406,-3.390834704217001,0.1758205635864863,169293.945878,-72.75828552246094,-29.45976257324219,-533.3414306640625,169293.958482,0.634041484339905,-2.071919049471544,-0.2658784311947645,3.07583475112915,-3.734972953796387,0.391916424036026,-0.4348102807998657,-1.219574570655823,-1.255384683609009,1,0.2016439884901047,-0.8313270211219788,0.2658458650112152,0.4444783329963684,-0.8462261557579041,0.2627569437026978,0.4635298252105713,0,0,0,-1,169293.5082977917,3,2,1561841477.454796,1561841239.621676,8,3.056457,0,0,7.575853,0,0,1561841413.282218,169291.456356,0,0.5839844,75.18745,0,182478453,3,1,1,-11.77021,-25.82016,0
1561841477.688959,86,0,0,1561841476.99681,4.634603080344046,-74.15097931406846,2553.168,0,276.6796875,4,30,-9999,1561841477.672105,0.5339889526367188,-2.799798965454102,27.21649169921875,91.37449645996094,98.86769866943359,15,169293.983812,-1.29632568359375,-1.0889892578125,-0.8248138427734375,169293.983812,1.52572924956414,-1.600309744311264,-0.9526870241157567,169293.96599,-70.54075622558594,-27.92800903320312,-533.4268798828125,169293.978746,0.6809785864424401,-2.119084456478459,-0.2899680515488923,1.859535694122314,-2.08952260017395,-0.6330484747886658,-0.4276165962219238,-1.342241764068604,-1.34567403793335,1,0.2215610146522522,-0.8370450735092163,0.2804460823535919,0.414266049861908,-0.8177905678749084,0.2859216034412384,0.4994674623012543,0,0,0,-1,169293.5082977917,3,2,1561841477.454796,1561841239.621676,8,3.056457,0,0,7.575853,0,0,1561841413.282218,169291.456356,0,0.5839844,75.18745,0,182478453,3,1,1,-11.77021,-25.82016,0
1561841477.708196,87,0,0,1561841476.99681,4.634603080344046,-74.15097931406846,2553.168,0,276.6796875,4,30,-9999,1561841477.697488,2.481727600097656,-1.370622634887695,27.0810546875,88.47879028320312,95.97199249267578,15,169294.004075,-1.368194580078125,-1.070449829101562,-0.703765869140625,169294.004075,0.6912247925106113,0.001333711073911683,-2.207753619456854,169293.986101,-69.32565307617188,-26.43724060058594,-533.3897094726562,169293.99901,0.7180246798748185,-2.132051416330669,-0.2814061955134947,0.7936830520629883,-0.3191454708576202,-1.929857492446899,-0.5416010022163391,-1.373547315597534,-1.279440999031067,1,0.2409954518079758,-0.8352113366127014,0.2831593453884125,0.4051715135574341,-0.8132879137992859,0.2777068018913269,0.5113135576248169,0,0,0,-1,169293.5082977917,3,2,1561841477.454796,1561841239.621676,8,3.056457,0,0,7.575853,0,0,1561841413.282218,169291.456356,0,0.5839844,75.18745,0,182478453,3,1,1,-11.77021,-26.56346,0
1561841477.729586,88,0,0,1561841476.99681,4.634603080344046,-74.15097931406846,2553.168,0,276.6796875,4,30,-9999,1561841477.722861,3.12017822265625,0.2318935394287109,27.05535888671875,85.72315979003906,93.21636199951172,15,169294.024339,-1.431869506835938,-0.915191650390625,-0.5812835693359375,169294.024339,1.053633878919101,0.7881832972654531,-2.914296115609274,169294.006212,-69.37669372558594,-25.89056396484375,-533.4107666015625,169294.019243,0.7576505116500087,-2.117192330028004,-0.2474823534585568,0.8518217206001282,0.6472163200378418,-2.804437637329102,-0.5589885711669922,-1.247847676277161,-1.147075295448303,1,0.2637019157409668,-0.8260455727577209,0.2798243761062622,0.4120781123638153,-0.8283710479736328,0.2449637949466705,0.5037799477577209,0,0,0,-1,169293.5082977917,3,2,1561841477.454796,1561841239.621676,8,3.056457,0,0,7.575853,0,0,1561841413.282218,169291.456356,0,0.5839844,75.18745,0,182478453,3,1,1,-11.77021,-26.47582,0
1561841477.771712,89,0,0,1561841476.99681,4.634603080344046,-74.15097931406846,2553.168,0,276.6796875,4,30,-9999,1561841477.751429,2.458366394042969,1.256601333618164,26.7896728515625,81.66839599609375,89.16159820556641,15,169294.044572,-1.462905883789062,-0.742340087890625,-0.4613037109375,169294.044572,2.111545859813306,1.005585126531892,-3.159364992808328,169294.026292,-69.79954528808594,-25.09124755859375,-533.406494140625,169294.039506,0.8127967438418968,-2.087323929354555,-0.208871766911507,1.848582625389099,0.9984737038612366,-3.113941431045532,-0.5999822616577148,-1.03319251537323,-1.005377173423767,1,0.2916100323200226,-0.8102644681930542,0.2805342376232147,0.4239523708820343,-0.8506402969360352,0.2073563188314438,0.4831298291683197,0,0,0,-1,169293.5082977917,3,2,1561841477.454796,1561841239.621676,8,3.056457,0,0,7.575853,0,0,1561841413.282218,169291.456356,0,0.5839844,75.18745,0,182478453,3,1,1,-11.77021,-27.65178,0
1561841477.774732,90,0,0,1561841476.99681,4.634603080344046,-74.15097931406846,2553.168,0,276.6796875,4,30,-9999,1561841477.773422,1.593544006347656,2.622474670410156,26.9366455078125,76.01246643066406,83.50566864013672,15,169294.064836,-1.503494262695312,-0.6135101318359375,-0.354400634765625,169294.064836,2.851053230254835,0.7898858561503408,-3.505134116093785,169294.046403,-70.76325988769531,-24.21676635742188,-533.607666015625,169294.05977,0.8868995827177075,-2.054015083757717,-0.173786624473828,2.720464944839478,0.8440346121788025,-3.397820472717285,-0.6115838885307312,-0.8466802835464478,-0.8613805770874023,1,0.3252256512641907,-0.78933185338974,0.2882319986820221,0.4337115287780762,-0.8721655011177063,0.1729131639003754,0.45763298869133,0,0,0,-1,169293.5082977917,3,2,1561841477.454796,1561841239.621676,8,3.056457,0,0,7.575853,0,0,1561841413.282218,169291.456356,0,0.5839844,75.18745,0,182478453,3,1,1,-11.77021,-27.65178,0
1561841477.789259,91,0,0,1561841476.99681,4.634603080344046,-74.15097931406846,2553.168,0,276.6796875,4,30,-9999,1561841477.773422,1.593544006347656,2.622474670410156,26.9366455078125,76.01246643066406,83.50566864013672,15,169294.0851,-1.66015625,-0.5328369140625,-0.274566650390625,169294.0851,2.978156854336611,0.8315211840004216,-4.01182714509226,169294.066514,-71.52645874023438,-22.02616882324219,-533.9630126953125,169294.080034,0.9737972544765175,-2.025051857680418,-0.1345353938235408,2.994160413742065,0.7708764672279358,-3.899845123291016,-0.6718335151672363,-0.7001851797103882,-0.7432085275650024,1,0.3644832372665405,-0.7645692825317383,0.297674834728241,0.4404264986515045,-0.8904681205749512,0.1341299116611481,0.4348284304141998,0,0,0,-1,169293.5082977917,3,2,1561841477.454796,1561841239.621676,8,3.056457,0,0,7.575853,0,0,1561841413.282218,169291.456356,0,0.5839844,75.18745,0,182478453,3,1,1,-11.77021,-27.65178,0
1561841477.809525,92,0,0,1561841476.99681,4.634603080344046,-74.15097931406846,2553.168,0,276.6796875,4,30,-9999,1561841477.79802,1.026206970214844,4.592231750488281,26.7730712890625,69.61540985107422,77.10861206054688,15,169294.105363,-1.801483154296875,-0.4188079833984375,-0.290496826171875,169294.105363,2.760730257672035,0.8795909753602429,-4.353251321059253,169294.086626,-72.4207763671875,-20.40939331054688,-534.073486328125,169294.100297,1.063257701781567,-1.997847538444075,-0.08448721092818748,2.799007654190063,0.888691246509552,-4.281056880950928,-0.8426282405853271,-0.5701807737350464,-0.6764137744903564,1,0.4061970710754395,-0.7357714176177979,0.3047243654727936,0.4480931162834167,-0.9069445133209229,0.08438673615455627,0.4127112925052643,0,0,0,-1,169293.5082977917,3,2,1561841477.454796,1561841239.621676,8,3.056457,0,0,7.575853,0,0,1561841413.282218,169291.456356,0,0.5839844,75.18745,0,182478453,3,1,1,-11.77021,-19.30728,0
1561841477.858475,93,0,0,1561841476.99681,4.634603080344046,-74.15097931406846,2553.168,0,276.6796875,4,30,-9999,1561841477.824171,-1.577049255371094,7.887790679931641,25.80755615234375,63.3153190612793,70.80852508544922,15,169294.125627,-1.899383544921875,-0.3058319091796875,-0.3325958251953125,169294.125627,3.007474795828967,0.9369077946570372,-4.643920706655407,169294.106737,-74.17459106445312,-18.61526489257812,-534.51953125,169294.120561,1.151281309582333,-1.975175232282178,-0.02521573793932375,2.883198738098145,0.9030398726463318,-4.569790363311768,-0.9353917241096497,-0.3873193860054016,-0.7161986827850342,1,0.4485272765159607,-0.7039067149162292,0.3085923492908478,0.4561900794506073,-0.9190546870231628,0.02521306648850441,0.393322765827179,0,0,0,-1,169293.5082977917,3,2,1561841477.454796,1561841239.621676,8,3.056457,0,0,7.575853,0,0,1561841413.282218,169291.456356,0,0.5839844,75.18745,0,182478453,3,1,1,-11.77021,-21.22631,0
1561841477.862891,94,0,0,1561841476.99681,4.634603080344046,-74.15097931406846,2553.168,0,276.6796875,4,30,-9999,1561841477.850756,-3.195137023925781,9.449987411499023,25.148193359375,56.34508895874023,63.83829498291016,15,169294.145891,-1.968490600585938,-0.1632537841796875,-0.327545166015625,169294.145891,3.765510576922505,0.8412835336083251,-4.876749162852238,169294.126817,-75.46495056152344,-17.08201599121094,-535.03955078125,169294.140825,1.247584919701822,-1.957088499689152,0.0382442828674971,3.547766208648682,0.8968315124511719,-4.84434175491333,-1.005059361457825,-0.201556921005249,-0.7089546918869019,1,0.4932090044021606,-0.6670722365379333,0.3131362795829773,0.4622827172279358,-0.9256352186203003,-0.03823496028780937,0.3764809668064117,0,0,0,-1,169293.5082977917,3,2,1561841477.454796,1561841239.621676,8,3.056457,0,0,7.575853,0,0,1561841413.282218,169291.456356,0,0.5839844,75.18745,0,182478453,3,1,1,-11.77021,-22.25573,0
1561841477.870588,95,0,0,1561841476.99681,4.634603080344046,-74.15097931406846,2553.168,0,276.6796875,4,30,-9999,1561841477.850756,-3.195137023925781,9.449987411499023,25.148193359375,56.34508895874023,63.83829498291016,15,169294.166154,-2.027206420898438,-0.0215911865234375,-0.3563232421875,169294.166154,4.580751058230945,0.4019261359275217,-4.911020317656032,169294.146928,-77.10417175292969,-15.20820617675781,-535.9851684570312,169294.161058,1.359376952429444,-1.949967929896939,0.1000632193265306,4.394394397735596,0.5299395322799683,-4.899689674377441,-1.081519365310669,0.01595771312713623,-0.6998424530029297,1,0.5414241552352905,-0.6253076195716858,0.3200949728488922,0.4619409441947937,-0.9243246912956238,-0.09989631921052933,0.3682994842529297,0,0,0,-1,169293.5082977917,3,2,1561841477.454796,1561841239.621676,8,3.056457,0,0,7.575853,0,0,1561841413.282218,169291.456356,0,0.5839844,75.18745,0,182478453,3,1,1,-11.77021,-22.25573,0
1561841477.891276,96,0,0,1561841476.99681,4.634603080344046,-74.15097931406846,2553.168,0,276.6796875,4,30,-9999,1561841477.874901,-4.982940673828125,11.09509181976318,24.10150146484375,47.95475006103516,55.44795608520508,15,169294.186388,-2.10260009765625,0.0866546630859375,-0.4203643798828125,169294.186388,5.301864773971625,0.1065181878037903,-5.142707875641873,169294.167039,-78.81362915039062,-13.63076782226562,-537.0346069335938,169294.181322,1.487394836247849,-1.960520834076188,0.1572837502518723,5.115342617034912,0.1253345310688019,-5.065361976623535,-1.144494295120239,0.1870926320552826,-0.7750546932220459,1,0.5928118824958801,-0.5798241496086121,0.3277739882469177,0.4527056813240051,-0.913595974445343,-0.1566360592842102,0.3752439320087433,0,0,0,-1,169293.5082977917,3,2,1561841477.454796,1561841239.621676,8,3.056457,0,0,7.575853,0,0,1561841413.282218,169291.456356,0,0.5839844,75.18745,0,182478453,3,1,1,-11.77021,-22.79467,0
1561841477.936182,97,0,0,1561841476.99681,4.634603080344046,-74.15097931406846,2553.168,0,276.6796875,4,30,-9999,1561841477.925777,-10.37873077392578,16.73006248474121,19.1561279296875,26.58649826049805,34.07970428466797,15,169294.206651,-2.171722412109375,0.258636474609375,-0.390777587890625,169294.206651,6.009322864906814,0.1588447758499942,-5.389229773531675,169294.18715,-80.53720092773438,-11.45358276367188,-538.5560302734375,169294.201585,1.633549298353095,-1.984969138803294,0.2112777467592488,5.846520900726318,0.1520665436983109,-5.358407497406006,-1.247576355934143,0.372200220823288,-0.8061124086380005,1,0.6464594602584839,-0.5280457139015198,0.335780918598175,0.4364734292030334,-0.8950933218002319,-0.2097094058990479,0.3934842050075531,0,0,0,-1,169293.5082977917,3,2,1561841477.454796,1561841239.621676,8,3.056457,0,0,7.575853,0,0,1561841413.282218,169291.456356,0,0.5839844,75.18745,0,182478453,3,1,1,-11.77021,-24.10359,0
1561841477.938646,98,0,0,1561841476.99681,4.634603080344046,-74.15097931406846,2553.168,0,276.6796875,4,30,-9999,1561841477.925777,-10.37873077392578,16.73006248474121,19.1561279296875,26.58649826049805,34.07970428466797,15,169294.226915,-2.157211303710938,0.4443511962890625,-0.3347625732421875,169294.226915,6.397590446551646,-0.1067157943566742,-5.213591636479858,169294.207262,-82.638427734375,-9.993667602539062,-540.7197875976562,169294.221849,1.796296065078146,-2.020909567250599,0.2582054870907187,6.340804576873779,-0.01570515707135201,-5.298729419708252,-1.304072141647339,0.6124473810195923,-0.774053692817688,1,0.6996778845787048,-0.4698652029037476,0.3442985713481903,0.4136859178543091,-0.8705494403839111,-0.2553459405899048,0.4206449091434479,0,0,0,-1,169293.5082977917,3,2,1561841477.454796,1561841239.621676,8,3.056457,0,0,7.575853,0,0,1561841413.282218,169291.456356,0,0.5839844,75.18745,0,182478453,3,1,1,-11.77021,-24.10359,0
1561841477.951573,99,0,0,1561841476.99681,4.634603080344046,-74.15097931406846,2553.168,0,276.6796875,4,30,-9999,1561841477.925777,-10.37873077392578,16.73006248474121,19.1561279296875,26.58649826049805,34.07970428466797,15,169294.247179,-2.025344848632812,0.5484771728515625,-0.3671112060546875,169294.247179,6.447067185915357,-0.647894096310586,-4.935606620839644,169294.227342,-84.38423156738281,-8.108245849609375,-542.730224609375,169294.242113,1.965661534686852,-2.072155244755677,0.2914157382574606,6.428929328918457,-0.5306566953659058,-4.978040218353271,-1.267159461975098,0.7999733686447144,-0.8050346374511719,1,0.749377429485321,-0.4106220006942749,0.3502368628978729,0.3836107552051544,-0.8399572372436523,-0.2873085737228394,0.4603539109230042,0,0,0,-1,169293.5082977917,3,2,1561841477.454796,1561841239.621676,8,3.056457,0,0,7.575853,0,0,1561841413.282218,169291.456356,0,0.5839844,75.18745,0,182478453,3,1,1,-11.77021,-24.10359,0
1561841477.971673,100,0,0,1561841476.99681,4.634603080344046,-74.15097931406846,2553.168,0,276.6796875,4,30,-9999,1561841477.950034,-12.40268707275391,18.33830833435059,17.098876953125,14.44737339019775,21.94057846069336,15,169294.267442,-1.9039306640625,0.66015625,-0.320770263671875,169294.267442,6.631458068205827,-0.5849785134541181,-4.911088494579937,169294.247453,-86.15531921386719,-7.0103759765625,-545.3511962890625,169294.262376,2.137441109206622,-2.137000434877226,0.3106390690653082,6.582858562469482,-0.6784972548484802,-4.919773101806641,-1.158149480819702,0.8958924412727356,-0.8697056770324707,1,0.794901967048645,-0.3514396548271179,0.3516914248466492,0.3477559685707092,-0.8035508990287781,-0.3056671917438507,0.5107579231262207,0,0,0,-1,169293.5082977917,3,2,1561841477.454796,1561841239.621676,8,3.056457,0,0,7.575853,0,0,1561841413.282218,169291.456356,0,0.5839844,75.18745,0,182478453,3,1,1,-11.77021,-24.19758,0
1561841478.00425,101,0,0,1561841476.99681,4.634603080344046,-74.15097931406846,2553.168,0,276.6796875,4,30,-9999,1561841478.000914,-16.25108337402344,20.0371265411377,12.11456298828125,349.7686157226562,357.2618103027344,15,169294.287706,-1.642425537109375,0.7983551025390625,-0.2808990478515625,169294.287706,6.445107631985276,-0.3259749121673339,-4.694405186175603,169294.267564,-88.041015625,-6.183929443359375,-547.5838623046875,169294.28264,2.312456276980792,-2.201526180601877,0.3167327830724531,6.54820728302002,-0.3787552714347839,-4.787185192108154,-1.033691167831421,1.046372532844543,-0.8432061672210693,1,0.8345889449119568,-0.2892424166202545,0.3527279496192932,0.3088414371013641,-0.7674257755279541,-0.3114635348320007,0.5603997707366943,0,0,0,-1,169293.5082977917,3,2,1561841477.454796,1561841239.621676,8,3.056457,0,0,7.575853,0,0,1561841413.282218,169291.456356,0,0.5839844,75.18745,0,182478453,3,1,1,-11.77021,-24.60421,0
1561841478.012248,102,0,0,1561841476.99681,4.634603080344046,-74.15097931406846,2553.168,0,276.6796875,4,30,-9999,1561841478.000914,-16.25108337402344,20.0371265411377,12.11456298828125,349.7686157226562,357.2618103027344,15,169294.30797,-1.3673095703125,0.9934844970703125,-0.2357635498046875,169294.30797,5.739618682360091,-0.01367160377203078,-4.378451749190237,169294.287675,-90.58937072753906,-5.908340454101562,-550.1575927734375,169294.302873,2.478352656957842,-2.257667982129699,0.3122907477778727,5.976740837097168,-0.03915668651461601,-4.429079532623291,-0.745000958442688,1.171008944511414,-0.8816944360733032,1,0.8659230470657349,-0.2278211265802383,0.3537247180938721,0.2704693675041199,-0.7358340620994568,-0.3072393834590912,0.6034503579139709,0,0,0,-1,169293.5082977917,3,2,1561841477.454796,1561841239.621676,8,3.056457,0,0,7.575853,0,0,1561841413.282218,169291.456356,0,0.5839844,75.18745,0,182478453,3,1,1,-11.77021,-24.60421,0
1561841478.032361,103,0,0,1561841476.99681,4.634603080344046,-74.15097931406846,2553.168,0,276.6796875,4,30,-9999,1561841478.026782,-19.77132415771484,20.08360290527344,7.4078369140625,338.8820495605469,346.375244140625,15,169294.328203,-1.127960205078125,1.300613403320312,-0.2299041748046875,169294.328203,4.949345336271144,-0.1586777956496462,-4.020361511121529,169294.307786,-92.33615112304688,-5.874221801757812,-552.6215209960938,169294.323137,2.626851522321787,-2.304712213942324,0.3061311034853135,5.05555248260498,-0.1923214644193649,-4.15709400177002,-0.5541430711746216,1.476359605789185,-0.8701180219650269,1,0.8890666365623474,-0.1699459552764893,0.352897047996521,0.2369444072246552,-0.7080334424972534,-0.3013718724250793,0.6386422514915466,0,0,0,-1,169293.5082977917,3,2,1561841477.454796,1561841239.621676,8,3.056457,0,0,7.575853,0,0,1561841413.282218,169291.456356,0,0.5839844,75.18745,0,182478453,3,1,1,-11.77021,-23.13973,0
1561841478.052613,104,0,0,1561841476.99681,4.634603080344046,-74.15097931406846,2553.168,0,276.6796875,4,30,-9999,1561841478.026782,-19.77132415771484,20.08360290527344,7.4078369140625,338.8820495605469,346.375244140625,15,169294.348466,-0.8777618408203125,1.580581665039062,-0.110198974609375,169294.348466,4.433204743305612,0.1127619689794811,-3.262109747663585,169294.327867,-93.90647888183594,-6.358444213867188,-554.6544189453125,169294.3434,2.758257575205761,-2.345068110640837,0.2960206977197226,4.611534595489502,0.08603771775960922,-3.54223108291626,-0.317859411239624,1.705412626266479,-0.8144901990890503,1,0.9058588743209839,-0.1175231114029884,0.3506589233875275,0.2065097391605377,-0.6838343143463135,-0.2917163074016571,0.668783962726593,0,0,0,-1,169293.5082977917,3,2,1561841477.454796,1561841239.621676,8,3.056457,0,0,7.575853,0,0,1561841413.282218,169291.456356,0,0.5839844,75.18745,0,182478453,3,1,1,-11.77021,-24.14011,0
1561841478.085596,105,0,0,1561841477.996796,4.634603080344046,-74.15097931406846,2553.1,0,300.5859375,4,30,-9999,1561841478.060757,-21.86153411865234,19.5134449005127,5.31085205078125,329.5768432617188,337.0700378417969,15,169294.36873,-0.611846923828125,1.622055053710938,-0.0214080810546875,169294.36873,3.704426982579903,0.43894221086686,-2.149829599431522,169294.347978,-95.55300903320312,-7.041259765625,-556.37451171875,169294.363664,2.866191022805501,-2.372210093786793,0.2771433295697634,3.924433469772339,0.3421693742275238,-2.404819965362549,-0.07450735569000244,1.888813018798828,-0.8101004362106323,1,0.9164546728134155,-0.07466898858547211,0.3505829274654388,0.177839919924736,-0.6691449880599976,-0.2736091017723083,0.6909292340278625,0,0,0,-1,169293.5082977917,3,2,1561841477.454796,1561841239.621676,8,3.056457,0,0,7.575853,0,0,1561841413.282218,169291.456356,0,0.5839844,75.18745,0,182478453,3,1,1,-11.77021,-11.77021,0
1561841478.093034,106,0,0,1561841477.996796,4.634603080344046,-74.15097931406846,2553.1,0,300.5859375,4,30,-9999,1561841478.060757,-21.86153411865234,19.5134449005127,5.31085205078125,329.5768432617188,337.0700378417969,15,169294.388994,-0.437652587890625,1.588272094726562,0.1212005615234375,169294.388994,2.510085253782574,0.7057635215335719,-1.203751742193015,169294.368089,-96.21783447265625,-7.592727661132812,-558.3163452148438,169294.383928,2.944802171607073,-2.382962477702444,0.253993677142506,2.832071542739868,0.6210627555847168,-1.443772554397583,0.1727690696716309,1.872243165969849,-0.644342303276062,1,0.9215878844261169,-0.04384705796837807,0.3539679050445557,0.1531662940979004,-0.6658568382263184,-0.2512714862823486,0.7024936079978943,0,0,0,-1,169293.5082977917,3,2,1561841477.454796,1561841239.621676,8,3.056457,0,0,7.575853,0,0,1561841413.282218,169291.456356,0,0.5839844,75.18745,0,182478453,3,1,1,-11.77021,-11.77021,0
1561841478.113287,107,0,0,1561841477.996796,4.634603080344046,-74.15097931406846,2553.1,0,300.5859375,4,30,-9999,1561841478.092515,-22.99917602539062,18.91297912597656,3.453369140625,22.50569915771484,29.99890518188477,15,169294.409257,-0.4239959716796875,1.530563354492188,0.238525390625,169294.409257,0.8925424603735163,1.021315087510445,-0.149527440460243,169294.38817,-96.98745727539062,-8.187637329101562,-559.5026245117188,169294.404191,2.989655447738015,-2.378089062934563,0.2360689180048703,1.32253086566925,0.9355868697166443,-0.4241778552532196,0.2465437650680542,1.798015117645264,-0.4999281167984009,1,0.9222280383110046,-0.02619725652039051,0.3605934679508209,0.1370460987091064,-0.6722792983055115,-0.2338823974132538,0.7023817300796509,0,0,0,-1,169293.5082977917,3,2,1561841477.454796,1561841239.621676,8,3.056457,0,0,7.575853,0,0,1561841413.282218,169291.456356,0,0.5839844,75.18745,0,182478453,3,1,1,-11.77021,-12.01963,0
1561841478.133688,108,0,0,1561841477.996796,4.634603080344046,-74.15097931406846,2553.1,0,300.5859375,4,30,-9999,1561841478.127928,-24.45793914794922,17.96611785888672,-0.28424072265625,27.67270278930664,35.16590881347656,15,169294.429521,-0.4276580810546875,1.4388427734375,0.296478271484375,169294.429521,-0.6963865313354028,1.144793616716405,0.890049741593202,169294.408281,-97.32060241699219,-8.152023315429688,-560.70947265625,169294.424455,2.994765370101632,-2.357622511276281,0.227489791882695,-0.3445655703544617,1.154923796653748,0.6471990942955017,0.2701033353805542,1.716133236885071,-0.4139622449874878,1,0.9188878536224365,-0.02410364896059036,0.3708392083644867,0.1324480772018433,-0.6879042387008667,-0.2255326956510544,0.6898717284202576,0,0,0,-1,169293.5082977917,3,2,1561841477.454796,1561841239.621676,8,3.056457,0,0,7.575853,0,0,1561841413.282218,169291.456356,0,0.5839844,75.18745,0,182478453,3,1,1,-11.77021,-12.42877,0
1561841478.160426,109,0,0,1561841477.996796,4.634603080344046,-74.15097931406846,2553.1,0,300.5859375,4,30,-9999,1561841478.152415,-24.32710266113281,18.00400161743164,-0.64569091796875,319.6620483398438,327.1552429199219,15,169294.449785,-0.51202392578125,1.27740478515625,0.325347900390625,169294.449785,-1.757387246461881,0.834960922864368,1.698549229550434,169294.428392,-97.23817443847656,-8.186614990234375,-561.096435546875,169294.444688,2.964290422159292,-2.329150111612328,0.2254514404951742,-1.529288530349731,0.9164808392524719,1.505695104598999,0.2376725673675537,1.588353514671326,-0.3564348220825195,1,0.9131410121917725,-0.03654021024703979,0.3819427192211151,0.1376889944076538,-0.7075974941253662,-0.2235464006662369,0.670323371887207,0,0,0,-1,169293.5082977917,3,2,1561841477.454796,1561841239.621676,8,3.056457,0,0,7.575853,0,0,1561841413.282218,169291.456356,0,0.5839844,75.18745,0,182478453,3,1,1,-11.77021,-12.9047,0
1561841478.174148,110,0,0,1561841477.996796,4.634603080344046,-74.15097931406846,2553.1,0,300.5859375,4,30,-9999,1561841478.152415,-24.32710266113281,18.00400161743164,-0.64569091796875,319.6620483398438,327.1552429199219,15,169294.470018,-0.6765594482421875,1.16937255859375,0.2723388671875,169294.470018,-2.700663990865843,0.8048102108991448,2.363907537341432,169294.448503,-96.64730834960938,-7.600692749023438,-561.0342407226562,169294.464952,2.907696697973843,-2.300299292193133,0.2247555581602377,-2.441126346588135,0.7672247886657715,2.205201148986816,0.1427097320556641,1.431852459907532,-0.3450634479522705,1,0.9062145352363586,-0.06035778298974037,0.3910591602325439,0.1490127295255661,-0.7267551422119141,-0.2228680700063705,0.649735689163208,0,0,0,-1,169293.5082977917,3,2,1561841477.454796,1561841239.621676,8,3.056457,0,0,7.575853,0,0,1561841413.282218,169291.456356,0,0.5839844,75.18745,0,182478453,3,1,1,-11.77021,-13.66671,0
1561841478.194516,111,0,0,1561841477.996796,4.634603080344046,-74.15097931406846,2553.1,0,300.5859375,4,30,-9999,1561841478.178689,-23.82373046875,18.84305572509766,-0.4127197265625,324.2682800292969,331.761474609375,15,169294.490282,-0.8606109619140625,1.108383178710938,0.1715087890625,169294.490282,-3.988879218611266,1.163946804960145,2.950277019832899,169294.468614,-95.7489013671875,-6.659652709960938,-560.330322265625,169294.485216,2.826402269054324,-2.264461491975735,0.2260007005675573,-3.622264385223389,1.037882685661316,2.798368453979492,-0.01831495761871338,1.360419034957886,-0.4019706249237061,1,0.8959543108940125,-0.09389538317918777,0.4006820321083069,0.1670431792736053,-0.7493547797203064,-0.2240817248821259,0.6231009364128113,0,0,0,-1,169294.480913,3,2,1561841478.427412,1561841239.621676,8,3.056457,0,0,7.575853,0,0,1561841413.282218,169291.456356,0,0.5839844,75.18745,0,182478453,3,1,1,-11.77021,-14.66396,0
1561841478.214762,112,0,0,1561841477.996796,4.634603080344046,-74.15097931406846,2553.1,0,300.5859375,4,30,-9999,1561841478.202961,-21.70274353027344,20.57673645019531,1.25469970703125,331.2878723144531,338.7810668945312,15,169294.510545,-1.019180297851562,1.089019775390625,0.0672607421875,169294.510545,-5.809890448779576,1.698814480395006,3.535522382028243,169294.488725,-94.86824035644531,-5.761550903320312,-559.6906127929688,169294.505479,2.714148988112465,-2.212668991626741,0.2322520078121332,-5.316960334777832,1.577399373054504,3.397785663604736,-0.1641179919242859,1.329840064048767,-0.4659990072250366,1,0.8788448572158813,-0.1376322209835052,0.4128305912017822,0.1956017762422562,-0.7794703245162964,-0.2301696538925171,0.5826218128204346,0,0,0,-1,169294.480913,3,2,1561841478.427412,1561841239.621676,8,3.056457,0,0,7.575853,0,0,1561841413.282218,169291.456356,0,0.5839844,75.18745,0,182478453,3,1,1,-11.77021,-15.16517,0
1561841478.253885,113,0,0,1561841477.996796,4.634603080344046,-74.15097931406846,2553.1,0,300.5859375,4,30,-9999,1561841478.23651,-20.28679656982422,21.52641868591309,2.8812255859375,341.6050720214844,349.0982666015625,15,169294.530809,-1.24957275390625,1.089813232421875,0.00457763671875,169294.530809,-7.575482095611664,1.567222630928119,3.996489734058385,169294.508806,-93.57269287109375,-4.89385986328125,-558.0140380859375,169294.525743,2.563080269920862,-2.142437955347137,0.2440445809755308,-7.191441059112549,1.681959867477417,3.883587837219238,-0.3003767728805542,1.329901456832886,-0.4893379211425781,1,0.8516954779624939,-0.1926292479038239,0.4252628087997437,0.2380342781543732,-0.8160935640335083,-0.2416293323040009,0.5249824523925781,0,0,0,-1,169294.480913,3,2,1561841478.427412,1561841239.621676,8,3.056457,0,0,7.575853,0,0,1561841413.282218,169291.456356,0,0.5839844,75.18745,0,182478453,3,1,1,-11.77021,-15.7062,0
1561841478.25654,114,0,0,1561841477.996796,4.634603080344046,-74.15097931406846,2553.1,0,300.5859375,4,30,-9999,1561841478.23651,-20.28679656982422,21.52641868591309,2.8812255859375,341.6050720214844,349.0982666015625,15,169294.551073,-1.512008666992188,1.026397705078125,-0.168975830078125,169294.551073,-8.835309624033497,0.956530498200959,4.20336701701294,169294.528917,-91.63157653808594,-4.169509887695312,-555.5133056640625,169294.546007,2.377425838066154,-2.06822768095956,0.2544523547837267,-8.546926498413086,1.084279775619507,4.199214458465576,-0.5458783507347107,1.316336393356323,-0.5248090028762817,1,0.815180778503418,-0.2576490342617035,0.4299264252185822,0.2902765274047852,-0.8505144715309143,-0.2517154216766357,0.4618054628372192,0,0,0,-1,169294.480913,3,2,1561841478.427412,1561841239.621676,8,3.056457,0,0,7.575853,0,0,1561841413.282218,169291.456356,0,0.5839844,75.18745,0,182478453,3,1,1,-11.77021,-15.7062,0
1561841478.275816,115,0,0,1561841477.996796,4.634603080344046,-74.15097931406846,2553.1,0,300.5859375,4,30,-9999,1561841478.23651,-20.28679656982422,21.52641868591309,2.8812255859375,341.6050720214844,349.0982666015625,15,169294.571336,-1.636795043945312,1.001296997070312,-0.4104156494140625,169294.571336,-10.20372701327109,0.9219967557136836,3.99217461414413,169294.549028,-90.4246826171875,-4.289413452148438,-552.3680419921875,169294.56627,2.167052516509028,-1.99636713316821,0.2616087218995511,-9.792882919311523,0.839073657989502,4.047751903533936,-0.7031642198562622,1.262617468833923,-0.6834617853164673,1,0.769412636756897,-0.3277210593223572,0.4233498871326447,0.3483931720256805,-0.8798130750656128,-0.2586348652839661,0.3987937867641449,0,0,0,-1,169294.480913,3,2,1561841478.427412,1561841239.621676,8,3.056457,0,0,7.575853,0,0,1561841413.282218,169291.456356,0,0.5839844,75.18745,0,182478453,3,1,1,-11.77021,-16.40357,0
1561841478.29574,116,0,0,1561841477.996796,4.634603080344046,-74.15097931406846,2553.1,0,300.5859375,4,30,-9999,1561841478.280043,-17.21828460693359,21.47614288330078,9.2530517578125,10.67657566070557,18.16978073120117,15,169294.5916,-1.662918090820312,1.04034423828125,-0.73046875,169294.5916,-12.79153662346763,1.50897556946256,3.823265752534726,169294.569139,-88.54084777832031,-5.655364990234375,-548.5435180664062,169294.586503,1.92631520629631,-1.911641635348215,0.269327188663099,-12.02326774597168,1.355447888374329,3.863498449325562,-0.7526668310165405,1.274551630020142,-0.8782784938812256,1,0.7087333798408508,-0.3985141217708588,0.4067694246768951,0.4164398610591888,-0.9084964990615845,-0.2660829424858093,0.3222330212593079,0,0,0,-1,169294.480913,3,2,1561841478.427412,1561841239.621676,8,3.056457,0,0,7.575853,0,0,1561841413.282218,169291.456356,0,0.5839844,75.18745,0,182478453,3,1,1,-11.77021,-16.94133,0
1561841478.329709,117,0,0,1561841477.996796,4.634603080344046,-74.15097931406846,2553.1,0,300.5859375,4,30,-9999,1561841478.304108,-14.32745361328125,16.44549751281738,17.24432373046875,30.10086441040039,37.59407043457031,15,169294.611833,-1.737899780273438,1.143020629882812,-1.102874755859375,169294.611833,-16.09252692514972,1.783619649515271,3.465170987092165,169294.58922,-87.16624450683594,-8.2279052734375,-544.529296875,169294.606767,1.62894653447511,-1.798707615413559,0.2737070218543927,-15.29078483581543,1.802809357643127,3.609577655792236,-0.7511779069900513,1.372398853302002,-1.133960247039795,1,0.6223916411399841,-0.4705262780189514,0.3749742209911346,0.5006275177001953,-0.937878429889679,-0.2703023254871368,0.2175326645374298,0,0,0,-1,169294.480913,3,2,1561841478.427412,1561841239.621676,8,3.056457,0,0,7.575853,0,0,1561841413.282218,169291.456356,0,0.5839844,75.18745,0,182478453,3,1,1,-11.77021,-17.9213,0
1561841478.336301,118,0,0,1561841477.996796,4.634603080344046,-74.15097931406846,2553.1,0,300.5859375,4,30,-9999,1561841478.330858,-14.14491271972656,10.67331600189209,21.42547607421875,55.02840805053711,62.52161407470703,15,169294.632097,-1.826736450195312,1.251129150390625,-1.371200561523438,169294.632097,-18.09263440704531,1.920309854573005,2.42800982477964,169294.609331,-86.80557250976562,-13.26075744628906,-540.1075439453125,169294.627031,1.271357407512382,-1.667382493952305,0.2635117672333097,-17.79339790344238,1.808080792427063,2.740813255310059,-0.8253346681594849,1.447789549827576,-1.376707077026367,1,0.5068482756614685,-0.538199245929718,0.3173389434814453,0.5939211845397949,-0.9609812498092651,-0.2604726850986481,0.09310720860958099,0,0,0,-1,169294.480913,3,2,1561841478.427412,1561841239.621676,8,3.056457,0,0,7.575853,0,0,1561841413.282218,169291.456356,0,0.5839844,75.18745,0,182478453,3,1,1,-11.77021,-17.9213,0
1561841478.356558,119,0,0,1561841477.996796,4.634603080344046,-74.15097931406846,2553.1,0,300.5859375,4,30,-9999,1561841478.354947,-14.75260162353516,2.39164924621582,23.33575439453125,82.40147399902344,89.89467620849609,15,169294.65236,-1.842880249023438,1.25201416015625,-1.473770141601562,169294.65236,-18.54404234234261,2.961340323633306,0.79940505915072,169294.629442,-86.89671325683594,-20.89682006835938,-537.2937622070312,169294.647294,0.8890656295147108,-1.529749551994058,0.2325015885715562,-18.46979522705078,2.609845638275146,1.24620521068573,-0.8817458152770996,1.51286792755127,-1.393235325813293,1,0.3713168501853943,-0.5849429368972778,0.2356532067060471,0.6814932823181152,-0.9722733497619629,-0.2304125130176544,-0.03993111476302147,0,0,0,-1,169294.480913,3,2,1561841478.427412,1561841239.621676,8,3.056457,0,0,7.575853,0,0,1561841413.282218,169291.456356,0,0.5839844,75.18745,0,182478453,3,1,1,-12.32749,-18.6787,0
1561841478.377298,120,0,0,1561841477.996796,4.634603080344046,-74.15097931406846,2553.1,0,300.5859375,4,30,-9999,1561841478.354947,-14.75260162353516,2.39164924621582,23.33575439453125,82.40147399902344,89.89467620849609,15,169294.672624,-1.693267822265625,1.240798950195312,-1.52679443359375,169294.672624,-19.15580027213802,4.257072856187696,-1.156398607482534,169294.649553,-87.97955322265625,-29.76884460449219,-537.4529418945312,169294.667558,0.5051626125147419,-1.383204934720061,0.1830321137948964,-18.97375869750977,3.949858903884888,-0.6459802389144897,-0.8286474347114563,1.427678346633911,-1.318025827407837,1,0.2268711924552917,-0.5973612666130066,0.1352413594722748,0.7572309374809265,-0.966045618057251,-0.1820118725299835,-0.1833779513835907,0,0,0,-1,169294.480913,3,2,1561841478.427412,1561841239.621676,8,3.056457,0,0,7.575853,0,0,1561841413.282218,169291.456356,0,0.5839844,75.18745,0,182478453,3,1,1,-12.88477,-19.40931,0
1561841478.412444,121,0,0,1561841477.996796,4.634603080344046,-74.15097931406846,2553.1,0,300.5859375,4,30,-9999,1561841478.405622,-17.64072418212891,-22.63761901855469,8.43701171875,138.1739807128906,145.6671905517578,15,169294.692888,-1.458938598632812,1.323287963867188,-1.458450317382812,169294.692888,-19.52458416724783,5.134739697660356,-3.390723117767326,169294.669664,-89.81793212890625,-39.18603515625,-541.24755859375,169294.687822,0.1136275634554782,-1.233197859358281,0.1145442837639099,-19.56109428405762,4.987277030944824,-2.822326421737671,-0.6242605447769165,1.356542468070984,-1.175770163536072,1,0.07940642535686493,-0.5737323760986328,0.01320373266935349,0.815077543258667,-0.9373696446418762,-0.1142939701676369,-0.3290515542030334,0,0,0,-1,169294.480913,3,2,1561841478.427412,1561841239.621676,8,3.056457,0,0,7.575853,0,0,1561841413.282218,169291.456356,0,0.5839844,75.18745,0,182478453,3,1,1,-13.44205,-18.75944,0
1561841478.417379,122,0,0,1561841477.996796,4.634603080344046,-74.15097931406846,2553.1,0,300.5859375,4,30,-9999,1561841478.405622,-17.64072418212891,-22.63761901855469,8.43701171875,138.1739807128906,145.6671905517578,15,169294.713151,-1.158340454101562,1.535751342773438,-1.313323974609375,169294.713151,-17.6316295044438,4.762169852744887,-5.292998578070533,169294.689744,-90.48046875,-46.97102355957031,-549.01708984375,169294.708055,-0.2761090985929449,-1.100265784440923,0.0338838787574776,-18.40558624267578,5.030112743377686,-4.937352657318115,-0.438895583152771,1.458880424499512,-0.9407150149345398,1,-0.05763145908713341,-0.5197394490242004,-0.1260675489902496,0.8430045247077942,-0.890816330909729,-0.03387739509344101,-0.4530990421772003,0,0,0,-1,169294.480913,3,2,1561841478.427412,1561841239.621676,8,3.056457,0,0,7.575853,0,0,1561841413.282218,169291.456356,0,0.5839844,75.18745,0,182478453,3,1,1,-13.44205,-18.75944,0
1561841478.437668,123,0,0,1561841477.996796,4.634603080344046,-74.15097931406846,2553.1,0,300.5859375,4,30,-9999,1561841478.43211,-15.71809387207031,-26.45355606079102,-1.4093017578125,163.7295074462891,171.2227172851562,15,169294.733415,-0.95916748046875,1.77337646484375,-1.1639404296875,169294.733415,-12.91743916189778,2.46899028131767,-5.717307251379625,169294.709856,-89.38084411621094,-51.90570068359375,-558.87548828125,169294.728319,-0.6227370678650557,-1.014438086931367,-0.03555952395249687,-14.2848014831543,3.189523935317993,-5.751685619354248,-0.1766977310180664,1.626221656799316,-0.706947386264801,1,-0.1635843366384506,-0.4575571119785309,-0.2595272362232208,0.8345820307731628,-0.8486470580101013,0.03555202856659889,-0.527763307094574,0,0,0,-1,169294.480913,3,2,1561841478.427412,1561841239.621676,8,3.056457,0,0,7.575853,0,0,1561841413.282218,169291.456356,0,0.5839844,75.18745,0,182478453,3,1,1,-12.39082,-19.1332,0
