loggingTime,loggingSample,identifierForVendor,deviceID,locationTimestamp_since1970,locationLatitude,locationLongitude,locationAltitude,locationSpeed,locationCourse,locationVerticalAccuracy,locationHorizontalAccuracy,locationFloor,locationHeadingTimestamp_since1970,locationHeadingX,locationHeadingY,locationHeadingZ,locationTrueHeading,locationMagneticHeading,locationHeadingAccuracy,accelerometerTimestamp_sinceReboot,accelerometerAccelerationX,accelerometerAccelerationY,accelerometerAccelerationZ,gyroTimestamp_sinceReboot,gyroRotationX,gyroRotationY,gyroRotationZ,magnetometerTimestamp_sinceReboot,magnetometerX,magnetometerY,magnetometerZ,motionTimestamp_sinceReboot,motionYaw,motionRoll,motionPitch,motionRotationRateX,motionRotationRateY,motionRotationRateZ,motionUserAccelerationX,motionUserAccelerationY,motionUserAccelerationZ,motionAttitudeReferenceFrame,motionQuaternionX,motionQuaternionY,motionQuaternionZ,motionQuaternionW,motionGravityX,motionGravityY,motionGravityZ,motionMagneticFieldX,motionMagneticFieldY,motionMagneticFieldZ,motionMagneticFieldCalibrationAccuracy,activityTimestamp_sinceReboot,activity,activityActivityConfidence,activityActivityStartDate,pedometerStartDate,pedometerNumberofSteps,pedometerAverageActivePace,pedometerCurrentPace,pedometerCurrentCadence,pedometerDistance,pedometerFloorAscended,pedometerFloorDescended,pedometerEndDate,altimeterTimestamp_sinceReboot,altimeterReset,altimeterRelativeAltitude,altimeterPressure,IP_en0,IP_pdp_ip0,deviceOrientation,batteryState,batteryLevel,avAudioRecorderPeakPower,avAudioRecorderAveragePower,label
1561841490.699063,1,0,0,1561841489.996624,4.634564355951393,-74.15098191245845,2553.11,0,76.9921875,4,30,-9999,1561841490.688903,-16.55739593505859,-20.0190315246582,15.542236328125,128.9173736572266,136.4105834960938,15,169306.9903765417,-0.9970703125,0.0611572265625,-0.0643157958984375,169306.9903765417,-0.03441230234156788,-0.01101643216522178,-0.02716078100939113,169306.9724015417,-88.93592834472656,-46.13215637207031,-544.68798828125,169306.9853105417,0.01273797327856625,-1.494368838811861,-0.06599272751818358,-0.03537411242723465,-0.02234217710793018,-0.03183306381106377,-0.01084208488464355,-0.009655162692070007,0.01596051454544067,1,-0.01987559534609318,-0.6793463826179504,0.02708875760436058,0.7330482006072998,-0.9949104785919189,0.06594483554363251,-0.076186902821064,0,0,0,-1,169303.8811256667,3,1,1561841487.827624,1561841239.621676,8,3.056457,0,0,7.575853,0,0,1561841413.282218,169303.711413,0,-0.3010254,75.19579,0,182478453,3,1,1,-38.03086,-43.82346,1
1561841490.715577,2,0,0,1561841489.996624,4.634564355951393,-74.15098191245845,2553.11,0,76.9921875,4,30,-9999,1561841490.688903,-16.55739593505859,-20.0190315246582,15.542236328125,128.9173736572266,136.4105834960938,15,169307.0106395417,-0.989471435546875,0.067626953125,-0.06500244140625,169307.0106395417,-0.02918185396065226,0.008390555330403648,0.01037940403247482,169306.9924815417,-89.09103393554688,-46.24955749511719,-544.7099609375,169307.0055735417,0.01202205261423153,-1.494728699763361,-0.06563182475000308,-0.0295492447912693,-0.00383640406653285,-0.004563624504953623,0.001766860485076904,0.001141965389251709,0.01114869117736816,1,-0.01998163759708405,-0.6794743537902832,0.02670741453766823,0.732940673828125,-0.9949614405632019,0.06558471918106079,-0.07583067566156387,0,0,0,-1,169303.8811256667,3,1,1561841487.827624,1561841239.621676,8,3.056457,0,0,7.575853,0,0,1561841413.282218,169303.711413,0,-0.3010254,75.19579,0,182478453,3,1,1,-38.03086,-40.66269,1
1561841490.734757,3,0,0,1561841489.996624,4.634564355951393,-74.15098191245845,2553.11,0,76.9921875,4,30,-9999,1561841490.715094,-16.50383758544922,-20.07141494750977,15.6683349609375,128.9736328125,136.4668426513672,15,169307.0309035417,-0.9814910888671875,0.0738983154296875,-0.06927490234375,169307.0309035417,-0.05440012527093959,0.002835733928716373,0.04326598138553631,169307.0125925417,-89.19493103027344,-45.93562316894531,-544.9923706054688,169307.0258375417,0.01130433773301617,-1.494791762446763,-0.06608711178381997,-0.04939751699566841,0.002449188847094774,0.03692709282040596,0.01243829727172852,0.005082197487354279,0.008611738681793213,1,-0.02039154060184956,-0.679486095905304,0.02659964561462402,0.7329224944114685,-0.994936466217041,0.06603901833295822,-0.07576566189527512,0,0,0,-1,169303.8811256667,3,1,1561841487.827624,1561841239.621676,8,3.056457,0,0,7.575853,0,0,1561841413.282218,169303.711413,0,-0.3010254,75.19579,0,182478453,3,1,1,-38.03086,-40.96501,1
1561841490.75496,4,0,0,1561841489.996624,4.634564355951393,-74.15098191245845,2553.11,0,76.9921875,4,30,-9999,1561841490.738989,-16.37322235107422,-19.99176406860352,15.5557861328125,129.0409545898438,136.5341644287109,15,169307.0511675417,-0.9905853271484375,0.06793212890625,-0.0677642822265625,169307.0511675417,-0.08169060222541757,0.003712446559570458,0.0411178756502784,169307.0327035417,-88.96232604980469,-46.12945556640625,-544.4649658203125,169307.0460705417,0.01006296731185516,-1.49498944388464,-0.06704315030300008,-0.07999218255281448,-0.002076587406918406,0.04534934088587761,0.009704232215881348,0.00435715913772583,0.005938351154327393,1,-0.02116113156080246,-0.6795367002487183,0.02647150121629238,0.7328583598136902,-0.9948879480361938,0.06699293851852417,-0.07556416094303131,0,0,0,-1,169303.8811256667,3,1,1561841487.827624,1561841239.621676,8,3.056457,0,0,7.575853,0,0,1561841413.282218,169303.711413,0,-0.3010254,75.19579,0,182478453,3,1,1,-38.03086,-41.65907,1
1561841490.775315,5,0,0,1561841489.996624,4.634564355951393,-74.15098191245845,2553.11,0,76.9921875,4,30,-9999,1561841490.763875,-16.49407958984375,-20.14546585083008,15.6727294921875,129.1549530029297,136.6481628417969,15,169307.0714005417,-0.9959259033203125,0.0615386962890625,-0.06549072265625,169307.0714005417,-0.06974179736255906,0.01378185864116006,0.001299089979740652,169307.0527845417,-88.9725341796875,-46.10958862304688,-544.9087524414062,169307.0663345417,0.008396934430905023,-1.495154169746646,-0.06768661680388403,-0.07998792082071304,0.004848963115364313,0.004439190961420536,-0.003159165382385254,-0.0008930042386054993,0.008716046810150146,1,-0.02196089364588261,-0.6795728206634521,0.02608137391507626,0.7328153252601624,-0.9948571920394897,0.0676349475979805,-0.07539699971675873,0,0,0,-1,169303.8811256667,3,1,1561841487.827624,1561841239.621676,8,3.056457,0,0,7.575853,0,0,1561841413.282218,169304.654204,0,0.1928711,75.19114,0,182478453,3,1,1,-38.03086,-40.46959,1
1561841490.799244,6,0,0,1561841489.996624,4.634564355951393,-74.15098191245845,2553.11,0,76.9921875,4,30,-9999,1561841490.790257,-16.34468078613281,-19.95856475830078,15.49884033203125,129.2695617675781,136.7627716064453,15,169307.0916635417,-0.9936370849609375,0.063385009765625,-0.0666351318359375,169307.0916635417,-0.05006263480352754,0.01300794402838303,0.004385959999251498,169307.0728955417,-88.84834289550781,-46.07406616210938,-544.908203125,169307.0865975417,0.007029937400024575,-1.495147163873762,-0.06777676187596189,-0.05873935297131538,0.005634861532598734,0.001501192105934024,0.001717031002044678,-0.008459746837615967,0.01180487871170044,1,-0.02245850302278996,-0.6795541644096375,0.02561103366315365,0.7328341007232666,-0.9948505759239197,0.06772488355636597,-0.07540350407361984,0,0,0,-1,169303.8811256667,3,1,1561841487.827624,1561841239.621676,8,3.056457,0,0,7.575853,0,0,1561841413.282218,169304.654204,0,0.1928711,75.19114,0,182478453,3,1,1,-38.03086,-41.01751,1
1561841490.815701,7,0,0,1561841489.996624,4.634564355951393,-74.15098191245845,2553.11,0,76.9921875,4,30,-9999,1561841490.814078,-16.25211334228516,-20.12103652954102,15.58905029296875,129.3520660400391,136.8452758789062,15,169307.1119275417,-0.989990234375,0.065338134765625,-0.0696258544921875,169307.1119275417,-0.06109770909637987,0.06338563078886694,0.02420653641216623,169307.0930065417,-88.97901916503906,-45.96258544921875,-544.9502563476562,169307.1068615417,0.00597547551037462,-1.494836268399285,-0.06792739413157256,-0.05526392906904221,0.0449465811252594,0.01043183635920286,0.000950932502746582,-0.003452561795711517,0.008329212665557861,1,-0.02287591621279716,-0.6794267296791077,0.02527227066457272,0.7329511046409607,-0.9948168992996216,0.06787516921758652,-0.07571202516555786,0,0,0,-1,169303.8811256667,3,1,1561841487.827624,1561841239.621676,8,3.056457,0,0,7.575853,0,0,1561841413.282218,169304.654204,0,0.1928711,75.19114,0,182478453,3,1,1,-38.03086,-41.01751,1
1561841490.835974,8,0,0,1561841489.996624,4.634564355951393,-74.15098191245845,2553.11,0,76.9921875,4,30,-9999,1561841490.814078,-16.25211334228516,-20.12103652954102,15.58905029296875,129.3520660400391,136.8452758789062,15,169307.1321915417,-0.9794769287109375,0.0728607177734375,-0.07977294921875,169307.1321915417,-0.0612433840080072,0.08416095045257507,0.06639313860789342,169307.1130875417,-88.96138000488281,-46.19155883789062,-544.92138671875,169307.1271255417,0.004678826160542736,-1.493658337445971,-0.06869436815516888,-0.06889372318983078,0.07531167566776276,0.05412392318248749,0.01394665241241455,0.001290678977966309,0.001119852066040039,1,-0.02361227758228779,-0.6789717078208923,0.0250436719506979,0.7333571314811707,-0.9946748018264771,0.06864035129547119,-0.07687976211309433,0,0,0,-1,169303.8811256667,3,1,1561841487.827624,1561841239.621676,8,3.056457,0,0,7.575853,0,0,1561841413.282218,169304.654204,0,0.1928711,75.19114,0,182478453,3,1,1,-38.03086,-41.77361,1
1561841490.856233,9,0,0,1561841489.996624,4.634564355951393,-74.15098191245845,2553.11,0,76.9921875,4,30,-9999,1561841490.840871,-16.36138153076172,-19.93907165527344,15.5782470703125,129.4488525390625,136.9420623779297,15,169307.1524545417,-0.9807586669921875,0.07464599609375,-0.079437255859375,169307.1524545417,-0.03366155723027454,0.0938412746989041,0.08350554650830658,169307.1331985417,-89.16650390625,-46.158935546875,-544.941650390625,169307.1473885417,0.003653388581072916,-1.492080309723286,-0.07016424596428518,-0.04318702593445778,0.08817048370838165,0.07984846085309982,0.01315778493881226,0.003593266010284424,-0.001606345176696777,1,-0.02451928332448006,-0.6783643364906311,0.02514724619686604,0.733885645866394,-0.9944505095481873,0.07010669261217117,-0.07844126224517822,0,0,0,-1,169307.1320085417,3,1,1561841491.078507,1561841239.621676,8,3.056457,0,0,7.575853,0,0,1561841413.282218,169304.654204,0,0.1928711,75.19114,0,182478453,3,1,1,-38.03086,-41.95668,1
1561841490.881434,10,0,0,1561841489.996624,4.634564355951393,-74.15098191245845,2553.11,0,76.9921875,4,30,-9999,1561841490.864842,-16.62844848632812,-20.0345573425293,15.3565673828125,129.5034790039062,136.9966888427734,15,169307.1727185417,-0.99432373046875,0.072296142578125,-0.0791168212890625,169307.1727185417,-0.00102105596193638,0.08992642789648762,0.08406587560165925,169307.1533095417,-89.11759948730469,-46.29708862304688,-545.123779296875,169307.1676525417,0.003217689370961331,-1.490402536295909,-0.0718370866409062,-0.01241020672023296,0.08440903574228287,0.08395931869745255,0.008008480072021484,0.003862500190734863,0.001135826110839844,1,-0.02530238963663578,-0.6777239441871643,0.02553346566855907,0.7344372272491455,-0.994199275970459,0.07177531719207764,-0.08010008931159973,0,0,0,-1,169307.1320085417,3,1,1561841491.078507,1561841239.621676,8,3.056457,0,0,7.575853,0,0,1561841413.282218,169304.654204,0,0.1928711,75.19114,0,182478453,3,1,1,-38.03086,-42.70154,1
1561841490.897382,11,0,0,1561841489.996624,4.634564355951393,-74.15098191245845,2553.11,0,76.9921875,4,30,-9999,1561841490.890985,-16.62317657470703,-19.96525192260742,15.31524658203125,129.5029754638672,136.9961853027344,15,169307.1929825417,-0.99359130859375,0.0695953369140625,-0.0742645263671875,169307.1929825417,0.04875875113382474,0.06426340868415706,0.07386863178774584,169307.1733895417,-88.84388732910156,-46.3189697265625,-545.1234130859375,169307.1878855417,0.003507872858581513,-1.488789396708237,-0.07338933848491865,0.03293250873684883,0.07031318545341492,0.07525663822889328,-0.000962376594543457,-0.003819689154624939,0.002898156642913818,1,-0.02579522505402565,-0.6771169304847717,0.02614515274763107,0.7349582314491272,-0.9939565062522888,0.07332348078489304,-0.08169453591108322,0,0,0,-1,169307.1320085417,3,1,1561841491.078507,1561841239.621676,8,3.056457,0,0,7.575853,0,0,1561841413.282218,169304.654204,0,0.1928711,75.19114,0,182478453,3,1,1,-38.03086,-43.46106,1
1561841490.917146,12,0,0,1561841489.996624,4.634564355951393,-74.15098191245845,2553.11,0,76.9921875,4,30,-9999,1561841490.915833,-16.51801300048828,-20.00900268554688,15.3106689453125,129.4105377197266,136.9037475585938,15,169307.2132155417,-0.9989471435546875,0.0674591064453125,-0.072540283203125,169307.2132155417,0.08937834934414932,0.0231367446022814,0.0498059060744439,169307.1935015417,-89.20510864257812,-46.05035400390625,-544.94384765625,169307.2081495417,0.004806994134768858,-1.487782792135427,-0.07461020072631433,0.08191176503896713,0.02245698496699333,0.05519291758537292,-0.0006467700004577637,-0.005235582590103149,0.01103222370147705,1,-0.02581769414246082,-0.6767493486404419,0.02702281624078751,0.7352641820907593,-0.9937837719917297,0.07454099506139755,-0.08268753439188004,0,0,0,-1,169307.1320085417,3,1,1561841491.078507,1561841239.621676,8,3.056457,0,0,7.575853,0,0,1561841413.282218,169304.654204,0,0.1928711,75.19114,0,182478453,3,1,1,-38.03086,-44.02517,1
1561841490.93747,13,0,0,1561841489.996624,4.634564355951393,-74.15098191245845,2553.11,0,76.9921875,4,30,-9999,1561841490.915833,-16.51801300048828,-20.00900268554688,15.3106689453125,129.4105377197266,136.9037475585938,15,169307.2334795417,-0.995758056640625,0.070037841796875,-0.072265625,169307.2334795417,0.07136286351809029,0.04468411466600351,0.03101863616447991,169307.2136125417,-89.60969543457031,-46.11102294921875,-545.0404052734375,169307.2284135417,0.006642965449621462,-1.487223169669379,-0.07524391434687661,0.08262975513935089,0.02919025532901287,0.0275085587054491,-0.005531609058380127,-0.006142169237136841,0.01127922534942627,1,-0.02543726377189159,-0.6765597462654114,0.02790502831339836,0.7354190349578857,-0.9936901926994324,0.07517293095588684,-0.08323971182107925,0,0,0,-1,169307.1320085417,3,1,1561841491.078507,1561841239.621676,8,3.056457,0,0,7.575853,0,0,1561841413.282218,169304.654204,0,0.1928711,75.19114,0,182478453,3,1,1,-38.03086,-44.67839,1
1561841490.960464,14,0,0,1561841489.996624,4.634564355951393,-74.15098191245845,2553.11,0,76.9921875,4,30,-9999,1561841490.941784,-16.67913055419922,-20.00438690185547,15.30181884765625,129.2919158935547,136.7851257324219,15,169307.2537425417,-0.9922332763671875,0.0760040283203125,-0.0803070068359375,169307.2537425417,0.01919686408561817,0.09145588131052013,0.03765363570430332,169307.2337235417,-89.30448913574219,-46.11619567871094,-545.3760986328125,169307.2486765417,0.007835325877217711,-1.486144104711259,-0.07576456480242204,0.02847996726632118,0.07072864472866058,0.0335099920630455,-0.0012359619140625,-0.002617761492729187,0.007541656494140625,1,-0.02524078637361526,-0.6761720180511475,0.02850591950118542,0.7357593774795532,-0.993560791015625,0.07569210231304169,-0.08430860936641693,0,0,0,-1,169307.1320085417,3,1,1561841491.078507,1561841239.621676,8,3.056457,0,0,7.575853,0,0,1561841413.282218,169304.654204,0,0.1928711,75.19114,0,182478453,3,1,1,-38.03086,-39.39032,1
1561841490.977738,15,0,0,1561841489.996624,4.634564355951393,-74.15098191245845,2553.11,0,76.9921875,4,30,-9999,1561841490.96612,-16.55081176757812,-20.08962249755859,15.30413818359375,129.2550964355469,136.7483062744141,15,169307.2740065417,-0.98944091796875,0.0791015625,-0.08319091796875,169307.2740065417,-0.02191861471967915,0.1407043877688104,0.02197853584420594,169307.2538035417,-89.17544555664062,-46.2540283203125,-544.9120483398438,169307.2689405417,0.008009279926974974,-1.484124070247919,-0.07639569120183366,-0.01352314092218876,0.1269490420818329,0.02506377547979355,0.004204809665679932,0.0005218610167503357,0.004020631313323975,1,-0.02544327452778816,-0.6754235625267029,0.02875753678381443,0.7364296913146973,-0.9933405518531799,0.07632140070199966,-0.08631130307912827,0,0,0,-1,169307.1320085417,3,1,1561841491.078507,1561841239.621676,8,3.056457,0,0,7.575853,0,0,1561841413.282218,169304.654204,0,0.1928711,75.19114,0,182478453,3,1,1,-38.03086,-39.39032,1
1561841490.99827,16,0,0,1561841489.996624,4.634564355951393,-74.15098191245845,2553.11,0,76.9921875,4,30,-9999,1561841490.992403,-16.64642333984375,-19.99197387695312,15.3280029296875,129.2914886474609,136.7846984863281,15,169307.2942705417,-0.989654541015625,0.0734100341796875,-0.0753936767578125,169307.2942705417,0.002098837255091448,0.1325109063590726,0.007502391106862222,169307.2739145417,-88.94200134277344,-46.17037963867188,-545.2857055664062,169307.2892045417,0.007565902594332923,-1.481404982106655,-0.07670613294055759,-0.01665768213570118,0.1377905011177063,0.00729143712669611,0.00501096248626709,-0.0005811303853988647,0.008794426918029785,1,-0.02574634179472923,-0.6744124889373779,0.02866410650312901,0.7373488545417786,-0.9930785894393921,0.07663093507289886,-0.0890098437666893,0,0,0,-1,169307.1320085417,3,1,1561841491.078507,1561841239.621676,8,3.056457,0,0,7.575853,0,0,1561841413.282218,169304.654204,0,0.1928711,75.19114,0,182478453,3,1,1,-38.03086,-39.73653,1
1561841491.018296,17,0,0,1561841489.996624,4.634564355951393,-74.15098191245845,2553.11,0,76.9921875,4,30,-9999,1561841491.016647,-16.73295593261719,-19.9423713684082,15.21429443359375,129.2581024169922,136.7513122558594,15,169307.3145335417,-0.9924468994140625,0.070831298828125,-0.0673980712890625,169307.3145335417,0.07788787450489343,0.07141799095265493,-0.004569984430575972,169307.2940255417,-89.54000854492188,-46.05998229980469,-545.02734375,169307.3094675417,0.007976427491770955,-1.479132562617954,-0.07661056712540036,0.06035774201154709,0.08280181884765625,-0.009174088947474957,-0.002739846706390381,-0.003446049988269806,0.02103078365325928,1,-0.02560535445809364,-0.6735806465148926,0.02875417098402977,0.7381101250648499,-0.9928808808326721,0.07653564959764481,-0.09126695990562439,0,0,0,-1,169307.1320085417,3,1,1561841491.078507,1561841239.621676,8,3.056457,0,0,7.575853,0,0,1561841413.282218,169304.654204,0,0.1928711,75.19114,0,182478453,3,1,1,-38.03086,-40.2253,1
1561841491.038649,18,0,0,1561841489.996624,4.634564355951393,-74.15098191245845,2553.11,0,76.9921875,4,30,-9999,1561841491.016647,-16.73295593261719,-19.9423713684082,15.21429443359375,129.2581024169922,136.7513122558594,15,169307.3347975417,-0.98602294921875,0.084320068359375,-0.0699005126953125,169307.3347975417,0.09133683800979359,0.04569478429968857,0.03709596977204073,169307.3141065417,-89.55178833007812,-46.01481628417969,-545.3394165039062,169307.3297005417,0.009656399370031056,-1.477920322099642,-0.07642894982738196,0.09438068419694901,0.0410596951842308,0.01938884705305099,0.00550919771194458,-0.002288401126861572,0.02312058210372925,1,-0.02499026246368885,-0.6731564402580261,0.02929787710309029,0.738496720790863,-0.9927833080291748,0.07635456323623657,-0.09247178584337234,0,0,0,-1,169307.1320085417,3,1,1561841491.078507,1561841239.621676,8,3.056457,0,0,7.575853,0,0,1561841413.282218,169304.654204,0,0.1928711,75.19114,0,182478453,3,1,1,-38.03086,-41.1654,1
1561841491.058898,19,0,0,1561841490.99661,4.634564355951393,-74.15098191245845,2553.11,0,286.171875,4,30,-9999,1561841491.042819,-16.95969390869141,-19.83275604248047,15.2996826171875,129.1342926025391,136.6275024414062,15,169307.3550615417,-0.983489990234375,0.095672607421875,-0.073822021484375,169307.3550615417,0.04997261995868286,0.07116392538466138,0.08785395593618796,169307.3342175417,-89.70436096191406,-45.86546325683594,-545.2467041015625,169307.3499645417,0.01135158089404325,-1.476859632673365,-0.07728731759453332,0.05946424975991249,0.06312771141529083,0.07824763655662537,0.004292011260986328,0.01589873433113098,0.02363330125808716,1,-0.0247527752071619,-0.6727763414382935,0.03019946254789829,0.7388147115707397,-0.9926190972328186,0.07721039652824402,-0.09351859241724014,0,0,0,-1,169307.1320085417,3,1,1561841491.078507,1561841239.621676,8,3.056457,0,0,7.575853,0,0,1561841413.282218,169304.654204,0,0.1928711,75.19114,0,182478453,3,1,1,-38.03086,-41.5216,1
1561841491.080555,20,0,0,1561841490.99661,4.634564355951393,-74.15098191245845,2553.11,0,286.171875,4,30,-9999,1561841491.067343,-17.14490509033203,-19.60756683349609,15.229736328125,129.0499877929688,136.5431976318359,15,169307.3752945417,-0.9792327880859375,0.08807373046875,-0.07794189453125,169307.3752945417,-0.01083134246946127,0.09113097565753046,0.08277104667966273,169307.3543285417,-89.57635498046875,-45.65896606445312,-545.116943359375,169307.3702285417,0.01212853492691602,-1.475361495249202,-0.07894851527201986,-0.001943450653925538,0.08404338359832764,0.08497051894664764,0.01499301195144653,0.01483769714832306,0.0172954797744751,1,-0.0251285657286644,-0.6722142100334167,0.03102617152035236,0.7392793893814087,-0.9923489093780518,0.07886652648448944,-0.0949932187795639,0,0,0,-1,169307.1320085417,3,1,1561841491.078507,1561841239.621676,8,3.056457,0,0,7.575853,0,0,1561841413.282218,169304.654204,0,0.1928711,75.19114,0,182478453,3,1,1,-38.03086,-41.6503,1
1561841491.099615,21,0,0,1561841490.99661,4.634564355951393,-74.15098191245845,2553.11,0,286.171875,4,30,-9999,1561841491.093586,-17.09187316894531,-19.81980895996094,15.36572265625,129.0660552978516,136.5592651367188,15,169307.3955575417,-0.9841156005859375,0.07623291015625,-0.07354736328125,169307.3955575417,-0.01145265795177676,0.0583530552769442,0.03795217606250121,169307.3744095417,-89.48495483398438,-46.06617736816406,-545.1253662109375,169307.3904925417,0.01191259744876168,-1.473862915992527,-0.08035030192835149,-0.02090808749198914,0.06232210993766785,0.04596666246652603,0.01072537899017334,0.002545580267906189,0.02102994918823242,1,-0.02574305050075054,-0.6716417074203491,0.03139797225594521,0.7397626638412476,-0.9920943379402161,0.08026386797428131,-0.09646942466497421,0,0,0,-1,169307.1320085417,3,1,1561841491.078507,1561841239.621676,8,3.056457,0,0,7.575853,0,0,1561841413.282218,169304.654204,0,0.1928711,75.19114,0,182478453,3,1,1,-38.03086,-42.46458,1
1561841491.119586,22,0,0,1561841490.99661,4.634564355951393,-74.15098191245845,2553.11,0,286.171875,4,30,-9999,1561841491.117958,-17.131103515625,-19.75016021728516,15.48358154296875,129.0719909667969,136.5652008056641,15,169307.4158215417,-0.9889373779296875,0.0740203857421875,-0.0638275146484375,169307.4158215417,0.02544037894519994,0.0390576542309931,0.008818525317579382,169307.3945205417,-89.67453002929688,-45.6783447265625,-545.232177734375,169307.4107555417,0.01184763766629168,-1.472962668742208,-0.08085083178067283,0.01248475722968578,0.0376063771545887,0.0111157363280654,0.004357218742370605,-0.01077070832252502,0.0277937650680542,1,-0.0259642768651247,-0.6713021397590637,0.03153025731444359,0.7400575280189514,-0.9919670820236206,0.08076277375221252,-0.0973585844039917,0,0,0,-1,169307.1320085417,3,1,1561841491.078507,1561841239.621676,8,3.056457,0,0,7.575853,0,0,1561841413.282218,169304.654204,0,0.1928711,75.19114,0,182478453,3,1,1,-38.03086,-42.46458,1
1561841491.139839,23,0,0,1561841490.99661,4.634564355951393,-74.15098191245845,2553.11,0,286.171875,4,30,-9999,1561841491.117958,-17.131103515625,-19.75016021728516,15.48358154296875,129.0719909667969,136.5652008056641,15,169307.4360855417,-0.9888153076171875,0.080718994140625,-0.0623321533203125,169307.4360855417,0.06116295654308681,-0.00899828869115973,-0.0003278351301887542,169307.4146315417,-90.0740966796875,-45.72137451171875,-545.255126953125,169307.4310195417,0.01251368849544291,-1.472555644779675,-0.08089006223336674,0.05021589249372482,-0.002885655732825398,-0.0003600912168622017,0.0018271803855896,-0.0008915960788726807,0.03501790761947632,1,-0.02576170675456524,-0.6711596846580505,0.03178463131189346,0.7401829361915588,-0.9919242262840271,0.08080187439918518,-0.09776202589273453,0,0,0,-1,169307.1320085417,3,1,1561841491.078507,1561841239.621676,8,3.056457,0,0,7.575853,0,0,1561841413.282218,169304.654204,0,0.1928711,75.19114,0,182478453,3,1,1,-38.03086,-42.94083,1
1561841491.160125,24,0,0,1561841490.99661,4.634564355951393,-74.15098191245845,2553.11,0,286.171875,4,30,-9999,1561841491.144182,-17.03836822509766,-19.77806091308594,15.3424072265625,129.0127716064453,136.5059814453125,15,169307.4563485417,-0.9847412109375,0.0841522216796875,-0.064788818359375,169307.4563485417,0.05167864095298762,-0.03161252108756758,0.00631488757679589,169307.4347425417,-89.62132263183594,-45.87580871582031,-545.3240356445312,169307.4512835417,0.0137002063658353,-1.47308403875563,-0.08074328798200527,0.05683411285281181,-0.04023675620555878,-0.002064514206722379,0.003263771533966064,0.001879207789897919,0.03501367568969727,1,-0.02530068345367908,-0.6713719964027405,0.03218120709061623,0.7399891018867493,-0.9919875264167786,0.08065558224916458,-0.09723903238773346,0,0,0,-1,169307.4468275417,3,1,1561841491.393326,1561841239.621676,8,3.056457,0,0,7.575853,0,0,1561841413.282218,169304.654204,0,0.1928711,75.19114,0,182478453,3,1,1,-38.03086,-43.24328,1
1561841491.180586,25,0,0,1561841490.99661,4.634564355951393,-74.15098191245845,2553.11,0,286.171875,4,30,-9999,1561841491.168487,-16.98059844970703,-19.93925857543945,15.24188232421875,128.9509124755859,136.4441223144531,15,169307.4766125417,-0.983154296875,0.0892333984375,-0.0706024169921875,169307.4766125417,-0.02039315604728177,-0.007615841769299598,0.03874553175123581,169307.4548235417,-89.36833190917969,-46.03036499023438,-545.1275634765625,169307.4715465417,0.01436794386404175,-1.473696083024782,-0.08094371373794754,-0.004211931489408016,-0.01683156564831734,0.02993070334196091,0.010722815990448,0.0056314617395401,0.02947640419006348,1,-0.02514078095555305,-0.6716046333312988,0.03250319510698318,0.7397693991661072,-0.9920307993888855,0.0808553546667099,-0.09663031250238419,0,0,0,-1,169307.4468275417,3,1,1561841491.393326,1561841239.621676,8,3.056457,0,0,7.575853,0,0,1561841413.282218,169304.654204,0,0.1928711,75.19114,0,182478453,3,1,1,-38.03086,-43.41616,1
1561841491.201077,26,0,0,1561841490.99661,4.634564355951393,-74.15098191245845,2553.11,0,286.171875,4,30,-9999,1561841491.194849,-17.07457733154297,-19.62316513061523,15.331787109375,128.9868011474609,136.4800109863281,15,169307.4968765417,-0.9883270263671875,0.0876617431640625,-0.06842041015625,169307.4968765417,-0.06491162209348235,-0.00717295808001942,0.03392973755204553,169307.4749345417,-89.6292724609375,-46.02610778808594,-545.26513671875,169307.4917795417,0.01372235211694996,-1.474053851187851,-0.08171205067015265,-0.05798008665442467,-0.008182949386537075,0.03514517098665237,0.005491793155670166,0.006834045052528381,0.02397322654724121,1,-0.0256360936909914,-0.6717202663421631,0.03252683579921722,0.7396462559700012,-0.9920030236244202,0.08162114769220352,-0.09626934677362442,0,0,0,-1,169307.4468275417,3,1,1561841491.393326,1561841239.621676,8,3.056457,0,0,7.575853,0,0,1561841413.282218,169304.654204,0,0.1928711,75.19114,0,182478453,3,1,1,-38.03086,-44.00259,1
1561841491.22085,27,0,0,1561841490.99661,4.634564355951393,-74.15098191245845,2553.11,0,286.171875,4,30,-9999,1561841491.21917,-17.14303588867188,-19.65642166137695,15.1884765625,129.0774688720703,136.5706787109375,15,169307.5171095417,-0.9907684326171875,0.0827484130859375,-0.068115234375,169307.5171095417,-0.04235784345381929,-0.04419782145095504,0.03249136424729373,169307.4950455417,-89.84474182128906,-45.63790893554688,-545.316162109375,169307.5120435417,0.01248337198329241,-1.474736047439378,-0.08237426517471572,-0.05487138032913208,-0.04537532851099968,0.02470238506793976,0.002573668956756592,0.004083603620529175,0.02869284152984619,1,-0.02628621831536293,-0.6719489097595215,0.03229986876249313,0.7394257783889771,-0.9920145869255066,0.08228113502264023,-0.09558739513158798,0,0,0,-1,169307.4468275417,3,1,1561841491.393326,1561841239.621676,8,3.056457,0,0,7.575853,0,0,1561841413.282218,169304.654204,0,0.1928711,75.19114,0,182478453,3,1,1,-38.03086,-44.50867,1
1561841491.241118,28,0,0,1561841490.99661,4.634564355951393,-74.15098191245845,2553.11,0,286.171875,4,30,-9999,1561841491.21917,-17.14303588867188,-19.65642166137695,15.1884765625,129.0774688720703,136.5706787109375,15,169307.5373735417,-0.9868011474609375,0.0786895751953125,-0.073089599609375,169307.5373735417,-0.009756224337396282,-0.05559002564598699,0.05869101041927526,169307.5151255417,-89.99356079101562,-45.77700805664062,-545.1982421875,169307.5323075417,0.01185538937955563,-1.475962694572195,-0.08315982789621502,-0.01584808155894279,-0.05901976674795151,0.04873128980398178,0.000931859016418457,-0.003046922385692596,0.02510470151901245,1,-0.02676793187856674,-0.6723847985267639,0.0323478989303112,0.7390100359916687,-0.9920664429664612,0.0830640122294426,-0.09436432272195816,0,0,0,-1,169307.4468275417,3,1,1561841491.393326,1561841239.621676,8,3.056457,0,0,7.575853,0,0,1561841413.282218,169304.654204,0,0.1928711,75.19114,0,182478453,3,1,1,-38.03086,-44.96871,1
1561841491.270988,29,0,0,1561841490.99661,4.634564355951393,-74.15098191245845,2553.11,0,286.171875,4,30,-9999,1561841491.269953,-17.19061279296875,-19.67030715942383,15.45404052734375,129.1093139648438,136.6025238037109,15,169307.5576365417,-0.99273681640625,0.0754241943359375,-0.0830841064453125,169307.5576365417,0.006892527217234076,-0.04054423075147533,0.0680933006478,169307.5352365417,-89.62588500976562,-45.8153076171875,-545.3594360351562,169307.5525705417,0.01183434733550311,-1.477245108378497,-0.08441045593231208,0.003294188063591719,-0.05419624969363213,0.0686248391866684,0.005433917045593262,-0.008184149861335754,0.01530814170837402,1,-0.02721630968153477,-0.672843337059021,0.03277779743075371,0.7385572791099548,-0.9920825362205505,0.08431025594472885,-0.0930822342634201,0,0,0,-1,169307.4468275417,3,1,1561841491.393326,1561841239.621676,8,3.056457,0,0,7.575853,0,0,1561841413.282218,169304.654204,0,0.1928711,75.19114,0,182478453,3,1,1,-38.03086,-45.6734,1
1561841491.281673,30,0,0,1561841490.99661,4.634564355951393,-74.15098191245845,2553.11,0,286.171875,4,30,-9999,1561841491.269953,-17.19061279296875,-19.67030715942383,15.45404052734375,129.1093139648438,136.6025238037109,15,169307.5779005417,-1.001144409179688,0.0802001953125,-0.081298828125,169307.5779005417,0.0256744708050179,0.005113269292952138,0.01365935323101641,169307.5553475417,-89.70504760742188,-45.98721313476562,-545.2802124023438,169307.5728345417,0.01208905466776869,-1.477899440128626,-0.0854692636462011,0.01762811839580536,-0.005081431940197945,0.02581452205777168,-0.006588220596313477,-0.008109994232654572,0.008074104785919189,1,-0.02751091867685318,-0.6730756163597107,0.03323686122894287,0.738314151763916,-0.992053747177124,0.08536524325609207,-0.09242472797632217,0,0,0,-1,169307.4468275417,3,1,1561841491.393326,1561841239.621676,8,3.056457,0,0,7.575853,0,0,1561841413.282218,169304.654204,0,0.1928711,75.19114,0,182478453,3,1,1,-38.03086,-45.6734,1
1561841491.301907,31,0,0,1561841490.99661,4.634564355951393,-74.15098191245845,2553.11,0,286.171875,4,30,-9999,1561841491.296096,-17.19586944580078,-19.49946975708008,15.29254150390625,129.0759124755859,136.5691223144531,15,169307.5981645417,-0.9940948486328125,0.079559326171875,-0.071014404296875,169307.5981645417,0.04198260405622713,-0.02554477485993105,0.01001455096313397,169307.5754285417,-89.70538330078125,-45.84989929199219,-545.2251586914062,169307.5930985417,0.01268392345045672,-1.477921568673727,-0.08553790212290106,0.03939759731292725,-0.01159179583191872,0.0003075632266700268,-0.009491264820098877,-0.005630165338516235,0.01526904106140137,1,-0.02733570151031017,-0.6730911135673523,0.03347985073924065,0.7382954955101013,-0.9920498728752136,0.08543363213539124,-0.09240222722291946,0,0,0,-1,169307.4468275417,3,1,1561841491.393326,1561841239.621676,8,3.056457,0,0,7.575853,0,0,1561841413.282218,169304.654204,0,0.1928711,75.19114,0,182478453,3,1,1,-38.03086,-45.95894,1
1561841491.322651,32,0,0,1561841490.99661,4.634564355951393,-74.15098191245845,2553.11,0,286.171875,4,30,-9999,1561841491.320423,-17.11272430419922,-19.55525588989258,15.24798583984375,129.0269622802734,136.5201721191406,15,169307.6184275417,-0.9829559326171875,0.0830535888671875,-0.0723419189453125,169307.6184275417,0.02281263789761875,-0.0813819418550774,0.02421878695318059,169307.5955395417,-89.97357177734375,-45.69276428222656,-545.4054565429688,169307.6133615417,0.01347458758639899,-1.478960094355269,-0.08569081572350261,0.03037001565098763,-0.0817519798874855,0.02048340626060963,0.006796061992645264,-0.003539472818374634,0.02058517932891846,1,-0.02710851468145847,-0.6734833121299744,0.03383722901344299,0.7379298806190491,-0.9921323657035828,0.08558598160743713,-0.09137071669101715,0,0,0,-1,169307.4468275417,3,1,1561841491.393326,1561841239.621676,8,3.056457,0,0,7.575853,0,0,1561841413.282218,169304.654204,0,0.1928711,75.19114,0,182478453,3,1,1,-38.03086,-46.19165,1
1561841491.350757,33,0,0,1561841490.99661,4.634564355951393,-74.15098191245845,2553.11,0,286.171875,4,30,-9999,1561841491.347137,-16.9774169921875,-19.63002395629883,15.39434814453125,129.0492858886719,136.5424957275391,15,169307.6386915417,-0.994049072265625,0.0824432373046875,-0.0772857666015625,169307.6386915417,-0.03985979835132496,-0.03173369491716619,0.02324939631639175,169307.6156505417,-90.08595275878906,-45.68721008300781,-545.2401123046875,169307.6335955417,0.01362243447877508,-1.480506750492934,-0.08603109780243071,-0.02393104135990143,-0.050353042781353,0.01696084253489971,0.004786193370819092,-0.003008753061294556,0.01761364936828613,1,-0.02715804055333138,-0.6740517020225525,0.03402730450034142,0.7374001741409302,-0.9922434687614441,0.08592501282691956,-0.08983349055051804,0,0,0,-1,169307.4468275417,3,1,1561841491.393326,1561841239.621676,8,3.056457,0,0,7.575853,0,0,1561841413.282218,169304.654204,0,0.1928711,75.19114,0,182478453,3,1,1,-38.03086,-46.48961,1
1561841491.362724,34,0,0,1561841490.99661,4.634564355951393,-74.15098191245845,2553.11,0,286.171875,4,30,-9999,1561841491.347137,-16.9774169921875,-19.63002395629883,15.39434814453125,129.0492858886719,136.5424957275391,15,169307.6589245417,-0.9962310791015625,0.0802459716796875,-0.085235595703125,169307.6589245417,-0.05226986271498521,0.006247509601216884,0.01135838204918795,169307.6357615417,-89.84864807128906,-45.73249816894531,-545.476318359375,169307.6538585417,0.01269114488557284,-1.48111131492669,-0.0864701302361406,-0.05847223848104477,-0.005214856471866369,0.01546387933194637,-0.004367947578430176,-0.004987291991710663,0.006634414196014404,1,-0.02762363292276859,-0.6742565035820007,0.03384016081690788,0.7372041940689087,-0.9922598600387573,0.08636241406202316,-0.08923020213842392,0,0,0,-1,169307.4468275417,3,1,1561841491.393326,1561841239.621676,8,3.056457,0,0,7.575853,0,0,1561841413.282218,169304.654204,0,0.1928711,75.19114,0,182478453,3,1,1,-38.03086,-42.95093,1
1561841491.383437,35,0,0,1561841490.99661,4.634564355951393,-74.15098191245845,2553.11,0,286.171875,4,30,-9999,1561841491.371098,-16.98109436035156,-19.60835266113281,15.3629150390625,129.1332855224609,136.6264953613281,15,169307.6791885417,-0.99163818359375,0.0790557861328125,-0.08099365234375,169307.6791885417,-0.01379544076271946,0.009961021425223374,-0.01661945678263949,169307.6558425417,-89.58622741699219,-45.87138366699219,-545.2110595703125,169307.6741225417,0.01178868870329036,-1.481158688441021,-0.08653120718366067,-0.02378590032458305,0.008501222357153893,-0.01584690622985363,-0.004460573196411133,-0.00747428834438324,0.005747675895690918,1,-0.02794960327446461,-0.674260675907135,0.03352875262498856,0.7372022867202759,-0.9922587871551514,0.08642326295375824,-0.08918271958827972,0,0,0,-1,169307.4468275417,3,1,1561841491.393326,1561841239.621676,8,3.056457,0,0,7.575853,0,0,1561841413.282218,169304.654204,0,0.1928711,75.19114,0,182478453,3,1,1,-38.03086,-43.36305,1
1561841491.403209,36,0,0,1561841490.99661,4.634564355951393,-74.15098191245845,2553.11,0,286.171875,4,30,-9999,1561841491.397929,-16.94090270996094,-19.53903579711914,15.42083740234375,129.1583709716797,136.6515808105469,15,169307.6994515417,-0.98834228515625,0.0828857421875,-0.0765228271484375,169307.6994515417,0.0231300866995562,-0.01142655897309398,-0.000314519324738358,169307.6759535417,-89.37428283691406,-45.68563842773438,-545.117919921875,169307.6943865417,0.01164683775858793,-1.481225716168338,-0.0861675203406846,0.01136915851384401,-0.01224080845713615,-0.01007050927728415,0.003175497055053711,-0.00560133159160614,0.01148229837417603,1,-0.0278621893376112,-0.6742879152297974,0.03335485979914665,0.7371885180473328,-0.9922959208488464,0.08606092631816864,-0.08911900967359543,0,0,0,-1,169307.4468275417,3,1,1561841491.393326,1561841239.621676,8,3.056457,0,0,7.575853,0,0,1561841413.282218,169304.654204,0,0.1928711,75.19114,0,182478453,3,1,1,-38.03086,-43.98109,1
1561841491.431316,37,0,0,1561841490.99661,4.634564355951393,-74.15098191245845,2553.11,0,286.171875,4,30,-9999,1561841491.421806,-17.04643249511719,-19.62368774414062,15.21954345703125,129.1202545166016,136.6134643554688,15,169307.7197155417,-0.9831390380859375,0.086090087890625,-0.0766754150390625,169307.7197155417,0.04787564691635447,-0.03345409698135737,0.02730965171432656,169307.6960645417,-89.81033325195312,-45.66748046875,-545.155517578125,169307.7146495417,0.0122102661995267,-1.481656030564589,-0.08619202292563299,0.04034461826086044,-0.03117881156504154,0.01635204441845417,0.006278514862060547,0.0007371678948402405,0.01221472024917603,1,-0.02767404355108738,-0.6744540333747864,0.03357674926519394,0.737033486366272,-0.9923319816589355,0.08608534187078476,-0.08869180828332901,0,0,0,-1,169307.4468275417,3,1,1561841491.393326,1561841239.621676,8,3.056457,0,0,7.575853,0,0,1561841413.282218,169304.654204,0,0.1928711,75.19114,0,182478453,3,1,1,-38.03086,-44.1302,1
1561841491.444216,38,0,0,1561841490.99661,4.634564355951393,-74.15098191245845,2553.11,0,286.171875,4,30,-9999,1561841491.421806,-17.04643249511719,-19.62368774414062,15.21954345703125,129.1202545166016,136.6134643554688,15,169307.7399795417,-0.9873199462890625,0.0894317626953125,-0.082275390625,169307.7399795417,0.05661001634348734,-0.02982234420281632,0.0447746621430662,169307.7161455417,-89.92620849609375,-45.58584594726562,-544.7388916015625,169307.7349135417,0.01325002559468837,-1.482445188297614,-0.08669683599987214,0.0551624484360218,-0.04258539900183678,0.04066723585128784,0.00838017463684082,0.0002800151705741882,0.007414758205413818,1,-0.02749606035649776,-0.674752950668335,0.03414089232683182,0.7367407083511353,-0.9923584461212158,0.08658827096223831,-0.08790484815835953,0,0,0,-1,169307.4468275417,3,1,1561841491.393326,1561841239.621676,8,3.056457,0,0,7.575853,0,0,1561841413.282218,169304.654204,0,0.1928711,75.19114,0,182478453,3,1,1,-38.03086,-44.1302,1
1561841491.464051,39,0,0,1561841490.99661,4.634564355951393,-74.15098191245845,2553.11,0,286.171875,4,30,-9999,1561841491.448028,-17.16183471679688,-19.29776382446289,15.38079833984375,129.0446319580078,136.537841796875,15,169307.7602425417,-0.991241455078125,0.0903167724609375,-0.0828399658203125,169307.7602425417,0.03120292691191339,0.0120524018292626,0.02753522145865627,169307.7362565417,-89.61538696289062,-45.41685485839844,-545.0931396484375,169307.7551775417,0.01429823411163673,-1.482878878864914,-0.08733577178950624,0.03080171346664429,-0.006713949609547853,0.02927902713418007,0.002701878547668457,0.002496890723705292,0.004171848297119141,1,-0.02737037278711796,-0.6749193072319031,0.0347483716905117,0.736564576625824,-0.992341160774231,0.08722478896379471,-0.08746958523988724,0,0,0,-1,169307.4468275417,3,1,1561841491.393326,1561841239.621676,8,3.056457,0,0,7.575853,0,0,1561841413.282218,169304.654204,0,0.1928711,75.19114,0,182478453,3,1,1,-38.03086,-44.94601,1
1561841491.484312,40,0,0,1561841490.99661,4.634564355951393,-74.15098191245845,2553.11,0,286.171875,4,30,-9999,1561841491.472905,-17.44891357421875,-19.32028579711914,15.37078857421875,128.9989166259766,136.4921264648438,15,169307.7805065417,-1.000198364257812,0.0908966064453125,-0.0868682861328125,169307.7805065417,0.04057725394899232,0.02924896562012226,-0.01139140524670493,169307.7563675417,-89.78526306152344,-45.60356140136719,-544.9002075195312,169307.7754105417,0.01488973609074659,-1.482641658704116,-0.08763109775713566,0.02955508604645729,0.01975041441619396,-0.0004479754716157913,-0.002303719520568848,0.004201598465442657,0.003107964992523193,1,-0.02728374861180782,-0.6748364567756653,0.03506256639957428,0.7366287708282471,-0.9922946095466614,0.08751898258924484,-0.08770270645618439,0,0,0,-1,169307.4468275417,3,1,1561841491.393326,1561841239.621676,8,3.056457,0,0,7.575853,0,0,1561841413.282218,169304.654204,0,0.1928711,75.19114,0,182478453,3,1,1,-38.58814,-45.25763,1
1561841491.513247,41,0,0,1561841490.99661,4.634564355951393,-74.15098191245845,2553.11,0,286.171875,4,30,-9999,1561841491.499618,-17.10994720458984,-19.49566268920898,15.35089111328125,128.9445648193359,136.4377746582031,15,169307.8007705417,-0.9924468994140625,0.0770263671875,-0.0788116455078125,169307.8007705417,0.08510078000126405,0.007709585039670386,-0.05158223452152675,169307.7764475417,-89.59542846679688,-45.64952087402344,-545.20849609375,169307.7956735417,0.01581781992239092,-1.482225896020212,-0.08695940037528135,0.07113208621740341,0.006690006237477064,-0.05186855420470238,-0.00435715913772583,-0.004788078367710114,0.006409645080566406,1,-0.02673035673797131,-0.67470383644104,0.03517235442996025,0.7367653250694275,-0.9923164248466492,0.08684984594583511,-0.08812044560909271,0,0,0,-1,169307.4468275417,3,1,1561841491.393326,1561841239.621676,8,3.056457,0,0,7.575853,0,0,1561841413.282218,169304.654204,0,0.1928711,75.19114,0,182478453,3,1,1,-39.14542,-45.8838,1
1561841491.524767,42,0,0,1561841490.99661,4.634564355951393,-74.15098191245845,2553.11,0,286.171875,4,30,-9999,1561841491.523105,-17.26160430908203,-19.55834197998047,15.45904541015625,128.8198089599609,136.3130187988281,15,169307.8210035417,-0.985870361328125,0.0803070068359375,-0.0715179443359375,169307.8210035417,0.1124184211988608,-0.003320429247110794,-0.03056137140531331,169307.7965585417,-89.82620239257812,-45.66671752929688,-545.109130859375,169307.8159375417,0.01759424575809701,-1.482089678702991,-0.08575469406142026,0.1087843924760818,-0.004626297857612371,-0.04432595148682594,0.001685142517089844,-0.008974209427833557,0.0129016637802124,1,-0.0256893876940012,-0.6746907830238342,0.03541890904307365,0.7368023991584778,-0.9924077987670898,0.08564962446689606,-0.08826480805873871,0,0,0,-1,169307.4468275417,3,1,1561841491.393326,1561841239.621676,8,3.056457,0,0,7.575853,0,0,1561841413.282218,169304.654204,0,0.1928711,75.19114,0,182478453,3,1,1,-39.7027,-46.48418,1
1561841491.545063,43,0,0,1561841490.99661,4.634564355951393,-74.15098191245845,2553.11,0,286.171875,4,30,-9999,1561841491.523105,-17.26160430908203,-19.55834197998047,15.45904541015625,128.8198089599609,136.3130187988281,15,169307.8412675417,-0.9715728759765625,0.09210205078125,-0.067230224609375,169307.8412675417,0.07962132605842601,-0.02208293175893704,0.003988616364611675,169307.8166695417,-89.83274841308594,-45.44105529785156,-544.814697265625,169307.8362015417,0.0196922250477514,-1.482231698988948,-0.08507798559063127,0.09161392599344254,-0.02542851492762566,-0.005362573079764843,0.01582378149032593,0.001114696264266968,0.01925081014633179,1,-0.02472959458827972,-0.6747769713401794,0.0359654575586319,0.7367298603057861,-0.9924778938293457,0.08497538417577744,-0.08812896907329559,0,0,0,-1,169307.4468275417,3,1,1561841491.393326,1561841239.621676,8,3.056457,0,0,7.575853,0,0,1561841413.282218,169304.654204,0,0.1928711,75.19114,0,182478453,3,1,1,-40.18314,-41.92981,1
1561841491.565366,44,0,0,1561841490.99661,4.634564355951393,-74.15098191245845,2553.11,0,286.171875,4,30,-9999,1561841491.549946,-17.23790740966797,-19.2967643737793,15.58685302734375,128.6876373291016,136.1808471679688,15,169307.861541,-0.9716644287109375,0.09356689453125,-0.07281494140625,169307.861541,0.008282164674037423,-0.0006311691783487794,0.03159414527604604,169307.8367505417,-89.70265197753906,-45.62255859375,-545.1774291992188,169307.856475,0.02096476675896129,-1.482639780196387,-0.08519361346132222,0.02730071917176247,-0.01587096229195595,0.02464619278907776,0.02151089906692505,0.008338972926139832,0.01924169063568115,1,-0.02433543279767036,-0.6749416589736938,0.03647815063595772,0.7365669012069702,-0.9925039410591125,0.08509059250354767,-0.08772308379411697,0,0,0,-1,169307.4468275417,3,1,1561841491.393326,1561841239.621676,8,3.056457,0,0,7.575853,0,0,1561841413.282218,169304.654204,0,0.1928711,75.19114,0,182478453,3,1,1,-40.18314,-42.80159,1
1561841491.601141,45,0,0,1561841490.99661,4.634564355951393,-74.15098191245845,2553.11,0,286.171875,4,30,-9999,1561841491.573888,-17.16925811767578,-19.60416412353516,15.66259765625,128.6625518798828,136.15576171875,15,169307.881805,-0.981658935546875,0.0934600830078125,-0.077667236328125,169307.881805,-0.04438024798562547,0.03176405495359309,0.0152319498547082,169307.856872,-89.61445617675781,-45.859619140625,-544.9317626953125,169307.876739,0.02088423472321758,-1.48261802654356,-0.08572973914172721,-0.0325104147195816,0.01951339282095432,0.01783036440610886,0.01601606607437134,0.009239122271537781,0.01268267631530762,1,-0.02456061542034149,-0.6749269962310791,0.03662897273898125,0.7365654110908508,-0.9924564957618713,0.08562476187944412,-0.08774065226316452,0,0,0,-1,169307.4468275417,3,1,1561841491.393326,1561841239.621676,8,3.056457,0,0,7.575853,0,0,1561841413.282218,169304.654204,0,0.1928711,75.19114,0,182478453,3,1,1,-39.55856,-42.86343,1
1561841491.605819,46,0,0,1561841490.99661,4.634564355951393,-74.15098191245845,2553.11,0,286.171875,4,30,-9999,1561841491.603992,-17.23432159423828,-19.44738006591797,15.62445068359375,128.7299957275391,136.2232055664062,15,169307.902069,-1.00006103515625,0.0909271240234375,-0.0723724365234375,169307.902069,-0.03264263179721023,0.04546282296874268,-0.03500645358076456,169307.876983,-90.0009765625,-45.64170837402344,-545.0036010742188,169307.897003,0.01989016889132886,-1.482139643918513,-0.08577127932026145,-0.0462733618915081,0.03462523221969604,-0.02750622481107712,0.002710640430450439,0.007519274950027466,0.01376748085021973,1,-0.02492006123065948,-0.6747380495071411,0.03627091273665428,0.736744225025177,-0.9924109578132629,0.08566614985466003,-0.08821511268615723,0,0,0,-1,169307.4468275417,3,1,1561841491.393326,1561841239.621676,8,3.056457,0,0,7.575853,0,0,1561841413.282218,169304.654204,0,0.1928711,75.19114,0,182478453,3,1,1,-39.55856,-42.86343,1
1561841491.626108,47,0,0,1561841490.99661,4.634564355951393,-74.15098191245845,2553.11,0,286.171875,4,30,-9999,1561841491.624913,-17.14813995361328,-19.61613082885742,15.46087646484375,128.766845703125,136.2600555419922,15,169307.922332,-0.9967041015625,0.0847320556640625,-0.06915283203125,169307.922332,0.01632970485603887,0.01314429787619509,-0.0549282301151023,169307.897064,-89.85049438476562,-45.66763305664062,-544.8997802734375,169307.917266,0.01937987798054552,-1.481466495401026,-0.08489022521164392,0.003224995452910662,0.02579169906675816,-0.0582519918680191,-0.008214831352233887,-0.0006818622350692749,0.01883673667907715,1,-0.02477945014834404,-0.6744931936264038,0.03577762842178345,0.7369971871376038,-0.9924260973930359,0.08478830754756927,-0.08888982236385345,0,0,0,-1,169307.4468275417,3,1,1561841491.393326,1561841239.621676,8,3.056457,0,0,7.575853,0,0,1561841413.282218,169304.654204,0,0.1928711,75.19114,0,182478453,3,1,1,-39.55856,-41.577,1
1561841491.646555,48,0,0,1561841490.99661,4.634564355951393,-74.15098191245845,2553.11,0,286.171875,4,30,-9999,1561841491.624913,-17.14813995361328,-19.61613082885742,15.46087646484375,128.766845703125,136.2600555419922,15,169307.942596,-0.98638916015625,0.0818023681640625,-0.073394775390625,169307.942596,0.05144082066764354,-0.03186126033338098,-0.02826998760340913,169307.917175,-89.8587646484375,-45.44729614257812,-545.16796875,169307.9375,0.01982514388685305,-1.481673790884138,-0.08379481328841418,0.04729259014129639,-0.03861019760370255,-0.04344481602311134,0.004499435424804688,-0.00250476598739624,0.0181509256362915,1,-0.0242216307669878,-0.6745866537094116,0.03557512164115906,0.7369400858879089,-0.9925365447998047,0.08369678258895874,-0.0886923149228096,0,0,0,-1,169307.4468275417,3,1,1561841491.393326,1561841239.621676,8,3.056457,0,0,7.575853,0,0,1561841413.282218,169304.654204,0,0.1928711,75.19114,0,182478453,3,1,1,-39.55856,-41.93293,1
1561841491.676376,49,0,0,1561841490.99661,4.634564355951393,-74.15098191245845,2553.11,0,286.171875,4,30,-9999,1561841491.675323,-17.12421417236328,-19.46310806274414,15.43902587890625,128.6981201171875,136.1913299560547,15,169307.962829,-0.9897613525390625,0.0926971435546875,-0.079345703125,169307.962829,0.01860484337529356,0.01229847791398592,0.01219381568314581,169307.937286,-89.76345825195312,-45.61567687988281,-545.2595825195312,169307.957763,0.02065289604051794,-1.482168567343488,-0.08333439639616333,0.02554414793848991,-0.005066615529358387,-0.0003596653696149588,0.00311654806137085,0.005385071039199829,0.01303982734680176,1,-0.02376381307840347,-0.6747836470603943,0.03573084995150566,0.736767053604126,-0.9926185011863708,0.08323797583580017,-0.08820462226867676,0,0,0,-1,169307.4468275417,3,1,1561841491.393326,1561841239.621676,8,3.056457,0,0,7.575853,0,0,1561841413.282218,169304.654204,0,0.1928711,75.19114,0,182478453,3,1,1,-39.55856,-42.5681,1
1561841491.687011,50,0,0,1561841490.99661,4.634564355951393,-74.15098191245845,2553.11,0,286.171875,4,30,-9999,1561841491.675323,-17.12421417236328,-19.46310806274414,15.43902587890625,128.6981201171875,136.1913299560547,15,169307.983093,-0.9889678955078125,0.095001220703125,-0.0793914794921875,169307.983093,-0.004137487069547105,0.04730919255249461,0.04179298698661348,169307.957367,-89.73143005371094,-45.51873779296875,-545.1610107421875,169307.978027,0.02086461365676425,-1.481814819251668,-0.08368193697475886,-0.004187114536762238,0.03607389330863953,0.03337379917502403,0.005253612995147705,0.009891033172607422,0.009009063243865967,1,-0.02382686361670494,-0.6746522784233093,0.03592177852988243,0.7368759512901306,-0.9925583004951477,0.08358430862426758,-0.08855316787958145,0,0,0,-1,169307.4468275417,3,1,1561841491.393326,1561841239.621676,8,3.056457,0,0,7.575853,0,0,1561841413.282218,169304.654204,0,0.1928711,75.19114,0,182478453,3,1,1,-39.55856,-43.21193,1
1561841491.707245,51,0,0,1561841490.99661,4.634564355951393,-74.15098191245845,2553.11,0,286.171875,4,30,-9999,1561841491.701539,-17.20494079589844,-19.42737197875977,15.373779296875,128.7088470458984,136.2020568847656,15,169308.003357,-1.001052856445312,0.0936126708984375,-0.0751953125,169308.003357,-0.01400609680494473,0.03727067313954993,0.0193321526689942,169307.977478,-89.81463623046875,-45.31417846679688,-544.9498291015625,169307.998291,0.0207387639361281,-1.481028511872658,-0.08446762142049062,-0.01644724234938622,0.03939485549926758,0.02979664131999016,-0.001702666282653809,0.01013046503067017,0.01097381114959717,1,-0.02417322807013988,-0.6743528842926025,0.03613068535923958,0.7371284961700439,-0.9924226403236389,0.08436721563339233,-0.08932768553495407,0,0,0,-1,169307.4468275417,3,1,1561841491.393326,1561841239.621676,8,3.056457,0,0,7.575853,0,0,1561841413.282218,169304.654204,0,0.1928711,75.19114,0,182478453,3,1,1,-39.55856,-44.02978,1
1561841491.727524,52,0,0,1561841490.99661,4.634564355951393,-74.15098191245845,2553.11,0,286.171875,4,30,-9999,1561841491.725919,-16.98542022705078,-19.52900314331055,15.34588623046875,128.7265014648438,136.2197113037109,15,169308.02362,-1.0113525390625,0.0796966552734375,-0.06817626953125,169308.02362,0.008039018066513189,0.01921204410383162,-0.03972477608405795,169307.997589,-89.52192687988281,-45.63278198242188,-545.0374755859375,169308.018554,0.02052348422539268,-1.480578670418825,-0.08445810826964448,-3.554625436663628e-06,0.01688901707530022,-0.03220414742827415,-0.01559704542160034,0.003212451934814453,0.01872926950454712,1,-0.02425041422247887,-0.6741845607757568,0.03604267910122871,0.7372843027114868,-0.9923833012580872,0.08435773849487305,-0.08977419137954712,0,0,0,-1,169307.4468275417,3,1,1561841491.393326,1561841239.621676,8,3.056457,0,0,7.575853,0,0,1561841413.282218,169305.596933,0,0.2404785,75.19067,0,182478453,3,1,1,-39.55856,-39.66686,1
1561841491.764867,53,0,0,1561841490.99661,4.634564355951393,-74.15098191245845,2553.11,0,286.171875,4,30,-9999,1561841491.754015,-17.13744354248047,-19.27838516235352,15.65753173828125,128.7220458984375,136.2152557373047,15,169308.043884,-1.000930786132812,0.0789794921875,-0.0688018798828125,169308.043884,0.01870844034169764,0.01635953226024775,-0.05042136260236121,169308.0177,-90.05099487304688,-45.55218505859375,-544.9754638671875,169308.038818,0.02063575910512826,-1.480401652915283,-0.08347906781870501,0.01740366593003273,0.007963965646922588,-0.05614090338349342,-0.01530241966247559,-0.005348697304725647,0.02408504486083984,1,-0.02385452575981617,-0.6741307973861694,0.03575224429368973,0.737360417842865,-0.9924490451812744,0.08338214457035065,-0.08995725959539413,0,0,0,-1,169307.4468275417,3,1,1561841491.393326,1561841239.621676,8,3.056457,0,0,7.575853,0,0,1561841413.282218,169305.596933,0,0.2404785,75.19067,0,182478453,3,1,1,-39.55856,-40.48354,1
1561841491.767968,54,0,0,1561841490.99661,4.634564355951393,-74.15098191245845,2553.11,0,286.171875,4,30,-9999,1561841491.754015,-17.13744354248047,-19.27838516235352,15.65753173828125,128.7220458984375,136.2152557373047,15,169308.064148,-0.9888763427734375,0.083648681640625,-0.0658721923828125,169308.064148,0.01713611003411486,0.0353942098354801,-0.0221553697405872,169308.03778,-89.60786437988281,-45.54197692871094,-544.6766967773438,169308.059082,0.02089325350680202,-1.480020654671699,-0.08248828304569004,0.01988999173045158,0.0303755309432745,-0.03709238022565842,-0.001735687255859375,-0.002926990389823914,0.02308207750320435,1,-0.0234089232981205,-0.6740034222602844,0.03550907224416733,0.7375028729438782,-0.9924964904785156,0.08239477127790451,-0.09034281969070435,0,0,0,-1,169307.4468275417,3,1,1561841491.393326,1561841239.621676,8,3.056457,0,0,7.575853,0,0,1561841413.282218,169305.596933,0,0.2404785,75.19067,0,182478453,3,1,1,-39.55856,-40.48354,1
1561841491.788441,55,0,0,1561841490.99661,4.634564355951393,-74.15098191245845,2553.11,0,286.171875,4,30,-9999,1561841491.776478,-16.95967102050781,-19.47689437866211,15.56988525390625,128.7075805664062,136.2007904052734,15,169308.084411,-0.9888153076171875,0.092742919921875,-0.066497802734375,169308.084411,0.006594253175145202,0.02423529855193908,0.01351261305495305,169308.057891,-89.72300720214844,-45.52667236328125,-544.9884033203125,169308.079315,0.02115761020599654,-1.47945219564026,-0.08224086595604232,0.007543311454355717,0.02263745106756687,0.007438869215548038,0.00345146656036377,0.006337523460388184,0.02386170625686646,1,-0.02323862165212631,-0.6737993359565735,0.0355166532099247,0.737694263458252,-0.992465078830719,0.08214818686246872,-0.09090884029865265,0,0,0,-1,169307.4468275417,3,1,1561841491.393326,1561841239.621676,8,3.056457,0,0,7.575853,0,0,1561841413.282218,169305.596933,0,0.2404785,75.19067,0,182478453,3,1,1,-39.55856,-41.169,1
1561841491.808723,56,0,0,1561841490.99661,4.634564355951393,-74.15098191245845,2553.11,0,286.171875,4,30,-9999,1561841491.803013,-17.03742218017578,-19.4699821472168,15.5169677734375,128.7035064697266,136.1967163085938,15,169308.104644,-0.99383544921875,0.090423583984375,-0.0585174560546875,169308.104644,0.00248978930311508,-0.004135622856784049,0.008988168679017429,169308.078003,-89.75019836425781,-45.44178771972656,-545.05322265625,169308.099578,0.02125072517265811,-1.479244134754851,-0.08242934667985004,0.002735773101449013,-0.001630871091037989,0.007836745120584965,0.00331038236618042,0.01150551438331604,0.03094851970672607,1,-0.02328053303062916,-0.6737217903137207,0.03561200946569443,0.7377592921257019,-0.9924308657646179,0.08233603090047836,-0.09111393243074417,0,0,0,-1,169307.4468275417,3,1,1561841491.393326,1561841239.621676,8,3.056457,0,0,7.575853,0,0,1561841413.282218,169305.596933,0,0.2404785,75.19067,0,182478453,3,1,1,-39.55856,-41.88124,1
1561841491.846136,57,0,0,1561841490.99661,4.634564355951393,-74.15098191245845,2553.11,0,286.171875,4,30,-9999,1561841491.827556,-17.12678527832031,-19.5810546875,15.53375244140625,128.7233123779297,136.2165222167969,15,169308.124908,-1.010452270507812,0.08355712890625,-0.057281494140625,169308.124908,-0.0461560438004903,0.02544064526130895,-8.229167768344846e-05,169308.098083,-89.78427124023438,-45.64898681640625,-544.9165649414062,169308.119842,0.02113911545841905,-1.479449088372027,-0.08248003835623771,-0.02666392922401428,0.0009739664383232594,-0.002554376376792789,-0.009049892425537109,0.005275189876556396,0.03141617774963379,1,-0.02333319745957851,-0.6737955808639526,0.0355902872979641,0.737691342830658,-0.9924454689025879,0.0823865532875061,-0.09091015160083771,0,0,0,-1,169307.4468275417,3,1,1561841491.393326,1561841239.621676,8,3.056457,0,0,7.575853,0,0,1561841413.282218,169305.596933,0,0.2404785,75.19067,0,182478453,3,1,1,-38.63387,-39.33007,1
1561841491.849405,58,0,0,1561841490.99661,4.634564355951393,-74.15098191245845,2553.11,0,286.171875,4,30,-9999,1561841491.827556,-17.12678527832031,-19.5810546875,15.53375244140625,128.7233123779297,136.2165222167969,15,169308.145172,-1.026397705078125,0.0800933837890625,-0.0617523193359375,169308.145172,-0.1756503875928302,0.09015599238245245,-0.003235474408337267,169308.118194,-89.60426330566406,-45.64483642578125,-544.88525390625,169308.140106,0.01957274616729583,-1.478632303799658,-0.08260412102221838,-0.1409990340471268,0.09270787984132767,0.001182305160909891,-0.02868127822875977,-0.001486040651798248,0.03254622220993042,1,-0.02392101287841797,-0.6734744906425476,0.03504452854394913,0.7379917502403259,-0.9923606514930725,0.08251021057367325,-0.09171979129314423,0,0,0,-1,169307.4468275417,3,1,1561841491.393326,1561841239.621676,8,3.056457,0,0,7.575853,0,0,1561841413.282218,169305.596933,0,0.2404785,75.19067,0,182478453,3,1,1,-38.63387,-39.33007,1
1561841491.869456,59,0,0,1561841490.99661,4.634564355951393,-74.15098191245845,2553.11,0,286.171875,4,30,-9999,1561841491.853396,-16.99988555908203,-19.58634185791016,15.347900390625,128.9044494628906,136.3976593017578,15,169308.165435,-0.9704742431640625,0.0637359619140625,-0.0563507080078125,169308.165435,-0.2402845083007263,-0.01125638297943792,-0.05962897575520117,169308.138305,-89.58657836914062,-45.62117004394531,-544.8956298828125,169308.160369,0.01541925473603701,-1.477780488715975,-0.08249780094204635,-0.2419245690107346,0.01099357753992081,-0.05563543736934662,-0.01149332523345947,-0.009696125984191895,0.03305655717849731,1,-0.0252945926040411,-0.6731101274490356,0.03346528857946396,0.738351583480835,-0.9922908544540405,0.08240425586700439,-0.0925658792257309,0,0,0,-1,169307.4468275417,3,1,1561841491.393326,1561841239.621676,8,3.056457,0,0,7.575853,0,0,1561841413.282218,169305.596933,0,0.2404785,75.19067,0,182478453,3,1,1,-38.63387,-40.1685,1
1561841491.889591,60,0,0,1561841490.99661,4.634564355951393,-74.15098191245845,2553.11,0,286.171875,4,30,-9999,1561841491.878082,-17.00711059570312,-19.73727798461914,15.1981201171875,129.2539367675781,136.7471466064453,15,169308.185699,-0.9783172607421875,0.071014404296875,-0.04864501953125,169308.185699,-0.2130587461607372,-0.03270335187006404,-0.04242016142332715,169308.158386,-89.7408447265625,-45.84829711914062,-545.2637329101562,169308.180633,0.01061473031552336,-1.478775178187459,-0.08179551264608816,-0.220182791352272,-0.04021927714347839,-0.04660731926560402,0.02434593439102173,-0.02114219963550568,0.03756797313690186,1,-0.02663645707070827,-0.6734229326248169,0.03146850690245628,0.738106906414032,-0.9924398064613342,0.08170433342456818,-0.09158410876989365,0,0,0,-1,169307.4468275417,3,1,1561841491.393326,1561841239.621676,8,3.056457,0,0,7.575853,0,0,1561841413.282218,169305.596933,0,0.2404785,75.19067,0,182478453,3,1,1,-38.63387,-40.20159,1
1561841491.926388,61,0,0,1561841490.99661,4.634564355951393,-74.15098191245845,2553.11,0,286.171875,4,30,-9999,1561841491.905962,-17.0911865234375,-19.84286117553711,15.3245849609375,129.5737609863281,137.0669708251953,15,169308.205963,-0.98284912109375,0.082275390625,-0.0545806884765625,169308.205963,-0.1620967618570899,-0.07341003544803421,-0.06232808951999647,169308.178497,-89.62904357910156,-45.88693237304688,-545.1902465820312,169308.200897,0.006309391526211502,-1.480179556119749,-0.08117540135501801,-0.1831259727478027,-0.0654790922999382,-0.06072287261486053,0.01306462287902832,0.003798365592956543,0.03927624225616455,1,-0.0278362799435854,-0.6738899946212769,0.02969036251306534,0.7377099990844727,-0.9926178455352783,0.08108627796173096,-0.09019483625888824,0,0,0,-1,169307.4468275417,3,1,1561841491.393326,1561841239.621676,8,3.056457,0,0,7.575853,0,0,1561841413.282218,169305.596933,0,0.2404785,75.19067,0,182478453,3,1,1,-38.63387,-38.63387,1
1561841491.930648,62,0,0,1561841490.99661,4.634564355951393,-74.15098191245845,2553.11,0,286.171875,4,30,-9999,1561841491.905962,-17.0911865234375,-19.84286117553711,15.3245849609375,129.5737609863281,137.0669708251953,15,169308.226226,-0.9884490966796875,0.082794189453125,-0.0624542236328125,169308.226226,-0.07726868955145001,-0.1140565315853686,-0.03596758841817416,169308.198608,-89.87361145019531,-46.25357055664062,-545.229736328125,169308.22113,0.003355814695600671,-1.482432763918861,-0.08020020108590734,-0.09631278365850449,-0.1203532591462135,-0.05069234222173691,0.006507575511932373,-0.002141840755939484,0.02987474203109741,1,-0.02843979559838772,-0.6746915578842163,0.02830442786216736,0.7370083928108215,-0.9928967356681824,0.08011425286531448,-0.08796495944261551,0,0,0,-1,169307.4468275417,3,1,1561841491.393326,1561841239.621676,8,3.056457,0,0,7.575853,0,0,1561841413.282218,169305.596933,0,0.2404785,75.19067,0,182478453,3,1,1,-38.63387,-38.63387,1
1561841491.950654,63,0,0,1561841490.99661,4.634564355951393,-74.15098191245845,2553.11,0,286.171875,4,30,-9999,1561841491.934174,-17.19741058349609,-20.022705078125,15.2552490234375,129.7802276611328,137.2734375,15,169308.24649,-0.983367919921875,0.08624267578125,-0.0760650634765625,169308.24649,-0.05828541098525619,-0.03750236815438682,-0.005039233414647935,169308.218689,-89.5709228515625,-46.22723388671875,-545.1265258789062,169308.241394,0.001882685301622954,-1.484735690611948,-0.07971206291237966,-0.05500208958983421,-0.06833560019731522,-0.01388665940612555,0.005556106567382812,0.007194831967353821,0.0169559121131897,1,-0.02872504666447639,-0.6755250692367554,0.02763000875711441,0.7362589836120605,-0.9931354522705078,0.07962767779827118,-0.08568150550127029,0,0,0,-1,169307.4468275417,3,1,1561841491.393326,1561841239.621676,8,3.056457,0,0,7.575853,0,0,1561841413.282218,169305.596933,0,0.2404785,75.19067,0,182478453,3,1,1,-38.63387,-39.56187,1
1561841491.970694,64,0,0,1561841490.99661,4.634564355951393,-74.15098191245845,2553.11,0,286.171875,4,30,-9999,1561841491.955297,-16.91883087158203,-20.06766510009766,15.28887939453125,129.8852233886719,137.3784332275391,15,169308.266723,-0.9886474609375,0.0843505859375,-0.08184814453125,169308.266723,-0.08762066302469701,0.0424017856118056,0.02216282659163942,169308.2388,-89.43168640136719,-46.220703125,-545.3804931640625,169308.261657,0.0004986997464739803,-1.485306859843828,-0.07981022690268733,-0.08440233021974564,0.02628491632640362,0.01649255305528641,0.008694648742675781,0.00258038192987442,0.005539000034332275,1,-0.02922088094055653,-0.6757139563560486,0.02716201543807983,0.7360835671424866,-0.9931764602661133,0.07972552627325058,-0.08511357754468918,0,0,0,-1,169307.4468275417,3,1,1561841491.393326,1561841239.621676,8,3.056457,0,0,7.575853,0,0,1561841413.282218,169305.596933,0,0.2404785,75.19067,0,182478453,3,1,1,-38.63387,-40.38379,1
1561841492.005968,65,0,0,1561841490.99661,4.634564355951393,-74.15098191245845,2553.11,0,286.171875,4,30,-9999,1561841491.980699,-16.92523193359375,-19.99365234375,15.08154296875,130.0069274902344,137.5001373291016,15,169308.286987,-0.983856201171875,0.08367919921875,-0.0735015869140625,169308.286987,-0.05876797577477855,0.0121900872576197,0.03093954028010456,169308.258911,-89.64022827148438,-46.11227416992188,-545.2763061523438,169308.281921,-0.001182045540690597,-1.484756451890612,-0.08040322534879574,-0.07027558982372284,0.0286716390401125,0.02783335745334625,0.005243539810180664,0.005987092852592468,0.006722450256347656,1,-0.03001432493329048,-0.6754783987998962,0.02673551067709923,0.7362834811210632,-0.9930822849273682,0.08031662553548813,-0.08565614372491837,0,0,0,-1,169307.4468275417,3,1,1561841491.393326,1561841239.621676,8,3.056457,0,0,7.575853,0,0,1561841413.282218,169305.596933,0,0.2404785,75.19067,0,182478453,3,1,1,-38.63387,-40.87739,1
1561841492.011009,66,0,0,1561841490.99661,4.634564355951393,-74.15098191245845,2553.11,0,286.171875,4,30,-9999,1561841492.005774,-16.97335052490234,-19.82361221313477,15.10943603515625,130.0848541259766,137.5780639648438,15,169308.307251,-0.974029541015625,0.0727691650390625,-0.0646820068359375,169308.307251,0.01178288992694658,-0.09418642037617837,0.03021595941193003,169308.278991,-89.63142395019531,-45.85873413085938,-545.5003051757812,169308.302185,-0.002016537029858091,-1.485430986283246,-0.08102630333004329,-0.007485705427825451,-0.08462109416723251,0.02473609894514084,0.01446735858917236,-0.003102585673332214,0.01616483926773071,1,-0.03051654249429703,-0.6757053732872009,0.02664904110133648,0.7360576987266541,-0.9930897951126099,0.08093767613172531,-0.08498197793960571,0,0,0,-1,169307.4468275417,3,1,1561841491.393326,1561841239.621676,8,3.056457,0,0,7.575853,0,0,1561841413.282218,169305.596933,0,0.2404785,75.19067,0,182478453,3,1,1,-38.63387,-40.87739,1
1561841492.031497,67,0,0,1561841490.99661,4.634564355951393,-74.15098191245845,2553.11,0,286.171875,4,30,-9999,1561841492.005774,-16.97335052490234,-19.82361221313477,15.10943603515625,130.0848541259766,137.5780639648438,15,169308.327514,-0.9832611083984375,0.0794219970703125,-0.0708465576171875,169308.327514,0.0233655101399192,-0.08588667883894642,0.03336887582647484,169308.299102,-89.94046020507812,-46.0697021484375,-545.19482421875,169308.322448,-0.001592115079274719,-1.487566672041959,-0.08157236197244108,0.03034529834985733,-0.1050302311778069,0.02793722227215767,0.0170741081237793,-0.0072479248046875,0.01677131652832031,1,-0.03054526261985302,-0.6764897704124451,0.02702238038182259,0.7353218793869019,-0.9932246208190918,0.0814819261431694,-0.0828571543097496,0,0,0,-1,169307.4468275417,3,1,1561841491.393326,1561841239.621676,8,3.056457,0,0,7.575853,0,0,1561841413.282218,169305.596933,0,0.2404785,75.19067,0,182478453,3,1,1,-38.63387,-41.73669,1
1561841492.052023,68,0,0,1561841490.99661,4.634564355951393,-74.15098191245845,2553.11,0,286.171875,4,30,-9999,1561841492.033759,-17.22284698486328,-19.87709045410156,15.19317626953125,130.0579833984375,137.5511932373047,15,169308.347778,-0.983978271484375,0.0798187255859375,-0.078826904296875,169308.347778,-0.03888694560511902,-0.03795483922359129,0.02436898923866106,169308.319213,-89.60333251953125,-45.96827697753906,-545.1255493164062,169308.342712,-0.001418739201316245,-1.489095270365105,-0.08210788048871792,-0.02369530126452446,-0.05055394023656845,0.02269505336880684,0.005544126033782959,-0.001968041062355042,0.005483806133270264,1,-0.03066264651715755,-0.6770466566085815,0.02729071117937565,0.7347944378852844,-0.9933066368103027,0.08201565593481064,-0.08133525401353836,0,0,0,-1,169307.4468275417,3,1,1561841491.393326,1561841239.621676,8,3.056457,0,0,7.575853,0,0,1561841413.282218,169305.596933,0,0.2404785,75.19067,0,182478453,3,1,1,-38.63387,-42.03119,1
1561841492.080773,69,0,0,1561841491.996596,4.634564355951393,-74.15098191245845,2553.088,0,287.2265625,4,30,-9999,1561841492.075087,-16.88160705566406,-19.89011383056641,15.25457763671875,130.0839538574219,137.5771636962891,15,169308.368042,-0.9844970703125,0.0804290771484375,-0.0798187255859375,169308.368042,-0.08046048811790997,-0.00365572122835177,0.02331810587251579,169308.339294,-89.4547119140625,-46.10040283203125,-545.3582153320312,169308.362976,-0.002432274100115423,-1.489925411444733,-0.08265794162973927,-0.07371852546930313,-0.02156409993767738,0.0226239487528801,0.01002168655395508,-0.003141850233078003,0.0003983378410339355,1,-0.03119657002389431,-0.6773280501365662,0.02711751684546471,0.7345188856124878,-0.9933285713195801,0.0825638473033905,-0.08050697296857834,0,0,0,-1,169307.4468275417,3,1,1561841491.393326,1561841239.621676,8,3.056457,0,0,7.575853,0,0,1561841413.282218,169305.596933,0,0.2404785,75.19067,0,182478453,3,1,1,-38.63387,-42.27825,1
1561841492.092103,70,0,0,1561841491.996596,4.634564355951393,-74.15098191245845,2553.088,0,287.2265625,4,30,-9999,1561841492.075087,-16.88160705566406,-19.89011383056641,15.25457763671875,130.0839538574219,137.5771636962891,15,169308.388305,-0.9907379150390625,0.079345703125,-0.08349609375,169308.388305,-0.09148624134694704,0.02537672939514704,0.03109160677834808,169308.359405,-89.47267150878906,-46.06375122070312,-545.2838745117188,169308.383209,-0.004164600697479063,-1.490150986333801,-0.08322213034379009,-0.09462779760360718,0.01341305859386921,0.024742491543293,0.005522370338439941,-0.002346068620681763,-0.0007603168487548828,1,-0.03198740258812904,-0.6773752570152283,0.0266759991645813,0.7344574928283691,-0.9933000802993774,0.08312609791755676,-0.08027913421392441,0,0,0,-1,169307.4468275417,3,1,1561841491.393326,1561841239.621676,8,3.056457,0,0,7.575853,0,0,1561841413.282218,169305.596933,0,0.2404785,75.19067,0,182478453,3,1,1,-38.63387,-42.27825,1
1561841492.112764,71,0,0,1561841491.996596,4.634564355951393,-74.15098191245845,2553.088,0,287.2265625,4,30,-9999,1561841492.106666,-16.91749572753906,-19.99745178222656,15.11920166015625,130.328857421875,137.8220672607422,15,169308.408538,-0.9842376708984375,0.0788116455078125,-0.0860595703125,169308.408538,-0.059858806557275,0.001183775104540221,0.02270637777012459,169308.379516,-89.78559875488281,-46.1182861328125,-545.2496948242188,169308.403472,-0.005920860844748095,-1.489950071771236,-0.0838805367133927,-0.07293422520160675,0.009068644605576992,0.0227869339287281,0.002735435962677002,-0.004421249032020569,-0.004364609718322754,1,-0.03282658755779266,-0.677263081073761,0.02625078335404396,0.734539270401001,-0.9932292103767395,0.08378221094608307,-0.08047426491975784,0,0,0,-1,169307.4468275417,3,1,1561841491.393326,1561841239.621676,8,3.056457,0,0,7.575853,0,0,1561841413.282218,169305.596933,0,0.2404785,75.19067,0,182478453,3,1,1,-38.63387,-42.66278,1
1561841492.132601,72,0,0,1561841491.996596,4.634564355951393,-74.15098191245845,2553.088,0,287.2265625,4,30,-9999,1561841492.131032,-16.96629333496094,-20.1413459777832,15.1492919921875,130.3875274658203,137.8807373046875,15,169308.428802,-0.9858856201171875,0.076202392578125,-0.083038330078125,169308.428802,0.004865062679356752,-0.02965270084137827,0.007311708772812548,169308.399597,-89.70976257324219,-46.05812072753906,-545.44482421875,169308.423736,-0.006759683310988947,-1.490326828006251,-0.08423172580829057,-0.009483609348535538,-0.03129049390554428,0.007077478803694248,0.005513608455657959,-0.006525956094264984,-0.003779828548431396,1,-0.03323467448353767,-0.6773821711540222,0.02606792002916336,0.734417736530304,-0.9932302236557007,0.08413215726613998,-0.08009769767522812,0,0,0,-1,169307.4468275417,3,1,1561841491.393326,1561841239.621676,8,3.056457,0,0,7.575853,0,0,1561841413.282218,169305.596933,0,0.2404785,75.19067,0,182478453,3,1,1,-38.63387,-43.11909,1
1561841492.158063,73,0,0,1561841491.996596,4.634564355951393,-74.15098191245845,2553.088,0,287.2265625,4,30,-9999,1561841492.131032,-16.96629333496094,-20.1413459777832,15.1492919921875,130.3875274658203,137.8807373046875,15,169308.449066,-0.9810791015625,0.078826904296875,-0.08538818359375,169308.449066,0.03002580971009837,-0.01128381353866573,-0.002196841583206364,169308.439788,-89.36454772949219,-46.15849304199219,-545.5897216796875,169308.444,-0.006523878755887761,-1.490967786219632,-0.08422735150815873,0.02569648250937462,-0.02809150703251362,-0.004171980544924736,0.01096665859222412,-0.008657827973365784,-0.004584312438964844,1,-0.03314482048153877,-0.6776214838027954,0.02616365253925323,0.7341975569725037,-0.9932817220687866,0.08412779867649078,-0.07946109026670456,0,0,0,-1,169307.4468275417,3,1,1561841491.393326,1561841239.621676,8,3.056457,0,0,7.575853,0,0,1561841413.282218,169305.596933,0,0.2404785,75.19067,0,182478453,3,1,1,-38.63387,-43.78823,1
1561841492.17316,74,0,0,1561841491.996596,4.634564355951393,-74.15098191245845,2553.088,0,287.2265625,4,30,-9999,1561841492.157336,-16.73117065429688,-19.91719436645508,15.18878173828125,130.3696594238281,137.8628692626953,15,169308.469329,-0.976470947265625,0.0821075439453125,-0.0884246826171875,169308.469329,0.003862648845050927,0.02786598606604411,0.01697312457540201,169308.459899,-89.47425842285156,-45.94447326660156,-545.29541015625,169308.464263,-0.006069262031086035,-1.491057585714227,-0.08415049400076734,0.01092818938195705,0.01302370429039001,0.007545662112534046,0.01317751407623291,-0.003088079392910004,-0.007205963134765625,1,-0.0329614020884037,-0.6776631474494934,0.02630597352981567,0.7341622710227966,-0.9932952523231506,0.084051214158535,-0.07937240600585938,0,0,0,-1,169307.4468275417,3,1,1561841491.393326,1561841239.621676,8,3.056457,0,0,7.575853,0,0,1561841413.282218,169305.596933,0,0.2404785,75.19067,0,182478453,3,1,1,-38.63387,-42.93966,1
1561841492.193412,75,0,0,1561841491.996596,4.634564355951393,-74.15098191245845,2553.088,0,287.2265625,4,30,-9999,1561841492.182219,-16.83259582519531,-19.88353729248047,15.3052978515625,130.3600463867188,137.8532562255859,15,169308.489593,-0.9786376953125,0.0840606689453125,-0.0874481201171875,169308.489593,-0.01371235013670899,0.05483768263803961,0.0379082339045149,169308.47998,-89.38328552246094,-46.20729064941406,-545.4059448242188,169308.484527,-0.006099918078048177,-1.490449860759182,-0.08450348518430528,-0.01356570236384869,0.04499335587024689,0.02744533494114876,0.01709723472595215,0.0008021295070648193,-0.008740901947021484,1,-0.03310935944318771,-0.6774340867996216,0.02640429884195328,0.7343634366989136,-0.9932171702384949,0.08440294861793518,-0.07997366040945053,0,0,0,-1,169307.4468275417,3,1,1561841491.393326,1561841239.621676,8,3.056457,0,0,7.575853,0,0,1561841413.282218,169305.596933,0,0.2404785,75.19067,0,182478453,3,1,1,-38.63387,-43.89795,1
1561841492.213787,76,0,0,1561841491.996596,4.634564355951393,-74.15098191245845,2553.088,0,287.2265625,4,30,-9999,1561841492.208205,-16.92918395996094,-20.07598114013672,15.2650146484375,130.3836059570312,137.8768157958984,15,169308.509857,-0.9852294921875,0.0849456787109375,-0.0840606689453125,169308.509857,-0.002353968087521039,0.06649513767764346,0.02569471082930251,169308.500091,-89.81219482421875,-46.18447875976562,-545.6004028320312,169308.504791,-0.006377663094196896,-1.489404700169022,-0.08519224703516019,-0.0131627656519413,0.05741859972476959,0.02850820124149323,0.01211798191070557,-0.0004029572010040283,-0.006334364414215088,1,-0.03347013518214226,-0.6770349144935608,0.02651818469166756,0.7347111105918884,-0.9930750131607056,0.08508923649787903,-0.08100695163011551,0,0,0,-1,169307.4468275417,3,1,1561841491.393326,1561841239.621676,8,3.056457,0,0,7.575853,0,0,1561841413.282218,169305.596933,0,0.2404785,75.19067,0,182478453,3,1,1,-38.63387,-44.33273,1
1561841492.250798,77,0,0,1561841491.996596,4.634564355951393,-74.15098191245845,2553.088,0,287.2265625,4,30,-9999,1561841492.208205,-16.92918395996094,-20.07598114013672,15.2650146484375,130.3836059570312,137.8768157958984,15,169308.53012,-0.9865264892578125,0.0827178955078125,-0.0827484130859375,169308.53012,0.01532063311900784,0.06319548108703528,0.01226998209032207,169308.520202,-89.79483032226562,-45.7882080078125,-545.3201904296875,169308.525024,-0.006334639613665601,-1.488152176220048,-0.08553709187947518,0.00984801072627306,0.06285730749368668,0.01153321284800768,0.006386399269104004,-0.003187954425811768,0.0006443262100219727,1,-0.03359890356659889,-0.6765699982643127,0.02662972547113895,0.7351292967796326,-0.9929434061050415,0.08543282002210617,-0.08224830031394958,0,0,0,-1,169307.4468275417,3,1,1561841491.393326,1561841239.621676,8,3.056457,0,0,7.575853,0,0,1561841413.282218,169305.596933,0,0.2404785,75.19067,0,182478453,3,1,1,-38.63387,-44.69464,1
1561841492.254256,78,0,0,1561841491.996596,4.634564355951393,-74.15098191245845,2553.088,0,287.2265625,4,30,-9999,1561841492.251074,-17.12155914306641,-19.99068069458008,15.063720703125,130.3847503662109,137.8779602050781,15,169308.550354,-0.98358154296875,0.08099365234375,-0.0770721435546875,169308.550354,0.03434412541766185,0.02170050182640166,0.00600702615478273,169308.540283,-89.59367370605469,-46.12567138671875,-545.2674560546875,169308.545288,-0.005976786159098081,-1.487126712649552,-0.08562329917433679,0.02665122598409653,0.02634377218782902,0.001528515946120024,0.006812930107116699,-0.001335978507995605,0.003065645694732666,1,-0.03352325782179832,-0.6761976480484009,0.02677324786782265,0.7354699969291687,-0.9928511381149292,0.08551871776580811,-0.08326586335897446,0,0,0,-1,169307.4468275417,3,1,1561841491.393326,1561841239.621676,8,3.056457,0,0,7.575853,0,0,1561841413.282218,169305.596933,0,0.2404785,75.19067,0,182478453,3,1,1,-38.63387,-44.69464,1
1561841492.274464,79,0,0,1561841491.996596,4.634564355951393,-74.15098191245845,2553.088,0,287.2265625,4,30,-9999,1561841492.251074,-17.12155914306641,-19.99068069458008,15.063720703125,130.3847503662109,137.8779602050781,15,169308.570617,-0.9839324951171875,0.0843048095703125,-0.08111572265625,169308.570617,0.04030827467889431,0.003547064255876537,0.03128921333123196,169308.560394,-89.86819458007812,-46.09062194824219,-545.6696166992188,169308.565551,-0.0052230557712106,-1.486920139355079,-0.08574149017724182,0.03965704143047333,-0.009996392764151096,0.02182526513934135,0.01385045051574707,-0.004215575754642487,0.00514674186706543,1,-0.03331467136740685,-0.6761324405670166,0.02708694897592068,0.7355279326438904,-0.9928237795829773,0.08563647419214249,-0.08347011357545853,0,0,0,-1,169307.4468275417,3,1,1561841491.393326,1561841239.621676,8,3.056457,0,0,7.575853,0,0,1561841413.282218,169305.596933,0,0.2404785,75.19067,0,182478453,3,1,1,-38.63387,-44.74584,1
1561841492.294864,80,0,0,1561841491.996596,4.634564355951393,-74.15098191245845,2553.088,0,287.2265625,4,30,-9999,1561841492.28323,-17.03787994384766,-20.04130172729492,15.09588623046875,130.3075866699219,137.8007965087891,15,169308.590881,-0.9882659912109375,0.0869293212890625,-0.0848541259765625,169308.590881,0.001084172879771258,0.0873580753412152,0.04204785150293407,169308.580474,-89.79742431640625,-46.09196472167969,-545.4429321289062,169308.585815,-0.004534850829298934,-1.486499140524247,-0.08632206664694252,0.01543159503489733,0.06191747635602951,0.03785962611436844,0.003404796123504639,-0.001009821891784668,-0.0006498098373413086,1,-0.03330127894878387,-0.6759800910949707,0.02752935141324997,0.7356521487236023,-0.9927389025688171,0.08621490001678467,-0.08388388156890869,0,0,0,-1,169307.4468275417,3,1,1561841491.393326,1561841239.621676,8,3.056457,0,0,7.575853,0,0,1561841413.282218,169305.596933,0,0.2404785,75.19067,0,182478453,3,1,1,-38.63387,-43.11106,1
1561841492.32654,81,0,0,1561841491.996596,4.634564355951393,-74.15098191245845,2553.088,0,287.2265625,4,30,-9999,1561841492.315566,-16.99385070800781,-19.92647171020508,15.0850830078125,130.3148803710938,137.8080902099609,15,169308.611145,-0.989837646484375,0.085662841796875,-0.0896453857421875,169308.611145,-0.04256264054164639,0.145024567689137,0.03838280921076702,169308.600586,-89.80050659179688,-45.91789245605469,-545.451416015625,169308.606079,-0.004750181203727527,-1.484491718665292,-0.08711329577214731,-0.03771524503827095,0.1309562027454376,0.03692725300788879,0.003349125385284424,0.001940324902534485,-0.003622114658355713,1,-0.03369284048676491,-0.6752254962921143,0.02768382988870144,0.7363211512565613,-0.9925001263618469,0.08700315654277802,-0.0858706459403038,0,0,0,-1,169307.4468275417,3,1,1561841491.393326,1561841239.621676,8,3.056457,0,0,7.575853,0,0,1561841413.282218,169305.596933,0,0.2404785,75.19067,0,182478453,3,1,1,-38.63387,-43.32725,1
1561841492.335263,82,0,0,1561841491.996596,4.634564355951393,-74.15098191245845,2553.088,0,287.2265625,4,30,-9999,1561841492.315566,-16.99385070800781,-19.92647171020508,15.0850830078125,130.3148803710938,137.8080902099609,15,169308.631408,-0.9900360107421875,0.085479736328125,-0.0827484130859375,169308.631408,-0.01982323957400481,0.1432716750596468,0.01662531573703766,169308.620697,-89.90419006347656,-46.29150390625,-545.3400268554688,169308.626342,-0.005558441618075634,-1.481720885895919,-0.08780043998734527,-0.0350227914750576,0.1425026059150696,0.02076612785458565,0.003718972206115723,-0.003657519817352295,0.001151680946350098,1,-0.03425687178969383,-0.6741802096366882,0.02757086791098118,0.7372565865516663,-0.992198646068573,0.08768767863512039,-0.08861502259969711,0,0,0,-1,169307.4468275417,3,1,1561841491.393326,1561841239.621676,8,3.056457,0,0,7.575853,0,0,1561841413.282218,169305.596933,0,0.2404785,75.19067,0,182478453,3,1,1,-38.63387,-44.08696,1
1561841492.355618,83,0,0,1561841491.996596,4.634564355951393,-74.15098191245845,2553.088,0,287.2265625,4,30,-9999,1561841492.315566,-16.99385070800781,-19.92647171020508,15.0850830078125,130.3148803710938,137.8080902099609,15,169308.651672,-0.993438720703125,0.08172607421875,-0.073455810546875,169308.651672,0.05691308407553836,0.09575928331597917,0.007539941678232339,169308.640777,-90.09524536132812,-46.16801452636719,-545.291748046875,169308.646606,-0.005577421247882702,-1.47924133762286,-0.08796954348065633,0.03858911246061325,0.1001908257603645,0.004712590947747231,0.000277101993560791,-0.003551319241523743,0.01407778263092041,1,-0.03435980901122093,-0.6732626557350159,0.02757831104099751,0.7380895614624023,-0.9919611215591431,0.08785612881183624,-0.09107360243797302,0,0,0,-1,169307.4468275417,3,1,1561841491.393326,1561841239.621676,8,3.056457,0,0,7.575853,0,0,1561841413.282218,169305.596933,0,0.2404785,75.19067,0,182478453,3,1,1,-38.63387,-41.80404,1
1561841492.375796,84,0,0,1561841491.996596,4.634564355951393,-74.15098191245845,2553.088,0,287.2265625,4,30,-9999,1561841492.360053,-17.57712554931641,-19.99267578125,15.2012939453125,130.3502197265625,137.8434295654297,15,169308.671936,-0.985992431640625,0.08111572265625,-0.0714569091796875,169308.671936,0.08270260343964769,0.0456721474304229,0.009277654289509042,169308.660888,-89.80270385742188,-45.96078491210938,-545.557373046875,169308.666839,-0.004261612322960844,-1.477586657139475,-0.08793579596628694,0.07958394289016724,0.05155884474515915,0.004767718724906445,0.001379251480102539,-0.005669191479682922,0.02128875255584717,1,-0.03392760455608368,-0.6726747751235962,0.02802447415888309,0.7386285662651062,-0.991811990737915,0.08782251179218292,-0.09271512925624847,0,0,0,-1,169307.4468275417,3,1,1561841491.393326,1561841239.621676,8,3.056457,0,0,7.575853,0,0,1561841413.282218,169305.596933,0,0.2404785,75.19067,0,182478453,3,1,1,-37.75375,-39.7399,1
1561841492.407402,85,0,0,1561841491.996596,4.634564355951393,-74.15098191245845,2553.088,0,287.2265625,4,30,-9999,1561841492.384534,-17.28318786621094,-19.85245513916016,15.10015869140625,130.2444763183594,137.7376861572266,15,169308.692169,-0.9921875,0.081878662109375,-0.0712432861328125,169308.692169,0.03397474497446787,0.05803640542333378,-0.008836901129100929,169308.680999,-89.97883605957031,-45.86210632324219,-545.437744140625,169308.687103,-0.002829809745365179,-1.476703068074509,-0.08786909890593381,0.05061434954404831,0.04033602029085159,-0.004083563573658466,0.002859175205230713,-0.007220178842544556,0.02094489336013794,1,-0.03343399986624718,-0.6723735332489014,0.02851604670286179,0.7389065027236938,-0.9917355179786682,0.08775606751441956,-0.09359199553728104,0,0,0,-1,169307.4468275417,3,1,1561841491.393326,1561841239.621676,8,3.056457,0,0,7.575853,0,0,1561841413.282218,169305.596933,0,0.2404785,75.19067,0,182478453,3,1,1,-37.75375,-40.5673,1
1561841492.416318,86,0,0,1561841491.996596,4.634564355951393,-74.15098191245845,2553.088,0,287.2265625,4,30,-9999,1561841492.411192,-17.19170379638672,-19.90394592285156,15.17572021484375,130.2146759033203,137.7078857421875,15,169308.712432,-0.989501953125,0.0819549560546875,-0.068817138671875,169308.712432,-0.04112559881743963,0.09112058932927915,-0.01804717744303097,169308.70108,-89.91207885742188,-46.00782775878906,-545.3997192382812,169308.707367,-0.002615677342241457,-1.475441055066819,-0.08749421420442439,-0.02787353470921516,0.0770743265748024,-0.0230972021818161,0.0008657574653625488,-0.00594647228717804,0.02543437480926514,1,-0.03324148058891296,-0.6719164252281189,0.02844813652336597,0.7393335700035095,-0.9916494488716125,0.08738262206315994,-0.09484664350748062,0,0,0,-1,169307.4468275417,3,1,1561841491.393326,1561841239.621676,8,3.056457,0,0,7.575853,0,0,1561841413.282218,169305.596933,0,0.2404785,75.19067,0,182478453,3,1,1,-37.75375,-40.5673,1
1561841492.436688,87,0,0,1561841491.996596,4.634564355951393,-74.15098191245845,2553.088,0,287.2265625,4,30,-9999,1561841492.435055,-17.42438507080078,-20.07678604125977,14.82159423828125,130.3057556152344,137.7989654541016,15,169308.732696,-0.9853973388671875,0.0876007080078125,-0.07000732421875,169308.732696,-0.07122358019307914,0.09029847150077169,-0.0001826928507794357,169308.721191,-90.06019592285156,-46.05964660644531,-545.3690185546875,169308.72763,-0.003724785985800819,-1.473832638191031,-0.08727627643934277,-0.07043112069368362,0.08740179985761642,-0.006948592141270638,0.001783609390258789,-0.001868888735771179,0.02568835020065308,1,-0.0335560142993927,-0.6713064312934875,0.02793792821466923,0.7398926615715027,-0.9915144443511963,0.08716551959514618,-0.09644334018230438,0,0,0,-1,169307.4468275417,3,1,1561841491.393326,1561841239.621676,8,3.056457,0,0,7.575853,0,0,1561841413.282218,169305.596933,0,0.2404785,75.19067,0,182478453,3,1,1,-37.75375,-41.1839,1
1561841492.456898,88,0,0,1561841491.996596,4.634564355951393,-74.15098191245845,2553.088,0,287.2265625,4,30,-9999,1561841492.435055,-17.42438507080078,-20.07678604125977,14.82159423828125,130.3057556152344,137.7989654541016,15,169308.75296,-0.987884521484375,0.08966064453125,-0.069244384765625,169308.75296,-0.05691175249499332,0.06037439454431435,0.002714027466899752,169308.741302,-89.79217529296875,-46.09577941894531,-545.392578125,169308.747894,-0.005176323818215347,-1.47247671982665,-0.0873634890970252,-0.06378466635942459,0.06278460472822189,0.0006379550322890282,0.007335960865020752,0.000424608588218689,0.02919864654541016,1,-0.03409406542778015,-0.670778751373291,0.02740709856152534,0.7403663992881775,-0.9913752675056458,0.08725240081548691,-0.09778692573308945,0,0,0,-1,169307.4468275417,3,1,1561841491.393326,1561841239.621676,8,3.056457,0,0,7.575853,0,0,1561841413.282218,169305.596933,0,0.2404785,75.19067,0,182478453,3,1,1,-37.75375,-41.27703,1
1561841492.484871,89,0,0,1561841491.996596,4.634564355951393,-74.15098191245845,2553.088,0,287.2265625,4,30,-9999,1561841492.467101,-17.31844329833984,-19.99713516235352,15.03057861328125,130.4071044921875,137.9003143310547,15,169308.773223,-0.9925384521484375,0.0874786376953125,-0.070281982421875,169308.773223,-0.01837900731485484,0.02972833461633652,-0.00237820285344076,169308.761383,-89.85621643066406,-46.08865356445312,-545.3819580078125,169308.768158,-0.006163298260809332,-1.471726220563371,-0.08737270669933613,-0.02656592428684235,0.0270156878978014,-0.005917149595916271,-0.0002154111862182617,0.001880258321762085,0.02769953012466431,1,-0.03443863987922668,-0.6704838275909424,0.0270319078117609,0.7406312823295593,-0.9913007020950317,0.08726157993078232,-0.0985308364033699,0,0,0,-1,169307.4468275417,3,1,1561841491.393326,1561841239.621676,8,3.056457,0,0,7.575853,0,0,1561841413.282218,169305.596933,0,0.2404785,75.19067,0,182478453,3,1,1,-37.75375,-41.34679,1
1561841492.497797,90,0,0,1561841491.996596,4.634564355951393,-74.15098191245845,2553.088,0,287.2265625,4,30,-9999,1561841492.467101,-17.31844329833984,-19.99713516235352,15.03057861328125,130.4071044921875,137.9003143310547,15,169308.793487,-1.001632690429688,0.092132568359375,-0.0738372802734375,169308.793487,-0.002511893540162737,0.05246001241681687,-0.007423561538595877,169308.781494,-89.982666015625,-45.90435791015625,-545.4083862304688,169308.788421,-0.006475566628970813,-1.471287896744887,-0.08730179665685849,-0.00669954065233469,0.03336013853549957,-0.00496293930336833,-0.00605088472366333,0.002866432070732117,0.02753955125808716,1,-0.03452296555042267,-0.6703172326087952,0.02688492648303509,0.7407834529876709,-0.9912635087966919,0.08719094097614288,-0.09896594285964966,0,0,0,-1,169307.4468275417,3,1,1561841491.393326,1561841239.621676,8,3.056457,0,0,7.575853,0,0,1561841413.282218,169305.596933,0,0.2404785,75.19067,0,182478453,3,1,1,-37.75375,-42.11136,1
1561841492.517887,91,0,0,1561841491.996596,4.634564355951393,-74.15098191245845,2553.088,0,287.2265625,4,30,-9999,1561841492.512751,-17.05741119384766,-20.05206680297852,15.07073974609375,130.4711151123047,137.9643249511719,15,169308.813751,-0.99005126953125,0.091064453125,-0.07763671875,169308.813751,-0.02505741638044654,0.08345414749926805,-0.00782969360483296,169308.801574,-89.80558776855469,-46.11398315429688,-545.531494140625,169308.808685,-0.006718518163700479,-1.470220448939312,-0.08708243241185391,-0.02236505225300789,0.07635846734046936,-0.01272978167980909,-0.005192041397094727,0.004717648029327393,0.02353364229202271,1,-0.0345374196767807,-0.6699210405349731,0.02670296281576157,0.7411476969718933,-0.9911763668060303,0.08697240799665451,-0.1000259295105934,0,0,0,-1,169307.4468275417,3,1,1561841491.393326,1561841239.621676,8,3.056457,0,0,7.575853,0,0,1561841413.282218,169305.596933,0,0.2404785,75.19067,0,182478453,3,1,1,-37.75375,-42.47953,1
1561841492.538099,92,0,0,1561841491.996596,4.634564355951393,-74.15098191245845,2553.088,0,287.2265625,4,30,-9999,1561841492.536376,-17.56291961669922,-19.75059509277344,14.95233154296875,130.518310546875,138.0115203857422,15,169308.834014,-0.9825439453125,0.091278076171875,-0.0726165771484375,169308.834014,-0.01032534186234621,0.0679787847209266,0.006937800955765423,169308.821685,-90.00515747070312,-46.068603515625,-545.6057739257812,169308.828918,-0.007288507840737274,-1.468768807007786,-0.08700822685720794,-0.02104971930384636,0.07375922054052353,-0.001080582849681377,0.003701388835906982,0.005142524838447571,0.02582752704620361,1,-0.0347200520336628,-0.6693742275238037,0.02644167840480804,0.7416424751281738,-0.991036593914032,0.08689848333597183,-0.1014653220772743,0,0,0,-1,169307.4468275417,3,1,1561841491.393326,1561841239.621676,8,3.056457,0,0,7.575853,0,0,1561841413.282218,169305.596933,0,0.2404785,75.19067,0,182478453,3,1,1,-37.75375,-42.53399,1
1561841492.567432,93,0,0,1561841491.996596,4.634564355951393,-74.15098191245845,2553.088,0,287.2265625,4,30,-9999,1561841492.536376,-17.56291961669922,-19.75059509277344,14.95233154296875,130.518310546875,138.0115203857422,15,169308.854268625,-0.984710693359375,0.0866851806640625,-0.0682373046875,169308.854268625,0.02433117235118194,-0.001846103267642928,0.001312405785191049,169308.841796,-90.01261901855469,-46.07154846191406,-545.5370483398438,169308.849182,-0.007300027196450745,-1.467911684485305,-0.08708355080650335,0.01794242113828659,0.01099837198853493,0.002562355250120163,0.01013839244842529,0.002076767385005951,0.0322914719581604,1,-0.03476316854357719,-0.6690549254417419,0.02644772827625275,0.7419283390045166,-0.9909427762031555,0.08697352558374405,-0.1023140549659729,0,0,0,-1,169307.4468275417,3,1,1561841491.393326,1561841239.621676,8,3.056457,0,0,7.575853,0,0,1561841413.282218,169305.596933,0,0.2404785,75.19067,0,182478453,3,1,1,-37.75375,-41.70583,1
1561841492.57833,94,0,0,1561841491.996596,4.634564355951393,-74.15098191245845,2553.088,0,287.2265625,4,30,-9999,1561841492.565098,-17.56076812744141,-19.8978385925293,15.03070068359375,130.5083770751953,138.0015869140625,15,169308.874531625,-0.9888763427734375,0.083892822265625,-0.0696258544921875,169308.874531625,0.004004329015043142,-0.03289536578465875,-0.006771087071526463,169308.861897625,-90.05299377441406,-45.82577514648438,-545.614013671875,169308.869465625,-0.006915152958309259,-1.468366975610473,-0.0869382065782235,0.01423610094934702,-0.03689112514257431,-0.01051483117043972,0.00218653678894043,-0.002798579633235931,0.03467971086502075,1,-0.0345744714140892,-0.6692327857017517,0.02654973603785038,0.7417730689048767,-0.9910018444061279,0.08682873100042343,-0.1018641665577888,0,0,0,-1,169307.4468275417,3,1,1561841491.393326,1561841239.621676,8,3.056457,0,0,7.575853,0,0,1561841413.282218,169305.596933,0,0.2404785,75.19067,0,182478453,3,1,1,-37.75375,-41.70583,1
1561841492.598739,95,0,0,1561841491.996596,4.634564355951393,-74.15098191245845,2553.088,0,287.2265625,4,30,-9999,1561841492.586909,-17.43345642089844,-19.71574401855469,15.0240478515625,130.5021820068359,137.9953918457031,15,169308.894795625,-0.9892578125,0.0910797119140625,-0.0739898681640625,169308.894795625,-0.04834249905544535,-0.00673433544848337,0.01920645146554246,169308.882008625,-90.31173706054688,-46.07754516601562,-545.4503784179688,169308.889729625,-0.00710751723954724,-1.469051326536298,-0.08691528094027533,-0.03505288437008858,-0.01512777153402567,0.01032094191759825,0.002059519290924072,0.0003217905759811401,0.02889001369476318,1,-0.03462127968668938,-0.6694836020469666,0.02648256719112396,0.7415468692779541,-0.9910731911659241,0.08680589497089386,-0.1011861488223076,0,0,0,-1,169307.4468275417,3,1,1561841491.393326,1561841239.621676,8,3.056457,0,0,7.575853,0,0,1561841413.282218,169305.596933,0,0.2404785,75.19067,0,182478453,3,1,1,-37.75375,-42.4812,1
1561841492.618939,96,0,0,1561841491.996596,4.634564355951393,-74.15098191245845,2553.088,0,287.2265625,4,30,-9999,1561841492.613702,-17.34266662597656,-19.83456039428711,14.942138671875,130.5755004882812,138.0687103271484,15,169308.915059625,-0.988006591796875,0.0879974365234375,-0.0789794921875,169308.915059625,-0.07996993384511739,0.002404035516014529,0.0317339612332752,169308.902089625,-90.03327941894531,-45.923828125,-545.7058715820312,169308.909993625,-0.008239338365554552,-1.469402724331453,-0.087477566915729,-0.0740724578499794,-0.003455403028056026,0.02845494076609612,0.002260029315948486,0.003866255283355713,0.02533239126205444,1,-0.03520394489169121,-0.669585108757019,0.02625738643109798,0.7414358258247375,-0.9910600781440735,0.08736604452133179,-0.1008329316973686,0,0,0,-1,169307.4468275417,3,1,1561841491.393326,1561841239.621676,8,3.056457,0,0,7.575853,0,0,1561841413.282218,169305.596933,0,0.2404785,75.19067,0,182478453,3,1,1,-37.75375,-43.07042,1
1561841492.639512,97,0,0,1561841491.996596,4.634564355951393,-74.15098191245845,2553.088,0,287.2265625,4,30,-9999,1561841492.613702,-17.34266662597656,-19.83456039428711,14.942138671875,130.5755004882812,138.0687103271484,15,169308.935322625,-0.987945556640625,0.08380126953125,-0.0882568359375,169308.935322625,-0.0934748237329092,0.0323190577247656,0.0233284922007671,169308.922200625,-89.89530944824219,-45.86314392089844,-545.4402465820312,169308.930256625,-0.009933224128003531,-1.469462175115175,-0.08822128624673432,-0.09614314883947372,0.02280963212251663,0.02388075925409794,0.002704441547393799,-0.001787923276424408,0.01547080278396606,1,-0.0360458716750145,-0.6695647835731506,0.02587959915399551,0.7414268851280212,-0.9910009503364563,0.08810689300298691,-0.1007673889398575,0,0,0,-1,169307.4468275417,3,1,1561841491.393326,1561841239.621676,8,3.056457,0,0,7.575853,0,0,1561841413.282218,169305.596933,0,0.2404785,75.19067,0,182478453,3,1,1,-37.75375,-41.922,1
1561841492.659555,98,0,0,1561841491.996596,4.634564355951393,-74.15098191245845,2553.088,0,287.2265625,4,30,-9999,1561841492.641594,-17.44717407226562,-19.75679779052734,14.88128662109375,130.7069091796875,138.2001190185547,15,169308.955586625,-0.988677978515625,0.080535888671875,-0.0885467529296875,169308.955586625,-0.06058265374155854,0.01881869521082692,0.0007187871782123864,169308.942311625,-89.83558654785156,-46.06399536132812,-545.6600341796875,169308.950520625,-0.01173038646105983,-1.469179468365789,-0.08869630330107482,-0.07529565691947937,0.01919572427868843,0.004135816358029842,0.001108527183532715,-0.00654880702495575,0.01072651147842407,1,-0.03682711720466614,-0.6694192290306091,0.02536725252866745,0.7415378093719482,-0.9909309148788452,0.08858004957437515,-0.1010433211922646,0,0,0,-1,169307.4468275417,3,1,1561841491.393326,1561841239.621676,8,3.056457,0,0,7.575853,0,0,1561841413.282218,169306.539641,0,0.3303223,75.18983,0,182478453,3,1,1,-37.75375,-41.93024,1
1561841492.679944,99,0,0,1561841491.996596,4.634564355951393,-74.15098191245845,2553.088,0,287.2265625,4,30,-9999,1561841492.663887,-17.38167572021484,-19.76594161987305,14.74365234375,130.8255615234375,138.3187713623047,15,169308.975850625,-0.994598388671875,0.0870513916015625,-0.084747314453125,169308.975850625,-0.009866212890416554,-0.01641039863706827,-0.01311526942031322,169308.962391625,-90.06285095214844,-46.02352905273438,-545.5673828125,169308.970753625,-0.0127684268933218,-1.469304960685413,-0.08865275749631313,-0.02262418903410435,-0.01601659320294857,-0.0152213703840971,0.000240027904510498,-0.005391538143157959,0.01438677310943604,1,-0.0371568500995636,-0.6694473028182983,0.02497012354433537,0.7415094971656799,-0.990947425365448,0.08853667974472046,-0.1009193509817123,0,0,0,-1,169307.4468275417,3,1,1561841491.393326,1561841239.621676,8,3.056457,0,0,7.575853,0,0,1561841413.282218,169306.539641,0,0.3303223,75.18983,0,182478453,3,1,1,-37.75375,-42.62513,1
1561841492.70013,100,0,0,1561841491.996596,4.634564355951393,-74.15098191245845,2553.088,0,287.2265625,4,30,-9999,1561841492.689089,-17.39444732666016,-19.99381256103516,14.77349853515625,130.8642883300781,138.3574981689453,15,169308.996083625,-0.997467041015625,0.089996337890625,-0.08685302734375,169308.996083625,0.009318933286405271,-0.008602542953173956,0.00434974100842642,169308.982502625,-90.24491882324219,-46.13847351074219,-545.7918090820312,169308.991017625,-0.01287550786325842,-1.46979814381705,-0.08840715823257883,0.007968340069055557,-0.01895459368824959,-0.004380706232041121,-0.00795900821685791,-6.572157144546509e-05,0.01689088344573975,1,-0.03709555417299271,-0.6696323752403259,0.02485731430351734,0.7413491606712341,-0.9910185933113098,0.08829203993082047,-0.1004328057169914,0,0,0,-1,169307.4468275417,3,1,1561841491.393326,1561841239.621676,8,3.056457,0,0,7.575853,0,0,1561841413.282218,169306.539641,0,0.3303223,75.18983,0,182478453,3,1,1,-37.75375,-42.62513,1
1561841492.72868,101,0,0,1561841491.996596,4.634564355951393,-74.15098191245845,2553.088,0,287.2265625,4,30,-9999,1561841492.715524,-17.61547088623047,-19.97418594360352,14.76690673828125,130.8699951171875,138.3632049560547,15,169309.016346625,-0.9847412109375,0.0907135009765625,-0.0929412841796875,169309.016346625,-0.03236379883107893,0.01506816544766833,0.02294073594605157,169309.002583625,-89.94761657714844,-46.06857299804688,-545.59375,169309.011281625,-0.01294631061181481,-1.470066650419219,-0.0885028507039643,-0.02239462547004223,-8.716154843568802e-05,0.01221451535820961,0.001642048358917236,0.002310886979103088,0.009070873260498047,1,-0.03715137392282486,-0.6697289347648621,0.02486811578273773,0.7412588000297546,-0.9910371899604797,0.08838736265897751,-0.1001658588647842,0,0,0,-1,169307.4468275417,3,1,1561841491.393326,1561841239.621676,8,3.056457,0,0,7.575853,0,0,1561841413.282218,169306.539641,0,0.3303223,75.18983,0,182478453,3,1,1,-37.75375,-42.90766,1
1561841492.740498,102,0,0,1561841491.996596,4.634564355951393,-74.15098191245845,2553.088,0,287.2265625,4,30,-9999,1561841492.738899,-17.41417694091797,-19.96650695800781,14.9420166015625,130.9435577392578,138.436767578125,15,169309.036610625,-0.997100830078125,0.099822998046875,-0.0960235595703125,169309.036610625,-0.0705498004372891,0.101971106558589,0.048700161589843,169309.022694625,-90.03849792480469,-46.10856628417969,-545.8406982421875,169309.031544625,-0.01379753392090066,-1.469616517859509,-0.08910267908532211,-0.06483662873506546,0.06840694695711136,0.03873959928750992,0.0003536343574523926,0.00594010204076767,0.005010247230529785,1,-0.03766417875885963,-0.669535756111145,0.0247451439499855,0.7414114475250244,-0.9909389615058899,0.08898482471704483,-0.1006065607070923,0,0,0,-1,169307.4468275417,3,1,1561841491.393326,1561841239.621676,8,3.056457,0,0,7.575853,0,0,1561841413.282218,169306.539641,0,0.3303223,75.18983,0,182478453,3,1,1,-37.75375,-42.90766,1
1561841492.760869,103,0,0,1561841491.996596,4.634564355951393,-74.15098191245845,2553.088,0,287.2265625,4,30,-9999,1561841492.738899,-17.41417694091797,-19.96650695800781,14.9420166015625,130.9435577392578,138.436767578125,15,169309.056874625,-1.002029418945312,0.100738525390625,-0.1007080078125,169309.056874625,-0.07547664845393569,0.1841413440963298,0.08007592765650254,169309.042805625,-89.97825622558594,-46.1385498046875,-545.9202880859375,169309.051808625,-0.01525074269495236,-1.467310733737921,-0.09031025365436975,-0.08355119079351425,0.1713527590036392,0.0696256086230278,-0.009174346923828125,0.01032210141420364,0.005605220794677734,1,-0.03862638771533966,-0.6686314344406128,0.02456644736230373,0.7421836256980896,-0.9905967712402344,0.09018754214048386,-0.1028800159692764,0,0,0,-1,169307.4468275417,3,1,1561841491.393326,1561841239.621676,8,3.056457,0,0,7.575853,0,0,1561841413.282218,169306.539641,0,0.3303223,75.18983,0,182478453,3,1,1,-37.75375,-42.67426,1
1561841492.781047,104,0,0,1561841491.996596,4.634564355951393,-74.15098191245845,2553.088,0,287.2265625,4,30,-9999,1561841492.765317,-17.56103515625,-19.95204544067383,14.59991455078125,131.0534362792969,138.5466461181641,15,169309.077138625,-0.986785888671875,0.0965728759765625,-0.1014556884765625,169309.077138625,-0.02509842906123376,0.1438261451986013,0.06838971047712583,169309.062886625,-90.43867492675781,-46.11296081542969,-546.025390625,169309.072072625,-0.01647263182759343,-1.463971316809629,-0.09196656359834067,-0.0449308268725872,0.1547029465436935,0.07262805849313736,-0.004424154758453369,0.008123353123664856,0.003281354904174805,1,-0.03969023749232292,-0.6673372387886047,0.0246009286493063,0.7432904243469238,-0.9900979399681091,0.09183698147535324,-0.1061713919043541,0,0,0,-1,169307.4468275417,3,1,1561841491.393326,1561841239.621676,8,3.056457,0,0,7.575853,0,0,1561841413.282218,169306.539641,0,0.3303223,75.18983,0,182478453,3,1,1,-37.75375,-43.46165,1
1561841492.810423,105,0,0,1561841491.996596,4.634564355951393,-74.15098191245845,2553.088,0,287.2265625,4,30,-9999,1561841492.790102,-17.57302856445312,-20.00127029418945,14.5106201171875,131.1018524169922,138.5950622558594,15,169309.097401625,-0.976593017578125,0.0873870849609375,-0.0982208251953125,169309.097401625,0.04754195283176754,0.05468055613372493,0.03533135923375423,169309.082997625,-90.31269836425781,-45.9920654296875,-545.9070434570312,169309.092335625,-0.01653720503423937,-1.461742244602429,-0.09308390262245536,0.02822407707571983,0.06716404855251312,0.03656619414687157,0.008829474449157715,-0.001213699579238892,0.007597804069519043,1,-0.04015453159809113,-0.6664864420890808,0.02490532957017422,0.7440182566642761,-0.9897560477256775,0.09294953942298889,-0.1083668693900108,0,0,0,-1,169307.4468275417,3,1,1561841491.393326,1561841239.621676,8,3.056457,0,0,7.575853,0,0,1561841413.282218,169306.539641,0,0.3303223,75.18983,0,182478453,3,1,1,-37.75375,-42.84356,1
1561841492.821666,106,0,0,1561841491.996596,4.634564355951393,-74.15098191245845,2553.088,0,287.2265625,4,30,-9999,1561841492.816462,-17.80628204345703,-20.11033630371094,14.6209716796875,131.0313720703125,138.5245819091797,15,169309.117665625,-0.9773406982421875,0.0861663818359375,-0.09527587890625,169309.117665625,0.08917701436573933,0.01060231061571446,0.03687013371160201,169309.103108625,-90.36505126953125,-46.08758544921875,-545.7742919921875,169309.112568625,-0.01527733007615606,-1.460973804383743,-0.09355802757176677,0.0830945149064064,0.006332654505968094,0.0288933627307415,0.01541590690612793,-0.008491180837154388,0.01377034187316895,1,-0.03992074728012085,-0.6662169694900513,0.02551680244505405,0.7442514300346375,-0.9896285533905029,0.09342160075902939,-0.1091225668787956,0,0,0,-1,169307.4468275417,3,1,1561841491.393326,1561841239.621676,8,3.056457,0,0,7.575853,0,0,1561841413.282218,169306.539641,0,0.3303223,75.18983,0,182478453,3,1,1,-37.75375,-43.51708,1
1561841492.84192,107,0,0,1561841491.996596,4.634564355951393,-74.15098191245845,2553.088,0,287.2265625,4,30,-9999,1561841492.840336,-17.66232299804688,-19.85531997680664,14.4637451171875,130.9212493896484,138.4144592285156,15,169309.137898625,-0.9751739501953125,0.086090087890625,-0.0952301025390625,169309.137898625,0.05148076808399473,0.001540905006719847,0.0474130558350077,169309.123189625,-90.30300903320312,-46.19500732421875,-545.9535522460938,169309.132832625,-0.01355795422187812,-1.460767348954912,-0.09413752897741903,0.06393706798553467,-0.0005742534995079041,0.04365925863385201,0.0107770562171936,-0.007771134376525879,0.01474696397781372,1,-0.03956623002886772,-0.6661636829376221,0.02634571306407452,0.744289219379425,-0.9895520806312561,0.09399855136871338,-0.1093209236860275,0,0,0,-1,169307.4468275417,3,1,1561841491.393326,1561841239.621676,8,3.056457,0,0,7.575853,0,0,1561841413.282218,169306.539641,0,0.3303223,75.18983,0,182478453,3,1,1,-37.75375,-44.29499,1
1561841492.886662,108,0,0,1561841491.996596,4.634564355951393,-74.15098191245845,2553.088,0,287.2265625,4,30,-9999,1561841492.866659,-17.66075134277344,-19.92960357666016,14.568115234375,130.9038238525391,138.3970336914062,15,169309.158162625,-0.9892120361328125,0.0879058837890625,-0.0928802490234375,169309.158162625,-0.01420450230615563,0.01236878536676401,0.0405969613410589,169309.143300625,-90.26954650878906,-45.82186889648438,-546.1505126953125,169309.153096625,-0.01282373251128979,-1.460807926541142,-0.09496589913459801,-5.123671144247055e-05,-0.0008059488609433174,0.04193299636244774,0.009849369525909424,-0.008305884897708893,0.01552224159240723,1,-0.03962922468781471,-0.6661782264709473,0.02689585462212563,0.7442532181739807,-0.9894788265228271,0.09482321888208389,-0.109272189438343,0,0,0,-1,169307.4468275417,3,1,1561841491.393326,1561841239.621676,8,3.056457,0,0,7.575853,0,0,1561841413.282218,169306.539641,0,0.3303223,75.18983,0,182478453,3,1,1,-37.75375,-45.88979,1
1561841492.889418,109,0,0,1561841491.996596,4.634564355951393,-74.15098191245845,2553.088,0,287.2265625,4,30,-9999,1561841492.866659,-17.66075134277344,-19.92960357666016,14.568115234375,130.9038238525391,138.3970336914062,15,169309.178425625,-0.9934234619140625,0.0862579345703125,-0.0972900390625,169309.178425625,-0.0664964692581885,0.05591306708621361,0.01293151130509776,169309.163411625,-90.53179931640625,-45.796630859375,-546.021484375,169309.173359625,-0.01336133453898387,-1.460470591744167,-0.09563974854373494,-0.05724421888589859,0.04487338662147522,0.01529020071029663,-0.007051348686218262,-0.005924925208091736,0.01475024223327637,1,-0.04006344825029373,-0.6660296320915222,0.02691365033388138,0.7443622350692749,-0.9893780946731567,0.09549400955438614,-0.1095988973975182,0,0,0,-1,169307.4468275417,3,1,1561841491.393326,1561841239.621676,8,3.056457,0,0,7.575853,0,0,1561841413.282218,169306.539641,0,0.3303223,75.18983,0,182478453,3,1,1,-37.75375,-45.88979,1
1561841492.902621,110,0,0,1561841491.996596,4.634564355951393,-74.15098191245845,2553.088,0,287.2265625,4,30,-9999,1561841492.891021,-17.58143615722656,-19.90901184082031,14.4732666015625,130.9904937744141,138.4837036132812,15,169309.198689625,-0.9904632568359375,0.0885772705078125,-0.0991973876953125,169309.198689625,-0.07492137936665418,0.04369475032103907,0.003627758036905938,169309.183491625,-90.29669189453125,-46.09486389160156,-545.9315185546875,169309.193623625,-0.01481699393816308,-1.459668982784633,-0.09591157992796474,-0.07642936706542969,0.04218732193112373,0.002405560575425625,6.74128532409668e-05,-0.01066633313894272,0.012198805809021,1,-0.04065990447998047,-0.6656967997550964,0.02644616737961769,0.7446444034576416,-0.989264190196991,0.09576459974050522,-0.1103890836238861,0,0,0,-1,169307.4468275417,3,1,1561841491.393326,1561841239.621676,8,3.056457,0,0,7.575853,0,0,1561841413.282218,169306.539641,0,0.3303223,75.18983,0,182478453,3,1,1,-37.75375,-45.88979,1
1561841492.922971,111,0,0,1561841491.996596,4.634564355951393,-74.15098191245845,2553.088,0,287.2265625,4,30,-9999,1561841492.919045,-17.90103149414062,-19.87794494628906,14.509521484375,131.110595703125,138.6038055419922,15,169309.218953625,-0.9849090576171875,0.0914154052734375,-0.1022796630859375,169309.218953625,-0.06298402609648299,0.03821369848154699,-0.003598729581024075,169309.203602625,-90.34442138671875,-46.12074279785156,-546.0224609375,169309.213887625,-0.0163668565686403,-1.459135196686663,-0.09601243808109479,-0.07191051542758942,0.03102361783385277,-0.007070765364915133,0.0008838176727294922,-0.004770025610923767,0.01010125875473022,1,-0.04122019931674004,-0.6654644012451172,0.02589170821011066,0.7448408007621765,-0.9891955256462097,0.09586499631404877,-0.1109160482883453,0,0,0,-1,169307.4468275417,3,1,1561841491.393326,1561841239.621676,8,3.056457,0,0,7.575853,0,0,1561841413.282218,169306.539641,0,0.3303223,75.18983,0,182478453,3,1,1,-37.75375,-46.41449,1
1561841492.970524,112,0,0,1561841491.996596,4.634564355951393,-74.15098191245845,2553.088,0,287.2265625,4,30,-9999,1561841492.941618,-17.70208740234375,-19.95759582519531,14.53631591796875,131.1924896240234,138.6856994628906,15,169309.239216625,-0.9853973388671875,0.0929412841796875,-0.10400390625,169309.239216625,-0.02519456917658562,0.03798706347278125,-0.001165665609127683,169309.223713625,-90.52333068847656,-46.17509460449219,-546.0324096679688,169309.234150625,-0.01750258179729154,-1.458626745074931,-0.09597935046541405,-0.03672589734196663,0.03176850453019142,-0.004994831047952175,0.005270540714263916,-0.005301661789417267,0.008590340614318848,1,-0.04159224405884743,-0.665252149105072,0.02544715255498886,0.7450248599052429,-0.9891419410705566,0.09583205729722977,-0.1114193275570869,0,0,0,-1,169307.4468275417,3,1,1561841491.393326,1561841239.621676,8,3.056457,0,0,7.575853,0,0,1561841413.282218,169306.539641,0,0.3303223,75.18983,0,182478453,3,1,1,-37.75375,-47.47676,1
1561841492.97347,113,0,0,1561841491.996596,4.634564355951393,-74.15098191245845,2553.088,0,287.2265625,4,30,-9999,1561841492.972254,-17.67190551757812,-20.22760009765625,14.51861572265625,131.2135925292969,138.7068023681641,15,169309.259480625,-0.984130859375,0.0974578857421875,-0.1035308837890625,169309.259480625,0.002097505674546408,0.02941035318218106,0.004723915141582553,169309.243794625,-90.33929443359375,-46.08912658691406,-546.1553955078125,169309.254414625,-0.01791443232814036,-1.45802589547916,-0.09596508706267903,-0.00621325895190239,0.03022387251257896,-0.0009532179683446884,0.00116121768951416,-0.000404655933380127,0.008482873439788818,1,-0.04173152148723602,-0.6650199890136719,0.02527644671499729,0.7452301383018494,-0.9890762567520142,0.09581785649061203,-0.1120137870311737,0,0,0,-1,169307.4468275417,3,1,1561841491.393326,1561841239.621676,8,3.056457,0,0,7.575853,0,0,1561841413.282218,169306.539641,0,0.3303223,75.18983,0,182478453,3,1,1,-37.75375,-47.47676,1
1561841492.983865,114,0,0,1561841491.996596,4.634564355951393,-74.15098191245845,2553.088,0,287.2265625,4,30,-9999,1561841492.972254,-17.67190551757812,-20.22760009765625,14.51861572265625,131.2135925292969,138.7068023681641,15,169309.279744625,-0.985321044921875,0.1001129150390625,-0.100738525390625,169309.279744625,0.01802960057983644,0.02560922335831096,0.009874735005904807,169309.263905625,-90.6644287109375,-46.15191650390625,-545.9773559570312,169309.274647625,-0.01777874825882901,-1.457645900166386,-0.09597981532090902,0.01648140139877796,0.01615891978144646,0.003947530873119831,0.008105695247650146,0.003593750298023224,0.01010984182357788,1,-0.0416967011988163,-0.6648809313774109,0.02532398514449596,0.7453545331954956,-0.9890322089195251,0.09583251923322678,-0.1123894676566124,0,0,0,-1,169307.4468275417,3,1,1561841491.393326,1561841239.621676,8,3.056457,0,0,7.575853,0,0,1561841413.282218,169306.539641,0,0.3303223,75.18983,0,182478453,3,1,1,-37.75375,-47.91016,1
1561841493.004076,115,0,0,1561841491.996596,4.634564355951393,-74.15098191245845,2553.088,0,287.2265625,4,30,-9999,1561841492.992258,-17.87503814697266,-20.12726593017578,14.4107666015625,131.1978759765625,138.6910858154297,15,169309.299977625,-0.9897003173828125,0.1026458740234375,-0.1000518798828125,169309.299977625,0.003069026840207314,0.04619013226244331,0.001781388453154002,169309.283986625,-90.47378540039062,-45.81045532226562,-546.1386108398438,169309.294911625,-0.01753236174758921,-1.457097695873196,-0.09603880913341847,0.004445776809006929,0.03793958202004433,0.001335236243903637,-0.0009949207305908203,0.006327390670776367,0.0134742259979248,1,-0.04164373129606247,-0.6646806001663208,0.02542402409017086,0.745532751083374,-0.9889647960662842,0.09589124470949173,-0.1129309982061386,0,0,0,-1,169307.4468275417,3,1,1561841491.393326,1561841239.621676,8,3.056457,0,0,7.575853,0,0,1561841413.282218,169306.539641,0,0.3303223,75.18983,0,182478453,3,1,1,-37.75375,-42.11005,1
1561841493.05574,116,0,0,1561841491.996596,4.634564355951393,-74.15098191245845,2553.088,0,287.2265625,4,30,-9999,1561841493.019496,-17.71337890625,-20.01616668701172,14.27447509765625,131.2049102783203,138.6981201171875,15,169309.320241625,-0.9826812744140625,0.097625732421875,-0.0964813232421875,169309.320241625,0.006617156360519883,0.01438666252471705,-0.005079180830999123,169309.304097625,-90.37503051757812,-46.36531066894531,-546.1360473632812,169309.315175625,-0.01753290441258815,-1.456482851372422,-0.09593066546311182,0.0002198731526732445,0.01382971834391356,-0.01075178664177656,0.003111362457275391,0.001536965370178223,0.01437336206436157,1,-0.0416114330291748,-0.6644534468650818,0.02537505887448788,0.7457386255264282,-0.9889054298400879,0.09578359872102737,-0.1135402098298073,0,0,0,-1,169307.4468275417,3,1,1561841491.393326,1561841239.621676,8,3.056457,0,0,7.575853,0,0,1561841413.282218,169306.539641,0,0.3303223,75.18983,0,182478453,3,1,1,-37.75375,-43.17058,1
1561841493.058466,117,0,0,1561841491.996596,4.634564355951393,-74.15098191245845,2553.088,0,287.2265625,4,30,-9999,1561841493.042992,-17.80792999267578,-20.00360870361328,14.161376953125,131.2008514404297,138.6940612792969,15,169309.340504625,-0.9827880859375,0.100341796875,-0.095947265625,169309.340504625,0.01167503190279837,0.01511716761172579,0.004270911440160075,169309.324177625,-90.51087951660156,-46.19914245605469,-546.1795654296875,169309.335438625,-0.01741424432933914,-1.456330634711565,-0.09580046832789643,0.01101739332079887,0.008720178157091141,-0.0005955556407570839,0.002938628196716309,0.004550471901893616,0.01869094371795654,1,-0.04152543097734451,-0.664401650428772,0.02537284418940544,0.7457897067070007,-0.9889006018638611,0.09565399587154388,-0.1136921718716621,0,0,0,-1,169307.4468275417,3,1,1561841491.393326,1561841239.621676,8,3.056457,0,0,7.575853,0,0,1561841413.282218,169306.539641,0,0.3303223,75.18983,0,182478453,3,1,1,-37.75375,-43.17058,1
1561841493.064864,118,0,0,1561841492.996582,4.634564355951393,-74.15098191245845,2553.084,0,286.171875,4,30,-9999,1561841493.042992,-17.80792999267578,-20.00360870361328,14.161376953125,131.2008514404297,138.6940612792969,15,169309.360768625,-0.9849700927734375,0.099853515625,-0.0977783203125,169309.360768625,0.01273204053945082,0.01228063473468239,0.007833954662577088,169309.344288625,-90.55458068847656,-46.17669677734375,-546.0874633789062,169309.355702625,-0.01723964737505222,-1.456189015269672,-0.09580259181674727,0.008813627064228058,0.006047430448234081,0.002608759794384241,0.008186757564544678,0.005570694804191589,0.01590126752853394,1,-0.04147002100944519,-0.6643524169921875,0.02543571591377258,0.7458345890045166,-0.9888843894004822,0.09565611183643341,-0.1138322055339813,0,0,0,-1,169307.4468275417,3,1,1561841491.393326,1561841239.621676,8,3.056457,0,0,7.575853,0,0,1561841413.282218,169306.539641,0,0.3303223,75.18983,0,182478453,3,1,1,-37.75375,-43.17058,1
1561841493.085645,119,0,0,1561841492.996582,4.634564355951393,-74.15098191245845,2553.084,0,286.171875,4,30,-9999,1561841493.042992,-17.80792999267578,-20.00360870361328,14.161376953125,131.2008514404297,138.6940612792969,15,169309.381032625,-0.9823455810546875,0.098541259765625,-0.098663330078125,169309.381032625,0.0173893766537814,-0.0004697816162899776,0.02130795188172398,169309.364399625,-90.45399475097656,-46.08473205566406,-546.3226928710938,169309.375966625,-0.01698711087159009,-1.456114609348818,-0.09594385443509272,0.01260117441415787,-0.0002517448738217354,0.0132848396897316,0.003877043724060059,0.002332553267478943,0.01647686958312988,1,-0.0414397269487381,-0.6643272042274475,0.02557531930506229,0.7458539009094238,-0.9888623952865601,0.09579672664403915,-0.1139042302966118,0,0,0,-1,169307.4468275417,3,1,1561841491.393326,1561841239.621676,8,3.056457,0,0,7.575853,0,0,1561841413.282218,169306.539641,0,0.3303223,75.18983,0,182478453,3,1,1,-37.75375,-43.98273,1
1561841493.114726,120,0,0,1561841492.996582,4.634564355951393,-74.15098191245845,2553.084,0,286.171875,4,30,-9999,1561841493.074024,-17.85780334472656,-19.98110198974609,14.30340576171875,131.1921539306641,138.6853637695312,15,169309.401295625,-0.988555908203125,0.098052978515625,-0.100799560546875,169309.401295625,0.00374174133156133,0.02219132241530327,0.007580155410692535,169309.384480625,-90.39950561523438,-46.08543395996094,-546.15185546875,169309.396229625,-0.0166684042178485,-1.456171024831224,-0.0962798081094744,0.007679920177906752,0.004635156132280827,0.0131897646933794,0.003561615943908691,0.001158908009529114,0.01559340953826904,1,-0.04145833104848862,-0.6643484234809875,0.02580703422427177,0.7458260059356689,-0.9888368248939514,0.09613113105297089,-0.1138447597622871,0,0,0,-1,169307.4468275417,3,1,1561841491.393326,1561841239.621676,8,3.056457,0,0,7.575853,0,0,1561841413.282218,169306.539641,0,0.3303223,75.18983,0,182478453,3,1,1,-37.75375,-44.7089,1
1561841493.125341,121,0,0,1561841492.996582,4.634564355951393,-74.15098191245845,2553.084,0,286.171875,4,30,-9999,1561841493.120198,-17.87172698974609,-19.89517974853516,14.20709228515625,131.1882629394531,138.6814727783203,15,169309.421559625,-0.9888153076171875,0.09478759765625,-0.09918212890625,169309.421559625,-0.03467116159952359,0.06131262619634926,-0.01227877052191934,169309.404591625,-90.17442321777344,-46.28799438476562,-546.27978515625,169309.416462625,-0.01683698149203201,-1.455640218235712,-0.09625803613306537,-0.02623303979635239,0.04849954694509506,-0.01485438644886017,0.0005123019218444824,-0.001398153603076935,0.01363134384155273,1,-0.04151304438710213,-0.6641473770141602,0.02572591602802277,0.7460047602653503,-0.988778293132782,0.09610945731401443,-0.1143698543310165,0,0,0,-1,169307.4468275417,3,1,1561841491.393326,1561841239.621676,8,3.056457,0,0,7.575853,0,0,1561841413.282218,169306.539641,0,0.3303223,75.18983,0,182478453,3,1,1,-37.75375,-44.76601,1
