loggingTime,loggingSample,identifierForVendor,deviceID,locationTimestamp_since1970,locationLatitude,locationLongitude,locationAltitude,locationSpeed,locationCourse,locationVerticalAccuracy,locationHorizontalAccuracy,locationFloor,locationHeadingTimestamp_since1970,locationHeadingX,locationHeadingY,locationHeadingZ,locationTrueHeading,locationMagneticHeading,locationHeadingAccuracy,accelerometerTimestamp_sinceReboot,accelerometerAccelerationX,accelerometerAccelerationY,accelerometerAccelerationZ,gyroTimestamp_sinceReboot,gyroRotationX,gyroRotationY,gyroRotationZ,magnetometerTimestamp_sinceReboot,magnetometerX,magnetometerY,magnetometerZ,motionTimestamp_sinceReboot,motionYaw,motionRoll,motionPitch,motionRotationRateX,motionRotationRateY,motionRotationRateZ,motionUserAccelerationX,motionUserAccelerationY,motionUserAccelerationZ,motionAttitudeReferenceFrame,motionQuaternionX,motionQuaternionY,motionQuaternionZ,motionQuaternionW,motionGravityX,motionGravityY,motionGravityZ,motionMagneticFieldX,motionMagneticFieldY,motionMagneticFieldZ,motionMagneticFieldCalibrationAccuracy,activityTimestamp_sinceReboot,activity,activityActivityConfidence,activityActivityStartDate,pedometerStartDate,pedometerNumberofSteps,pedometerAverageActivePace,pedometerCurrentPace,pedometerCurrentCadence,pedometerDistance,pedometerFloorAscended,pedometerFloorDescended,pedometerEndDate,altimeterTimestamp_sinceReboot,altimeterReset,altimeterRelativeAltitude,altimeterPressure,IP_en0,IP_pdp_ip0,deviceOrientation,batteryState,batteryLevel,avAudioRecorderPeakPower,avAudioRecorderAveragePower,label
1561841523.820256,1,0,0,1561841522.996152,4.634553710934365,-74.15087940178266,2553.97,1.39,86.484375,4,30,-9999,1561841523.78631,7.348793029785156,-18.43252563476562,18.40728759765625,203.2067108154297,210.6999206542969,15,169340.1150981667,-0.248870849609375,-0.95672607421875,-0.1081085205078125,169340.1150981667,0.1103821682293862,0.02478204552373235,-0.07043421924597966,169340.1004801667,-65.09744262695312,-44.48468017578125,-541.844970703125,169340.1100021667,-0.07495022152912505,-1.164472201822987,1.295090001085875,0.1240297853946686,0.008223600685596466,-0.07690215855836868,-0.003600358963012695,0.0004106760025024414,-0.001338958740234375,1,0.4870534539222717,-0.4571456611156464,-0.3564376533031464,0.6532602310180664,-0.2500617802143097,-0.9622331857681274,-0.1075935587286949,0,0,0,-1,169338.56576325,1,2,1561841522.512262,1561841239.621676,8,3.056457,0,0,7.575853,0,0,1561841413.282218,169337.656307,0,-0.2587891,75.19539,0,182478453,1,1,1,-43.04941,-43.40583,5
1561841523.838599,2,0,0,1561841522.996152,4.634553710934365,-74.15087940178266,2553.97,1.39,86.484375,4,30,-9999,1561841523.837045,7.367179870605469,-18.27803039550781,18.58740234375,203.1708068847656,210.6640167236328,15,169340.1353311667,-0.2429656982421875,-0.9517974853515625,-0.10357666015625,169340.1353311667,0.07486252350656342,0.0496783406582291,-0.06863232445243204,169340.1205911667,-65.04493713378906,-44.26258850097656,-541.8331298828125,169340.1302651667,-0.07059132667099395,-1.168184728157603,1.297212187636646,0.07534133642911911,0.03545308858156204,-0.07105492055416107,0.004317730665206909,0.008554518222808838,0.0002733469009399414,1,0.4881064891815186,-0.45696821808815,-0.3563656210899353,0.6526374816894531,-0.2485804259777069,-0.9628087282180786,-0.1058642044663429,0,0,0,-1,169338.56576325,1,2,1561841522.512262,1561841239.621676,8,3.056457,0,0,7.575853,0,0,1561841413.282218,169337.656307,0,-0.2587891,75.19539,0,182478453,1,1,1,-43.04941,-44.24747,5
1561841523.858887,3,0,0,1561841522.996152,4.634553710934365,-74.15087940178266,2553.97,1.39,86.484375,4,30,-9999,1561841523.837045,7.367179870605469,-18.27803039550781,18.58740234375,203.1708068847656,210.6640167236328,15,169340.1555951667,-0.234466552734375,-0.9476165771484375,-0.0957489013671875,169340.1555951667,0.09766983508200201,0.004995823888879643,-0.054346595733029,169340.1407021667,-64.96363830566406,-44.091064453125,-541.5462646484375,169340.1505291667,-0.06768131013056532,-1.170249454362415,1.299064552853925,0.08104503154754639,0.01974097453057766,-0.06379914283752441,0.008156925439834595,0.01378363370895386,0.005137085914611816,1,0.4890289306640625,-0.4566434323787689,-0.3563117384910583,0.6522034406661987,-0.2471553385257721,-0.9633075594902039,-0.104654960334301,0,0,0,-1,169338.56576325,1,2,1561841522.512262,1561841239.621676,8,3.056457,0,0,7.575853,0,0,1561841413.282218,169337.656307,0,-0.2587891,75.19539,0,182478453,1,1,1,-43.04941,-44.24747,5
1561841523.879152,4,0,0,1561841522.996152,4.634553710934365,-74.15087940178266,2553.97,1.39,86.484375,4,30,-9999,1561841523.863133,7.617805480957031,-18.2424201965332,18.84307861328125,203.03759765625,210.5308074951172,15,169340.1758591667,-0.234283447265625,-0.9434967041015625,-0.088958740234375,169340.1758591667,0.165023043262869,-0.05329890816019182,-0.01838912732699714,169340.1608141667,-65.13853454589844,-44.05136108398438,-541.8372192382812,169340.1707931667,-0.06123871997357077,-1.176793958854334,1.300833886612462,0.1501636505126953,-0.05121815577149391,-0.03132348880171776,0.01119902729988098,0.01958227157592773,0.01183509826660156,1,0.4899303615093231,-0.456922173500061,-0.3561891913414001,0.6513981223106384,-0.2462606877088547,-0.96378093957901,-0.1023807376623154,0,0,0,-1,169338.56576325,1,2,1561841522.512262,1561841239.621676,8,3.056457,0,0,7.575853,0,0,1561841413.282218,169337.656307,0,-0.2587891,75.19539,0,182478453,1,1,1,-43.04941,-44.58795,5
1561841523.900071,5,0,0,1561841522.996152,4.634553710934365,-74.15087940178266,2553.97,1.39,86.484375,4,30,-9999,1561841523.887566,7.421875,-17.99767684936523,18.7193603515625,203.0529937744141,210.5462036132812,15,169340.1961221667,-0.2413177490234375,-0.9517364501953125,-0.0933837890625,169340.1961221667,0.1997642459990617,-0.08371300675722375,-0.002431199759133337,169340.1809251667,-65.2276611328125,-44.29281616210938,-541.796630859375,169340.1910561667,-0.04949911513228336,-1.189498459215237,1.302434601883548,0.1928703635931015,-0.08519609272480011,-0.007241589482873678,0.01132255792617798,0.01605594158172607,0.008612513542175293,1,0.490889698266983,-0.4579218029975891,-0.3558280766010284,0.6501702070236206,-0.2461095452308655,-0.9642065763473511,-0.09866984933614731,0,0,0,-1,169338.56576325,1,2,1561841522.512262,1561841239.621676,8,3.056457,0,0,7.575853,0,0,1561841413.282218,169337.656307,0,-0.2587891,75.19539,0,182478453,1,1,1,-43.04941,-45.34365,5
1561841523.919639,6,0,0,1561841522.996152,4.634553710934365,-74.15087940178266,2553.97,1.39,86.484375,4,30,-9999,1561841523.916992,7.558891296386719,-17.78245162963867,18.822998046875,203.1188201904297,210.6120300292969,15,169340.2163861667,-0.2469482421875,-0.9582061767578125,-0.0867462158203125,169340.2163861667,0.2089686633585935,-0.1568838903393688,-0.01206145657696887,169340.2010051667,-65.02325439453125,-44.01167297363281,-541.8125,169340.2113201667,-0.03543047056985391,-1.205195070760959,1.304031123044156,0.2065606117248535,-0.137804701924324,-0.009363329969346523,0.001515567302703857,0.009031772613525391,0.00433957576751709,1,0.4918544888496399,-0.4593005180358887,-0.355465292930603,0.6486653089523315,-0.246190220117569,-0.9646286964416504,-0.09424439072608948,0,0,0,-1,169338.56576325,1,2,1561841522.512262,1561841239.621676,8,3.056457,0,0,7.575853,0,0,1561841413.282218,169337.656307,0,-0.2587891,75.19539,0,182478453,1,1,1,-43.04941,-46.18623,5
1561841523.940142,7,0,0,1561841522.996152,4.634553710934365,-74.15087940178266,2553.97,1.39,86.484375,4,30,-9999,1561841523.938201,7.685035705566406,-17.74025344848633,18.68402099609375,203.3281860351562,210.8213958740234,15,169340.2366501667,-0.247955322265625,-0.9588165283203125,-0.07806396484375,169340.2366501667,0.2225787481094435,-0.2811230183526554,-0.08294628267938994,169340.2211161667,-64.94651794433594,-43.98123168945312,-541.9658813476562,169340.2315841667,-0.02134924308988274,-1.22269801748416,1.306100103114472,0.2142747193574905,-0.2501818537712097,-0.06615017354488373,-0.001022994518280029,0.005211055278778076,0.008933067321777344,1,0.4926632046699524,-0.4611538946628571,-0.3556749820709229,0.6466184258460999,-0.2459252625703812,-0.9651719927787781,-0.08924010396003723,0,0,0,-1,169338.56576325,1,2,1561841522.512262,1561841239.621676,8,3.056457,0,0,7.575853,0,0,1561841413.282218,169337.656307,0,-0.2587891,75.19539,0,182478453,1,1,1,-43.04941,-46.35014,5
1561841523.960717,8,0,0,1561841522.996152,4.634553710934365,-74.15087940178266,2553.97,1.39,86.484375,4,30,-9999,1561841523.938201,7.685035705566406,-17.74025344848633,18.68402099609375,203.3281860351562,210.8213958740234,15,169340.2569131667,-0.25323486328125,-0.96978759765625,-0.0688934326171875,169340.2569131667,0.2090150023615609,-0.278521642599866,-0.1039823258138168,169340.2412271667,-64.90928649902344,-43.77751159667969,-541.6566772460938,169340.2518171667,-0.007716746184857201,-1.241922479456082,1.309431807438241,0.2177213877439499,-0.3134079575538635,-0.109258234500885,-0.01046982407569885,0.0009045600891113281,0.008109092712402344,1,0.4934735298156738,-0.4634170830249786,-0.3567748963832855,0.6437702178955078,-0.2445503026247025,-0.9660382866859436,-0.08345696330070496,0,0,0,-1,169338.56576325,1,2,1561841522.512262,1561841239.621676,8,3.056457,0,0,7.575853,0,0,1561841413.282218,169337.656307,0,-0.2587891,75.19539,0,182478453,1,1,1,-43.04941,-47.08606,5
1561841523.98306,9,0,0,1561841522.996152,4.634553710934365,-74.15087940178266,2553.97,1.39,86.484375,4,30,-9999,1561841523.967238,7.638572692871094,-17.7615852355957,18.93206787109375,203.6737213134766,211.1669311523438,15,169340.2771771667,-0.2338714599609375,-0.963958740234375,-0.05523681640625,169340.2771771667,0.1173252955073318,-0.1311814563429051,-0.07251574595398559,169340.2613381667,-64.98336791992188,-43.85606384277344,-541.6217651367188,169340.2720811667,0.003548847053896863,-1.257748420919551,1.312566710056553,0.1421150416135788,-0.1673791110515594,-0.08759474754333496,0.00069427490234375,0.0004587173461914062,0.02207911014556885,1,0.4942699670791626,-0.4651617705821991,-0.3577896058559418,0.6413332223892212,-0.2429580837488174,-0.9668436050415039,-0.07864345610141754,0,0,0,-1,169338.56576325,1,2,1561841522.512262,1561841239.621676,8,3.056457,0,0,7.575853,0,0,1561841413.282218,169337.656307,0,-0.2587891,75.19539,0,182478453,1,1,1,-43.04941,-47.14231,5
1561841524.000699,10,0,0,1561841522.996152,4.634553710934365,-74.15087940178266,2553.97,1.39,86.484375,4,30,-9999,1561841523.989193,7.763946533203125,-17.59366989135742,18.83392333984375,203.8566436767578,211.349853515625,15,169340.2974101667,-0.2306671142578125,-0.9609832763671875,-0.0722503662109375,169340.2974101667,0.04918538954045543,-0.06423091811885809,-0.007413974158671591,169340.2814501667,-64.62297058105469,-43.81895446777344,-541.5928955078125,169340.2923441667,0.00931374439579217,-1.265656522733013,1.314308322600564,0.06065560132265091,-0.08381790667772293,-0.02955781482160091,0.01216849684715271,0.005479574203491211,0.01118069887161255,1,0.4947521090507507,-0.4659544229507446,-0.3583063185214996,0.6400963664054871,-0.2419658452272415,-0.9672868847846985,-0.07621365040540695,0,0,0,-1,169338.56576325,1,2,1561841522.512262,1561841239.621676,8,3.056457,0,0,7.575853,0,0,1561841413.282218,169337.656307,0,-0.2587891,75.19539,0,182478453,1,1,1,-43.04941,-47.14231,5
1561841524.021466,11,0,0,1561841522.996152,4.634553710934365,-74.15087940178266,2553.97,1.39,86.484375,4,30,-9999,1561841524.018143,7.937820434570312,-17.56708526611328,18.92095947265625,203.9304809570312,211.4236907958984,15,169340.3176741667,-0.2322235107421875,-0.9569549560546875,-0.0683135986328125,169340.3176741667,-0.01718537851428132,0.01197650173819534,0.04926075699930468,169340.3015611667,-64.69354248046875,-43.85768127441406,-541.6502685546875,169340.3126081667,0.01179053590153429,-1.269146856414072,1.314352046602535,-0.003769989591091871,-0.01545376516878605,0.03721455857157707,0.01086705923080444,0.006680846214294434,0.001381576061248779,1,0.4947179555892944,-0.4664504826068878,-0.3583874106407166,0.6397160291671753,-0.2421903312206268,-0.9672979712486267,-0.07535618543624878,0,0,0,-1,169338.56576325,1,2,1561841522.512262,1561841239.621676,8,3.056457,0,0,7.575853,0,0,1561841413.282218,169337.656307,0,-0.2587891,75.19539,0,182478453,1,1,1,-43.04941,-47.58521,5
1561841524.041158,12,0,0,1561841522.996152,4.634553710934365,-74.15087940178266,2553.97,1.39,86.484375,4,30,-9999,1561841524.039471,7.995338439941406,-17.55815124511719,19.01348876953125,203.9051208496094,211.3983306884766,15,169340.3379381667,-0.2390289306640625,-0.9580841064453125,-0.0590972900390625,169340.3379381667,-0.01079698769139925,0.04070481936520711,0.03089799496709932,169340.3216411667,-64.69561767578125,-43.82928466796875,-541.5744018554688,169340.3328721667,0.01102171581985683,-1.267956490106612,1.313271082667429,-0.03019120916724205,0.04378585517406464,0.04238428547978401,0.00844910740852356,0.01426446437835693,0.01383781433105469,1,0.4944081902503967,-0.4664572477340698,-0.3580836951732635,0.6401206254959106,-0.2430987805128098,-0.9670232534408569,-0.07595635205507278,0,0,0,-1,169338.56576325,1,2,1561841522.512262,1561841239.621676,8,3.056457,0,0,7.575853,0,0,1561841413.282218,169337.656307,0,-0.2587891,75.19539,0,182478453,1,1,1,-38.44809,-48.20271,5
1561841524.075996,13,0,0,1561841523.996138,4.634561673742378,-74.15086012340537,2554.091,1.95,81.2109375,4,30,-9999,1561841524.039471,7.995338439941406,-17.55815124511719,19.01348876953125,203.9051208496094,211.3983306884766,15,169340.3582011667,-0.251129150390625,-0.9717864990234375,-0.0555572509765625,169340.3582011667,0.08076675164326909,-0.03512176845596499,-0.02393862240650426,169340.3417521667,-64.78144836425781,-43.48699951171875,-541.4420166015625,169340.3531351667,0.01246146733809119,-1.26907856104072,1.313119430139525,0.06153444945812225,-0.0246142391115427,-0.01809157431125641,-0.002831637859344482,0.0003098249435424805,0.01719415187835693,1,0.4944950044155121,-0.4664882123470306,-0.3578648269176483,0.6401532292366028,-0.2433231323957443,-0.9669845700263977,-0.07572687417268753,0,0,0,-1,169338.56576325,1,2,1561841522.512262,1561841239.621676,8,3.056457,0,0,7.575853,0,0,1561841413.282218,169337.656307,0,-0.2587891,75.19539,0,182478453,1,1,1,-37.17058,-41.97525,5
1561841524.084227,14,0,0,1561841523.996138,4.634561673742378,-74.15086012340537,2554.091,1.95,81.2109375,4,30,-9999,1561841524.039471,7.995338439941406,-17.55815124511719,19.01348876953125,203.9051208496094,211.3983306884766,15,169340.3784651667,-0.2423553466796875,-0.9697418212890625,-0.0553131103515625,169340.3784651667,0.104692590876541,-0.05609229782757594,-0.03051929346009005,169340.3618631667,-64.81558227539062,-43.47557067871094,-541.569091796875,169340.3733991667,0.01835544436155304,-1.275750654578868,1.314272240428797,0.09900352358818054,-0.06042283773422241,-0.03634647652506828,-0.004695624113082886,-0.005134344100952148,0.02101260423660278,1,0.4950420558452606,-0.4669524729251862,-0.3579034507274628,0.6393698453903198,-0.2427561432123184,-0.9672777056694031,-0.07377750426530838,0,0,0,-1,169338.56576325,1,2,1561841522.512262,1561841239.621676,8,3.056457,0,0,7.575853,0,0,1561841413.282218,169337.656307,0,-0.2587891,75.19539,0,182478453,1,1,1,-37.17058,-41.97525,5
1561841524.102,15,0,0,1561841523.996138,4.634561673742378,-74.15086012340537,2554.091,1.95,81.2109375,4,30,-9999,1561841524.092897,7.849052429199219,-17.58798599243164,19.013671875,203.9015502929688,211.3947601318359,15,169340.3987291667,-0.244659423828125,-0.9647064208984375,-0.062469482421875,169340.3987291667,0.0706573921453283,-0.02272395463331912,-0.004347610479554356,169340.3819741667,-64.55062866210938,-43.78402709960938,-541.667724609375,169340.3936631667,0.02514771856939637,-1.283489147438984,1.315386297542035,0.08423443138599396,-0.0454939566552639,-0.01254500821232796,-0.002815872430801392,-0.0016937255859375,0.01171576976776123,1,0.4955955445766449,-0.4675354659557343,-0.3579163253307343,0.6385071873664856,-0.2422860413789749,-0.967559814453125,-0.07159128785133362,0,0,0,-1,169338.56576325,1,2,1561841522.512262,1561841239.621676,8,3.056457,0,0,7.575853,0,0,1561841413.282218,169337.656307,0,-0.2587891,75.19539,0,182478453,1,1,1,-37.17058,-42.70614,5
1561841524.122275,16,0,0,1561841523.996138,4.634561673742378,-74.15086012340537,2554.091,1.95,81.2109375,4,30,-9999,1561841524.116806,8.247856140136719,-17.65914916992188,18.75543212890625,203.9544830322266,211.4476928710938,15,169340.4189921667,-0.24365234375,-0.9574737548828125,-0.0587615966796875,169340.4189921667,-0.0008777778952901169,0.04576562438468468,0.02202407589884629,169340.4020851667,-64.27400207519531,-43.55581665039062,-541.70751953125,169340.4138961667,0.02912564470369728,-1.287538106994312,1.315672754709336,0.01472992636263371,0.02748624421656132,0.01545839570462704,0.001402556896209717,0.007869482040405273,0.01038223505020142,1,0.495891273021698,-0.46778804063797,-0.3577189147472382,0.6382032632827759,-0.2423083335161209,-0.9676321148872375,-0.07053238898515701,0,0,0,-1,169338.56576325,1,2,1561841522.512262,1561841239.621676,8,3.056457,0,0,7.575853,0,0,1561841413.282218,169337.656307,0,-0.2587891,75.19539,0,182478453,1,1,1,-37.17058,-43.42944,5
1561841524.15136,17,0,0,1561841523.996138,4.634561673742378,-74.15086012340537,2554.091,1.95,81.2109375,4,30,-9999,1561841524.116806,8.247856140136719,-17.65914916992188,18.75543212890625,203.9544830322266,211.4476928710938,15,169340.4392561667,-0.2455902099609375,-0.957550048828125,-0.0562896728515625,169340.4392561667,-0.02520548813705495,0.06537208264595705,0.01241006436366024,169340.4221971667,-64.5985107421875,-43.6473388671875,-541.6235961914062,169340.4341591667,0.02861222725306247,-1.286064069866281,1.315265798640792,-0.02899518422782421,0.06210121139883995,0.01257925294339657,-0.004152864217758179,0.008728086948394775,0.01348960399627686,1,0.4959070384502411,-0.4675213396549225,-0.3574194014072418,0.6385540962219238,-0.2425817400217056,-0.9675293564796448,-0.07100000977516174,0,0,0,-1,169338.56576325,1,2,1561841522.512262,1561841239.621676,8,3.056457,0,0,7.575853,0,0,1561841413.282218,169337.656307,0,-0.2587891,75.19539,0,182478453,1,1,1,-37.17058,-43.85487,5
1561841524.162757,18,0,0,1561841523.996138,4.634561673742378,-74.15086012340537,2554.091,1.95,81.2109375,4,30,-9999,1561841524.144192,7.917976379394531,-17.38833618164062,18.77960205078125,203.8900756835938,211.3832855224609,15,169340.4594891667,-0.2477264404296875,-0.9517822265625,-0.04608154296875,169340.4594891667,0.03307699337100215,0.008689362004710538,-0.02189411363765043,169340.4423081667,-64.60409545898438,-43.56105041503906,-541.5955810546875,169340.4544231667,0.02756628485206522,-1.284120362633935,1.315171024690723,0.01007871516048908,0.02150691673159599,-0.01590245589613914,-0.005103528499603271,0.01315963268280029,0.01978534460067749,1,0.4959801137447357,-0.4671777486801147,-0.3572485744953156,0.63884437084198,-0.2425313740968704,-0.9675053954124451,-0.0714973583817482,0,0,0,-1,169338.56576325,1,2,1561841522.512262,1561841239.621676,8,3.056457,0,0,7.575853,0,0,1561841413.282218,169337.656307,0,-0.2587891,75.19539,0,182478453,1,1,1,-37.17058,-43.85487,5
1561841524.183069,19,0,0,1561841523.996138,4.634561673742378,-74.15086012340537,2554.091,1.95,81.2109375,4,30,-9999,1561841524.168448,7.95361328125,-17.39324569702148,19.01751708984375,203.8473968505859,211.3406066894531,15,169340.4797531667,-0.240753173828125,-0.9555206298828125,-0.0436248779296875,169340.4797531667,0.1222534751045235,-0.07241481214867158,-0.05308479000854945,169340.4624191667,-65.05337524414062,-43.44560241699219,-541.3878173828125,169340.4746871667,0.0312510850806406,-1.288053223711835,1.31617776143645,0.102935679256916,-0.05710906907916069,-0.05062767863273621,-0.002753943204879761,0.01573312282562256,0.02930128574371338,1,0.4964544773101807,-0.4673300683498383,-0.3572903573513031,0.6383408904075623,-0.2418749928474426,-0.9677594304084778,-0.07027111947536469,0,0,0,-1,169338.56576325,1,2,1561841522.512262,1561841239.621676,8,3.056457,0,0,7.575853,0,0,1561841413.282218,169337.656307,0,-0.2587891,75.19539,0,182478453,1,1,1,-37.17058,-44.70095,5
1561841524.203249,20,0,0,1561841523.996138,4.634561673742378,-74.15086012340537,2554.091,1.95,81.2109375,4,30,-9999,1561841524.191757,7.897415161132812,-17.49057388305664,18.9012451171875,203.8985900878906,211.3917999267578,15,169340.5000161667,-0.2326812744140625,-0.967193603515625,-0.0506439208984375,169340.5000161667,0.1679402699209418,-0.1013180994593016,-0.05576685954236826,169340.4824991667,-64.83296203613281,-43.52920532226562,-541.52099609375,169340.4949501667,0.04067107328689635,-1.299035220610012,1.31805040319863,0.1640770733356476,-0.1090718656778336,-0.06180762872099876,0.005534976720809937,0.008085370063781738,0.01812827587127686,1,0.4972797334194183,-0.4681353867053986,-0.3574693202972412,0.6370069980621338,-0.2408865392208099,-0.9682294130325317,-0.06712425500154495,0,0,0,-1,169338.56576325,1,2,1561841522.512262,1561841239.621676,8,3.056457,0,0,7.575853,0,0,1561841413.282218,169337.656307,0,-0.2587891,75.19539,0,182478453,1,1,1,-37.17058,-45.04552,5
1561841524.236626,21,0,0,1561841523.996138,4.634561673742378,-74.15086012340537,2554.091,1.95,81.2109375,4,30,-9999,1561841524.191757,7.897415161132812,-17.49057388305664,18.9012451171875,203.8985900878906,211.3917999267578,15,169340.5202801667,-0.2361297607421875,-0.977264404296875,-0.0403900146484375,169340.5202801667,0.14031796309464,-0.09514249520751682,-0.0456785390170391,169340.5026101667,-64.63616943359375,-43.44618225097656,-541.4735717773438,169340.5152141667,0.05195911360315236,-1.312165557286261,1.319991586776365,0.1441952437162399,-0.1072856783866882,-0.05268523842096329,0.005722016096115112,-0.005926907062530518,0.01971244812011719,1,0.4981782138347626,-0.4691280424594879,-0.3576229512691498,0.6354865431785583,-0.2399291843175888,-0.9687129855155945,-0.06347469240427017,0,0,0,-1,169338.56576325,1,2,1561841522.512262,1561841239.621676,8,3.056457,0,0,7.575853,0,0,1561841413.282218,169337.656307,0,-0.2587891,75.19539,0,182478453,1,1,1,-37.17058,-44.8307,5
1561841524.243779,22,0,0,1561841523.996138,4.634561673742378,-74.15086012340537,2554.091,1.95,81.2109375,4,30,-9999,1561841524.241511,8.071357727050781,-17.21407318115234,19.1300048828125,203.9941864013672,211.4873962402344,15,169340.5405441667,-0.239105224609375,-0.981048583984375,-0.0379638671875,169340.5405441667,0.07599889434370023,-0.04638800513143621,-0.04616962592204971,169340.5227211667,-64.57350158691406,-43.37043762207031,-541.5625,169340.5354781667,0.06088151251064152,-1.322590708889908,1.32151919583619,0.09078021347522736,-0.0623999685049057,-0.04627713933587074,0.001822799444198608,-0.01207959651947021,0.02306962013244629,1,0.4988771080970764,-0.4699132740497589,-0.3577689230442047,0.6342747211456299,-0.2391427755355835,-0.96909099817276,-0.06060629338026047,0,0,0,-1,169338.56576325,1,2,1561841522.512262,1561841239.621676,8,3.056457,0,0,7.575853,0,0,1561841413.282218,169337.656307,0,-0.2587891,75.19539,0,182478453,1,1,1,-37.17058,-44.8307,5
1561841524.265398,23,0,0,1561841523.996138,4.634561673742378,-74.15086012340537,2554.091,1.95,81.2109375,4,30,-9999,1561841524.241511,8.071357727050781,-17.21407318115234,19.1300048828125,203.9941864013672,211.4873962402344,15,169340.5608071667,-0.2424774169921875,-0.9768524169921875,-0.045257568359375,169340.5608071667,0.02255830601351619,-0.01103613955728836,-0.06035042609450363,169340.5428331667,-64.56541442871094,-42.96376037597656,-541.4168701171875,169340.5557421667,0.06458503935246829,-1.327130864224755,1.322818859849075,0.02854560688138008,-0.02811203524470329,-0.06098338216543198,-0.002605736255645752,-0.006465017795562744,0.01582002639770508,1,0.4993315637111664,-0.4701701402664185,-0.3580531477928162,0.6335660219192505,-0.2381931692361832,-0.9694108366966248,-0.05921605601906776,0,0,0,-1,169338.56576325,1,2,1561841522.512262,1561841239.621676,8,3.056457,0,0,7.575853,0,0,1561841413.282218,169337.656307,0,-0.2587891,75.19539,0,182478453,1,1,1,-37.17058,-44.4187,5
1561841524.284334,24,0,0,1561841523.996138,4.634561673742378,-74.15086012340537,2554.091,1.95,81.2109375,4,30,-9999,1561841524.268334,8.125335693359375,-17.1899528503418,19.01873779296875,204.1046447753906,211.5978546142578,15,169340.5810711667,-0.240509033203125,-0.986328125,-0.0452117919921875,169340.5810711667,0.02808010421768648,-0.02127839079362411,-0.05162697562784008,169340.5629441667,-64.56915283203125,-43.38058471679688,-541.6875,169340.5759751667,0.06511896964281029,-1.327925055752899,1.324097863806774,0.02126585505902767,-0.01366465352475643,-0.05422800779342651,-0.003853976726531982,-0.01152300834655762,0.01316595077514648,1,0.4997041523456573,-0.4700334370136261,-0.3584030866622925,0.6331757307052612,-0.2370365113019943,-0.9697239398956299,-0.0587286576628685,0,0,0,-1,169338.56576325,1,2,1561841522.512262,1561841239.621676,8,3.056457,0,0,7.575853,0,0,1561841413.282218,169337.656307,0,-0.2587891,75.19539,0,182478453,1,1,1,-37.17058,-44.74174,5
1561841524.30999,25,0,0,1561841523.996138,4.634561673742378,-74.15086012340537,2554.091,1.95,81.2109375,4,30,-9999,1561841524.293428,8.25982666015625,-17.14296340942383,18.9033203125,204.1276702880859,211.6208801269531,15,169340.6013041667,-0.244110107421875,-0.9901123046875,-0.0459136962890625,169340.6013041667,0.04049869069683498,-0.06572148938097544,-0.05634370023447942,169340.5830551667,-64.4356689453125,-43.30928039550781,-541.5894775390625,169340.5962381667,0.06684236565653998,-1.330465022974484,1.325333753197451,0.04271521791815758,-0.06865067034959793,-0.05660354718565941,-0.004656225442886353,-0.01940059661865234,0.01192736625671387,1,0.500029444694519,-0.4701595604419708,-0.3588027954101562,0.6325986385345459,-0.2360206693410873,-0.9700250029563904,-0.05784108489751816,0,0,0,-1,169338.56576325,1,2,1561841522.512262,1561841239.621676,8,3.056457,0,0,7.575853,0,0,1561841413.282218,169337.656307,0,-0.2587891,75.19539,0,182478453,1,1,1,-37.17058,-45.41946,5
1561841524.324825,26,0,0,1561841523.996138,4.634561673742378,-74.15086012340537,2554.091,1.95,81.2109375,4,30,-9999,1561841524.318905,8.245063781738281,-17.07560729980469,19.100341796875,204.2071685791016,211.7003784179688,15,169340.6215681667,-0.2478179931640625,-0.97772216796875,-0.0513153076171875,169340.6215681667,0.01807407537004077,-0.02584677732754603,-0.06444663416715452,169340.6031661667,-64.55987548828125,-43.32559204101562,-541.2761840820312,169340.6165021667,0.0682318937811961,-1.333143447806417,1.326713915524785,0.01650838553905487,-0.04853715002536774,-0.06574564427137375,-0.01488173007965088,-0.0138629674911499,0.007226347923278809,1,0.5002937912940979,-0.4703820645809174,-0.3593800663948059,0.6318963170051575,-0.2348741590976715,-0.9703595042228699,-0.05689367279410362,0,0,0,-1,169338.56576325,1,2,1561841522.512262,1561841239.621676,8,3.056457,0,0,7.575853,0,0,1561841413.282218,169337.656307,0,-0.2587891,75.19539,0,182478453,1,1,1,-37.17058,-45.41946,5
1561841524.345093,27,0,0,1561841523.996138,4.634561673742378,-74.15086012340537,2554.091,1.95,81.2109375,4,30,-9999,1561841524.343524,8.390510559082031,-17.18393325805664,19.0894775390625,204.2208404541016,211.7140502929688,15,169340.6418321667,-0.239166259765625,-0.9721832275390625,-0.0585479736328125,169340.6418321667,0.07502737317803933,0.02281237158150975,-0.03785284015384125,169340.6232771667,-64.36587524414062,-42.91665649414062,-541.407470703125,169340.6367661667,0.06947485128245696,-1.334793001382918,1.328089974332005,0.0557338148355484,0.002440279815346003,-0.05221705511212349,-0.009129226207733154,-0.002468645572662354,0.001460433006286621,1,0.5007061362266541,-0.4703153073787689,-0.3597471117973328,0.6314102411270142,-0.2336686253547668,-0.9706910848617554,-0.0561937540769577,0,0,0,-1,169338.56576325,1,2,1561841522.512262,1561841239.621676,8,3.056457,0,0,7.575853,0,0,1561841413.282218,169337.656307,0,-0.2587891,75.19539,0,182478453,1,1,1,-37.17058,-46.08936,5
1561841524.365486,28,0,0,1561841523.996138,4.634561673742378,-74.15086012340537,2554.091,1.95,81.2109375,4,30,-9999,1561841524.343524,8.390510559082031,-17.18393325805664,19.0894775390625,204.2208404541016,211.7140502929688,15,169340.6620951667,-0.237457275390625,-0.9717254638671875,-0.0536346435546875,169340.6620951667,0.1011023834110051,0.0365066122228062,-0.02751072037662754,169340.6433881667,-64.09236145019531,-43.19790649414062,-541.7005615234375,169340.6570291667,0.07555063990322519,-1.340325063862007,1.329151364192588,0.09788286685943604,0.02853499911725521,-0.03004277683794498,-0.003416687250137329,-0.00196993350982666,-0.001472353935241699,1,0.5014604926109314,-0.4703243374824524,-0.3594839870929718,0.6309545040130615,-0.2329724878072739,-0.9709456562995911,-0.05466478317975998,0,0,0,-1,169338.56576325,1,2,1561841522.512262,1561841239.621676,8,3.056457,0,0,7.575853,0,0,1561841413.282218,169337.656307,0,-0.2587891,75.19539,0,182478453,1,1,1,-37.17058,-46.54191,5
1561841524.392616,29,0,0,1561841523.996138,4.634561673742378,-74.15086012340537,2554.091,1.95,81.2109375,4,30,-9999,1561841524.343524,8.390510559082031,-17.18393325805664,19.0894775390625,204.2208404541016,211.7140502929688,15,169340.6823591667,-0.2360687255859375,-0.972259521484375,-0.0412139892578125,169340.6823591667,0.0888505108160956,0.04917526952831313,-0.03696494224640883,169340.6634691667,-64.13038635253906,-43.27456665039062,-541.5897216796875,169340.6772931667,0.08323053930064969,-1.347069182037064,1.330283937322014,0.09707299619913101,0.04653982818126678,-0.03736300766468048,-0.005071848630905151,-0.0005704164505004883,0.006690502166748047,1,0.5023949146270752,-0.4702926576137543,-0.3590426445007324,0.6304858922958374,-0.232263371348381,-0.9712160229682922,-0.05284833163022995,0,0,0,-1,169338.56576325,1,2,1561841522.512262,1561841239.621676,8,3.056457,0,0,7.575853,0,0,1561841413.282218,169337.656307,0,-0.2587891,75.19539,0,182478453,1,1,1,-37.17058,-47.36128,5
1561841524.405911,30,0,0,1561841523.996138,4.634561673742378,-74.15086012340537,2554.091,1.95,81.2109375,4,30,-9999,1561841524.343524,8.390510559082031,-17.18393325805664,19.0894775390625,204.2208404541016,211.7140502929688,15,169340.7026231667,-0.231109619140625,-0.966461181640625,-0.0296783447265625,169340.7026231667,0.06211769979388022,-0.004621916071832518,-0.03673750828931607,169340.6835801667,-64.33674621582031,-43.09652709960938,-541.3316650390625,169340.6975571667,0.08901676791419175,-1.352040387149967,1.331421728068636,0.06038182973861694,0.005184134934097528,-0.04301663115620613,-0.002640396356582642,0.001683592796325684,0.01548832654953003,1,0.5032029151916504,-0.4701703786849976,-0.358759880065918,0.6300936341285706,-0.2314446866512299,-0.9714864492416382,-0.05145328119397163,0,0,0,-1,169338.56576325,1,2,1561841522.512262,1561841239.621676,8,3.056457,0,0,7.575853,0,0,1561841413.282218,169337.656307,0,-0.2587891,75.19539,0,182478453,1,1,1,-37.17058,-44.2066,5
1561841524.426136,31,0,0,1561841523.996138,4.634561673742378,-74.15086012340537,2554.091,1.95,81.2109375,4,30,-9999,1561841524.343524,8.390510559082031,-17.18393325805664,19.0894775390625,204.2208404541016,211.7140502929688,15,169340.7228861667,-0.2301025390625,-0.9653472900390625,-0.03118896484375,169340.7228861667,0.03738305853755127,-0.02092099457533547,-0.03980999723894049,169340.7036911667,-64.15216064453125,-43.22041320800781,-541.4262084960938,169340.7178201667,0.09285533367627684,-1.356225989799644,1.332422646626645,0.04406357929110527,-0.03406739607453346,-0.04326510429382324,-0.001577168703079224,0.006894767284393311,0.02056801319122314,1,0.5036521553993225,-0.4703148305416107,-0.3588620722293854,0.6295683979988098,-0.2307073920965195,-0.9717232584953308,-0.05027693137526512,0,0,0,-1,169338.56576325,1,2,1561841522.512262,1561841239.621676,8,3.056457,0,0,7.575853,0,0,1561841413.282218,169337.656307,0,-0.2587891,75.19539,0,182478453,1,1,1,-37.17058,-44.97294,5
1561841524.446278,32,0,0,1561841523.996138,4.634561673742378,-74.15086012340537,2554.091,1.95,81.2109375,4,30,-9999,1561841524.444644,8.33685302734375,-17.04353332519531,19.19873046875,204.0724945068359,211.5657043457031,15,169340.7431501667,-0.229278564453125,-0.9615631103515625,-0.0338134765625,169340.7431501667,-0.001123321347795423,0.0335859234553163,-0.01741813879355425,169340.7238021667,-64.12959289550781,-42.98320007324219,-541.4140014648438,169340.7380541667,0.09426431978677204,-1.357869616541684,1.333320070874692,0.007918357849121094,0.01137545332312584,-0.03049631230533123,0.001193106174468994,0.008113384246826172,0.01866179704666138,1,0.5039545893669128,-0.4702903926372528,-0.3590637743473053,0.6292296051979065,-0.2299375981092453,-0.9719347953796387,-0.04971343651413918,0,0,0,-1,169338.56576325,1,2,1561841522.512262,1561841239.621676,8,3.056457,0,0,7.575853,0,0,1561841413.282218,169337.656307,0,-0.2587891,75.19539,0,182478453,1,1,1,-37.17058,-45.02145,5
1561841524.471261,33,0,0,1561841523.996138,4.634561673742378,-74.15086012340537,2554.091,1.95,81.2109375,4,30,-9999,1561841524.444644,8.33685302734375,-17.04353332519531,19.19873046875,204.0724945068359,211.5657043457031,15,169340.7633831667,-0.2208099365234375,-0.9542236328125,-0.0352783203125,169340.7633831667,-0.02827531392558929,0.05208210985813462,0.02064482477029425,169340.7439131667,-64.36164855957031,-43.07101440429688,-541.1759033203125,169340.7583171667,0.09300427089888121,-1.355925917746334,1.3334228777697,-0.02871608547866344,0.04804717749357224,0.01154248416423798,0.006155908107757568,0.01460731029510498,0.01542520523071289,1,0.5040377974510193,-0.4699749052524567,-0.3589969277381897,0.6294367909431458,-0.2297429442405701,-0.9719589352607727,-0.05013897269964218,0,0,0,-1,169338.56576325,1,2,1561841522.512262,1561841239.621676,8,3.056457,0,0,7.575853,0,0,1561841413.282218,169337.656307,0,-0.2587891,75.19539,0,182478453,1,1,1,-37.17058,-45.02728,5
1561841524.486897,34,0,0,1561841523.996138,4.634561673742378,-74.15086012340537,2554.091,1.95,81.2109375,4,30,-9999,1561841524.444644,8.33685302734375,-17.04353332519531,19.19873046875,204.0724945068359,211.5657043457031,15,169340.7836471667,-0.2226104736328125,-0.9608154296875,-0.0294952392578125,169340.7836471667,0.01321939901893532,-0.01208143028514446,0.01080151506525238,169340.7640241667,-64.101318359375,-43.45278930664062,-541.3683471679688,169340.7785811667,0.09157999449552162,-1.353910959598345,1.332975841025495,-0.00485922209918499,0.001027739606797695,0.01432042755186558,0.008599370718002319,0.01532602310180664,0.01952147483825684,1,0.5039320588111877,-0.469792366027832,-0.3588227033615112,0.6297569274902344,-0.2300654649734497,-0.9718537330627441,-0.05069522559642792,0,0,0,-1,169338.56576325,1,2,1561841522.512262,1561841239.621676,8,3.056457,0,0,7.575853,0,0,1561841413.282218,169337.656307,0,-0.2587891,75.19539,0,182478453,1,1,1,-37.17058,-45.02728,5
1561841524.507163,35,0,0,1561841523.996138,4.634561673742378,-74.15086012340537,2554.091,1.95,81.2109375,4,30,-9999,1561841524.494107,8.461715698242188,-16.9490966796875,19.23370361328125,204.0203399658203,211.5135498046875,15,169340.8039101667,-0.235626220703125,-0.9687957763671875,-0.0272369384765625,169340.8039101667,0.08472847008087096,-0.08007060133432238,-0.02570163504813671,169340.7841351667,-64.45175170898438,-42.97929382324219,-541.268310546875,169340.7988451667,0.09445925249219321,-1.357459024033436,1.333113125256686,0.06848929077386856,-0.07577142864465714,-0.01717384904623032,0.002178221940994263,0.007133841514587402,0.02252197265625,1,0.5040127635002136,-0.4701551795005798,-0.3588455021381378,0.629408597946167,-0.2301139980554581,-0.9718860983848572,-0.04985048249363899,0,0,0,-1,169338.56576325,1,2,1561841522.512262,1561841239.621676,8,3.056457,0,0,7.575853,0,0,1561841413.282218,169337.656307,0,-0.2587891,75.19539,0,182478453,1,1,1,-37.17058,-40.74207,5
1561841524.52744,36,0,0,1561841523.996138,4.634561673742378,-74.15086012340537,2554.091,1.95,81.2109375,4,30,-9999,1561841524.521692,8.615524291992188,-17.01002502441406,19.32843017578125,204.1150665283203,211.6082763671875,15,169340.8241741667,-0.2356719970703125,-0.971710205078125,-0.0375213623046875,169340.8241741667,0.05566885521425334,-0.06097760053121729,-0.03338645268966936,169340.8042161667,-64.04563903808594,-43.17292785644531,-541.0762939453125,169340.8191081667,0.1006232018840671,-1.365227750540159,1.334118639725723,0.06927599012851715,-0.08484828472137451,-0.04059155657887459,-0.00737038254737854,0.001525998115539551,0.01670336723327637,1,0.5043655037879944,-0.4708338677883148,-0.3591256737709045,0.6284582018852234,-0.2295376062393188,-0.9721223115921021,-0.04786181449890137,0,0,0,-1,169338.56576325,1,2,1561841522.512262,1561841239.621676,8,3.056457,0,0,7.575853,0,0,1561841413.282218,169337.656307,0,-0.2587891,75.19539,0,182478453,1,1,1,-37.17058,-41.71233,5
1561841524.551881,37,0,0,1561841523.996138,4.634561673742378,-74.15086012340537,2554.091,1.95,81.2109375,4,30,-9999,1561841524.521692,8.615524291992188,-17.01002502441406,19.32843017578125,204.1150665283203,211.6082763671875,15,169340.8444381667,-0.22467041015625,-0.963409423828125,-0.0466766357421875,169340.8444381667,-0.05604702408904459,0.03947710210268058,0.004693821421264658,169340.8243271667,-64.20222473144531,-42.86048889160156,-541.23291015625,169340.8393721667,0.1023882862016915,-1.367808912500085,1.334791700837741,-0.03139229491353035,0.008872613310813904,-0.007843464612960815,-0.001968443393707275,0.003606200218200684,0.004839837551116943,1,0.5045155882835388,-0.4710577726364136,-0.359397292137146,0.6280144453048706,-0.2290191054344177,-0.9722799062728882,-0.04713719338178635,0,0,0,-1,169338.56576325,1,2,1561841522.512262,1561841239.621676,8,3.056457,0,0,7.575853,0,0,1561841413.282218,169337.656307,0,-0.2587891,75.19539,0,182478453,1,1,1,-37.17058,-42.41082,5
1561841524.567951,38,0,0,1561841523.996138,4.634561673742378,-74.15086012340537,2554.091,1.95,81.2109375,4,30,-9999,1561841524.560186,8.507568359375,-17.01031112670898,19.2470703125,204.1571044921875,211.6503143310547,15,169340.8647011667,-0.2247467041015625,-0.951446533203125,-0.0496826171875,169340.8647011667,-0.09041245479542707,0.1071099421980059,0.04348223006605074,169340.8444381667,-64.19076538085938,-42.98501586914062,-541.4118041992188,169340.8596361667,0.09640933079709713,-1.360898720081584,1.334271429288882,-0.09978200495243073,0.09819876402616501,0.03281368315219879,0.004527390003204346,0.01476073265075684,-0.003696799278259277,1,0.5041965842247009,-0.4705037772655487,-0.3593982756137848,0.6286849975585938,-0.2291825711727142,-0.9721581339836121,-0.0488240011036396,0,0,0,-1,169338.56576325,1,2,1561841522.512262,1561841239.621676,8,3.056457,0,0,7.575853,0,0,1561841413.282218,169337.656307,0,-0.2587891,75.19539,0,182478453,1,1,1,-37.17058,-42.46695,5
1561841524.588213,39,0,0,1561841523.996138,4.634561673742378,-74.15086012340537,2554.091,1.95,81.2109375,4,30,-9999,1561841524.560186,8.507568359375,-17.01031112670898,19.2470703125,204.1571044921875,211.6503143310547,15,169340.884969,-0.2225494384765625,-0.945831298828125,-0.0333099365234375,169340.884969,0.04934411394142416,-0.01063027380716029,0.03012328140599527,169340.8645491667,-64.01475524902344,-42.80458068847656,-541.21533203125,169340.8798991667,0.09198217819629244,-1.354951702816297,1.333225834041788,-0.0007715364918112755,0.03042238019406796,0.03503928706049919,0.006934314966201782,0.02765297889709473,0.0088692307472229,1,0.5039140582084656,-0.4699667990207672,-0.3590227067470551,0.6295270919799805,-0.2298804819583893,-0.9719126224517822,-0.0504036583006382,0,0,0,-1,169340.8433701667,1,2,1561841524.789869,1561841239.621676,8,3.056457,0,0,7.575853,0,0,1561841413.282218,169337.656307,0,-0.2587891,75.19539,0,182478453,1,1,1,-37.17058,-42.96717,5
1561841524.60899,40,0,0,1561841523.996138,4.634561673742378,-74.15086012340537,2554.091,1.95,81.2109375,4,30,-9999,1561841524.596832,8.648712158203125,-16.89218902587891,19.04168701171875,204.0552978515625,211.5485076904297,15,169340.905233,-0.22393798828125,-0.9619293212890625,-0.0296478271484375,169340.905233,0.1901888502996818,-0.1272301242335545,0.02609311972837836,169340.884664,-64.15312194824219,-43.23876953125,-541.447509765625,169340.900136,0.1003324669331683,-1.364193818993265,1.333157340380591,0.1673450320959091,-0.1209005638957024,0.01714657433331013,0.006785064935684204,0.01654374599456787,0.01748329401016235,1,0.5041992664337158,-0.4707841277122498,-0.3587068617343903,0.6288679242134094,-0.2304026037454605,-0.9718964695930481,-0.04829081147909164,0,0,0,-1,169340.8433701667,1,2,1561841524.789869,1561841239.621676,8,3.056457,0,0,7.575853,0,0,1561841413.282218,169337.656307,0,-0.2587891,75.19539,0,182478453,1,1,1,-37.17058,-43.56725,5
1561841524.632853,41,0,0,1561841523.996138,4.634561673742378,-74.15086012340537,2554.091,1.95,81.2109375,4,30,-9999,1561841524.623915,8.728916168212891,-16.92353820800781,19.27142333984375,204.1785430908203,211.6717529296875,15,169340.925466,-0.231170654296875,-0.95513916015625,-0.0438385009765625,169340.925466,0.1847077984601897,-0.1051477251068355,0.02582520572271639,169340.904775,-63.885498046875,-43.00294494628906,-541.3397216796875,169340.9204,0.116871733054292,-1.383050510714558,1.333452593997525,0.1915268003940582,-0.1372928470373154,0.02279673703014851,0.002688050270080566,0.01246273517608643,0.006011962890625,1,0.5048056244850159,-0.4724713265895844,-0.3583467304706573,0.6273195147514343,-0.230990082025528,-0.9719659686088562,-0.04388425499200821,0,0,0,-1,169340.8433701667,1,2,1561841524.789869,1561841239.621676,8,3.056457,0,0,7.575853,0,0,1561841413.282218,169337.656307,0,-0.2587891,75.19539,0,182478453,1,1,1,-37.17058,-44.04424,5
1561841524.649018,42,0,0,1561841523.996138,4.634561673742378,-74.15086012340537,2554.091,1.95,81.2109375,4,30,-9999,1561841524.647409,8.540557861328125,-16.96078872680664,19.28131103515625,204.2032470703125,211.6964569091797,15,169340.94573,-0.2360992431640625,-0.946014404296875,-0.0598297119140625,169340.94573,0.005063468180567655,0.1344592750125746,0.06922061673723055,169340.924856,-64.17547607421875,-42.72593688964844,-541.401611328125,169340.940664,0.1300741305178907,-1.397309703676592,1.333430701507316,0.07551204413175583,0.03403229266405106,0.0474216565489769,-0.008636236190795898,0.02031588554382324,-0.005079686641693115,1,0.5053690075874329,-0.4736108481884003,-0.3578041791915894,0.6263155341148376,-0.2316133826971054,-0.9719607830047607,-0.04058986157178879,0,0,0,-1,169340.8433701667,1,2,1561841524.789869,1561841239.621676,8,3.056457,0,0,7.575853,0,0,1561841413.282218,169337.656307,0,-0.2587891,75.19539,0,182478453,1,1,1,-37.17058,-44.04424,5
1561841524.669341,43,0,0,1561841523.996138,4.634561673742378,-74.15086012340537,2554.091,1.95,81.2109375,4,30,-9999,1561841524.647409,8.540557861328125,-16.96078872680664,19.28131103515625,204.2032470703125,211.6964569091797,15,169340.965993,-0.221771240234375,-0.938323974609375,-0.1171722412109375,169340.965993,-0.3217266375964395,0.7466411800535251,0.228241427535279,169340.944967,-63.888427734375,-42.82931518554688,-541.5105590820312,169340.960927,0.1243820217533587,-1.386151846371424,1.331185005597795,-0.2557074129581451,0.5750153660774231,0.1717539876699448,0.02230784296989441,0.03061914443969727,-0.03507161140441895,1,0.5053670406341553,-0.4720360636711121,-0.3561716973781586,0.6284328699111938,-0.2332910895347595,-0.9714303016662598,-0.04357221722602844,0,0,0,-1,169340.8433701667,1,2,1561841524.789869,1561841239.621676,8,3.056457,0,0,7.575853,0,0,1561841413.282218,169337.656307,0,-0.2587891,75.19539,0,182478453,1,1,1,-37.17058,-44.28167,5
1561841524.689518,44,0,0,1561841523.996138,4.634561673742378,-74.15086012340537,2554.091,1.95,81.2109375,4,30,-9999,1561841524.673548,8.673500061035156,-16.94005584716797,18.91009521484375,203.6005554199219,211.0937652587891,15,169340.986257,-0.273162841796875,-0.8956146240234375,-0.2247772216796875,169340.986257,-0.2156614534940717,1.165202751730227,0.4968987214574914,169340.965078,-64.45365905761719,-43.44783020019531,-541.4267578125,169340.981191,0.102453102536762,-1.346873445362472,1.324003638303059,-0.3098779618740082,1.129110813140869,0.430313915014267,-0.01859360933303833,0.04662048816680908,-0.1162543296813965,1,0.5050567984580994,-0.4666839838027954,-0.3512981235980988,0.6353845000267029,-0.2381965219974518,-0.9697009325027466,-0.05424737930297852,0,0,0,-1,169340.8433701667,1,2,1561841524.789869,1561841239.621676,8,3.056457,0,0,7.575853,0,0,1561841413.282218,169337.656307,0,-0.2587891,75.19539,0,182478453,1,1,1,-37.17058,-44.32643,5
1561841524.709925,45,0,0,1561841523.996138,4.634561673742378,-74.15086012340537,2554.091,1.95,81.2109375,4,30,-9999,1561841524.698684,7.454490661621094,-17.46726226806641,19.05169677734375,202.1435089111328,209.63671875,15,169341.006521,-0.352752685546875,-0.8887786865234375,-0.153900146484375,169341.006521,0.4975027263927214,0.9199634322214081,0.5444694364290318,169340.985189,-65.01747131347656,-43.46694946289062,-541.5784301757812,169341.001455,0.1078793697231284,-1.329302118058187,1.313272262243382,0.2791983485221863,1.032743215560913,0.5751696228981018,-0.05743706226348877,0.09029924869537354,-0.1677894592285156,1,0.5061486959457397,-0.461907833814621,-0.3423599898815155,0.6428407430648804,-0.2472962290048599,-0.9670235514640808,-0.06090930104255676,0,0,0,-1,169340.8433701667,1,2,1561841524.789869,1561841239.621676,8,3.056457,0,0,7.575853,0,0,1561841413.282218,169337.656307,0,-0.2587891,75.19539,0,182478453,1,1,1,-37.17058,-40.78409,5
1561841524.730056,46,0,0,1561841523.996138,4.634561673742378,-74.15086012340537,2554.091,1.95,81.2109375,4,30,-9999,1561841524.724199,6.591667175292969,-17.18941879272461,19.7413330078125,200.7511901855469,208.2444000244141,15,169341.026784,-0.455474853515625,-0.9791259765625,-0.0485076904296875,169341.026784,1.230000923161272,0.2560461608962513,0.2937855503876551,169341.0053,-65.79522705078125,-43.4112548828125,-540.8672485351562,169341.021718,0.1706551567101908,-1.374731699809395,1.306706261393502,1.106453776359558,0.4246164560317993,0.3752020001411438,-0.15888711810112,0.04853665828704834,-0.02779209613800049,1,0.5110502243041992,-0.4619543552398682,-0.3319759964942932,0.6443739533424377,-0.2560299038887024,-0.9653304219245911,-0.05085168406367302,0,0,0,-1,169340.8433701667,1,2,1561841524.789869,1561841239.621676,8,3.056457,0,0,7.575853,0,0,1561841413.282218,169338.599487,0,0.02124023,75.19276,0,182478453,1,1,1,-37.17058,-41.55353,5
1561841524.750401,47,0,0,1561841523.996138,4.634561673742378,-74.15086012340537,2554.091,1.95,81.2109375,4,30,-9999,1561841524.74856,6.647285461425781,-16.88755416870117,19.93096923828125,200.2130889892578,207.706298828125,15,169341.047048,-0.59356689453125,-1.042831420898438,-0.1613006591796875,169341.047048,1.170669156183723,-0.2905905560278871,-0.09034534313595709,169341.025381,-65.93928527832031,-42.95234680175781,-540.4805908203125,169341.041982,0.2679626406289101,-1.466768609490133,1.306495684229056,1.225493311882019,-0.19707290828228,0.009684231132268906,-0.2572218179702759,-0.07038438320159912,-0.05824625492095947,1,0.5184804797172546,-0.4664918780326843,-0.3243797123432159,0.639015793800354,-0.2598222494125366,-0.9652754068374634,-0.02712664008140564,0,0,0,-1,169340.8433701667,1,2,1561841524.789869,1561841239.621676,8,3.056457,0,0,7.575853,0,0,1561841413.282218,169338.599487,0,0.02124023,75.19276,0,182478453,1,1,1,-37.17058,-41.84525,5
1561841524.770629,48,0,0,1561841523.996138,4.634561673742378,-74.15086012340537,2554.091,1.95,81.2109375,4,30,-9999,1561841524.74856,6.647285461425781,-16.88755416870117,19.93096923828125,200.2130889892578,207.706298828125,15,169341.067312,-0.7119598388671875,-0.9296112060546875,-0.212738037109375,169341.067312,1.163532683410638,-0.341775713230883,-0.4705259698146548,169341.045492,-66.03334045410156,-42.32318115234375,-540.20947265625,169341.062215,0.3563086879551224,-1.558963819557917,1.311659441544217,1.122423648834229,-0.3983538448810577,-0.3815189599990845,-0.4047667682170868,-0.02890241146087646,-0.2042281627655029,1,0.5256073474884033,-0.4714031517505646,-0.3219642043113708,0.6307575702667236,-0.2562287151813507,-0.9666115045547485,-0.003031969536095858,0,0,0,-1,169340.8433701667,1,2,1561841524.789869,1561841239.621676,8,3.056457,0,0,7.575853,0,0,1561841413.282218,169338.599487,0,0.02124023,75.19276,0,182478453,1,1,1,-37.17058,-42.17243,5
1561841524.791325,49,0,0,1561841523.996138,4.634561673742378,-74.15086012340537,2554.091,1.95,81.2109375,4,30,-9999,1561841524.775276,6.610153198242188,-16.18215179443359,20.3223876953125,200.28955078125,207.7827606201172,15,169341.087545,-0.84600830078125,-0.7774505615234375,-0.1534271240234375,169341.087545,1.498423326275339,0.1077368503186105,-0.850455993034776,169341.065603,-65.66639709472656,-42.08680725097656,-540.0582885742188,169341.082479,0.4577895408746774,-1.662104935672134,1.322235494091711,1.391489505767822,-0.02080973424017429,-0.7659627199172974,-0.5285594463348389,0.1152635812759399,-0.2083141803741455,1,0.5353875756263733,-0.4738944470882416,-0.3209687471389771,0.621098518371582,-0.2449849247932434,-0.9692674875259399,0.02243160642683506,0,0,0,-1,169340.8433701667,1,2,1561841524.789869,1561841239.621676,8,3.056457,0,0,7.575853,0,0,1561841413.282218,169338.599487,0,0.02124023,75.19276,0,182478453,1,1,1,-37.17058,-42.59434,5
1561841524.810938,50,0,0,1561841523.996138,4.634561673742378,-74.15086012340537,2554.091,1.95,81.2109375,4,30,-9999,1561841524.800069,7.30133056640625,-14.98333740234375,21.09527587890625,199.7570495605469,207.2502593994141,15,169341.107808,-0.98138427734375,-0.6421661376953125,-0.087249755859375,169341.107808,2.027641638089814,0.6778155101059533,-1.140226561763028,169341.085714,-65.28990173339844,-41.37547302246094,-539.576171875,169341.102743,0.606291496390293,-1.801566065205523,1.335597124002952,1.887542366981506,0.5112839937210083,-1.081482648849487,-0.6855406761169434,0.2676950097084045,-0.1795223951339722,1,0.5507462024688721,-0.4725774526596069,-0.317691445350647,0.6102632284164429,-0.2268585711717606,-0.9724679589271545,0.05330165475606918,0,0,0,-1,169340.8433701667,1,2,1561841524.789869,1561841239.621676,8,3.056457,0,0,7.575853,0,0,1561841413.282218,169338.599487,0,0.02124023,75.19276,0,182478453,1,1,1,-37.17058,-42.59434,5
1561841524.8322,51,0,0,1561841523.996138,4.634561673742378,-74.15086012340537,2554.091,1.95,81.2109375,4,30,-9999,1561841524.825532,7.221450805664062,-13.876708984375,21.32879638671875,198.1053161621094,205.5985260009766,15,169341.128072,-1.13897705078125,-0.5585174560546875,-0.0471649169921875,169341.128072,2.428166418651736,1.034529692839418,-1.408519002615899,169341.105825,-65.53495788574219,-40.26229858398438,-539.06640625,169341.123006,0.8202853051135329,-1.99374808315271,1.34467564934078,2.341005563735962,1.000683784484863,-1.311825633049011,-0.8516793847084045,0.3743847608566284,-0.1469852924346924,1,0.5720797777175903,-0.4676925241947174,-0.3102766871452332,0.5980942845344543,-0.2044424116611481,-0.9745434522628784,0.09202314168214798,0,0,0,-1,169340.8433701667,1,2,1561841524.789869,1561841239.621676,8,3.056457,0,0,7.575853,0,0,1561841413.282218,169338.599487,0,0.02124023,75.19276,0,182478453,1,1,1,-37.17058,-42.59673,5
1561841524.851577,52,0,0,1561841523.996138,4.634561673742378,-74.15086012340537,2554.091,1.95,81.2109375,4,30,-9999,1561841524.850414,7.158782958984375,-12.68484115600586,22.36962890625,196.0098114013672,203.5030212402344,15,169341.148336,-1.067657470703125,-0.4660797119140625,-0.0286407470703125,169341.148336,2.906290919688605,0.7530681867122133,-1.776124715259461,169341.125905,-65.32406616210938,-39.28558349609375,-538.4671630859375,169341.14327,1.087874393575961,-2.234542287213924,1.344521335464697,2.76041054725647,0.8733692169189453,-1.71538770198822,-0.9548135995864868,0.4697786569595337,-0.1706550121307373,1,0.5974483489990234,-0.4606114327907562,-0.3016043603420258,0.5830328464508057,-0.1767171323299408,-0.9745088815689087,0.1382148414850235,0,0,0,-1,169340.8433701667,1,2,1561841524.789869,1561841239.621676,8,3.056457,0,0,7.575853,0,0,1561841413.282218,169338.599487,0,0.02124023,75.19276,0,182478453,1,1,1,-37.17058,-43.41619,5
1561841524.871944,53,0,0,1561841523.996138,4.634561673742378,-74.15086012340537,2554.091,1.95,81.2109375,4,30,-9999,1561841524.850414,7.158782958984375,-12.68484115600586,22.36962890625,196.0098114013672,203.5030212402344,15,169341.1686,-0.995361328125,-0.3808746337890625,0.0185699462890625,169341.1686,3.689766547095125,0.4175112209427744,-1.86370463191948,169341.146017,-65.39228820800781,-37.84072875976562,-537.6270751953125,169341.163534,1.387710958201793,-2.513384388433126,1.324715118302082,3.480113744735718,0.4387480020523071,-1.85837709903717,-0.8851243853569031,0.5411025285720825,-0.2183057069778442,1,0.6256805658340454,-0.455051451921463,-0.2938502728939056,0.5613411664962769,-0.1431654095649719,-0.9698745012283325,0.1970959901809692,0,0,0,-1,169340.8433701667,1,2,1561841524.789869,1561841239.621676,8,3.056457,0,0,7.575853,0,0,1561841413.282218,169338.599487,0,0.02124023,75.19276,0,182478453,1,1,1,-37.17058,-43.86522,5
1561841524.89207,54,0,0,1561841523.996138,4.634561673742378,-74.15086012340537,2554.091,1.95,81.2109375,4,30,-9999,1561841524.876092,7.241966247558594,-11.07955932617188,23.0218505859375,194.4904022216797,201.9836120605469,15,169341.188863,-0.9673004150390625,-0.4057769775390625,0.1811676025390625,169341.188863,4.377108184420292,0.7919522028401333,-1.952747689282388,169341.166128,-65.56529235839844,-35.89065551757812,-536.8303833007812,169341.183797,1.654761961336018,-2.761108137004477,1.27385788118239,4.247362613677979,0.6438787579536438,-1.923998236656189,-0.8807953000068665,0.586272120475769,-0.1827564239501953,1,0.6572564840316772,-0.4514959752559662,-0.2833432853221893,0.5328057408332825,-0.1086608693003654,-0.9562367796897888,0.2716694176197052,0,0,0,-1,169340.8433701667,1,2,1561841524.789869,1561841239.621676,8,3.056457,0,0,7.575853,0,0,1561841413.282218,169338.599487,0,0.02124023,75.19276,0,182478453,1,1,1,-37.17058,-38.18432,5
1561841524.912374,55,0,0,1561841523.996138,4.634561673742378,-74.15086012340537,2554.091,1.95,81.2109375,4,30,-9999,1561841524.900336,7.080665588378906,-6.725475311279297,24.5816650390625,192.7300262451172,200.2232360839844,15,169341.209127,-0.8534393310546875,-0.5043792724609375,0.2947998046875,169341.209127,4.214396764983611,1.142261216835848,-1.982812114828292,169341.186239,-65.59007263183594,-33.52949523925781,-536.1970825195312,169341.204061,1.850691308486135,-2.928180377182633,1.200040881890131,4.367189884185791,1.095283508300781,-1.984105944633484,-0.8561693429946899,0.4744275808334351,-0.09622597694396973,1,0.6917194128036499,-0.4456164240837097,-0.2675265371799469,0.5013777613639832,-0.07673773169517517,-0.9320539236068726,0.3540994822978973,0,0,0,-1,169340.8433701667,1,2,1561841524.789869,1561841239.621676,8,3.056457,0,0,7.575853,0,0,1561841413.282218,169338.599487,0,0.02124023,75.19276,0,182478453,1,1,1,-37.17058,-39.03906,5
1561841524.932762,56,0,0,1561841523.996138,4.634561673742378,-74.15086012340537,2554.091,1.95,81.2109375,4,30,-9999,1561841524.926789,6.876968383789062,-4.339971542358398,24.7529296875,190.5772094726562,198.0704193115234,15,169341.229391,-0.602783203125,-0.5303192138671875,0.2772674560546875,169341.229391,3.08649824222267,0.7351986421138906,-1.925456147063474,169341.20635,-65.63066101074219,-30.9547119140625,-535.723876953125,169341.224294,1.983688681316172,-3.028604173317292,1.127573074901526,3.405153036117554,0.897979736328125,-1.971762299537659,-0.6769893169403076,0.3857196569442749,-0.1251702308654785,1,0.722875714302063,-0.4364749193191528,-0.2519755959510803,0.4727036654949188,-0.04835250973701477,-0.9033740758895874,0.4261192977428436,0,0,0,-1,169340.8433701667,1,2,1561841524.789869,1561841239.621676,8,3.056457,0,0,7.575853,0,0,1561841413.282218,169338.599487,0,0.02124023,75.19276,0,182478453,1,1,1,-37.17058,-39.60826,5
1561841524.952891,57,0,0,1561841523.996138,4.634561673742378,-74.15086012340537,2554.091,1.95,81.2109375,4,30,-9999,1561841524.951396,6.464897155761719,-2.115324020385742,25.3797607421875,189.4828796386719,196.9760894775391,15,169341.249624,-0.347259521484375,-0.5606231689453125,0.274078369140625,169341.249624,2.026350803909453,0.2972705629901328,-1.696839480130603,169341.226461,-66.08551025390625,-28.59674072265625,-535.1473999023438,169341.244558,2.076886437206503,-3.099498269913195,1.073982268003866,2.237890481948853,0.3630540370941162,-1.757191896438599,-0.4493944942951202,0.3300027847290039,-0.2224210500717163,1,0.745644748210907,-0.4267511069774628,-0.2440064251422882,0.4498425722122192,-0.02005741186439991,-0.8791055083274841,0.4762051999568939,0,0,0,-1,169340.8433701667,1,2,1561841524.789869,1561841239.621676,8,3.056457,0,0,7.575853,0,0,1561841413.282218,169338.599487,0,0.02124023,75.19276,0,182478453,1,1,1,-37.17058,-39.96151,5
1561841524.973157,58,0,0,1561841523.996138,4.634561673742378,-74.15086012340537,2554.091,1.95,81.2109375,4,30,-9999,1561841524.951396,6.464897155761719,-2.115324020385742,25.3797607421875,189.4828796386719,196.9760894775391,15,169341.269887,-0.1065826416015625,-0.6127471923828125,0.3345489501953125,169341.269887,1.626758662361277,0.07986101055653314,-1.500345862266268,169341.246572,-66.35804748535156,-27.39013671875,-534.93994140625,169341.264821,2.14553062226633,3.128856675422348,1.036101461479605,1.6669682264328,0.1422082185745239,-1.529808282852173,-0.2467851936817169,0.2876702547073364,-0.1954655647277832,1,0.7617283463478088,-0.4177780747413635,-0.2414049953222275,0.4323829710483551,0.006489805411547422,-0.8604241609573364,0.5095371603965759,0,0,0,-1,169340.8433701667,1,2,1561841524.789869,1561841239.621676,8,3.056457,0,0,7.575853,0,0,1561841413.282218,169338.599487,0,0.02124023,75.19276,0,182478453,1,1,1,-37.17058,-39.96151,5
1561841524.993408,59,0,0,1561841523.996138,4.634561673742378,-74.15086012340537,2554.091,1.95,81.2109375,4,30,-9999,1561841524.977458,6.321456909179688,-1.002832412719727,25.608154296875,189.2069854736328,196.7001953125,15,169341.290151,0.2537689208984375,-0.73907470703125,0.316802978515625,169341.290151,1.530067538979879,-0.3946788756530891,-1.450659798440877,169341.266683,-66.33145141601562,-26.09994506835938,-534.7212524414062,169341.285085,2.201465909377639,3.080400234268763,1.002811696043733,1.529330253601074,-0.2768673598766327,-1.495091557502747,0.03895670175552368,0.1658170223236084,-0.195313572883606,1,0.7747719287872314,-0.4101123511791229,-0.2415253669023514,0.4161752164363861,0.03289695456624031,-0.8429868221282959,0.536927342414856,0,0,0,-1,169340.8433701667,1,2,1561841524.789869,1561841239.621676,8,3.056457,0,0,7.575853,0,0,1561841413.282218,169338.599487,0,0.02124023,75.19276,0,182478453,1,1,1,-33.1761,-33.1761,5
1561841525.01361,60,0,0,1561841523.996138,4.634561673742378,-74.15086012340537,2554.091,1.95,81.2109375,4,30,-9999,1561841525.001864,6.537521362304688,1.286954879760742,25.74267578125,189.7912750244141,197.2844848632812,15,169341.310415,0.32940673828125,-0.8461456298828125,0.302398681640625,169341.310415,1.874059801186035,-0.0512109898655697,-1.098563004405392,169341.286794,-66.22085571289062,-24.97032165527344,-534.6597900390625,169341.305349,2.245974558714693,3.036047881218819,0.9681048782626577,1.771983027458191,-0.204565703868866,-1.155210375785828,0.2704819440841675,0.03818362951278687,-0.2893390655517578,1,0.7861025333404541,-0.4048413038253784,-0.2433052361011505,0.3986839354038239,0.05971827730536461,-0.8238129019737244,0.5637073516845703,0,0,0,-1,169340.8433701667,1,2,1561841524.789869,1561841239.621676,8,3.056457,0,0,7.575853,0,0,1561841413.282218,169338.599487,0,0.02124023,75.19276,0,182478453,1,1,1,-29.66167,-32.85736,5
1561841525.034053,61,0,0,1561841523.996138,4.634561673742378,-74.15086012340537,2554.091,1.95,81.2109375,4,30,-9999,1561841525.028188,6.551597595214844,2.604001998901367,25.77130126953125,190.1369018554688,197.6301116943359,15,169341.330678,0.467254638671875,-0.98236083984375,0.5417633056640625,169341.330678,2.440627615708326,0.1395182158192891,-1.193797378670516,169341.306905,-66.2313232421875,-23.96244812011719,-534.96533203125,169341.325612,2.27637250340027,3.012249174187206,0.9249125338535487,2.301266431808472,0.1733328551054001,-1.164133906364441,0.3135692477226257,-0.1154943704605103,-0.2007589340209961,1,0.798724353313446,-0.4005969762802124,-0.2391626834869385,0.3799511194229126,0.07763557881116867,-0.7985681295394897,0.5968770384788513,0,0,0,-1,169340.8433701667,1,2,1561841524.789869,1561841239.621676,8,3.056457,0,0,7.575853,0,0,1561841413.282218,169338.599487,0,0.02124023,75.19276,0,182478453,1,1,1,-29.66167,-33.71356,5
1561841525.054179,62,0,0,1561841524.996124,4.63456640951767,-74.15084126412323,2554.072,1.95,86.1328125,4,30,-9999,1561841525.052531,6.256607055664062,4.020248413085938,25.78118896484375,190.6650238037109,198.1582336425781,15,169341.350942,0.6041107177734375,-1.088912963867188,0.764373779296875,169341.350942,2.281851549414456,-0.2509004010380002,-1.140162645896866,169341.327016,-66.33950805664062,-22.42996215820312,-534.6666259765625,169341.345876,2.303670999888302,2.99132283591462,0.8719924261962744,2.454497098922729,-0.1904360502958298,-1.174954891204834,0.4330218434333801,-0.2867254614830017,0.06731629371643066,1,0.8128205537796021,-0.3966726660728455,-0.2334744483232498,0.3570199608802795,0.09630554169416428,-0.7656121850013733,0.6360529065132141,0,0,0,-1,169340.8433701667,1,2,1561841524.789869,1561841239.621676,8,3.056457,0,0,7.575853,0,0,1561841413.282218,169338.599487,0,0.02124023,75.19276,0,182478453,1,1,1,-29.66167,-34.37516,5
1561841525.074477,63,0,0,1561841524.996124,4.63456640951767,-74.15084126412323,2554.072,1.95,86.1328125,4,30,-9999,1561841525.052531,6.256607055664062,4.020248413085938,25.78118896484375,190.6650238037109,198.1582336425781,15,169341.371206,0.702484130859375,-0.999603271484375,0.765594482421875,169341.371206,0.9903262787501736,0.1092591131976998,-1.02181549547927,169341.347127,-66.72697448730469,-20.88133239746094,-534.6215209960938,169341.36614,2.327507777591808,2.96934706958554,0.8291432615164532,1.309268116950989,-0.058785080909729,-1.04494309425354,0.5413715839385986,-0.3287177085876465,0.1012272834777832,1,0.8236740827560425,-0.3928317725658417,-0.2311719506978989,0.3373479545116425,0.1157786995172501,-0.7373529076576233,0.6655116081237793,0,0,0,-1,169340.8433701667,1,2,1561841524.789869,1561841239.621676,8,3.056457,0,0,7.575853,0,0,1561841413.282218,169338.599487,0,0.02124023,75.19276,0,182478453,1,1,1,-29.66167,-35.1549,5
1561841525.094703,64,0,0,1561841524.996124,4.63456640951767,-74.15084126412323,2554.072,1.95,86.1328125,4,30,-9999,1561841525.078664,6.108390808105469,5.492406845092773,25.60107421875,191.2801818847656,198.7733917236328,15,169341.391469,0.767181396484375,-0.9553985595703125,0.9754638671875,169341.391469,0.3261272449816864,0.5590859297558227,-1.011238218577803,169341.367238,-66.63563537597656,-19.88638305664062,-534.8677368164062,169341.386373,2.352626326825572,2.956523635377013,0.8095305101128455,0.4546230435371399,0.5471543669700623,-0.9874346852302551,0.617963433265686,-0.2452749013900757,0.1638301610946655,1,0.830980658531189,-0.3853572905063629,-0.2291156351566315,0.3293582201004028,0.1269401460886002,-0.7239633798599243,0.6780582070350647,0,0,0,-1,169340.8433701667,1,2,1561841524.789869,1561841239.621676,8,3.056457,0,0,7.575853,0,0,1561841413.282218,169338.599487,0,0.02124023,75.19276,0,182478453,1,1,1,-29.66167,-36.05817,5
1561841525.115382,65,0,0,1561841524.996124,4.63456640951767,-74.15084126412323,2554.072,1.95,86.1328125,4,30,-9999,1561841525.103276,5.45855712890625,6.808313369750977,25.72125244140625,190.4974975585938,197.9907073974609,15,169341.411703,0.896636962890625,-0.706268310546875,1.069549560546875,169341.411703,-0.1095312882611059,0.1630238082325465,-0.9420815177067342,169341.38735,-66.94715881347656,-19.4656982421875,-534.7576904296875,169341.406637,2.380923716846382,2.945691771631094,0.8015635463133417,-0.0246718917042017,0.2905710339546204,-1.011715054512024,0.6947587132453918,-0.1408999562263489,0.3629168272018433,1,0.8366978168487549,-0.3756016790866852,-0.2277470529079437,0.3270955085754395,0.1353956758975983,-0.7184445261955261,0.6822797060012817,0,0,0,-1,169340.8433701667,1,2,1561841524.789869,1561841239.621676,8,3.056457,0,0,7.575853,0,0,1561841413.282218,169338.599487,0,0.02124023,75.19276,0,182478453,1,1,1,-29.66167,-36.96733,5
1561841525.135342,66,0,0,1561841524.996124,4.63456640951767,-74.15084126412323,2554.072,1.95,86.1328125,4,30,-9999,1561841525.129398,5.202056884765625,6.940517425537109,25.52587890625,190.2383728027344,197.7315826416016,15,169341.431966,0.924957275390625,-0.287750244140625,1.053924560546875,169341.431966,-0.01085983829312512,-0.2839979007493959,-0.6009902368760015,169341.407461,-67.58639526367188,-19.06826782226562,-534.8555297851562,169341.4269,2.406380558642403,2.92780952804917,0.8011167693616199,-0.1742954701185226,-0.2215798497200012,-0.6949370503425598,0.7660084366798401,0.211313009262085,0.3804382085800171,1,0.8394668698310852,-0.3678679168224335,-0.2310145646333694,0.3264977037906647,0.1476420909166336,-0.7181336879730225,0.6800628304481506,0,0,0,-1,169340.8433701667,1,2,1561841524.789869,1561841239.621676,8,3.056457,0,0,7.575853,0,0,1561841413.282218,169338.599487,0,0.02124023,75.19276,0,182478453,1,1,1,-29.66167,-36.96733,5
1561841525.155489,67,0,0,1561841524.996124,4.63456640951767,-74.15084126412323,2554.072,1.95,86.1328125,4,30,-9999,1561841525.154335,5.041610717773438,7.186059951782227,25.55169677734375,191.1503601074219,198.6435699462891,15,169341.45223,0.911468505859375,0.0166778564453125,1.25372314453125,169341.45223,1.296981821421746,-0.6530110940290643,-0.27085919551149,169341.427572,-67.69952392578125,-19.07321166992188,-534.9255981445312,169341.447164,2.418853336327149,2.911763556639499,0.7927031959974999,0.9626258611679077,-0.5096739530563354,-0.3438520133495331,0.7619997262954712,0.5988194942474365,0.44203782081604,1,0.8415545225143433,-0.3654023408889771,-0.2345331013202667,0.3213430643081665,0.1599057614803314,-0.7122533321380615,0.6834657788276672,0,0,0,-1,169340.8433701667,1,2,1561841524.789869,1561841239.621676,8,3.056457,0,0,7.575853,0,0,1561841413.282218,169338.599487,0,0.02124023,75.19276,0,182478453,1,1,1,-29.66167,-37.58406,5
1561841525.175838,68,0,0,1561841524.996124,4.63456640951767,-74.15084126412323,2554.072,1.95,86.1328125,4,30,-9999,1561841525.154335,5.041610717773438,7.186059951782227,25.55169677734375,191.1503601074219,198.6435699462891,15,169341.472494,0.9320220947265625,0.2905120849609375,1.388641357421875,169341.472494,1.433900525701008,-1.247693633863213,0.418202843877868,169341.447683,-67.27568054199219,-18.62242126464844,-535.218505859375,169341.467428,2.413606158092524,2.897513757950309,0.7629589324012921,1.706377744674683,-1.320319652557373,0.1220581829547882,0.7427470088005066,0.8455278873443604,0.6695394515991211,1,0.8447216153144836,-0.370311975479126,-0.2371372878551483,0.3050908148288727,0.1746724247932434,-0.6910631656646729,0.7013711333274841,0,0,0,-1,169340.8433701667,1,2,1561841524.789869,1561841239.621676,8,3.056457,0,0,7.575853,0,0,1561841413.282218,169338.599487,0,0.02124023,75.19276,0,182478453,1,1,1,-29.66167,-38.10537,5
1561841525.196025,69,0,0,1561841524.996124,4.63456640951767,-74.15084126412323,2554.072,1.95,86.1328125,4,30,-9999,1561841525.180123,5.536430358886719,7.725269317626953,25.123779296875,351.4768371582031,358.9700317382812,15,169341.492757,0.9524688720703125,0.643035888671875,1.317169189453125,169341.492757,-1.15004563670215,-0.9441425380743464,2.243453027553258,169341.467794,-66.62518310546875,-17.999755859375,-535.75927734375,169341.487691,2.385183572675002,2.895131448732249,0.753113112334129,-0.604289174079895,-0.8908790946006775,1.786383867263794,0.8012385964393616,1.167235374450684,0.7010366916656494,1,0.8409731984138489,-0.3827828764915466,-0.2409806698560715,0.2969337999820709,0.1779942214488983,-0.6839132905006409,0.7075173258781433,0,0,0,-1,169340.8433701667,1,2,1561841524.789869,1561841239.621676,8,3.056457,0,0,7.575853,0,0,1561841413.282218,169338.599487,0,0.02124023,75.19276,0,182478453,1,1,1,-29.66167,-38.20862,5
1561841525.2167,70,0,0,1561841524.996124,4.63456640951767,-74.15084126412323,2554.072,1.95,86.1328125,4,30,-9999,1561841525.204487,6.91473388671875,8.059175491333008,24.69378662109375,195.6476898193359,203.1408996582031,15,169341.513021,0.7881317138671875,1.180755615234375,1.177032470703125,169341.513021,-1.54731203967036,-1.840245644825299,3.738065902940911,169341.487905,-66.15931701660156,-17.53819274902344,-535.870361328125,169341.507955,2.322157360391065,2.915175175594605,0.7925839819663453,-1.681123495101929,-1.624258279800415,3.378227233886719,0.7505956888198853,1.569637298583984,0.576362133026123,1,0.8233599066734314,-0.4051216542720795,-0.2483658194541931,0.3102731108665466,0.1575922071933746,-0.7121696472167969,0.6840901970863342,0,0,0,-1,169340.8433701667,1,2,1561841524.789869,1561841239.621676,8,3.056457,0,0,7.575853,0,0,1561841413.282218,169338.599487,0,0.02124023,75.19276,0,182478453,1,1,1,-29.66167,-38.54802,5
1561841525.236585,71,0,0,1561841524.996124,4.63456640951767,-74.15084126412323,2554.072,1.95,86.1328125,4,30,-9999,1561841525.231846,8.262313842773438,6.772642135620117,24.8548583984375,198.721435546875,206.2146453857422,15,169341.533285,0.536773681640625,1.690704345703125,1.033737182617188,169341.533285,-0.6734074458696542,-2.547767118994432,5.775876555337084,169341.508016,-64.473388671875,-18.79676818847656,-535.8430786132812,169341.528188,2.209460639121051,2.956047295625285,0.8358276595347953,-0.8546081781387329,-2.414033174514771,5.131608009338379,0.5367540121078491,2.239822387695312,0.4549285173416138,1,0.7960531115531921,-0.442523181438446,-0.2572334110736847,0.3229610323905945,0.1237074285745621,-0.7418517470359802,0.6590546369552612,0,0,0,-1,169340.8433701667,1,2,1561841524.789869,1561841239.621676,8,3.056457,0,0,7.575853,0,0,1561841413.282218,169338.599487,0,0.02124023,75.19276,0,182478453,1,1,1,-29.66167,-39.45568,5
1561841525.256759,72,0,0,1561841524.996124,4.63456640951767,-74.15084126412323,2554.072,1.95,86.1328125,4,30,-9999,1561841525.25512,10.24189758300781,5.477956771850586,24.3355712890625,203.5737457275391,211.0669555664062,15,169341.553548,0.2437591552734375,1.775177001953125,0.7716064453125,169341.553548,-0.3955808883142989,-2.68462004319477,8.802623050078301,169341.528127,-63.1376953125,-20.32429504394531,-535.9698486328125,169341.548452,2.013033626646272,3.050775624576931,0.8659205615177833,-0.4007392823696136,-2.723093748092651,8.041563987731934,0.3630661964416504,2.531345367431641,0.2452492713928223,1,0.7560303807258606,-0.5010513663291931,-0.2589689195156097,0.3321153521537781,0.058763038367033,-0.7616920471191406,0.6452687978744507,0,0,0,-1,169340.8433701667,1,2,1561841524.789869,1561841239.621676,8,3.056457,0,0,7.575853,0,0,1561841413.282218,169338.599487,0,0.02124023,75.19276,0,182478453,1,1,1,-29.66167,-40.28596,5
1561841525.277039,73,0,0,1561841524.996124,4.63456640951767,-74.15084126412323,2554.072,1.95,86.1328125,4,30,-9999,1561841525.25512,10.24189758300781,5.477956771850586,24.3355712890625,203.5737457275391,211.0669555664062,15,169341.573781,-0.33770751953125,1.664947509765625,0.6185302734375,169341.573781,-0.9758365518912705,-2.626055266611164,10.96466031363064,169341.548238,-60.76942443847656,-21.88079833984375,-536.2211303710938,169341.568715,1.715846558822239,-3.058773433067108,0.8773773909298553,-0.7737586498260498,-2.661165952682495,10.5765323638916,0.02841529250144958,2.508185863494873,0.04307389259338379,1,0.695766806602478,-0.5782719254493713,-0.2492028921842575,0.3455548286437988,-0.05287511274218559,-0.769065260887146,0.6369797587394714,0,0,0,-1,169340.8433701667,1,2,1561841524.789869,1561841239.621676,8,3.056457,0,0,7.575853,0,0,1561841413.282218,169338.599487,0,0.02124023,75.19276,0,182478453,1,1,1,-29.66167,-40.28596,5
1561841525.298695,74,0,0,1561841524.996124,4.63456640951767,-74.15084126412323,2554.072,1.95,86.1328125,4,30,-9999,1561841525.281337,14.95582962036133,0.4521465301513672,22.91400146484375,208.6447906494141,216.1380004882812,15,169341.594045,-0.9658660888671875,1.414962768554688,0.67437744140625,169341.594045,-1.771037811261301,-1.995819792540567,11.77947042810692,169341.568349,-58.34608459472656,-24.40794372558594,-536.890380859375,169341.588979,1.363115347347505,-2.840590686973361,0.8577782256411158,-1.603994369506836,-2.288601636886597,11.65105724334717,-0.4668349921703339,2.306821346282959,0.008422613143920898,1,0.6148881316184998,-0.6589899659156799,-0.2334003150463104,0.3649234473705292,-0.1939316093921661,-0.7563911080360413,0.6247103810310364,0,0,0,-1,169340.8433701667,1,2,1561841524.789869,1561841239.621676,8,3.056457,0,0,7.575853,0,0,1561841413.282218,169338.599487,0,0.02124023,75.19276,0,182478453,1,1,1,-29.66167,-41.00365,5
1561841525.317462,75,0,0,1561841524.996124,4.63456640951767,-74.15084126412323,2554.072,1.95,86.1328125,4,30,-9999,1561841525.306214,15.97687911987305,-3.887624740600586,22.1488037109375,213.3142700195312,220.8074798583984,15,169341.614309,-1.396575927734375,1.029861450195312,0.7509918212890625,169341.614309,-2.118833866452416,-1.24654554511728,11.7132834181674,169341.58846,-56.62501525878906,-28.67889404296875,-538.366943359375,169341.609243,1.01574034648842,-2.619327383558435,0.7970002452192708,-2.108255624771118,-1.320545315742493,11.7908353805542,-0.8494540452957153,1.956504344940186,0.08777427673339844,1,0.520552933216095,-0.7292945981025696,-0.211847648024559,0.3902237415313721,-0.3486202955245972,-0.7152628898620605,0.6056919097900391,0,0,0,-1,169340.8433701667,1,2,1561841524.789869,1561841239.621676,8,3.056457,0,0,7.575853,0,0,1561841413.282218,169338.599487,0,0.02124023,75.19276,0,182478453,1,1,1,-29.66167,-41.5974,5
1561841525.337865,76,0,0,1561841524.996124,4.63456640951767,-74.15084126412323,2554.072,1.95,86.1328125,4,30,-9999,1561841525.332101,15.62617874145508,-8.788448333740234,21.32568359375,217.3330078125,224.8262176513672,15,169341.634572,-1.555160522460938,0.4954071044921875,0.8184967041015625,169341.634572,-2.255140576313179,-1.698925534212462,11.439373038995,169341.608571,-56.62539672851562,-33.43537902832031,-539.045166015625,169341.629506,0.7186024720405019,-2.443810404766005,0.6963477544024304,-2.186655521392822,-1.546833276748657,11.48452377319336,-1.029236316680908,1.413118004798889,0.2621170282363892,1,0.4197959005832672,-0.7859442234039307,-0.1871611922979355,0.4135622680187225,-0.4929347634315491,-0.6414200067520142,0.5878738164901733,0,0,0,-1,169340.8433701667,1,2,1561841524.789869,1561841239.621676,8,3.056457,0,0,7.575853,0,0,1561841413.282218,169338.599487,0,0.02124023,75.19276,0,182478453,1,1,1,-29.66167,-42.44934,5
1561841525.358069,77,0,0,1561841524.996124,4.63456640951767,-74.15084126412323,2554.072,1.95,86.1328125,4,30,-9999,1561841525.356396,14.2133903503418,-13.14997100830078,20.090576171875,107.1875305175781,114.6807327270508,15,169341.654836,-1.80377197265625,0.2514190673828125,0.655853271484375,169341.654836,-2.325637379844776,-2.297151942509179,11.6957694055746,169341.628683,-57.90476989746094,-37.93194580078125,-540.1701049804688,169341.64977,0.468601437945167,-2.331843643452644,0.570661698922906,-2.400511980056763,-2.019425868988037,11.57711982727051,-1.035661220550537,0.8841984272003174,0.1627376079559326,1,0.3126096725463867,-0.8321497440338135,-0.1638969331979752,0.4277145862579346,-0.6093736290931702,-0.5401890277862549,0.5803959965705872,0,0,0,-1,169340.8433701667,1,2,1561841524.789869,1561841239.621676,8,3.056457,0,0,7.575853,0,0,1561841413.282218,169338.599487,0,0.02124023,75.19276,0,182478453,1,1,1,-29.66167,-35.63079,5
1561841525.378431,78,0,0,1561841524.996124,4.63456640951767,-74.15084126412323,2554.072,1.95,86.1328125,4,30,-9999,1561841525.356396,14.2133903503418,-13.14997100830078,20.090576171875,107.1875305175781,114.6807327270508,15,169341.6751,-2.801910400390625,-0.0165252685546875,0.680999755859375,169341.6751,-1.014137602056572,-2.719722370574777,11.09389393395226,169341.648794,-60.02157592773438,-42.24491882324219,-541.1851806640625,169341.670034,0.253906185275369,-2.283382447519375,0.4208204396268077,-1.26688289642334,-3.1753990650177,11.58542251586914,-1.391770958900452,0.5533000826835632,0.003604888916015625,1,0.1987930685281754,-0.8711242079734802,-0.1368807554244995,0.4276536703109741,-0.6906570196151733,-0.4085094630718231,0.5967521667480469,0,0,0,-1,169340.8433701667,1,2,1561841524.789869,1561841239.621676,8,3.056457,0,0,7.575853,0,0,1561841413.282218,169338.599487,0,0.02124023,75.19276,0,182478453,1,1,1,-29.66167,-36.58356,5
1561841525.398962,79,0,0,1561841524.996124,4.63456640951767,-74.15084126412323,2554.072,1.95,86.1328125,4,30,-9999,1561841525.383107,9.139007568359375,-20.27022552490234,17.9005126953125,121.3801803588867,128.8733825683594,15,169341.695363,-3.984909057617188,-1.145401000976562,0.5691680908203125,169341.695363,-3.549271217471886,2.884755533849789,6.902730320002388,169341.668905,-62.71711730957031,-45.62797546386719,-542.319091796875,169341.690267,0.08971655505469124,-2.254136094250965,0.2837142980765072,-2.600712537765503,1.522103309631348,8.01088809967041,-2.928857803344727,-0.1516867280006409,0.1856640577316284,1,0.1007292121648788,-0.8904640078544617,-0.1085033565759659,0.4302957952022552,-0.7444669008255005,-0.2799233794212341,0.6061450242996216,0,0,0,-1,169340.8433701667,1,2,1561841524.789869,1561841239.621676,8,3.056457,0,0,7.575853,0,0,1561841413.282218,169338.599487,0,0.02124023,75.19276,0,182478453,1,1,1,-29.66167,-37.1158,5
1561841525.418959,80,0,0,1561841524.996124,4.63456640951767,-74.15084126412323,2554.072,1.95,86.1328125,4,30,-9999,1561841525.407295,5.534027099609375,-22.64983367919922,16.8333740234375,132.0657196044922,139.5589294433594,15,169341.715597,-4.499053955078125,-1.517669677734375,0.13079833984375,169341.715597,-2.790180558270567,1.601986204217469,4.333039792598314,169341.689016,-66.08163452148438,-48.15660095214844,-543.1839599609375,169341.710531,-0.05097626672331081,-2.155355494567407,0.2283109369414096,-3.735091686248779,2.973894119262695,4.861181259155273,-3.399035215377808,-1.292923927307129,-0.2936763763427734,1,0.03160060942173004,-0.8762176036834717,-0.1122898682951927,0.4675842821598053,-0.8123143315315247,-0.2263326197862625,0.5375117659568787,0,0,0,-1,169340.8433701667,1,2,1561841524.789869,1561841239.621676,8,3.056457,0,0,7.575853,0,0,1561841413.282218,169338.599487,0,0.02124023,75.19276,0,182478453,1,1,1,-25.32839,-37.97503,5
1561841525.439193,81,0,0,1561841524.996124,4.63456640951767,-74.15084126412323,2554.072,1.95,86.1328125,4,30,-9999,1561841525.434076,2.211509704589844,-24.28831481933594,15.640380859375,138.0412902832031,145.5345001220703,15,169341.73586,-4.186019897460938,-1.944595336914062,-0.2788238525390625,169341.73586,1.977330530356582,-3.467214430596583,1.454993560482763,169341.709127,-69.74043273925781,-50.28080749511719,-544.97119140625,169341.730794,-0.1169234011103423,-2.142294966316905,0.1823336881539485,1.068475842475891,-2.902957201004028,2.188587665557861,-3.457244634628296,-1.594294428825378,-0.6256616115570068,1,-0.007527987938374281,-0.8751609921455383,-0.1076522618532181,0.4716434478759766,-0.8271486759185791,-0.1813250631093979,0.5319268703460693,0,0,0,-1,169340.8433701667,1,2,1561841524.789869,1561841239.621676,8,3.056457,0,0,7.575853,0,0,1561841413.282218,169338.599487,0,0.02124023,75.19276,0,182478453,1,1,1,-25.32839,-37.97503,5
1561841525.459476,82,0,0,1561841524.996124,4.63456640951767,-74.15084126412323,2554.072,1.95,86.1328125,4,30,-9999,1561841525.458142,1.83642578125,-24.36653518676758,15.54681396484375,135.9962768554688,143.4894866943359,15,169341.756124,-4.196395874023438,-1.96392822265625,-0.579345703125,169341.756124,1.45143477831809,-0.5760105847993853,-1.546877411780459,169341.729238,-71.3392333984375,-50.72994995117188,-545.3258056640625,169341.751058,-0.08949770265656305,-2.208056489290243,0.1459414094966091,2.070034503936768,-1.838779330253601,-0.7994953989982605,-3.488155364990234,-1.830192565917969,-1.041078448295593,1,-0.007067274302244186,-0.8912268877029419,-0.08511863648891449,0.4454432427883148,-0.7951850891113281,-0.1454238891601562,0.5886706113815308,0,0,0,-1,169340.8433701667,1,2,1561841524.789869,1561841239.621676,8,3.056457,0,0,7.575853,0,0,1561841413.282218,169338.599487,0,0.02124023,75.19276,0,182478453,1,1,1,-25.32839,-38.33674,5
1561841525.480244,83,0,0,1561841524.996124,4.63456640951767,-74.15084126412323,2554.072,1.95,86.1328125,4,30,-9999,1561841525.458142,1.83642578125,-24.36653518676758,15.54681396484375,135.9962768554688,143.4894866943359,15,169341.776388,-3.471725463867188,-1.579696655273438,-0.36541748046875,169341.776388,-0.1442916657571472,2.622073041833169,-3.724343699108169,169341.749349,-70.16748046875,-49.97557067871094,-544.3005981445312,169341.771322,-0.04895641745945904,-2.204086237050072,0.1709243167859851,-0.1168074086308479,2.339656591415405,-3.335870742797852,-3.133029460906982,-1.676006555557251,-1.138443470001221,1,0.01679515093564987,-0.8895538449287415,-0.0871451199054718,0.4481268525123596,-0.7943387031555176,-0.1700932681560516,0.5831762552261353,0,0,0,-1,169340.8433701667,1,2,1561841524.789869,1561841239.621676,8,3.056457,0,0,7.575853,0,0,1561841413.282218,169338.599487,0,0.02124023,75.19276,0,182478453,1,1,1,-25.32839,-26.43237,5
1561841525.500093,84,0,0,1561841524.996124,4.63456640951767,-74.15084126412323,2554.072,1.95,86.1328125,4,30,-9999,1561841525.484685,3.079109191894531,-23.23928070068359,16.5709228515625,133.0790863037109,140.5722961425781,15,169341.796651,-2.496780395507812,-0.9319610595703125,0.1351470947265625,169341.796651,1.63955701561187,1.101439484698787,-4.624805601615254,169341.76946,-69.56849670410156,-49.668701171875,-543.7781982421875,169341.791585,0.002204811546238416,-2.167448881584082,0.2339442595075831,1.072178959846497,1.634961605072021,-4.420111656188965,-2.109024524688721,-0.9972793459892273,-0.6438302993774414,1,0.05559042096138,-0.8776075839996338,-0.102621041238308,0.4649553298950195,-0.8046871423721313,-0.2318161278963089,0.5465707182884216,0,0,0,-1,169340.8433701667,1,2,1561841524.789869,1561841239.621676,8,3.056457,0,0,7.575853,0,0,1561841413.282218,169338.599487,0,0.02124023,75.19276,0,182478453,1,1,1,-22.80357,-27.34555,5
1561841525.520382,85,0,0,1561841524.996124,4.63456640951767,-74.15084126412323,2554.072,1.95,86.1328125,4,30,-9999,1561841525.518313,4.419975280761719,-22.93336868286133,17.27789306640625,127.7709274291992,135.2641296386719,15,169341.816915,-2.048233032226562,-0.635345458984375,0.3026275634765625,169341.816915,2.626147411984881,0.243768455638768,-5.609462010404648,169341.789571,-68.61984252929688,-49.12078857421875,-543.7864990234375,169341.811849,0.0948695557191883,-2.176856713770865,0.2927395823575213,2.619176387786865,0.1876534670591354,-5.385199069976807,-1.426431179046631,-0.467908650636673,-0.2656452655792236,1,0.1091369688510895,-0.8722322583198547,-0.1073004826903343,0.4645284414291382,-0.7869324684143066,-0.2885763347148895,0.5453999638557434,0,0,0,-1,169340.8433701667,1,2,1561841524.789869,1561841239.621676,8,3.056457,0,0,7.575853,0,0,1561841413.282218,169338.599487,0,0.02124023,75.19276,0,182478453,1,1,1,-17.49974,-20.11009,5
1561841525.540324,86,0,0,1561841524.996124,4.63456640951767,-74.15084126412323,2554.072,1.95,86.1328125,4,30,-9999,1561841525.518313,4.419975280761719,-22.93336868286133,17.27789306640625,127.7709274291992,135.2641296386719,15,169341.837179,-1.879226684570312,-0.325347900390625,0.2706756591796875,169341.837179,1.776096752068015,1.432180123636817,-6.079237767740228,169341.809682,-66.97323608398438,-47.8370361328125,-542.4979248046875,169341.832113,0.2090370902694937,-2.202959985373291,0.3590761706210274,2.04782247543335,1.083222031593323,-6.033668994903564,-1.211788654327393,-0.1341557204723358,-0.2802261114120483,1,0.1718771010637283,-0.8643270134925842,-0.1119711622595787,0.4591946005821228,-0.7552980184555054,-0.3514094650745392,0.5532058477401733,0,0,0,-1,169340.8433701667,1,2,1561841524.789869,1561841239.621676,8,3.056457,0,0,7.575853,0,0,1561841413.282218,169338.599487,0,0.02124023,75.19276,0,182478453,1,1,1,-17.49974,-21.0221,5
1561841525.560707,87,0,0,1561841524.996124,4.63456640951767,-74.15084126412323,2554.072,1.95,86.1328125,4,30,-9999,1561841525.558971,8.205459594726562,-19.31715393066406,19.21051025390625,112.1926422119141,119.6858444213867,15,169341.857442,-1.62139892578125,-0.0354461669921875,0.3839263916015625,169341.857442,1.004028775190849,2.26089034110666,-5.989089232208828,169341.829793,-65.09071350097656,-46.08766174316406,-541.4064331054688,169341.852346,0.3153490926576119,-2.210110628353846,0.4392609380885501,1.11063814163208,2.142112970352173,-6.028632640838623,-1.03877067565918,0.2530447244644165,-0.2260081768035889,1,0.2335552126169205,-0.8458449840545654,-0.1234264597296715,0.4634265601634979,-0.7263202667236328,-0.425270676612854,0.5400035381317139,0,0,0,-1,169340.8433701667,1,2,1561841524.789869,1561841239.621676,8,3.056457,0,0,7.575853,0,0,1561841413.282218,169338.599487,0,0.02124023,75.19276,0,182478453,1,1,1,-17.49974,-17.49974,5
1561841525.590443,88,0,0,1561841524.996124,4.63456640951767,-74.15084126412323,2554.072,1.95,86.1328125,4,30,-9999,1561841525.585228,10.18104553222656,-16.08542251586914,20.6053466796875,104.829475402832,112.3226776123047,15,169341.877675,-1.284393310546875,0.172027587890625,0.5155487060546875,169341.877675,1.163556651860449,2.16623467174641,-6.068927605896095,169341.849904,-63.4088134765625,-44.25511169433594,-541.1201171875,169341.87261,0.4155589875162166,-2.210559061688104,0.5246646433457679,1.04382312297821,2.253709077835083,-6.02262544631958,-0.7621517777442932,0.5811382532119751,-0.05274438858032227,1,0.2919370830059052,-0.8204415440559387,-0.1373222917318344,0.4720074534416199,-0.694330096244812,-0.5009227991104126,0.516703188419342,0,0,0,-1,169340.8433701667,1,2,1561841524.789869,1561841239.621676,8,3.056457,0,0,7.575853,0,0,1561841413.282218,169338.599487,0,0.02124023,75.19276,0,182478453,1,1,1,-15.52527,-18.48743,5
1561841525.601207,89,0,0,1561841524.996124,4.63456640951767,-74.15084126412323,2554.072,1.95,86.1328125,4,30,-9999,1561841525.585228,10.18104553222656,-16.08542251586914,20.6053466796875,104.829475402832,112.3226776123047,15,169341.897951375,-1.06317138671875,0.3069610595703125,0.5884246826171875,169341.897951375,1.915706580628803,1.737258542310844,-6.260069068917699,169341.870016,-62.96563720703125,-42.77110290527344,-540.0946044921875,169341.892885375,0.5300865645501203,-2.230655811113978,0.6072515350588918,1.707291126251221,1.833232402801514,-6.220100879669189,-0.5011968612670898,0.812723696231842,0.04776573181152344,1,0.3514107167720795,-0.7926011681556702,-0.149169459939003,0.475439041852951,-0.6488276124000549,-0.5706125497817993,0.5034121870994568,0,0,0,-1,169340.8433701667,1,2,1561841524.789869,1561841239.621676,8,3.056457,0,0,7.575853,0,0,1561841413.282218,169338.599487,0,0.02124023,75.19276,0,182478453,1,1,1,-15.52527,-18.48743,5
1561841525.621458,90,0,0,1561841524.996124,4.63456640951767,-74.15084126412323,2554.072,1.95,86.1328125,4,30,-9999,1561841525.60967,10.6563720703125,-13.92798614501953,21.6917724609375,95.54387664794922,103.0370788574219,15,169341.918215375,-0.8502960205078125,0.4086761474609375,0.63592529296875,169341.918215375,2.692251331298392,1.162075135346038,-6.389015067841592,169341.890139375,-62.02986145019531,-40.62216186523438,-539.24072265625,169341.913149375,0.6727887136393674,-2.284173437045505,0.6790841924370905,2.522538423538208,1.304791450500488,-6.379513740539551,-0.3779681921005249,0.9913313984870911,0.1075775623321533,1,0.4137641787528992,-0.7638100385665894,-0.1565549969673157,0.4699828028678894,-0.5884014368057251,-0.6280806660652161,0.5092131495475769,0,0,0,-1,169340.8433701667,1,2,1561841524.789869,1561841239.621676,8,3.056457,0,0,7.575853,0,0,1561841413.282218,169338.599487,0,0.02124023,75.19276,0,182478453,1,1,1,-11.61653,-11.61653,5
1561841525.64172,91,0,0,1561841524.996124,4.63456640951767,-74.15084126412323,2554.072,1.95,86.1328125,4,30,-9999,1561841525.635901,11.54241180419922,-11.43532180786133,22.39569091796875,83.66511535644531,91.15831756591797,15,169341.938478375,-0.623626708984375,0.439239501953125,0.6317596435546875,169341.938478375,2.981732148100043,0.7717870133821623,-6.154293104109714,169341.910250375,-61.45263671875,-38.41226196289062,-538.4158935546875,169341.933413375,0.8432386174305085,-2.374008977689893,0.7338180397102575,2.974324703216553,0.8287618160247803,-6.252737998962402,-0.2247719168663025,1.097779989242554,0.1095821857452393,1,0.4767701625823975,-0.7347669005393982,-0.1604693531990051,0.455035537481308,-0.5156760811805725,-0.6697098612785339,0.5343843698501587,0,0,0,-1,169340.8433701667,1,2,1561841524.789869,1561841239.621676,8,3.056457,0,0,7.575853,0,0,1561841413.282218,169338.599487,0,0.02124023,75.19276,0,182478453,1,1,1,-11.57062,-12.67743,5
1561841525.670854,92,0,0,1561841524.996124,4.63456640951767,-74.15084126412323,2554.072,1.95,86.1328125,4,30,-9999,1561841525.660329,12.23490524291992,-8.453578948974609,22.961669921875,70.82595825195312,78.31916046142578,15,169341.958742375,-0.4189300537109375,0.48089599609375,0.6448211669921875,169341.958742375,2.791634111593533,0.6748338349495007,-5.59887967349711,169341.930361375,-60.67811584472656,-35.76893615722656,-537.5877685546875,169341.953676375,1.023090197403333,-2.481999967862436,0.7688951517690995,2.852885484695435,0.6851380467414856,-5.760689735412598,-0.07596969604492188,1.15908670425415,0.06405818462371826,1,0.5352480411529541,-0.7053188681602478,-0.1624515652656555,0.4354815781116486,-0.4404029846191406,-0.6953416466712952,0.5679303407669067,0,0,0,-1,169340.8433701667,1,2,1561841524.789869,1561841239.621676,8,3.056457,0,0,7.575853,0,0,1561841413.282218,169339.542614,0,0.111084,75.1919,0,182478453,1,1,1,-11.57062,-13.61896,5
1561841525.682488,93,0,0,1561841524.996124,4.63456640951767,-74.15084126412323,2554.072,1.95,86.1328125,4,30,-9999,1561841525.660329,12.23490524291992,-8.453578948974609,22.961669921875,70.82595825195312,78.31916046142578,15,169341.979006375,-0.184173583984375,0.4964752197265625,0.638336181640625,169341.979006375,2.431964086366189,0.4226636387037507,-4.988164104952357,169341.950472375,-60.26997375488281,-32.60968017578125,-536.815185546875,169341.973940375,1.194317887690989,-2.589683909652688,0.7867430540173826,2.527994155883789,0.5079901814460754,-5.138202667236328,0.0614851713180542,1.199359655380249,0.04187941551208496,1,0.5860620737075806,-0.676155149936676,-0.1634718030691147,0.4154786169528961,-0.3702467679977417,-0.7080571055412292,0.601309061050415,0,0,0,-1,169340.8433701667,1,2,1561841524.789869,1561841239.621676,8,3.056457,0,0,7.575853,0,0,1561841413.282218,169339.542614,0,0.111084,75.1919,0,182478453,1,1,1,-11.57062,-14.34217,5
1561841525.702523,94,0,0,1561841524.996124,4.63456640951767,-74.15084126412323,2554.072,1.95,86.1328125,4,30,-9999,1561841525.686514,12.45682144165039,-2.484724044799805,24.1968994140625,58.91703414916992,66.41024017333984,15,169341.999269375,-0.005126953125,0.56298828125,0.68817138671875,169341.999269375,2.051202890569854,0.1670252077703906,-4.397076033641488,169341.970583375,-60.00991821289062,-29.64491271972656,-536.3180541992188,169341.994204375,1.348803078251162,-2.692656235283656,0.7922923722844616,2.152269840240479,0.1915954798460007,-4.533623218536377,0.2206906676292419,1.224644899368286,0.03037762641906738,1,0.6287051439285278,-0.6488804221153259,-0.165604829788208,0.3952961266040802,-0.3047666251659393,-0.7119649052619934,0.6326318979263306,0,0,0,-1,169340.8433701667,1,2,1561841524.789869,1561841239.621676,8,3.056457,0,0,7.575853,0,0,1561841413.282218,169339.542614,0,0.111084,75.1919,0,182478453,1,1,1,-11.57062,-15.20353,5
1561841525.722782,95,0,0,1561841524.996124,4.63456640951767,-74.15084126412323,2554.072,1.95,86.1328125,4,30,-9999,1561841525.710984,12.0096321105957,0.02700233459472656,24.30328369140625,48.62940979003906,56.12261581420898,15,169342.019533375,0.158843994140625,0.7122039794921875,0.7440032958984375,169342.019533375,1.63305011412048,0.3522145057556666,-3.956032854990664,169341.990694375,-60.4173583984375,-26.52165222167969,-536.3707275390625,169342.014437375,1.484361364523162,-2.785337422748938,0.7900902538638921,1.735191226005554,0.269808292388916,-4.066577911376953,0.3262356817722321,1.33790397644043,0.04293966293334961,1,0.6642237901687622,-0.6233794093132019,-0.1686089187860489,0.3765313327312469,-0.2454556524753571,-0.7104167938232422,0.6595902442932129,0,0,0,-1,169340.8433701667,1,2,1561841524.789869,1561841239.621676,8,3.056457,0,0,7.575853,0,0,1561841413.282218,169339.542614,0,0.111084,75.1919,0,182478453,1,1,1,-11.57062,-16.12148,5
1561841525.750949,96,0,0,1561841524.996124,4.63456640951767,-74.15084126412323,2554.072,1.95,86.1328125,4,30,-9999,1561841525.737172,11.60391998291016,2.162668228149414,24.41070556640625,39.89638519287109,47.38959121704102,15,169342.039766375,0.3348236083984375,1.011077880859375,0.8132781982421875,169342.039766375,1.13787179472718,0.6518251883956521,-3.499994215189932,169342.010805375,-60.59107971191406,-24.5401611328125,-536.0072631835938,169342.034700375,1.603104614695629,-2.861070731860687,0.785203520086342,1.291520237922668,0.5777863264083862,-3.637869596481323,0.4374133944511414,1.541472315788269,0.09704279899597168,1,0.6944624185562134,-0.5979309678077698,-0.1707187443971634,0.3620160520076752,-0.1958057135343552,-0.706969141960144,0.6795989871025085,0,0,0,-1,169340.8433701667,1,2,1561841524.789869,1561841239.621676,8,3.056457,0,0,7.575853,0,0,1561841413.282218,169339.542614,0,0.111084,75.1919,0,182478453,1,1,1,-11.57062,-17.15317,5
1561841525.763241,97,0,0,1561841524.996124,4.63456640951767,-74.15084126412323,2554.072,1.95,86.1328125,4,30,-9999,1561841525.761561,10.77724075317383,3.762784957885742,24.3809814453125,33.24702072143555,40.74022674560547,15,169342.060030375,0.63153076171875,1.358963012695312,0.810455322265625,169342.060030375,0.341608733030535,0.5716099774141383,-2.138000903133826,169342.030916375,-61.59495544433594,-23.09315490722656,-536.041015625,169342.054964375,1.699262327525514,-2.916142918553846,0.7835363429788209,0.505744457244873,0.6003766059875488,-2.613320112228394,0.6487661600112915,1.912957668304443,0.1469844579696655,1,0.7180874943733215,-0.5741057395935059,-0.172422006726265,0.3535865247249603,-0.158363938331604,-0.7057890295982361,0.6904941201210022,0,0,0,-1,169340.8433701667,1,2,1561841524.789869,1561841239.621676,8,3.056457,0,0,7.575853,0,0,1561841413.282218,169339.542614,0,0.111084,75.1919,0,182478453,1,1,1,-11.57062,-17.15317,5
1561841525.783643,98,0,0,1561841524.996124,4.63456640951767,-74.15084126412323,2554.072,1.95,86.1328125,4,30,-9999,1561841525.761561,10.77724075317383,3.762784957885742,24.3809814453125,33.24702072143555,40.74022674560547,15,169342.080294375,0.849578857421875,1.608383178710938,0.8743133544921875,169342.080294375,0.01031788501129399,-0.06795588153555192,0.5533390944395408,169342.051027375,-62.32957458496094,-21.5098876953125,-535.944091796875,169342.075228375,1.743114778283784,-2.937608108477813,0.7855893105835392,0.0295206606388092,0.2030990123748779,-0.216195747256279,0.8862399458885193,2.221158027648926,0.1432116031646729,1,0.7284563183784485,-0.5617012977600098,-0.1730968058109283,0.3519665598869324,-0.143213227391243,-0.707241952419281,0.6923139095306396,0,0,0,-1,169340.8433701667,1,2,1561841524.789869,1561841239.621676,8,3.056457,0,0,7.575853,0,0,1561841413.282218,169339.542614,0,0.111084,75.1919,0,182478453,1,1,1,-11.57062,-18.21829,5
1561841525.803636,99,0,0,1561841524.996124,4.63456640951767,-74.15084126412323,2554.072,1.95,86.1328125,4,30,-9999,1561841525.787806,10.16704940795898,4.711797714233398,24.5924072265625,31.88001251220703,39.37321853637695,15,169342.100557375,0.8375396728515625,1.738479614257812,0.9743194580078125,169342.100557375,0.02431572601685947,-1.253537141927065,3.756716020054736,169342.091280375,-62.0728759765625,-21.41783142089844,-536.6463623046875,169342.095491375,1.705615344778243,-2.91918933870796,0.7791017979574465,0.05895258858799934,-1.018360376358032,2.948596715927124,1.025448322296143,2.369113922119141,0.2327382564544678,1,0.720128059387207,-0.5730840563774109,-0.1709833145141602,0.3517881035804749,-0.1569485366344452,-0.7026405930519104,0.6940194964408875,0,0,0,-1,169340.8433701667,1,2,1561841524.789869,1561841239.621676,8,3.056457,0,0,7.575853,0,0,1561841413.282218,169339.542614,0,0.111084,75.1919,0,182478453,1,1,1,-11.57062,-19.29268,5
1561841525.828769,100,0,0,1561841524.996124,4.63456640951767,-74.15084126412323,2554.072,1.95,86.1328125,4,30,-9999,1561841525.812143,11.08721542358398,4.126279830932617,23.89654541015625,306.8277893066406,314.3209838867188,15,169342.120821375,0.6162872314453125,1.692398071289062,0.9323577880859375,169342.120821375,-0.4242631332544523,-1.512873372034,6.867963284603621,169342.111361375,-60.45184326171875,-22.49028015136719,-536.8389892578125,169342.115755375,1.581108281176752,-2.860388094961897,0.7575431590138222,-0.2685485780239105,-1.538257360458374,6.110311985015869,0.9881044626235962,2.410420417785645,0.2591173648834229,1,0.6903021335601807,-0.6103097796440125,-0.1650116741657257,0.3518184721469879,-0.2016206830739975,-0.687138557434082,0.6979901194572449,0,0,0,-1,169340.8433701667,1,2,1561841524.789869,1561841239.621676,8,3.056457,0,0,7.575853,0,0,1561841413.282218,169339.542614,0,0.111084,75.1919,0,182478453,1,1,1,-11.57062,-19.94441,5
1561841525.844266,101,0,0,1561841524.996124,4.63456640951767,-74.15084126412323,2554.072,1.95,86.1328125,4,30,-9999,1561841525.838976,12.66595077514648,2.784612655639648,23.58526611328125,293.3029174804688,300.7961120605469,15,169342.141085375,0.0723114013671875,1.52801513671875,0.8629608154296875,169342.141085375,-1.198407576833553,-1.83490068051751,9.388373613932432,169342.131502375,-58.78559875488281,-24.95037841796875,-536.995361328125,169342.136019375,1.380041208629027,-2.756314607860225,0.7195554736693291,-1.018033385276794,-1.669401288032532,8.846906661987305,0.6524633169174194,2.302193164825439,0.1892194747924805,1,0.636760413646698,-0.6655965447425842,-0.152437150478363,0.3581622838973999,-0.282651275396347,-0.6590504050254822,0.6969651579856873,0,0,0,-1,169340.8433701667,1,2,1561841524.789869,1561841239.621676,8,3.056457,0,0,7.575853,0,0,1561841413.282218,169339.542614,0,0.111084,75.1919,0,182478453,1,1,1,-11.57062,-20.70055,5
1561841525.865451,102,0,0,1561841524.996124,4.63456640951767,-74.15084126412323,2554.072,1.95,86.1328125,4,30,-9999,1561841525.86286,14.1795539855957,-0.07500648498535156,23.15240478515625,275.4930114746094,282.9862060546875,15,169342.161348375,-0.6074066162109375,1.23272705078125,0.8537750244140625,169342.161348375,-1.992614678168656,-2.065400468657176,10.71163444372664,169342.151583375,-57.73304748535156,-28.7303466796875,-537.5834350585938,169342.156282375,1.132213975233716,-2.638594587420287,0.6594428807131302,-1.780731916427612,-2.184850215911865,10.51137733459473,0.1120476126670837,1.997060775756836,0.1785889863967896,1,0.5594987273216248,-0.7301938533782959,-0.1383873373270035,0.3669154644012451,-0.3809837698936462,-0.6126766204833984,0.6924437880516052,0,0,0,-1,169340.8433701667,1,2,1561841524.789869,1561841239.621676,8,3.056457,0,0,7.575853,0,0,1561841413.282218,169339.542614,0,0.111084,75.1919,0,182478453,1,1,1,-11.57062,-17.25114,5
1561841525.884743,103,0,0,1561841524.996124,4.63456640951767,-74.15084126412323,2554.072,1.95,86.1328125,4,30,-9999,1561841525.86286,14.1795539855957,-0.07500648498535156,23.15240478515625,275.4930114746094,282.9862060546875,15,169342.181612375,-1.10552978515625,0.98321533203125,0.7559051513671875,169342.181612375,-3.032901592652607,-1.142055620799694,10.58087536473263,169342.171694375,-57.43603515625,-33.07684326171875,-538.38134765625,169342.176516375,0.87551211097174,-2.524897388080483,0.5824800344907318,-2.796023845672607,-1.24604070186615,10.76322841644287,-0.417462170124054,1.661150217056274,0.1318705081939697,1,0.4658312201499939,-0.7897065877914429,-0.1245668306946754,0.3792727887630463,-0.4829742014408112,-0.5500966906547546,0.6812704205513,0,0,0,-1,169340.8433701667,1,2,1561841524.789869,1561841239.621676,8,3.056457,0,0,7.575853,0,0,1561841413.282218,169339.542614,0,0.111084,75.1919,0,182478453,1,1,1,-11.57062,-16.87372,5
1561841525.909217,104,0,0,1561841524.996124,4.63456640951767,-74.15084126412323,2554.072,1.95,86.1328125,4,30,-9999,1561841525.889105,14.69878387451172,-8.154891967773438,21.9581298828125,257.3773498535156,264.8705444335938,15,169342.201845375,-1.424667358398438,0.671051025390625,0.7320404052734375,169342.201845375,-2.598798878118639,-1.668269354272342,9.551312201010097,169342.191805375,-58.56361389160156,-37.22836303710938,-539.39404296875,169342.196779375,0.6393142589763249,-2.427886166955942,0.5018689668878655,-2.949495553970337,-1.462437987327576,9.761878967285156,-0.6787570118904114,1.283265113830566,0.06391680240631104,1,0.3675695657730103,-0.8344181180000305,-0.1145448163151741,0.3943584561347961,-0.5739132761955261,-0.4810648858547211,0.6627219915390015,0,0,0,-1,169340.8433701667,1,2,1561841524.789869,1561841239.621676,8,3.056457,0,0,7.575853,0,0,1561841413.282218,169339.542614,0,0.111084,75.1919,0,182478453,1,1,1,-9.303301,-16.50916,5
1561841525.925296,105,0,0,1561841524.996124,4.63456640951767,-74.15084126412323,2554.072,1.95,86.1328125,4,30,-9999,1561841525.913525,13.68668746948242,-12.26657867431641,21.01995849609375,242.3292694091797,249.8224792480469,15,169342.222109375,-1.781509399414062,0.6907806396484375,0.70416259765625,169342.222109375,-0.1486477983521898,-2.410803939924965,9.233710000993863,169342.211916375,-59.89920043945312,-40.55191040039062,-540.06494140625,169342.217043375,0.4511853259985946,-2.383720641795488,0.4035568998454481,-0.8370064496994019,-2.366412401199341,9.222251892089844,-0.9528921842575073,1.029563307762146,0.02834784984588623,1,0.2758597135543823,-0.8705628514289856,-0.100407600402832,0.3948922753334045,-0.6321602463722229,-0.3926919996738434,0.667956531047821,0,0,0,-1,169340.8433701667,1,2,1561841524.789869,1561841239.621676,8,3.056457,0,0,7.575853,0,0,1561841413.282218,169339.542614,0,0.111084,75.1919,0,182478453,1,1,1,-9.303301,-16.50916,5
1561841525.945696,106,0,0,1561841524.996124,4.63456640951767,-74.15084126412323,2554.072,1.95,86.1328125,4,30,-9999,1561841525.939865,12.22428512573242,-15.40249633789062,20.021240234375,231.7260589599609,239.2192687988281,15,169342.242372375,-2.433761596679688,0.6722259521484375,0.7620849609375,169342.242372375,0.7402730292549277,-1.313190618764295,9.57095035088834,169342.232027375,-61.74588012695312,-42.99488830566406,-540.6500244140625,169342.237307375,0.309723705998274,-2.380954393029564,0.2698895332689623,0.8272857069969177,-1.696211338043213,9.477397918701172,-1.437362790107727,1.010429859161377,0.0695115327835083,1,0.1912644505500793,-0.9013903737068176,-0.06669025123119354,0.3827085196971893,-0.6644285917282104,-0.2666249573230743,0.6981734037399292,0,0,0,-1,169340.8433701667,1,2,1561841524.789869,1561841239.621676,8,3.056457,0,0,7.575853,0,0,1561841413.282218,169339.542614,0,0.111084,75.1919,0,182478453,1,1,1,-9.303301,-16.98071,5
1561841525.966823,107,0,0,1561841524.996124,4.63456640951767,-74.15084126412323,2554.072,1.95,86.1328125,4,30,-9999,1561841525.964311,10.41792297363281,-17.52030563354492,19.67083740234375,222.0543060302734,229.5475158691406,15,169342.262636375,-3.253646850585938,0.5133819580078125,0.8469696044921875,169342.262636375,0.1905185496426336,-0.3204768160968653,9.386273977729013,169342.252138375,-63.97166442871094,-44.71713256835938,-540.5552368164062,169342.257570375,0.1744290968097373,-2.374729532513808,0.128176152847009,0.1874692887067795,-0.4654364287853241,9.491096496582031,-2.142500877380371,0.7307002544403076,0.05173134803771973,1,0.1044814512133598,-0.9198779463768005,-0.02664883062243462,0.3770914673805237,-0.6881876587867737,-0.1278254687786102,0.7141836285591125,0,0,0,-1,169340.8433701667,1,2,1561841524.789869,1561841239.621676,8,3.056457,0,0,7.575853,0,0,1561841413.282218,169339.542614,0,0.111084,75.1919,0,182478453,1,1,1,-9.303301,-18.0557,5
1561841525.991873,108,0,0,1561841524.996124,4.63456640951767,-74.15084126412323,2554.072,1.95,86.1328125,4,30,-9999,1561841525.990615,4.374412536621094,-20.17032241821289,20.14862060546875,213.4149322509766,220.9081420898438,15,169342.282900375,-3.963592529296875,-0.0309906005859375,1.226776123046875,169342.282900375,0.906517930825925,0.08031721005126372,8.349824412059759,169342.272249375,-67.3350830078125,-46.05535888671875,-540.5611572265625,169342.277834375,0.04538752342636554,-2.371049247817976,-0.007326034011717082,0.7568576335906982,0.01397356949746609,8.802813529968262,-2.918056488037109,0.2813092768192291,0.275559663772583,1,0.01965203694999218,-0.9264827370643616,0.01192139741033316,0.3756345808506012,-0.6965064406394958,0.007325968705117702,0.7175129055976868,0,0,0,-1,169340.8433701667,1,2,1561841524.789869,1561841239.621676,8,3.056457,0,0,7.575853,0,0,1561841413.282218,169339.542614,0,0.111084,75.1919,0,182478453,1,1,1,-9.303301,-18.62891,5
1561841526.006498,109,0,0,1561841524.996124,4.63456640951767,-74.15084126412323,2554.072,1.95,86.1328125,4,30,-9999,1561841525.990615,4.374412536621094,-20.17032241821289,20.14862060546875,213.4149322509766,220.9081420898438,15,169342.303164375,-4.33941650390625,-1.094268798828125,1.322708129882812,169342.303164375,0.2146366691066092,-0.4119404205745467,4.591600776511928,169342.292360375,-70.28807067871094,-46.76107788085938,-540.5145263671875,169342.298098375,-0.05203401440796759,-2.376672145423782,-0.1257491578412422,0.6580561995506287,-0.1334092319011688,5.720092296600342,-3.55419921875,-0.6091521382331848,0.6625703573226929,1,-0.04752850532531738,-0.9249926805496216,0.04858431965112686,0.3738570213317871,-0.68701171875,0.1254180073738098,0.7157408595085144,0,0,0,-1,169340.8433701667,1,2,1561841524.789869,1561841239.621676,8,3.056457,0,0,7.575853,0,0,1561841413.282218,169339.542614,0,0.111084,75.1919,0,182478453,1,1,1,-9.303301,-19.59843,5
1561841526.026816,110,0,0,1561841524.996124,4.63456640951767,-74.15084126412323,2554.072,1.95,86.1328125,4,30,-9999,1561841526.015017,1.650367736816406,-20.42349624633789,19.884033203125,208.1691589355469,215.6623687744141,15,169342.323427375,-4.141372680664062,-1.86572265625,0.4327850341796875,169342.323427375,-2.612875282376362,-0.7825043725569681,-0.02341717546506674,169342.312471375,-71.4542236328125,-46.62351989746094,-541.1031494140625,169342.318331375,-0.1095194119774996,-2.399203010267917,-0.1651338997368099,-1.958697915077209,-1.040884852409363,1.014989256858826,-3.657761573791504,-1.802690029144287,0.20674729347229,1,-0.08070159703493118,-0.9256904721260071,0.05695571750402451,0.3651580810546875,-0.6668539047241211,0.1643844097852707,0.7268311977386475,0,0,0,-1,169340.8433701667,1,2,1561841524.789869,1561841239.621676,8,3.056457,0,0,7.575853,0,0,1561841413.282218,169339.542614,0,0.111084,75.1919,0,182478453,1,1,1,-9.303301,-20.50543,5
1561841526.047043,111,0,0,1561841524.996124,4.63456640951767,-74.15084126412323,2554.072,1.95,86.1328125,4,30,-9999,1561841526.041319,1.394271850585938,-20.89531707763672,19.3966064453125,205.8002319335938,213.2934417724609,15,169342.343691375,-3.308212280273438,-1.460800170898438,-0.15936279296875,169342.343691375,-2.999688245433793,1.790034938265163,-2.895676092215767,169342.332582375,-71.18960571289062,-47.71682739257812,-541.8436889648438,169342.338594375,-0.1373430191212069,-2.407044596510775,-0.1103097260889436,-3.316971778869629,1.062795281410217,-2.303277730941772,-3.100316524505615,-1.910516500473022,-0.6744517087936401,1,-0.08369193971157074,-0.9283357262611389,0.02672798745334148,0.3612119555473328,-0.6661781072616577,0.1100861504673958,0.7376230955123901,0,0,0,-1,169340.8433701667,1,2,1561841524.789869,1561841239.621676,8,3.056457,0,0,7.575853,0,0,1561841413.282218,169339.542614,0,0.111084,75.1919,0,182478453,1,1,1,-9.303301,-21.53752,5
1561841526.073474,112,0,0,1561841525.996109,4.634569929917003,-74.15082181810787,2554.275,1.95,85.078125,4,10,-9999,1561841526.065945,2.200225830078125,-22.73379516601562,17.8218994140625,137.6513519287109,145.1445617675781,15,169342.363924375,-2.316848754882812,-0.7347412109375,-0.0485992431640625,169342.363924375,0.04370833244259847,3.283082673880177,-4.224662984669759,169342.352694375,-70.38595581054688,-48.786376953125,-542.6065673828125,169342.358858375,-0.1198698633941853,-2.359901526463132,-0.03025950192726178,-0.7944952249526978,3.134610891342163,-4.059604644775391,-2.053532123565674,-1.057873249053955,-0.8766956329345703,1,-0.06112898141145706,-0.9224762320518494,-0.008854027837514877,0.3810806572437286,-0.7041581869125366,0.03025488369166851,0.7093983292579651,0,0,0,-1,169340.8433701667,1,2,1561841524.789869,1561841239.621676,8,3.056457,0,0,7.575853,0,0,1561841413.282218,169339.542614,0,0.111084,75.1919,0,182478453,1,1,1,-9.303301,-22.10266,5
1561841526.087519,113,0,0,1561841525.996109,4.634569929917003,-74.15082181810787,2554.275,1.95,85.078125,4,10,-9999,1561841526.065945,2.200225830078125,-22.73379516601562,17.8218994140625,137.6513519287109,145.1445617675781,15,169342.384188375,-2.029464721679688,-0.3804931640625,0.195953369140625,169342.384188375,1.817735009395295,3.305145898247047,-4.703982446087745,169342.372805375,-70.16615295410156,-48.51812744140625,-542.4863891601562,169342.379122375,-0.05032306678576357,-2.293403595590606,0.02501874524036856,1.642455697059631,3.296821594238281,-4.553347587585449,-1.340650796890259,-0.5243613123893738,-0.5855739116668701,1,-0.01778251491487026,-0.9111813902854919,-0.02174924314022064,0.4110463559627533,-0.7498490810394287,-0.02501613460481167,0.6611354947090149,0,0,0,-1,169340.8433701667,1,2,1561841524.789869,1561841239.621676,8,3.056457,0,0,7.575853,0,0,1561841413.282218,169339.542614,0,0.111084,75.1919,0,182478453,1,1,1,-9.303301,-22.10266,5
1561841526.107634,114,0,0,1561841525.996109,4.634569929917003,-74.15082181810787,2554.275,1.95,85.078125,4,10,-9999,1561841526.091824,2.570899963378906,-22.03828811645508,18.35821533203125,131.9698028564453,139.4630126953125,15,169342.404451375,-1.944564819335938,-0.28436279296875,0.3696136474609375,169342.404451375,1.649379286344301,3.897514151093918,-5.431850470985085,169342.392916375,-69.51289367675781,-47.644775390625,-541.8953857421875,169342.399385375,0.0408278828994828,-2.228603336001619,0.0783199091113862,1.726061105728149,3.713115930557251,-5.260443687438965,-1.207566022872925,-0.2115855813026428,-0.316830039024353,1,0.0355621725320816,-0.8963758945465088,-0.02614276111125946,0.4410920441150665,-0.7889091372489929,-0.07823986560106277,0.6095088124275208,0,0,0,-1,169340.8433701667,1,2,1561841524.789869,1561841239.621676,8,3.056457,0,0,7.575853,0,0,1561841413.282218,169339.542614,0,0.111084,75.1919,0,182478453,1,1,1,-9.303301,-22.4251,5
1561841526.127961,115,0,0,1561841525.996109,4.634569929917003,-74.15082181810787,2554.275,1.95,85.078125,4,10,-9999,1561841526.116326,3.00726318359375,-21.06944274902344,18.96612548828125,125.3348617553711,132.8280639648438,15,169342.424715375,-1.665512084960938,-0.3228302001953125,0.461578369140625,169342.424715375,1.546938664485531,4.181959462906446,-5.590509890823209,169342.413027375,-69.29293823242188,-46.39515686035156,-540.6321411132812,169342.419649375,0.1332193268552245,-2.157913725986675,0.1503492506162511,1.551077604293823,4.182100772857666,-5.659585475921631,-1.006944417953491,-0.1494719237089157,-0.1200255155563354,1,0.09389401227235794,-0.8746662139892578,-0.03471038863062859,0.4742764830589294,-0.8231490254402161,-0.1497834473848343,0.5477141141891479,0,0,0,-1,169340.8433701667,1,2,1561841524.789869,1561841239.621676,8,3.056457,0,0,7.575853,0,0,1561841413.282218,169339.542614,0,0.111084,75.1919,0,182478453,1,1,1,-9.303301,-23.24046,5
1561841526.150255,116,0,0,1561841525.996109,4.634569929917003,-74.15082181810787,2554.275,1.95,85.078125,4,10,-9999,1561841526.142433,3.323875427246094,-20.019775390625,19.86279296875,119.1205291748047,126.6137313842773,15,169342.444979375,-1.351119995117188,-0.37353515625,0.4783172607421875,169342.444979375,1.264128000950092,3.991762623123495,-4.948410034096308,169342.433138375,-69.35865783691406,-45.02951049804688,-539.7874755859375,169342.439913375,0.2183327318815831,-2.09034578588771,0.2282317841931285,1.361668467521667,4.026285648345947,-5.122052192687988,-0.655489444732666,-0.1201342642307281,-0.01213288307189941,1,0.1504233479499817,-0.848044753074646,-0.0436008982360363,0.5062528252601624,-0.8455328941345215,-0.2262555211782455,0.4836141765117645,0,0,0,-1,169340.8433701667,1,2,1561841524.789869,1561841239.621676,8,3.056457,0,0,7.575853,0,0,1561841413.282218,169339.542614,0,0.111084,75.1919,0,182478453,1,1,1,-9.303301,-9.303301,5
1561841526.168465,117,0,0,1561841525.996109,4.634569929917003,-74.15082181810787,2554.275,1.95,85.078125,4,10,-9999,1561841526.166923,2.685844421386719,-17.77654647827148,21.37225341796875,114.3762664794922,121.8694686889648,15,169342.465242375,-1.101119995117188,-0.45135498046875,0.5200042724609375,169342.465242375,0.6003657256003779,4.15499895161103,-4.389548076188161,169342.453249375,-69.72111511230469,-44.18663024902344,-539.3422241210938,169342.460176375,0.2864845391182148,-2.027236796541598,0.3035111581908184,0.8127877116203308,4.041489124298096,-4.520574569702148,-0.3556047081947327,-0.108353853225708,0.08189225196838379,1,0.1988900899887085,-0.8189919590950012,-0.05237554758787155,0.5356788039207458,-0.8565993309020996,-0.298872709274292,0.4206101894378662,0,0,0,-1,169340.8433701667,1,2,1561841524.789869,1561841239.621676,8,3.056457,0,0,7.575853,0,0,1561841413.282218,169339.542614,0,0.111084,75.1919,0,182478453,1,1,1,-9.303301,-10.23128,5
1561841526.188824,118,0,0,1561841525.996109,4.634569929917003,-74.15082181810787,2554.275,1.95,85.078125,4,10,-9999,1561841526.166923,2.685844421386719,-17.77654647827148,21.37225341796875,114.3762664794922,121.8694686889648,15,169342.485506375,-1.008209228515625,-0.494140625,0.5374298095703125,169342.485506375,-0.2876182019352496,4.6414311836684,-4.272689632819921,169342.473330375,-70.44760131835938,-43.69564819335938,-539.0194702148438,169342.480410375,0.3315517426951667,-1.955151781569534,0.3802365650221686,-0.09110508859157562,4.583157062530518,-4.241259574890137,-0.1860469579696655,-0.1097558438777924,0.1635533571243286,1,0.238553375005722,-0.7856097221374512,-0.063951276242733,0.5672916173934937,-0.8608280420303345,-0.3711401522159576,0.3481807112693787,0,0,0,-1,169340.8433701667,1,2,1561841524.789869,1561841239.621676,8,3.056457,0,0,7.575853,0,0,1561841413.282218,169339.542614,0,0.111084,75.1919,0,182478453,1,1,1,-9.303301,-11.24602,5
1561841526.208945,119,0,0,1561841525.996109,4.634569929917003,-74.15082181810787,2554.275,1.95,85.078125,4,10,-9999,1561841526.192951,1.819671630859375,-17.57992172241211,21.6009521484375,111.7182846069336,119.2114868164062,15,169342.505739375,-0.8678436279296875,-0.558074951171875,0.603485107421875,169342.505739375,-1.031195947786857,4.371831663352518,-4.263984824480887,169342.493441375,-71.30851745605469,-43.67906188964844,-538.7950439453125,169342.500673375,0.3535310006232898,-1.870942868333271,0.4655307976983066,-0.8632764220237732,4.488866329193115,-4.325706958770752,-0.07454252243041992,-0.07994192838668823,0.3198177814483643,1,0.2724732458591461,-0.7468981742858887,-0.08122781664133072,0.601085364818573,-0.8536342978477478,-0.4488971829414368,0.2641971111297607,0,0,0,-1,169340.8433701667,1,2,1561841524.789869,1561841239.621676,8,3.056457,0,0,7.575853,0,0,1561841413.282218,169339.542614,0,0.111084,75.1919,0,182478453,1,1,1,-9.303301,-12.22929,5
1561841526.22978,120,0,0,1561841525.996109,4.634569929917003,-74.15082181810787,2554.275,1.95,85.078125,4,10,-9999,1561841526.217438,1.176651000976562,-17.76030731201172,21.6058349609375,111.1259994506836,118.6192016601562,15,169342.526003375,-0.790191650390625,-0.581268310546875,0.5673828125,169342.526003375,-1.353487441850502,3.784682407293877,-3.840357387778637,169342.513552375,-72.21319580078125,-44.09956359863281,-539.1673583984375,169342.520937375,0.352471340217514,-1.784885751234259,0.552918182935996,-1.323788285255432,3.91887640953064,-3.958731412887573,-0.003256022930145264,-0.03543508052825928,0.4021614789962769,1,0.299952507019043,-0.7074099183082581,-0.1033888980746269,0.6315935850143433,-0.8315675854682922,-0.5251728296279907,0.1808006018400192,0,0,0,-1,169340.8433701667,1,2,1561841524.789869,1561841239.621676,8,3.056457,0,0,7.575853,0,0,1561841413.282218,169339.542614,0,0.111084,75.1919,0,182478453,1,1,1,-9.303301,-12.22929,5
1561841526.249981,121,0,0,1561841525.996109,4.634569929917003,-74.15082181810787,2554.275,1.95,85.078125,4,10,-9999,1561841526.245298,0.4141616821289062,-17.90571594238281,21.3258056640625,112.1862716674805,119.6794738769531,15,169342.546267375,-0.7471466064453125,-0.6269378662109375,0.4860992431640625,169342.546267375,-1.201251300245539,3.2677511218007,-3.341418418610036,169342.533663375,-72.86665344238281,-44.771728515625,-539.54443359375,169342.541201375,0.3357930829055323,-1.701706602448929,0.6317374999398243,-1.290389895439148,3.376789808273315,-3.465324878692627,0.04703050851821899,-0.02338957786560059,0.4357789754867554,1,0.3213633000850677,-0.6703710556030273,-0.1255394369363785,0.6569384336471558,-0.8000974655151367,-0.5905478000640869,0.1053434461355209,0,0,0,-1,169340.8433701667,1,2,1561841524.789869,1561841239.621676,8,3.056457,0,0,7.575853,0,0,1561841413.282218,169339.542614,0,0.111084,75.1919,0,182478453,1,1,1,-9.303301,-13.142,5
1561841526.269756,122,0,0,1561841525.996109,4.634569929917003,-74.15082181810787,2554.275,1.95,85.078125,4,10,-9999,1561841526.268069,-0.5489883422851562,-18.92703628540039,20.49981689453125,113.5557861328125,121.0489883422852,15,169342.566530375,-0.714691162109375,-0.626129150390625,0.4092559814453125,169342.566530375,-0.6019766717437669,2.909926667208781,-2.91432141563963,169342.553774375,-73.087890625,-45.21116638183594,-539.9598388671875,169342.561464375,0.3163023924944436,-1.625368198582138,0.6989004055069102,-0.7693184614181519,2.997695684432983,-2.99259352684021,0.03824472427368164,0.01955121755599976,0.4035252332687378,1,0.3399162590503693,-0.6366595029830933,-0.1437725871801376,0.6770901679992676,-0.7644104957580566,-0.6433762907981873,0.041756771504879,0,0,0,-1,169340.8433701667,1,2,1561841524.789869,1561841239.621676,8,3.056457,0,0,7.575853,0,0,1561841413.282218,169339.542614,0,0.111084,75.1919,0,182478453,1,1,1,-9.303301,-14.00518,5
1561841526.290054,123,0,0,1561841525.996109,4.634569929917003,-74.15082181810787,2554.275,1.95,85.078125,4,10,-9999,1561841526.268069,-0.5489883422851562,-18.92703628540039,20.49981689453125,113.5557861328125,121.0489883422852,15,169342.586794375,-0.788543701171875,-0.6335296630859375,0.3722076416015625,169342.586794375,0.3152777930168126,2.29542568149059,-3.245143813623126,169342.573885375,-73.27352905273438,-45.36268615722656,-540.1080322265625,169342.581728375,0.3074217635125097,-1.56311473400166,0.759206704821124,0.05120358616113663,2.504061698913574,-3.100155115127563,-0.03486239910125732,0.06714564561843872,0.3737056255340576,1,0.3600917160511017,-0.6062573194503784,-0.1569932252168655,0.6914761066436768,-0.7253609895706177,-0.6883462071418762,-0.005572037305682898,0,0,0,-1,169340.8433701667,1,2,1561841524.789869,1561841239.621676,8,3.056457,0,0,7.575853,0,0,1561841413.282218,169339.542614,0,0.111084,75.1919,0,182478453,1,1,1,-9.303301,-15.02663,5
