loggingTime,loggingSample,identifierForVendor,deviceID,locationTimestamp_since1970,locationLatitude,locationLongitude,locationAltitude,locationSpeed,locationCourse,locationVerticalAccuracy,locationHorizontalAccuracy,locationFloor,locationHeadingTimestamp_since1970,locationHeadingX,locationHeadingY,locationHeadingZ,locationTrueHeading,locationMagneticHeading,locationHeadingAccuracy,accelerometerTimestamp_sinceReboot,accelerometerAccelerationX,accelerometerAccelerationY,accelerometerAccelerationZ,gyroTimestamp_sinceReboot,gyroRotationX,gyroRotationY,gyroRotationZ,magnetometerTimestamp_sinceReboot,magnetometerX,magnetometerY,magnetometerZ,motionTimestamp_sinceReboot,motionYaw,motionRoll,motionPitch,motionRotationRateX,motionRotationRateY,motionRotationRateZ,motionUserAccelerationX,motionUserAccelerationY,motionUserAccelerationZ,motionAttitudeReferenceFrame,motionQuaternionX,motionQuaternionY,motionQuaternionZ,motionQuaternionW,motionGravityX,motionGravityY,motionGravityZ,motionMagneticFieldX,motionMagneticFieldY,motionMagneticFieldZ,motionMagneticFieldCalibrationAccuracy,activityTimestamp_sinceReboot,activity,activityActivityConfidence,activityActivityStartDate,pedometerStartDate,pedometerNumberofSteps,pedometerAverageActivePace,pedometerCurrentPace,pedometerCurrentCadence,pedometerDistance,pedometerFloorAscended,pedometerFloorDescended,pedometerEndDate,altimeterTimestamp_sinceReboot,altimeterReset,altimeterRelativeAltitude,altimeterPressure,IP_en0,IP_pdp_ip0,deviceOrientation,batteryState,batteryLevel,avAudioRecorderPeakPower,avAudioRecorderAveragePower,label
1561914553.020572,1,0,0,1561914551.999761,4.634731826376761,-74.15113345726779,2553.104,0,312.1875,4,30,-9999,1561914552.998801,-2.376121520996094,27.21512222290039,-10.79852294921875,338.2691955566406,345.7626647949219,15,197268.1600796667,-0.68988037109375,0.126373291015625,-0.66998291015625,197268.1428376667,0.05500812494780468,0.04599758571563058,0.06609859299133065,197268.1416166667,-78.0106201171875,-1.757400512695312,-574.5135498046875,197268.1428376667,1.474324671120559,-0.8159509006212221,-0.1300783900155856,0.05188794061541557,0.03895562142133713,0.06291350722312927,0.02930700778961182,0.00364995002746582,0.01091521978378296,1,-0.221958264708519,0.333227813243866,-0.6348073482513428,-0.6608428359031677,-0.7222238779067993,0.1297118663787842,-0.6793875098228455,0,0,0,-1,197266.279814,1,2,1561914551.117351,1561913957.287787,32,0.8918345,0,0,26.32609,0,0,1561914413.669193,197265.260629,0,1.442627,75.29156,3232235528,177845136,1,1,0.53,-26.281,-33.30707,3
1561914553.027201,2,0,0,1561914551.999761,4.634731826376761,-74.15113345726779,2553.104,0,312.1875,4,30,-9999,1561914552.998801,-2.376121520996094,27.21512222290039,-10.79852294921875,338.2691955566406,345.7626647949219,15,197268.1803436667,-0.693023681640625,0.127655029296875,-0.6691741943359375,197268.1631006667,0.07916033287373329,-0.008967662338623819,0.03815164682814814,197268.1617276667,-78.19888305664062,-1.7587890625,-574.673583984375,197268.1631006667,1.475992960506276,-0.8156381086829846,-0.129937044583149,0.07604014873504639,-0.0160096287727356,0.03496655821800232,0.03214430809020996,-0.003198415040969849,0.009643077850341797,1,-0.222185879945755,0.3328970670700073,-0.6353752613067627,-0.6603871583938599,-0.7220247387886047,0.129571720957756,-0.679625928401947,0,0,0,-1,197266.279814,1,2,1561914551.117351,1561913957.287787,32,0.8918345,0,0,26.32609,0,0,1561914413.669193,197265.260629,0,1.442627,75.29156,3232235528,177845136,1,1,0.53,-26.281,-33.81182,3
1561914553.044273,3,0,0,1561914551.999761,4.634731826376761,-74.15113345726779,2553.104,0,312.1875,4,30,-9999,1561914553.031436,-2.425552368164062,27.38893699645996,-11.097900390625,338.0331420898438,345.526611328125,15,197268.2006066667,-0.6968231201171875,0.1240234375,-0.669281005859375,197268.1833646667,0.06758570214403091,0.005581453012588068,0.05421237241408901,197268.1818386667,-77.96427917480469,-1.984115600585938,-574.5972900390625,197268.1833646667,1.477631309860655,-0.8156509530222842,-0.1295157160267602,0.06446551531553268,-0.001460513565689325,0.05102728307247162,0.02904945611953735,-0.001498907804489136,0.01047986745834351,1,-0.222608894109726,0.3325932323932648,-0.6358613967895508,-0.6599297523498535,-0.7220731377601624,0.1291539371013641,-0.679654061794281,0,0,0,-1,197266.279814,1,2,1561914551.117351,1561913957.287787,32,0.8918345,0,0,26.32609,0,0,1561914413.669193,197265.260629,0,1.442627,75.29156,3232235528,177845136,1,1,0.53,-26.281,-33.81182,3
1561914553.075369,4,0,0,1561914552.999753,4.634731826376761,-74.15113345726779,2553.103,0,13.359375,4,30,-9999,1561914553.031436,-2.425552368164062,27.38893699645996,-11.097900390625,338.0331420898438,345.526611328125,15,197268.2208706667,-0.7117919921875,0.1106109619140625,-0.66265869140625,197268.2036286667,0.06865549395391574,-0.01922589254150004,0.057606837539504,197268.2019496667,-77.75570678710938,-2.00457763671875,-574.61376953125,197268.2036286667,1.479352472294474,-0.8156744465618858,-0.1295117687848255,0.06553530693054199,-0.02626785822212696,0.05442174896597862,0.02526640892028809,-0.00512656569480896,0.01035642623901367,1,-0.2229038625955582,0.3324081003665924,-0.6364259719848633,-0.6593790650367737,-0.7220895290374756,0.1291500180959702,-0.6796374320983887,0,0,0,-1,197266.279814,1,2,1561914551.117351,1561913957.287787,32,0.8918345,0,0,26.32609,0,0,1561914413.669193,197265.260629,0,1.442627,75.29156,3232235528,177845136,1,1,0.53,-26.281,-35.07859,3
1561914553.084775,5,0,0,1561914552.999753,4.634731826376761,-74.15113345726779,2553.103,0,13.359375,4,30,-9999,1561914553.075398,-2.355789184570312,27.38711738586426,-11.1365966796875,337.9115600585938,345.405029296875,15,197268.2411036667,-0.72906494140625,0.1021575927734375,-0.656768798828125,197268.2238916667,0.06189665742340364,-0.03411722409278711,0.004002198486171079,197268.2220916667,-78.00453186035156,-1.95703125,-574.578857421875,197268.2238916667,1.480769158050422,-0.8162020454325013,-0.1290977448597969,0.05877647176384926,-0.04115919023752213,0.000817109365016222,0.01069486141204834,-0.01812848448753357,0.01663422584533691,1,-0.2234508246183395,0.3322999477386475,-0.6367817521095276,-0.6589047908782959,-0.7224868535995483,0.1287394464015961,-0.6792929768562317,0,0,0,-1,197266.279814,1,2,1561914551.117351,1561913957.287787,32,0.8918345,0,0,26.32609,0,0,1561914413.669193,197265.260629,0,1.442627,75.29156,3232235528,177845136,1,1,0.53,-26.281,-35.07859,3
1561914553.106781,6,0,0,1561914552.999753,4.634731826376761,-74.15113345726779,2553.103,0,13.359375,4,30,-9999,1561914553.075398,-2.355789184570312,27.38711738586426,-11.1365966796875,337.9115600585938,345.405029296875,15,197268.2613676667,-0.7458343505859375,0.120208740234375,-0.6643524169921875,197268.2441556667,0.01318690845363636,-0.0005613943577887034,-0.04168805843966436,197268.2422026667,-78.18589782714844,-2.182342529296875,-574.749267578125,197268.2441556667,1.480908054909922,-0.8166772893331703,-0.1282158424455391,0.01006672438234091,-0.007603360805660486,-0.04487314820289612,-0.006172835826873779,-0.02570724487304688,0.02225816249847412,1,-0.2239309251308441,0.3321768343448639,-0.6366629600524902,-0.6589186787605286,-0.7228921055793762,0.1278648376464844,-0.6790269613265991,0,0,0,-1,197266.279814,1,2,1561914551.117351,1561913957.287787,32,0.8918345,0,0,26.32609,0,0,1561914413.669193,197265.260629,0,1.442627,75.29156,3232235528,177845136,1,1,0.53,-26.281,-35.84885,3
1561914553.125442,7,0,0,1561914552.999753,4.634731826376761,-74.15113345726779,2553.103,0,13.359375,4,30,-9999,1561914553.105953,-2.394706726074219,27.26855087280273,-10.912109375,337.8919372558594,345.3854064941406,15,197268.2816306667,-0.765594482421875,0.1261138916015625,-0.678497314453125,197268.2644196667,-0.001916144404312012,0.02578712251912826,-0.02734027806686247,197268.2623136667,-78.00819396972656,-2.105697631835938,-574.9185180664062,197268.2644196667,1.480351146444464,-0.8165509858260198,-0.1276808544545642,-0.005036328453570604,0.01874515600502491,-0.03052536770701408,-0.02297830581665039,-0.007125496864318848,0.01481258869171143,1,-0.2239837497472763,0.3320373296737671,-0.6364259123802185,-0.6591998338699341,-0.7228560447692871,0.1273342221975327,-0.6791650056838989,0,0,0,-1,197266.279814,1,2,1561914551.117351,1561913957.287787,32,0.8918345,0,0,26.32609,0,0,1561914413.669193,197265.260629,0,1.442627,75.29156,3232235528,177845136,1,1,0.53,-26.281,-36.77541,3
1561914553.154116,8,0,0,1561914552.999753,4.634731826376761,-74.15113345726779,2553.103,0,13.359375,4,30,-9999,1561914553.131765,-2.306327819824219,27.38173484802246,-11.1781005859375,337.8960571289062,345.3895263671875,15,197268.3018946667,-0.8561859130859375,0.1404571533203125,-0.690582275390625,197268.2846826667,0.0501388012107038,-0.04598586780683424,-0.01845330950926805,197268.2824546667,-77.95556640625,-1.98138427734375,-574.8753662109375,197268.2846826667,1.480249407184651,-0.8168629052520362,-0.1270594221840253,0.0470186173915863,-0.05302783101797104,-0.02163839899003506,-0.04246902465820312,-0.0006039440631866455,0.000496208667755127,1,-0.2242815047502518,0.3319654166698456,-0.6362787485122681,-0.6592769622802734,-0.7231253981590271,0.126717820763588,-0.6789935231208801,0,0,0,-1,197266.279814,1,2,1561914551.117351,1561913957.287787,32,0.8918345,0,0,26.32609,0,0,1561914413.669193,197265.260629,0,1.442627,75.29156,3232235528,177845136,1,1,0.53,-26.281,-36.96043,3
1561914553.165831,9,0,0,1561914552.999753,4.634731826376761,-74.15113345726779,2553.103,0,13.359375,4,30,-9999,1561914553.156097,-2.250396728515625,27.2476921081543,-11.3406982421875,337.7766418457031,345.2701110839844,15,197268.3221586667,-0.9848175048828125,0.1326751708984375,-0.69891357421875,197268.3049466667,0.1788126250711903,-0.1318728129618897,-0.03397021760061473,197268.3025666667,-78.24717712402344,-2.034744262695312,-574.8517456054688,197268.3049466667,1.481472026544847,-0.8186152345186404,-0.12515578460084,0.1756690889596939,-0.138937771320343,-0.03715227544307709,-0.1316969394683838,0.01562786102294922,-0.01269334554672241,1,-0.2257013618946075,0.3318349421024323,-0.6362428665161133,-0.6588926315307617,-0.7244889736175537,0.1248292997479439,-0.6778889298439026,0,0,0,-1,197266.279814,1,2,1561914551.117351,1561913957.287787,32,0.8918345,0,0,26.32609,0,0,1561914413.669193,197265.260629,0,1.442627,75.29156,3232235528,177845136,1,1,0.53,-25.83537,-26.80127,3
1561914553.189984,10,0,0,1561914552.999753,4.634731826376761,-74.15113345726779,2553.103,0,13.359375,4,30,-9999,1561914553.182429,-2.309593200683594,27.09493446350098,-11.41168212890625,337.60693359375,345.1004028320312,15,197268.3424216667,-1.107467651367188,0.0917816162109375,-0.6972503662109375,197268.3251796667,0.3199897239334898,-0.2647299302626726,-0.1488507312272538,197268.3226776667,-78.24772644042969,-2.216064453125,-574.83544921875,197268.3251796667,1.484069756328521,-0.8225093769075545,-0.1205031047919032,0.3168461918830872,-0.271794855594635,-0.1520327776670456,-0.2572764754295349,0.01246351003646851,-0.02346318960189819,1,-0.2289796024560928,0.3314259350299835,-0.636060893535614,-0.658142626285553,-0.7275410294532776,0.1202116757631302,-0.6754503846168518,0,0,0,-1,197266.279814,1,2,1561914551.117351,1561913957.287787,32,0.8918345,0,0,26.32609,0,0,1561914413.669193,197265.260629,0,1.442627,75.29156,3232235528,177845136,1,1,0.53,-25.83537,-26.86305,3
1561914553.207203,11,0,0,1561914552.999753,4.634731826376761,-74.15113345726779,2553.103,0,13.359375,4,30,-9999,1561914553.182429,-2.309593200683594,27.09493446350098,-11.41168212890625,337.60693359375,345.1004028320312,15,197268.3626856667,-1.135452270507812,0.043975830078125,-0.6829833984375,197268.3454436667,0.4157913515108012,-0.2985571361127501,-0.4553922906041705,197268.3427886667,-78.4215087890625,-2.301132202148438,-575.3106079101562,197268.3454436667,1.485605352889725,-0.8283858816834241,-0.111054779086693,0.4126478433609009,-0.3056220710277557,-0.4585743546485901,-0.3751657009124756,-0.01904502511024475,-0.02534914016723633,1,-0.234357938170433,0.3303418457508087,-0.6346608996391296,-0.6581459641456604,-0.7323019504547119,0.1108266413211823,-0.6719012260437012,0,0,0,-1,197266.279814,1,2,1561914551.117351,1561913957.287787,32,0.8918345,0,0,26.32609,0,0,1561914413.669193,197265.260629,0,1.442627,75.29156,3232235528,177845136,1,1,0.53,-25.83537,-26.86305,3
1561914553.23575,12,0,0,1561914552.999753,4.634731826376761,-74.15113345726779,2553.103,0,13.359375,4,30,-9999,1561914553.208404,-2.911399841308594,27.11508178710938,-11.65216064453125,337.7270202636719,345.2204895019531,15,197268.3829496667,-1.060226440429688,0.0041351318359375,-0.6697845458984375,197268.3657066667,0.3885623935775041,-0.2051126724162678,-0.8622964072412683,197268.3628996667,-78.92518615722656,-2.524887084960938,-575.2655029296875,197268.3657066667,1.48275017406028,-0.834132517517101,-0.09560273008914959,0.3854188621044159,-0.2121776193380356,-0.8654784560203552,-0.3981207013130188,-0.05148130655288696,-0.01423072814941406,1,-0.2410179823637009,0.3279237747192383,-0.6309872269630432,-0.6604782342910767,-0.7373315691947937,0.09545716643333435,-0.6687526702880859,0,0,0,-1,197266.279814,1,2,1561914551.117351,1561913957.287787,32,0.8918345,0,0,26.32609,0,0,1561914413.669193,197265.260629,0,1.442627,75.29156,3232235528,177845136,1,1,0.53,-25.83537,-27.99281,3
1561914553.246865,13,0,0,1561914552.999753,4.634731826376761,-74.15113345726779,2553.103,0,13.359375,4,30,-9999,1561914553.238746,-3.081863403320312,26.87048721313477,-11.81475830078125,338.4126586914062,345.9061279296875,15,197268.4032136667,-0.9327239990234375,0.0077056884765625,-0.65045166015625,197268.3859706667,0.2807578989672055,-0.09543171450189943,-1.235239361025458,197268.3830106667,-79.33363342285156,-2.277984619140625,-575.3574829101562,197268.3859706667,1.473345655846094,-0.8380587001167148,-0.07519585931841249,0.2776143848896027,-0.1024966686964035,-1.238421440124512,-0.3189810514450073,-0.07098987698554993,-0.002767622470855713,1,-0.2477220743894577,0.3242303431034088,-0.6245982646942139,-0.6658720374107361,-0.7412453889846802,0.07512501627206802,-0.6670169234275818,0,0,0,-1,197266.279814,1,2,1561914551.117351,1561913957.287787,32,0.8918345,0,0,26.32609,0,0,1561914413.669193,197265.260629,0,1.442627,75.29156,3232235528,177845136,1,1,0.53,-25.83537,-27.99281,3
1561914553.267118,14,0,0,1561914552.999753,4.634731826376761,-74.15113345726779,2553.103,0,13.359375,4,30,-9999,1561914553.238746,-3.081863403320312,26.87048721313477,-11.81475830078125,338.4126586914062,345.9061279296875,15,197268.4234766667,-0.776092529296875,0.04534912109375,-0.6461334228515625,197268.4062346667,0.1598258843955794,-0.04725273353738493,-1.445091128601521,197268.4031216667,-80.31880187988281,-2.849777221679688,-575.5081787109375,197268.4062346667,1.458171124477012,-0.840476434008028,-0.05173849626920306,0.1566823422908783,-0.05431768298149109,-1.448273181915283,-0.1887598037719727,-0.0440097451210022,0.01576364040374756,1,-0.2540867626667023,0.3198941349983215,-0.6158908009529114,-0.6736366152763367,-0.7439641952514648,0.0517154149711132,-0.6662153005599976,0,0,0,-1,197266.279814,1,2,1561914551.117351,1561913957.287787,32,0.8918345,0,0,26.32609,0,0,1561914413.669193,197265.260629,0,1.442627,75.29156,3232235528,177845136,1,1,0.53,-25.83537,-28.6764,3
1561914553.2894,15,0,0,1561914552.999753,4.634731826376761,-74.15113345726779,2553.103,0,13.359375,4,30,-9999,1561914553.283798,-5.463241577148438,26.44722366333008,-12.1490478515625,340.7694702148438,348.262939453125,15,197268.4437406667,-0.613128662109375,0.096649169921875,-0.65576171875,197268.4264976667,0.08425868846458098,-0.01056902110208846,-1.358736532359048,197268.4232636667,-81.23298645019531,-2.985214233398438,-575.7210693359375,197268.4264976667,1.440493527073655,-0.841867231644796,-0.02866713936565655,0.08111516386270523,-0.01763397268950939,-1.361918568611145,-0.03051090240478516,0.01668590307235718,0.01966416835784912,1,-0.2596481740474701,0.3157278001308441,-0.6063351631164551,-0.6820970773696899,-0.7455816268920898,0.02866321243345737,-0.6657975912094116,0,0,0,-1,197266.279814,1,2,1561914551.117351,1561913957.287787,32,0.8918345,0,0,26.32609,0,0,1561914413.669193,197265.260629,0,1.442627,75.29156,3232235528,177845136,1,1,0.53,-25.83537,-29.0271,3
1561914553.315069,16,0,0,1561914552.999753,4.634731826376761,-74.15113345726779,2553.103,0,13.359375,4,30,-9999,1561914553.308053,-6.154335021972656,26.11446571350098,-12.23699951171875,341.4071350097656,348.9006042480469,15,197268.4639866667,-0.466552734375,0.1226654052734375,-0.660736083984375,197268.4467616667,0.1180725785092081,-0.06253554976891365,-0.9750706267617637,197268.4433876667,-81.85005187988281,-3.389358520507812,-575.960693359375,197268.4467616667,1.425848428998339,-0.8428909628661964,-0.009425806554461062,0.1149290502071381,-0.06960050016641617,-0.978252649307251,0.1334077715873718,0.08722350001335144,0.009516000747680664,1,-0.2643020451068878,0.3122588098049164,-0.5982701778411865,-0.6889931559562683,-0.7465364336967468,0.009425667114555836,-0.6652777194976807,0,0,0,-1,197266.279814,1,2,1561914551.117351,1561913957.287787,32,0.8918345,0,0,26.32609,0,0,1561914413.669193,197265.260629,0,1.442627,75.29156,3232235528,177845136,1,1,0.53,-25.83537,-29.90963,3
1561914553.327962,17,0,0,1561914552.999753,4.634731826376761,-74.15113345726779,2553.103,0,13.359375,4,30,-9999,1561914553.308053,-6.154335021972656,26.11446571350098,-12.23699951171875,341.4071350097656,348.9006042480469,15,197268.4842506667,-0.37939453125,0.106414794921875,-0.635772705078125,197268.4670386667,0.2418805407420108,-0.2841907136123176,-0.4233978722162856,197268.4634986667,-82.15397644042969,-3.20709228515625,-575.9703979492188,197268.4670386667,1.418879157695183,-0.8462994701121375,0.003534975889828458,0.2387370020151138,-0.2912556529045105,-0.4265799224376678,0.2822755575180054,0.1262003779411316,0.002018511295318604,1,-0.2687131762504578,0.3105091452598572,-0.5934028625488281,-0.692279040813446,-0.7488282918930054,-0.003534968476742506,-0.6627545952796936,0,0,0,-1,197266.279814,1,2,1561914551.117351,1561913957.287787,32,0.8918345,0,0,26.32609,0,0,1561914413.669193,197265.260629,0,1.442627,75.29156,3232235528,177845136,1,1,0.53,-25.83537,-30.79093,3
1561914553.348164,18,0,0,1561914552.999753,4.634731826376761,-74.15113345726779,2553.103,0,13.359375,4,30,-9999,1561914553.334462,-6.515518188476562,26.134033203125,-12.14227294921875,341.2076416015625,348.7011108398438,15,197268.5045136667,-0.37420654296875,0.0672760009765625,-0.6081085205078125,197268.4873016667,0.3695322433761248,-0.5990099102894186,0.09221434958897469,197268.4836096667,-82.2784423828125,-3.289520263671875,-575.7835083007812,197268.4873016667,1.421520982410423,-0.8555930449816421,0.01013726403118571,0.3663887083530426,-0.6060748696327209,0.08903229236602783,0.3755266666412354,0.1165519058704376,0.01996451616287231,1,-0.2741551101207733,0.3114006519317627,-0.5920152068138123,-0.6909317374229431,-0.7549211978912354,-0.01013709045946598,-0.6557372212409973,0,0,0,-1,197266.279814,1,2,1561914551.117351,1561913957.287787,32,0.8918345,0,0,26.32609,0,0,1561914413.669193,197265.260629,0,1.442627,75.29156,3232235528,177845136,1,1,0.53,-25.83537,-30.79093,3
1561914553.368425,19,0,0,1561914552.999753,4.634731826376761,-74.15113345726779,2553.103,0,13.359375,4,30,-9999,1561914553.359676,-6.497413635253906,25.91021919250488,-12.1849365234375,340.49169921875,347.9851684570312,15,197268.5247776667,-0.4197998046875,0.033905029296875,-0.5931854248046875,197268.5075656667,0.2968415277385211,-0.6720694737379984,0.4840542955200393,197268.5037206667,-82.36994934082031,-3.389877319335938,-575.8223876953125,197268.5075656667,1.43072329101605,-0.8691013635347242,0.01012763187061557,0.2936980128288269,-0.6791344285011292,0.480872243642807,0.3895034790039062,0.07740345597267151,0.03737151622772217,1,-0.2795954048633575,0.3147799074649811,-0.5933146476745605,-0.6860887408256531,-0.7637100219726562,-0.01012745872139931,-0.6454800367355347,0,0,0,-1,197266.279814,1,2,1561914551.117351,1561913957.287787,32,0.8918345,0,0,26.32609,0,0,1561914413.669193,197265.260629,0,1.442627,75.29156,3232235528,177845136,1,1,0.53,-25.83537,-31.62744,3
1561914553.392372,20,0,0,1561914552.999753,4.634731826376761,-74.15113345726779,2553.103,0,13.359375,4,30,-9999,1561914553.38508,-6.196678161621094,25.80470275878906,-12.34930419921875,339.7394104003906,347.2328796386719,15,197268.5450416667,-0.4811859130859375,0.01983642578125,-0.5935516357421875,197268.5278296667,0.1388098149693281,-0.532238070174516,0.6677234611550981,197268.5238316667,-82.04940795898438,-3.808944702148438,-575.9032592773438,197268.5278296667,1.441732807339994,-0.8817653590320474,0.003768256022082412,0.1356662809848785,-0.5393030047416687,0.6645414233207703,0.3520572185516357,0.03767326474189758,0.04259961843490601,1,-0.2829418480396271,0.3194548487663269,-0.5963150262832642,-0.6799271702766418,-0.7718570232391357,-0.003768247086554766,-0.6357850432395935,0,0,0,-1,197266.279814,1,2,1561914551.117351,1561913957.287787,32,0.8918345,0,0,26.32609,0,0,1561914413.669193,197265.260629,0,1.442627,75.29156,3232235528,177845136,1,1,0.53,-25.83537,-31.71873,3
1561914553.409116,21,0,0,1561914552.999753,4.634731826376761,-74.15113345726779,2553.103,0,13.359375,4,30,-9999,1561914553.38508,-6.196678161621094,25.80470275878906,-12.34930419921875,339.7394104003906,347.2328796386719,15,197268.5653046667,-0.5341033935546875,0.0272064208984375,-0.608917236328125,197268.5480626667,-0.02880261982142498,-0.2947067378087135,0.7301436960488112,197268.5439426667,-81.97439575195312,-3.459686279296875,-576.2095947265625,197268.5480626667,1.451441692784961,-0.8902548295392319,-0.006503389532657774,-0.03194614872336388,-0.3017716705799103,0.726961612701416,0.296029806137085,0.01333308219909668,0.03564906120300293,1,-0.2835635244846344,0.3240237236022949,-0.6000477075576782,-0.6741982102394104,-0.7772157192230225,0.00650334358215332,-0.6292006969451904,0,0,0,-1,197266.279814,1,2,1561914551.117351,1561913957.287787,32,0.8918345,0,0,26.32609,0,0,1561914413.669193,197265.260629,0,1.442627,75.29156,3232235528,177845136,1,1,0.53,-25.83537,-32.10666,3
1561914553.429214,22,0,0,1561914552.999753,4.634731826376761,-74.15113345726779,2553.103,0,13.359375,4,30,-9999,1561914553.409305,-6.045394897460938,25.88215637207031,-12.468505859375,339.1307983398438,346.624267578125,15,197268.5855686667,-0.5863037109375,0.0303497314453125,-0.6308135986328125,197268.5683266667,-0.1152072834923918,-0.1683927409901463,0.7705401213597872,197268.5640536667,-81.48194885253906,-3.507614135742188,-575.9239501953125,197268.5683266667,1.459654994390666,-0.8947392297114658,-0.01940783114020282,-0.1183508113026619,-0.1754576861858368,0.7673580646514893,0.2457956671714783,0.007799834012985229,0.01668715476989746,1,-0.2818952202796936,0.3282268643379211,-0.6042261123657227,-0.6691136360168457,-0.7798990607261658,0.01940661296248436,-0.6256043910980225,0,0,0,-1,197266.279814,1,2,1561914551.117351,1561913957.287787,32,0.8918345,0,0,26.32609,0,0,1561914413.669193,197265.260629,0,1.442627,75.29156,3232235528,177845136,1,1,0.53,-25.83537,-32.57853,3
1561914553.449473,23,0,0,1561914552.999753,4.634731826376761,-74.15113345726779,2553.103,0,13.359375,4,30,-9999,1561914553.435694,-5.673263549804688,26.08021354675293,-12.34765625,338.5844421386719,346.0779113769531,15,197268.6058326667,-0.6383514404296875,0.0385589599609375,-0.66314697265625,197268.5885896667,-0.1199628902509463,-0.0841348514738923,0.748016436440442,197268.5841646667,-81.2938232421875,-3.22113037109375,-575.7875366210938,197268.5885896667,1.467290960163806,-0.8974478181524402,-0.03293690957402716,-0.12310641258955,-0.09119980782270432,0.7448343634605408,0.1950101852416992,-0.002581208944320679,-0.00754469633102417,1,-0.279415637254715,0.3321030735969543,-0.6085183620452881,-0.6643341183662415,-0.7813138961791992,0.03293095529079437,-0.6232689023017883,0,0,0,-1,197266.279814,1,2,1561914551.117351,1561913957.287787,32,0.8918345,0,0,26.32609,0,0,1561914413.669193,197265.260629,0,1.442627,75.29156,3232235528,177845136,1,1,0.53,-25.16905,-32.64381,3
1561914553.4764,24,0,0,1561914552.999753,4.634731826376761,-74.15113345726779,2553.103,0,13.359375,4,30,-9999,1561914553.460016,-4.941261291503906,26.21273040771484,-12.26470947265625,338.034423828125,345.5278930664062,15,197268.6260956667,-0.6764068603515625,0.05108642578125,-0.6867523193359375,197268.6088536667,-0.1182800387581252,0.07180388299460741,0.7688982825477534,197268.6042756667,-81.04278564453125,-3.181381225585938,-575.74658203125,197268.6088536667,1.474760594726544,-0.8973340820035305,-0.04645982770332838,-0.121423564851284,0.064738929271698,0.7657161951065063,0.1424720883369446,-0.007884174585342407,-0.04012393951416016,1,-0.2760713398456573,0.3350717723369598,-0.613100528717041,-0.6600146293640137,-0.7808235287666321,0.04644311591982841,-0.6230230331420898,0,0,0,-1,197266.279814,1,2,1561914551.117351,1561913957.287787,32,0.8918345,0,0,26.32609,0,0,1561914413.669193,197266.206564,0,1.477051,75.29124,3232235528,177845136,1,1,0.53,-23.20061,-29.56275,3
1561914553.490291,25,0,0,1561914552.999753,4.634731826376761,-74.15113345726779,2553.103,0,13.359375,4,30,-9999,1561914553.460016,-4.941261291503906,26.21273040771484,-12.26470947265625,338.034423828125,345.5278930664062,15,197268.6463596667,-0.71881103515625,0.042999267578125,-0.6904449462890625,197268.6291176667,1.251685712337242e-05,0.1244399303594785,0.7738672085096232,197268.6243866667,-80.31637573242188,-3.2142333984375,-575.6414794921875,197268.6291176667,1.483455764762885,-0.8948290372973934,-0.05955491518559269,-0.003131010569632053,0.1173749789595604,0.7706851363182068,0.1023123264312744,-0.008433312177658081,-0.06220930814743042,1,-0.2723522186279297,0.3369759023189545,-0.6182934641838074,-0.655732274055481,-0.7787191271781921,0.05951971560716629,-0.6245430111885071,0,0,0,-1,197266.279814,1,2,1561914551.117351,1561913957.287787,32,0.8918345,0,0,26.32609,0,0,1561914413.669193,197266.206564,0,1.477051,75.29124,3232235528,177845136,1,1,0.53,-23.20061,-29.09079,3
1561914553.510349,26,0,0,1561914552.999753,4.634731826376761,-74.15113345726779,2553.103,0,13.359375,4,30,-9999,1561914553.492418,-4.329841613769531,26.36177253723145,-12.13592529296875,337.3381042480469,344.8315734863281,15,197268.6666236667,-0.7589263916015625,0.03314208984375,-0.67822265625,197268.6493806667,0.1196763341176538,0.1016853493736235,0.7191986366008036,197268.6444976667,-79.84373474121094,-3.02117919921875,-575.7277221679688,197268.6493806667,1.493971789494606,-0.8920105597764157,-0.07055365319568083,0.1165328100323677,0.09462039172649384,0.7160165905952454,0.05758821964263916,-0.0274958610534668,-0.06415855884552002,1,-0.2695529758930206,0.3379319310188293,-0.6237484812736511,-0.6512150764465332,-0.7763992547988892,0.07049513608217239,-0.6262863874435425,0,0,0,-1,197266.279814,1,2,1561914551.117351,1561913957.287787,32,0.8918345,0,0,26.32609,0,0,1561914413.669193,197266.206564,0,1.477051,75.29124,3232235528,177845136,1,1,0.53,-23.20061,-29.09079,3
1561914553.530501,27,0,0,1561914552.999753,4.634731826376761,-74.15113345726779,2553.103,0,13.359375,4,30,-9999,1561914553.492418,-4.329841613769531,26.36177253723145,-12.13592529296875,337.3381042480469,344.8315734863281,15,197268.6868566667,-0.7792205810546875,0.0383453369140625,-0.6587371826171875,197268.6696446667,0.1529927456706541,0.1280359967794125,0.6364036214713302,197268.6646096667,-79.58572387695312,-2.905029296875,-575.8736572265625,197268.6696446667,1.504762234060738,-0.8890546441864313,-0.07941893149642247,0.1498492062091827,0.1209710389375687,0.6332215666770935,0.01510250568389893,-0.04619339108467102,-0.05006253719329834,1,-0.2674765586853027,0.3381955623626709,-0.6289413571357727,-0.6469256281852722,-0.7740288972854614,0.07933547347784042,-0.6281601190567017,0,0,0,-1,197266.279814,1,2,1561914551.117351,1561913957.287787,32,0.8918345,0,0,26.32609,0,0,1561914413.669193,197266.206564,0,1.477051,75.29124,3232235528,177845136,1,1,0.53,-23.20061,-30.01373,3
1561914553.556307,28,0,0,1561914552.999753,4.634731826376761,-74.15113345726779,2553.103,0,13.359375,4,30,-9999,1561914553.539216,-3.596000671386719,26.52467155456543,-12.46868896484375,335.85302734375,343.3464965820312,15,197268.7071206667,-0.7905731201171875,0.0523834228515625,-0.63763427734375,197268.6899086667,0.1654869659247608,0.154537112786791,0.5368767641612159,197268.6847206667,-79.02081298828125,-2.845184326171875,-575.9732666015625,197268.6899086667,1.514687560333797,-0.8854453621372802,-0.08663131861609999,0.1623434275388718,0.147472158074379,0.5336946845054626,-0.007927000522613525,-0.04817765951156616,-0.02816605567932129,1,-0.2656005322933197,0.337891697883606,-0.6336575150489807,-0.6432446241378784,-0.771293580532074,0.08652299642562866,-0.6305711269378662,0,0,0,-1,197266.279814,1,2,1561914551.117351,1561913957.287787,32,0.8918345,0,0,26.32609,0,0,1561914413.669193,197266.206564,0,1.477051,75.29124,3232235528,177845136,1,1,0.53,-23.20061,-30.37752,3
1561914553.571838,29,0,0,1561914552.999753,4.634731826376761,-74.15113345726779,2553.103,0,13.359375,4,30,-9999,1561914553.561254,-3.011871337890625,26.76675224304199,-12.47314453125,335.2496948242188,342.7431640625,15,197268.7273836667,-0.79718017578125,0.05987548828125,-0.6219482421875,197268.7101716667,0.1831245491921376,0.160417372473686,0.4167466273938126,197268.7048316667,-79.1219482421875,-2.639907836914062,-576.1490478515625,197268.7101716667,1.52355593300014,-0.8816481598496339,-0.09183366626661385,0.1799810081720352,0.1533524245023727,0.4135645627975464,-0.02203726768493652,-0.03932121396064758,-0.004433751106262207,1,-0.2641524374485016,0.3370804190635681,-0.6377394199371338,-0.6402255892753601,-0.768535852432251,0.09170464426279068,-0.6332005858421326,0,0,0,-1,197266.279814,1,2,1561914551.117351,1561913957.287787,32,0.8918345,0,0,26.32609,0,0,1561914413.669193,197266.206564,0,1.477051,75.29124,3232235528,177845136,1,1,0.53,-23.20061,-30.89614,3
1561914553.591342,30,0,0,1561914552.999753,4.634731826376761,-74.15113345726779,2553.103,0,13.359375,4,30,-9999,1561914553.587926,-2.612968444824219,26.62972068786621,-12.7088623046875,334.8403625488281,342.3338317871094,15,197268.7476476667,-0.798736572265625,0.066314697265625,-0.6095123291015625,197268.7304356667,0.139344844032325,0.1951239541157076,0.2842301283964508,197268.7249426667,-78.49125671386719,-2.905197143554688,-576.1906127929688,197268.7304356667,1.530631824735024,-0.8774011053613522,-0.09514308329790236,0.1362013071775436,0.188059002161026,0.281048059463501,-0.03157806396484375,-0.03512409329414368,0.01431316137313843,1,-0.2628818154335022,0.3358012139797211,-0.6410203576087952,-0.6381407976150513,-0.7656021118164062,0.09499960392713547,-0.6362614035606384,0,0,0,-1,197266.279814,1,2,1561914551.117351,1561913957.287787,32,0.8918345,0,0,26.32609,0,0,1561914413.669193,197266.206564,0,1.477051,75.29124,3232235528,177845136,1,1,0.53,-23.20061,-31.27408,3
1561914553.611714,31,0,0,1561914552.999753,4.634731826376761,-74.15113345726779,2553.103,0,13.359375,4,30,-9999,1561914553.587926,-2.612968444824219,26.62972068786621,-12.7088623046875,334.8403625488281,342.3338317871094,15,197268.7679116667,-0.786041259765625,0.09503173828125,-0.612274169921875,197268.7506996667,0.06701631830297197,0.2242978185930896,0.1488459375372917,197268.7450536667,-78.44700622558594,-2.93341064453125,-576.3350219726562,197268.7506996667,1.535033692077968,-0.8728236624118162,-0.09687705606439524,0.06387279182672501,0.2172328680753708,0.1456638872623444,-0.03618228435516357,-0.03041088581085205,0.03014004230499268,1,-0.2615722715854645,0.334295928478241,-0.6432622075080872,-0.6372125744819641,-0.7625542283058167,0.09672559052705765,-0.6396523714065552,0,0,0,-1,197266.279814,1,2,1561914551.117351,1561913957.287787,32,0.8918345,0,0,26.32609,0,0,1561914413.669193,197266.206564,0,1.477051,75.29124,3232235528,177845136,1,1,0.53,-23.20061,-31.89988,3
1561914553.634189,32,0,0,1561914552.999753,4.634731826376761,-74.15113345726779,2553.103,0,13.359375,4,30,-9999,1561914553.611955,-2.629974365234375,26.49564933776855,-12.6412353515625,334.665283203125,342.1587524414062,15,197268.7881746667,-0.77252197265625,0.121185302734375,-0.6224212646484375,197268.7709326667,0.001194427748900538,0.2192572535978967,0.1110029510794837,197268.7651646667,-78.54411315917969,-2.671981811523438,-576.218017578125,197268.7709326667,1.537030263597889,-0.8681234542639616,-0.09821629604424965,-0.001949099591001868,0.2121922969818115,0.1078208982944489,-0.02660143375396729,-0.003026723861694336,0.03087097406387329,1,-0.2599461078643799,0.3329496085643768,-0.6446933746337891,-0.6371365785598755,-0.7594398260116577,0.09805846959352493,-0.6431451439857483,0,0,0,-1,197266.279814,1,2,1561914551.117351,1561913957.287787,32,0.8918345,0,0,26.32609,0,0,1561914413.669193,197266.206564,0,1.477051,75.29124,3232235528,177845136,1,1,0.53,-23.20061,-32.66822,3
1561914553.65208,33,0,0,1561914552.999753,4.634731826376761,-74.15113345726779,2553.103,0,13.359375,4,30,-9999,1561914553.638778,-2.601089477539062,26.52762603759766,-12.65478515625,334.5645446777344,342.0580139160156,15,197268.8084386667,-0.767822265625,0.1295623779296875,-0.620697021484375,197268.7911956667,-0.002740126445582528,0.1291875476347628,0.1262809736210503,197268.7852756667,-78.10456848144531,-2.995513916015625,-575.9745483398438,197268.7911956667,1.538420776660672,-0.864540742306254,-0.09993742928976156,-0.005883653648197651,0.122122585773468,0.1230989247560501,-0.01552075147628784,0.02141416072845459,0.02333009243011475,1,-0.2584483027458191,0.3321577608585358,-0.6458330154418945,-0.6370050311088562,-0.7570012211799622,0.0997711569070816,-0.645751416683197,0,0,0,-1,197266.279814,1,2,1561914551.117351,1561913957.287787,32,0.8918345,0,0,26.32609,0,0,1561914413.669193,197266.206564,0,1.477051,75.29124,3232235528,177845136,1,1,0.53,-23.20061,-33.62571,3
1561914553.672612,34,0,0,1561914552.999753,4.634731826376761,-74.15113345726779,2553.103,0,13.359375,4,30,-9999,1561914553.662608,-2.233474731445312,26.35958862304688,-12.5821533203125,334.4431457519531,341.9366149902344,15,197268.8287026667,-0.763763427734375,0.1383514404296875,-0.6187744140625,197268.8114596667,-0.005120193511786344,0.01472355240261208,0.1475532391441672,197268.8054176667,-78.03453063964844,-3.01055908203125,-576.3421020507812,197268.8114596667,1.540113969590987,-0.8631820337087006,-0.1018787364337369,-0.008263721130788326,0.007658601272851229,0.1443711817264557,-0.01184773445129395,0.02785980701446533,0.0259552001953125,1,-0.2576438784599304,0.3321046829223633,-0.646807849407196,-0.6363691687583923,-0.7559745311737061,0.101702593266964,-0.6466522216796875,0,0,0,-1,197266.279814,1,2,1561914551.117351,1561913957.287787,32,0.8918345,0,0,26.32609,0,0,1561914413.669193,197266.206564,0,1.477051,75.29124,3232235528,177845136,1,1,0.53,-23.20061,-33.62571,3
1561914553.692609,35,0,0,1561914552.999753,4.634731826376761,-74.15113345726779,2553.103,0,13.359375,4,30,-9999,1561914553.689708,-2.192588806152344,26.43738174438477,-12.63671875,334.342529296875,341.8359985351562,15,197268.8489656667,-0.7736358642578125,0.1400146484375,-0.6343841552734375,197268.8317236667,-0.06743683143909547,-0.02437990819913038,0.1926384258703367,197268.8255286667,-77.93601989746094,-2.891876220703125,-576.4146118164062,197268.8317236667,1.541694086811819,-0.8635924973430164,-0.1048834459887935,-0.07058035582304001,-0.03144485875964165,0.1894563734531403,-0.007759213447570801,0.0336601734161377,0.027366042137146,1,-0.2570389211177826,0.3329576253890991,-0.6476587653160095,-0.6353018283843994,-0.7560042142868042,0.1046912595629692,-0.6461403965950012,0,0,0,-1,197266.279814,1,2,1561914551.117351,1561913957.287787,32,0.8918345,0,0,26.32609,0,0,1561914413.669193,197266.206564,0,1.477051,75.29124,3232235528,177845136,1,1,0.53,-23.20061,-34.52928,3
1561914553.713768,36,0,0,1561914552.999753,4.634731826376761,-74.15113345726779,2553.103,0,13.359375,4,30,-9999,1561914553.689708,-2.192588806152344,26.43738174438477,-12.63671875,334.342529296875,341.8359985351562,15,197268.8692296667,-0.7878875732421875,0.1377410888671875,-0.6507568359375,197268.8519866667,-0.09137838332279882,0.004197141877964879,0.1863853236308306,197268.8456396667,-77.90998840332031,-2.786529541015625,-576.3158569335938,197268.8519866667,1.542906608832121,-0.8640726361610702,-0.1089379063838803,-0.0945219099521637,-0.002867809496819973,0.1832032650709152,-0.01765048503875732,0.03129208087921143,0.01111233234405518,1,-0.2560467720031738,0.3342032730579376,-0.6485211253166199,-0.6341677308082581,-0.7559853196144104,0.1087225675582886,-0.6454964280128479,0,0,0,-1,197266.279814,1,2,1561914551.117351,1561913957.287787,32,0.8918345,0,0,26.32609,0,0,1561914413.669193,197266.206564,0,1.477051,75.29124,3232235528,177845136,1,1,0.53,-23.20061,-35.46479,3
1561914553.733128,37,0,0,1561914552.999753,4.634731826376761,-74.15113345726779,2553.103,0,13.359375,4,30,-9999,1561914553.713151,-1.992530822753906,26.4770622253418,-12.506591796875,334.2889709472656,341.7824401855469,15,197268.8894936667,-0.7912139892578125,0.1361541748046875,-0.6600189208984375,197268.8722506667,-0.1020786982666282,0.1078851883913279,0.1348888428964044,197268.8657506667,-77.80668640136719,-2.922592163085938,-575.9852905273438,197268.8722506667,1.543484903089552,-0.8631984175737885,-0.1127265309333447,-0.105222225189209,0.1008202359080315,0.1317067891359329,-0.03278529644012451,0.02525314688682556,-0.004872143268585205,1,-0.2545979619026184,0.3350186944007874,-0.6493169665336609,-0.6335060596466064,-0.755102276802063,0.1124879419803619,-0.6458846926689148,0,0,0,-1,197266.279814,1,2,1561914551.117351,1561913957.287787,32,0.8918345,0,0,26.32609,0,0,1561914413.669193,197266.206564,0,1.477051,75.29124,3232235528,177845136,1,1,0.53,-23.20061,-36.50372,3
1561914553.755597,38,0,0,1561914552.999753,4.634731826376761,-74.15113345726779,2553.103,0,13.359375,4,30,-9999,1561914553.740033,-1.991241455078125,26.5074634552002,-12.45086669921875,334.298583984375,341.7920532226562,15,197268.9097266667,-0.777923583984375,0.1402587890625,-0.662200927734375,197268.8925146667,-0.08916822593414206,0.1878002611179897,0.09412277082612548,197268.8858616667,-77.68833923339844,-2.798187255859375,-576.07861328125,197268.8925146667,1.5433319017765,-0.8602697865176769,-0.1157546967045812,-0.09231175482273102,0.1807353049516678,0.09094071388244629,-0.03826814889907837,0.02065780758857727,-0.01215070486068726,1,-0.2526114284992218,0.3350423276424408,-0.6500375866889954,-0.6335498094558716,-0.7529458403587341,0.1154963672161102,-0.6478682160377502,0,0,0,-1,197266.279814,1,2,1561914551.117351,1561913957.287787,32,0.8918345,0,0,26.32609,0,0,1561914413.669193,197266.206564,0,1.477051,75.29124,3232235528,177845136,1,1,0.53,-23.20061,-37.53262,3
1561914553.773767,39,0,0,1561914552.999753,4.634731826376761,-74.15113345726779,2553.103,0,13.359375,4,30,-9999,1561914553.76394,-1.826972961425781,26.64056396484375,-12.40313720703125,334.2762756347656,341.7697448730469,15,197268.9299896667,-0.7616424560546875,0.1420440673828125,-0.649810791015625,197268.9127786667,-0.05835918054745139,0.1765260349592483,0.1123529074360449,197268.9059726667,-77.81398010253906,-2.689865112304688,-576.2294921875,197268.9127786667,1.543408587273332,-0.8566703058137407,-0.1182656452327048,-0.06150270625948906,0.1694610863924026,0.1091708540916443,-0.02753615379333496,0.02226865291595459,-0.01181876659393311,1,-0.2506155669689178,0.3346651196479797,-0.650842010974884,-0.633715808391571,-0.75038743019104,0.117990143597126,-0.6503821611404419,0,0,0,-1,197266.279814,1,2,1561914551.117351,1561913957.287787,32,0.8918345,0,0,26.32609,0,0,1561914413.669193,197266.206564,0,1.477051,75.29124,3232235528,177845136,1,1,0.53,-23.20061,-38.50455,3
1561914553.795014,40,0,0,1561914552.999753,4.634731826376761,-74.15113345726779,2553.103,0,13.359375,4,30,-9999,1561914553.79036,-1.582427978515625,26.76840972900391,-12.242919921875,334.1678161621094,341.6612854003906,15,197268.9502536667,-0.7541961669921875,0.1264495849609375,-0.636260986328125,197268.9330416667,-0.05053294905203553,0.06196643224396371,0.1832909967602675,197268.9260836667,-77.47288513183594,-2.807647705078125,-576.0453491210938,197268.9330416667,1.544475814534189,-0.854151284929189,-0.1213035071043101,-0.05367647483944893,0.05490148067474365,0.1801089346408844,-0.01316940784454346,0.02103784680366516,0.002221107482910156,1,-0.2489588707685471,0.3346692621707916,-0.6518875956535339,-0.6332918405532837,-0.748473048210144,0.1210062354803085,-0.6520319581031799,0,0,0,-1,197266.279814,1,2,1561914551.117351,1561913957.287787,32,0.8918345,0,0,26.32609,0,0,1561914413.669193,197266.206564,0,1.477051,75.29124,3232235528,177845136,1,1,0.53,-23.20061,-39.49519,3
1561914553.814576,41,0,0,1561914552.999753,4.634731826376761,-74.15113345726779,2553.103,0,13.359375,4,30,-9999,1561914553.79036,-1.582427978515625,26.76840972900391,-12.242919921875,334.1678161621094,341.6612854003906,15,197268.9705176667,-0.756103515625,0.1165008544921875,-0.6297607421875,197268.9533056667,-0.06115177126650848,-0.0804413133580614,0.2188513878477686,197268.9461946667,-77.54348754882812,-2.822280883789062,-576.1004028320312,197268.9533056667,1.546275994383598,-0.8543736948517082,-0.125148254709349,-0.06429529935121536,-0.08750626444816589,0.2156693339347839,-0.005934596061706543,0.00162777304649353,0.01529407501220703,1,-0.2480484694242477,0.3356998860836029,-0.6529233455657959,-0.6320352554321289,-0.748261570930481,0.1248218268156052,-0.651555061340332,0,0,0,-1,197266.279814,1,2,1561914551.117351,1561913957.287787,32,0.8918345,0,0,26.32609,0,0,1561914413.669193,197266.206564,0,1.477051,75.29124,3232235528,177845136,1,1,0.53,-23.20061,-40.41951,3
1561914553.834507,42,0,0,1561914552.999753,4.634731826376761,-74.15113345726779,2553.103,0,13.359375,4,30,-9999,1561914553.814626,-1.523933410644531,26.56750869750977,-12.39129638671875,334.0342407226562,341.5277099609375,15,197268.9907806667,-0.754730224609375,0.1250457763671875,-0.62078857421875,197268.9735696667,-0.08175425177547047,-0.1806645872932314,0.2277743090800791,197268.9663056667,-77.23033142089844,-2.738311767578125,-576.0631103515625,197268.9735696667,1.548134648508714,-0.8570559458708394,-0.1295205938739006,-0.08489777892827988,-0.18772953748703,0.2245922535657883,-0.006516695022583008,-0.01265791058540344,0.01942145824432373,1,-0.2477771192789078,0.3376616537570953,-0.6537365913391113,-0.6302534937858582,-0.749586820602417,0.1291587650775909,-0.6491822004318237,0,0,0,-1,197266.279814,1,2,1561914551.117351,1561913957.287787,32,0.8918345,0,0,26.32609,0,0,1561914413.669193,197266.206564,0,1.477051,75.29124,3232235528,177845136,1,1,0.53,-23.20061,-40.41951,3
1561914553.855479,43,0,0,1561914552.999753,4.634731826376761,-74.15113345726779,2553.103,0,13.359375,4,30,-9999,1561914553.841373,-1.313301086425781,26.71831321716309,-12.21710205078125,333.9284973144531,341.4219665527344,15,197269.0110446667,-0.760498046875,0.13232421875,-0.6247100830078125,197268.9938026667,-0.1114453021365459,-0.2123045389400268,0.2273218380108746,197268.9864476667,-77.14381408691406,-2.709365844726562,-575.8457641601562,197268.9938026667,1.5496345999498,-0.8611376222351126,-0.1343086386115315,-0.1145888268947601,-0.2193694859743118,0.2241397798061371,-0.002977609634399414,-0.008859455585479736,0.02491837739944458,1,-0.2477676570415497,0.340231865644455,-0.6543136835098267,-0.6282731294631958,-0.7517526149749756,0.1339052021503448,-0.6457069516181946,0,0,0,-1,197266.279814,1,2,1561914551.117351,1561913957.287787,32,0.8918345,0,0,26.32609,0,0,1561914413.669193,197266.206564,0,1.477051,75.29124,3232235528,177845136,1,1,0.53,-23.20061,-41.26759,3
1561914553.877649,44,0,0,1561914552.999753,4.634731826376761,-74.15113345726779,2553.103,0,13.359375,4,30,-9999,1561914553.865204,-1.325889587402344,26.84084701538086,-12.2095947265625,333.8865966796875,341.3800659179688,15,197269.0313086667,-0.7621612548828125,0.1327362060546875,-0.6248016357421875,197269.0140656667,-0.1284663636115693,-0.156083077799582,0.1889736498942786,197269.0065586667,-77.13139343261719,-2.954498291015625,-575.9323120117188,197269.0140656667,1.550443670860866,-0.8649037811985009,-0.1392064951181689,-0.1316099017858505,-0.1631480306386948,0.1857915967702866,-0.006827116012573242,-0.00643312931060791,0.01772785186767578,1,-0.247503936290741,0.342816025018692,-0.6547248363494873,-0.6265415549278259,-0.7536709308624268,0.1387573331594467,-0.6424379348754883,0,0,0,-1,197266.279814,1,2,1561914551.117351,1561913957.287787,32,0.8918345,0,0,26.32609,0,0,1561914413.669193,197266.206564,0,1.477051,75.29124,3232235528,177845136,1,1,0.53,-23.20061,-41.95566,3
1561914553.89573,45,0,0,1561914552.999753,4.634731826376761,-74.15113345726779,2553.103,0,13.359375,4,30,-9999,1561914553.865204,-1.325889587402344,26.84084701538086,-12.2095947265625,333.8865966796875,341.3800659179688,15,197269.0515716667,-0.75640869140625,0.124847412109375,-0.6320953369140625,197269.0343296667,-0.1258114583208693,-0.1022273026554546,0.126034364904109,197269.0266696667,-77.35606384277344,-2.616867065429688,-575.8076171875,197269.0343296667,1.550458208972623,-0.8675790312466565,-0.1432898874652147,-0.1289549916982651,-0.1092922538518906,0.1228523105382919,-0.007212817668914795,-0.01006382703781128,0.01524603366851807,1,-0.2470196634531021,0.3449020981788635,-0.6549176573753357,-0.6253852248191833,-0.7549484372138977,0.14280004799366,-0.6400476694107056,0,0,0,-1,197266.279814,1,2,1561914551.117351,1561913957.287787,32,0.8918345,0,0,26.32609,0,0,1561914413.669193,197266.206564,0,1.477051,75.29124,3232235528,177845136,1,1,0.53,-23.20061,-42.89724,3
1561914553.915708,46,0,0,1561914552.999753,4.634731826376761,-74.15113345726779,2553.103,0,13.359375,4,30,-9999,1561914553.898775,-1.186820983886719,26.88967132568359,-11.9835205078125,333.9157409667969,341.4092102050781,15,197269.0718356667,-0.7454376220703125,0.12237548828125,-0.645721435546875,197269.0545936667,-0.132454447343963,-0.1171732290090883,0.07504947741508698,197269.0467806667,-77.07070922851562,-2.468307495117188,-575.4381103515625,197269.0545936667,1.549648244496331,-0.8700240164161248,-0.146420615528611,-0.1355979740619659,-0.1242381781339645,0.07186742126941681,-0.000243067741394043,-0.02105060219764709,0.005813181400299072,1,-0.2466350197792053,0.3467231094837189,-0.6547603011131287,-0.6246944665908813,-0.7561656832695007,0.1458979845046997,-0.6379085183143616,0,0,0,-1,197266.279814,1,2,1561914551.117351,1561913957.287787,32,0.8918345,0,0,26.32609,0,0,1561914413.669193,197266.206564,0,1.477051,75.29124,3232235528,177845136,1,1,0.53,-23.20061,-43.602,3
1561914553.937122,47,0,0,1561914552.999753,4.634731826376761,-74.15113345726779,2553.103,0,13.359375,4,30,-9999,1561914553.898775,-1.186820983886719,26.88967132568359,-11.9835205078125,333.9157409667969,341.4092102050781,15,197269.0920996667,-0.7384033203125,0.127593994140625,-0.6536712646484375,197269.0748566667,-0.1221967497733048,-0.1977815225674977,0.08439211283519396,197269.0668916667,-77.03068542480469,-2.648666381835938,-575.4810791015625,197269.0748566667,1.548476306869536,-0.8734040559886568,-0.1492097374728157,-0.1253402829170227,-0.2048464715480804,0.08121006190776825,0.012565016746521,-0.0262812077999115,-0.01063621044158936,1,-0.2466059327125549,0.3487734496593475,-0.6543320417404175,-0.6240129470825195,-0.7580026388168335,0.1486566960811615,-0.6350851655006409,0,0,0,-1,197266.279814,1,2,1561914551.117351,1561913957.287787,32,0.8918345,0,0,26.32609,0,0,1561914413.669193,197266.206564,0,1.477051,75.29124,3232235528,177845136,1,1,0.53,-23.20061,-44.27033,3
1561914553.957796,48,0,0,1561914552.999753,4.634731826376761,-74.15113345726779,2553.103,0,13.359375,4,30,-9999,1561914553.942332,-1.462165832519531,26.95890808105469,-11.76348876953125,334.015625,341.5090942382812,15,197269.1123626667,-0.74908447265625,0.12030029296875,-0.6593475341796875,197269.0951206667,-0.06172355195254849,-0.3166503862426394,0.108794391587481,197269.0870026667,-77.01063537597656,-2.517868041992188,-575.3309936523438,197269.0951206667,1.548249937921889,-0.8788769550379297,-0.1519490849116615,-0.06486707925796509,-0.3237153291702271,0.1056123375892639,0.02274727821350098,-0.02377104759216309,-0.02300620079040527,1,-0.2474414259195328,0.3513405919075012,-0.6539345383644104,-0.6226573586463928,-0.761150598526001,0.1513650417327881,-0.6306650638580322,0,0,0,-1,197266.279814,1,2,1561914551.117351,1561913957.287787,32,0.8918345,0,0,26.32609,0,0,1561914413.669193,197266.206564,0,1.477051,75.29124,3232235528,177845136,1,1,0.53,-23.20061,-45.20312,3
1561914553.97625,49,0,0,1561914552.999753,4.634731826376761,-74.15113345726779,2553.103,0,13.359375,4,30,-9999,1561914553.966436,-1.315818786621094,27.16304588317871,-11.81787109375,333.9993286132812,341.4927978515625,15,197269.1325966667,-0.7627105712890625,0.115325927734375,-0.6602783203125,197269.1153846667,-0.02651230128395683,-0.3062568674563872,0.04858005302468042,197269.1071136667,-77.18168640136719,-2.171478271484375,-575.4281005859375,197269.1153846667,1.548621219257656,-0.8854834659984503,-0.1537216499682791,-0.02965582720935345,-0.3133217990398407,0.04539799690246582,0.01600700616836548,-0.03281664848327637,-0.03389561176300049,1,-0.249074712395668,0.3538867235183716,-0.6534568667411804,-0.6210635900497437,-0.7650914788246155,0.1531169563531876,-0.625451922416687,0,0,0,-1,197266.279814,1,2,1561914551.117351,1561913957.287787,32,0.8918345,0,0,26.32609,0,0,1561914413.669193,197266.206564,0,1.477051,75.29124,3232235528,177845136,1,1,0.53,-23.20061,-45.85215,3
1561914553.996468,50,0,0,1561914552.999753,4.634731826376761,-74.15113345726779,2553.103,0,13.359375,4,30,-9999,1561914553.992934,-1.497283935546875,27.1878833770752,-11.89666748046875,334.0683288574219,341.5617980957031,15,197269.1528596667,-0.7713470458984375,0.1275634765625,-0.655792236328125,197269.1356476667,-0.02587873526062698,-0.1981738061960664,-0.03462242575157513,197269.1272256667,-77.20571899414062,-2.448043823242188,-575.5155029296875,197269.1356476667,1.548255887500467,-0.8908241446501816,-0.1540661719010952,-0.02902226150035858,-0.2052387595176697,-0.03780448436737061,0.005669236183166504,-0.03813144564628601,-0.03895461559295654,1,-0.250639021396637,0.3556939959526062,-0.6527206897735596,-0.620175302028656,-0.768379807472229,0.1534574031829834,-0.6213237047195435,0,0,0,-1,197266.279814,1,2,1561914551.117351,1561913957.287787,32,0.8918345,0,0,26.32609,0,0,1561914413.669193,197266.206564,0,1.477051,75.29124,3232235528,177845136,1,1,0.53,-23.20061,-45.85215,3
1561914554.032035,51,0,0,1561914552.999753,4.634731826376761,-74.15113345726779,2553.103,0,13.359375,4,30,-9999,1561914554.017341,-1.488174438476562,26.97299194335938,-11.8348388671875,334.2007751464844,341.6942443847656,15,197269.1731236667,-0.76739501953125,0.1340789794921875,-0.6387786865234375,197269.1559116667,-0.01111390386111868,-0.08280620040605177,-0.110341155548599,197269.1473366667,-77.08059692382812,-2.4810791015625,-575.2437744140625,197269.1559116667,1.546862970339731,-0.893841825897627,-0.1531239542286594,-0.01425743103027344,-0.08987115323543549,-0.1135232076048851,-0.0009834170341491699,-0.02496278285980225,-0.03669977188110352,1,-0.2516891360282898,0.3565197587013245,-0.6517875790596008,-0.6202572584152222,-0.7703636288642883,0.1525262743234634,-0.6190924644470215,0,0,0,-1,197266.279814,1,2,1561914551.117351,1561913957.287787,32,0.8918345,0,0,26.32609,0,0,1561914413.669193,197266.206564,0,1.477051,75.29124,3232235528,177845136,1,1,0.53,-23.20061,-46.6305,3
1561914554.04034,52,0,0,1561914552.999753,4.634731826376761,-74.15113345726779,2553.103,0,13.359375,4,30,-9999,1561914554.017341,-1.488174438476562,26.97299194335938,-11.8348388671875,334.2007751464844,341.6942443847656,15,197269.1933876667,-0.7591705322265625,0.1373748779296875,-0.609283447265625,197269.1761756667,0.003121224797572867,-0.03876923388493752,-0.1593486459282372,197269.1674476667,-77.23831176757812,-2.09197998046875,-575.2927856445312,197269.1761756667,1.544943870637504,-0.8953147639698407,-0.1508832323955955,-2.230261452496052e-05,-0.04583418369293213,-0.162530705332756,0.004144489765167236,-0.01623240113258362,-0.02060937881469727,1,-0.2525733411312103,0.3565418124198914,-0.6507140398025513,-0.6210119724273682,-0.7715395092964172,0.1503113955259323,-0.6181693077087402,0,0,0,-1,197266.279814,1,2,1561914551.117351,1561913957.287787,32,0.8918345,0,0,26.32609,0,0,1561914413.669193,197266.206564,0,1.477051,75.29124,3232235528,177845136,1,1,0.53,-23.20061,-46.6305,3
1561914554.057399,53,0,0,1561914553.999747,4.634731826376761,-74.15113345726779,2553.101,0,15.46875,4,30,-9999,1561914554.049737,-1.695106506347656,26.95100593566895,-11.84783935546875,334.3468322753906,341.8403015136719,15,197269.2136506667,-0.746826171875,0.1502838134765625,-0.5898590087890625,197269.1964386667,0.01143960846243537,-0.09447777019943304,-0.1602274890879633,197269.1875586667,-77.31053161621094,-2.458297729492188,-575.4560546875,197269.1964386667,1.542875281847025,-0.8968388942968455,-0.1480880766512661,0.008296080864965916,-0.1015427261590958,-0.1634095460176468,0.01363551616668701,-0.01017254590988159,0.007969021797180176,1,-0.2536316514015198,0.3564333915710449,-0.6495113968849182,-0.621901273727417,-0.7728060483932495,0.1475474089384079,-0.6172524690628052,0,0,0,-1,197266.279814,1,2,1561914551.117351,1561913957.287787,32,0.8918345,0,0,26.32609,0,0,1561914413.669193,197266.206564,0,1.477051,75.29124,3232235528,177845136,1,1,0.53,-23.20061,-47.37285,3
1561914554.077565,54,0,0,1561914553.999747,4.634731826376761,-74.15113345726779,2553.101,0,15.46875,4,30,-9999,1561914554.049737,-1.695106506347656,26.95100593566895,-11.84783935546875,334.3468322753906,341.8403015136719,15,197269.2339146667,-0.7379150390625,0.1693572998046875,-0.578277587890625,197269.2166726667,0.02559537492064255,-0.2124235822407533,-0.0643925719970259,197269.2076696667,-77.54159545898438,-2.583908081054688,-575.381591796875,197269.2166726667,1.541556104242808,-0.9001083463456888,-0.1458064164443032,0.02245184779167175,-0.2194885313510895,-0.0675746276974678,0.02825558185577393,0.004993468523025513,0.02507114410400391,1,-0.2552175521850586,0.3569298684597015,-0.6483834385871887,-0.6221446990966797,-0.7750816941261292,0.1452903300523758,-0.6149301528930664,0,0,0,-1,197266.279814,1,2,1561914551.117351,1561913957.287787,32,0.8918345,0,0,26.32609,0,0,1561914413.669193,197266.206564,0,1.477051,75.29124,3232235528,177845136,1,1,0.53,-23.20061,-47.92508,3
1561914554.111409,55,0,0,1561914553.999747,4.634731826376761,-74.15113345726779,2553.101,0,15.46875,4,30,-9999,1561914554.094288,-1.6578369140625,26.91781425476074,-11.84521484375,334.2882080078125,341.7816772460938,15,197269.2541786667,-0.7515106201171875,0.1694488525390625,-0.580474853515625,197269.2369356667,0.01605646452819674,-0.330954224457455,0.1233344521909866,197269.2277806667,-77.56106567382812,-2.321334838867188,-575.5225830078125,197269.2369356667,1.542170604090608,-0.9056819719830174,-0.1459230482007577,0.01291293743997812,-0.3380191624164581,0.1201523989439011,0.04056870937347412,0.02395156025886536,0.03231251239776611,1,-0.2570948600769043,0.3586184084415436,-0.6478760838508606,-0.6209281086921692,-0.7784837484359741,0.1454057246446609,-0.6105901598930359,0,0,0,-1,197266.279814,1,2,1561914551.117351,1561913957.287787,32,0.8918345,0,0,26.32609,0,0,1561914413.669193,197266.206564,0,1.477051,75.29124,3232235528,177845136,1,1,0.53,-23.20061,-48.67422,3
1561914554.118258,56,0,0,1561914553.999747,4.634731826376761,-74.15113345726779,2553.101,0,15.46875,4,30,-9999,1561914554.094288,-1.6578369140625,26.91781425476074,-11.84521484375,334.2882080078125,341.7816772460938,15,197269.2744416667,-0.771453857421875,0.1581268310546875,-0.5866241455078125,197269.2571996667,0.01005076995395904,-0.3315292009368032,0.242760981798391,197269.2478916667,-77.78143310546875,-2.268890380859375,-575.5013427734375,197269.2571996667,1.544691992850584,-0.9122884076856156,-0.148843947183663,0.006907242350280285,-0.3385941386222839,0.2395789325237274,0.03065067529678345,0.02115389704704285,0.02469652891159058,1,-0.2587183713912964,0.3612189292907715,-0.648196280002594,-0.618407130241394,-0.7821612954139709,0.1482949554920197,-0.6051713824272156,0,0,0,-1,197266.279814,1,2,1561914551.117351,1561913957.287787,32,0.8918345,0,0,26.32609,0,0,1561914413.669193,197266.206564,0,1.477051,75.29124,3232235528,177845136,1,1,0.53,-23.20061,-49.27914,3
1561914554.138509,57,0,0,1561914553.999747,4.634731826376761,-74.15113345726779,2553.101,0,15.46875,4,30,-9999,1561914554.118473,-1.903640747070312,26.80945777893066,-11.726806640625,334.0588989257812,341.5523681640625,15,197269.2947056667,-0.7926483154296875,0.14630126953125,-0.5814666748046875,197269.2774636667,0.009121859365739407,-0.2696466582671769,0.24736505469092,197269.2680026667,-77.78163146972656,-2.680023193359375,-575.3779296875,197269.2774636667,1.547974960192798,-0.918052081946885,-0.1527379311266186,0.00597833190113306,-0.2767115831375122,0.2441830039024353,0.01371771097183228,0.005982071161270142,0.01367378234863281,1,-0.2598907351493835,0.3637414574623108,-0.6489837765693665,-0.6156045794487,-0.7851715683937073,0.1521447598934174,-0.6002979278564453,0,0,0,-1,197266.279814,1,2,1561914551.117351,1561913957.287787,32,0.8918345,0,0,26.32609,0,0,1561914413.669193,197266.206564,0,1.477051,75.29124,3232235528,177845136,1,1,0.53,-23.20061,-49.67856,3
1561914554.158627,58,0,0,1561914553.999747,4.634731826376761,-74.15113345726779,2553.101,0,15.46875,4,30,-9999,1561914554.144869,-1.786026000976562,26.87867164611816,-11.85113525390625,333.865478515625,341.3589477539062,15,197269.3149696667,-0.806854248046875,0.14337158203125,-0.5802764892578125,197269.2977266667,0.00349673051127404,-0.1654906943502869,0.1833229546933485,197269.2881136667,-77.58659362792969,-2.617416381835938,-575.4361572265625,197269.2977266667,1.550733107137522,-0.9221315619707684,-0.156170375664895,0.0003679431974887848,-0.1725411266088486,0.1801389753818512,-0.005455255508422852,-0.00923505425453186,0.01530414819717407,1,-0.2605814337730408,0.365666389465332,-0.6497603058815002,-0.6133489012718201,-0.7871931195259094,0.1555363386869431,-0.5967708230018616,0,0,0,-1,197266.279814,1,2,1561914551.117351,1561913957.287787,32,0.8918345,0,0,26.32609,0,0,1561914413.669193,197266.206564,0,1.477051,75.29124,3232235528,177845136,1,1,0.53,-23.20061,-49.67856,3
1561914554.192385,59,0,0,1561914553.999747,4.634731826376761,-74.15113345726779,2553.101,0,15.46875,4,30,-9999,1561914554.169116,-1.630126953125,26.92247200012207,-11.63134765625,333.7886962890625,341.2821655273438,15,197269.3352326667,-0.8090972900390625,0.1484375,-0.591583251953125,197269.3179906667,-0.02439189242403574,-0.04306411377490831,0.09530521435012065,197269.3082246667,-77.73835754394531,-2.44122314453125,-575.2838134765625,197269.3179906667,1.552181452737304,-0.9241882393334059,-0.1585335777553549,-0.02752067893743515,-0.05011455342173576,0.09212123602628708,-0.01873099803924561,-0.01449877023696899,0.01465094089508057,1,-0.2607331573963165,0.3668166995048523,-0.6502522826194763,-0.6120749115943909,-0.7881232500076294,0.1578703373670578,-0.5949274301528931,0,0,0,-1,197266.279814,1,2,1561914551.117351,1561913957.287787,32,0.8918345,0,0,26.32609,0,0,1561914413.669193,197266.206564,0,1.477051,75.29124,3232235528,177845136,1,1,0.53,-23.20061,-37.49279,3
1561914554.19916,60,0,0,1561914553.999747,4.634731826376761,-74.15113345726779,2553.101,0,15.46875,4,30,-9999,1561914554.195505,-1.702125549316406,26.95448303222656,-11.64532470703125,333.7777404785156,341.2712097167969,15,197269.3554666667,-0.80450439453125,0.1507110595703125,-0.593780517578125,197269.3382546667,-0.02469469383997775,0.0526831853161655,0.04765300664922384,197269.3283356667,-77.56494140625,-2.15264892578125,-575.2625732421875,197269.3382546667,1.552461475340495,-0.9240400426831774,-0.159966183938115,-0.02782348170876503,0.0456327460706234,0.04446903243660927,-0.02124345302581787,-0.01084733009338379,0.003324151039123535,1,-0.2602623999118805,0.3671645224094391,-0.6505486965179443,-0.6117517948150635,-0.7878538370132446,0.1592848151922226,-0.5949074029922485,0,0,0,-1,197266.279814,1,2,1561914551.117351,1561913957.287787,32,0.8918345,0,0,26.32609,0,0,1561914413.669193,197266.206564,0,1.477051,75.29124,3232235528,177845136,1,1,0.53,-23.20061,-37.49279,3
1561914554.220169,61,0,0,1561914553.999747,4.634731826376761,-74.15113345726779,2553.101,0,15.46875,4,30,-9999,1561914554.195505,-1.702125549316406,26.95448303222656,-11.64532470703125,333.7777404785156,341.2712097167969,15,197269.3757296667,-0.805023193359375,0.152252197265625,-0.590423583984375,197269.3585176667,0.01027713864661578,0.04304999902113089,0.02555063381432922,197269.3484466667,-77.43704223632812,-2.387985229492188,-575.0873413085938,197269.3585176667,1.552682061520311,-0.9230382819267756,-0.1606744098832307,0.007148351520299911,0.03599955886602402,0.02236666157841682,-0.01733708381652832,-0.009272903203964233,0.001847624778747559,1,-0.2597426474094391,0.3670418262481689,-0.6508408188819885,-0.6117355823516846,-0.7871673107147217,0.1599839627742767,-0.5956280827522278,0,0,0,-1,197266.279814,1,2,1561914551.117351,1561913957.287787,32,0.8918345,0,0,26.32609,0,0,1561914413.669193,197266.206564,0,1.477051,75.29124,3232235528,177845136,1,1,0.53,-23.20061,-34.58764,3
1561914554.239635,62,0,0,1561914553.999747,4.634731826376761,-74.15113345726779,2553.101,0,15.46875,4,30,-9999,1561914554.220668,-1.655960083007812,27.15703010559082,-11.4365234375,333.7494201660156,341.2428894042969,15,197269.3959936667,-0.8091888427734375,0.1580047607421875,-0.585113525390625,197269.3787816667,0.02253140808650639,0.008338091056929087,0.0153997290033832,197269.3685586667,-77.32832336425781,-2.431320190429688,-575.53271484375,197269.3787816667,1.553122505710539,-0.9226586961918074,-0.1606812493537487,0.01940262131392956,0.001287649851292372,0.012215755879879,-0.01808297634124756,-0.00773853063583374,0.005502581596374512,1,-0.2596977055072784,0.3668705821037292,-0.6510257124900818,-0.6116604804992676,-0.7869402170181274,0.1599907130002975,-0.5959261655807495,0,0,0,-1,197266.279814,1,2,1561914551.117351,1561913957.287787,32,0.8918345,0,0,26.32609,0,0,1561914413.669193,197266.206564,0,1.477051,75.29124,3232235528,177845136,1,1,0.53,-23.20061,-34.57074,3
1561914554.27116,63,0,0,1561914553.999747,4.634731826376761,-74.15113345726779,2553.101,0,15.46875,4,30,-9999,1561914554.246115,-1.39898681640625,26.9971752166748,-11.59954833984375,333.7205200195312,341.2139892578125,15,197269.4162576667,-0.8118133544921875,0.160430908203125,-0.574981689453125,197269.3990456667,0.01615500148852967,-0.008831042174702753,0.0241551374031277,197269.3886696667,-77.12144470214844,-2.660797119140625,-575.2740478515625,197269.3990456667,1.553525383568358,-0.9227550456203758,-0.1607161075708739,0.01302621327340603,-0.0158814825117588,0.02097116596996784,-0.02219557762145996,-0.002020359039306641,0.01073348522186279,1,-0.2597914040088654,0.366858184337616,-0.6511410474777222,-0.6115054488182068,-0.7869932651519775,0.1600251197814941,-0.5958470106124878,0,0,0,-1,197266.279814,1,2,1561914551.117351,1561913957.287787,32,0.8918345,0,0,26.32609,0,0,1561914413.669193,197266.206564,0,1.477051,75.29124,3232235528,177845136,1,1,0.53,-17.63444,-23.78272,3
1561914554.280163,64,0,0,1561914553.999747,4.634731826376761,-74.15113345726779,2553.101,0,15.46875,4,30,-9999,1561914554.272027,-1.693428039550781,27.11727142333984,-11.7041015625,333.6902465820312,341.1837158203125,15,197269.4365206667,-0.8163909912109375,0.1590423583984375,-0.5615081787109375,197269.4193086667,0.01693983506177602,-0.07389899182417276,0.02322862365988913,197269.4087806667,-77.3538818359375,-2.226669311523438,-575.2875366210938,197269.4193086667,1.553992338704089,-0.9236666969325842,-0.160870374436455,0.01381104812026024,-0.08094943314790726,0.02004465088248253,-0.02429693937301636,0.0002534985542297363,0.02013266086578369,1,-0.2601228952407837,0.3671224415302277,-0.6511858105659485,-0.6111581325531006,-0.7875164151191711,0.1601774096488953,-0.5951144099235535,0,0,0,-1,197266.279814,1,2,1561914551.117351,1561913957.287787,32,0.8918345,0,0,26.32609,0,0,1561914413.669193,197266.206564,0,1.477051,75.29124,3232235528,177845136,1,1,0.53,-17.63444,-22.20248,3
1561914554.300913,65,0,0,1561914553.999747,4.634731826376761,-74.15113345726779,2553.101,0,15.46875,4,30,-9999,1561914554.29671,-1.665771484375,27.10483932495117,-11.69384765625,333.6941528320312,341.1876220703125,15,197269.456797625,-0.809478759765625,0.168365478515625,-0.5599212646484375,197269.4395416667,0.005761216386168416,-0.09387669474140216,-0.004630438187320771,197269.4288916667,-77.53228759765625,-2.318023681640625,-575.2499389648438,197269.4395416667,1.554199554975575,-0.9255944823022303,-0.1608629032908903,0.00263242912478745,-0.1009271368384361,-0.007814411073923111,-0.02772790193557739,-0.001127660274505615,0.03208762407302856,1,-0.2607910633087158,0.3676820993423462,-0.6509970426559448,-0.6107377409934998,-0.7886630892753601,0.1601700335741043,-0.5935958027839661,0,0,0,-1,197266.279814,1,2,1561914551.117351,1561913957.287787,32,0.8918345,0,0,26.32609,0,0,1561914413.669193,197266.206564,0,1.477051,75.29124,3232235528,177845136,1,1,0.53,-17.63444,-22.6504,3
1561914554.320883,66,0,0,1561914553.999747,4.634731826376761,-74.15113345726779,2553.101,0,15.46875,4,30,-9999,1561914554.29671,-1.665771484375,27.10483932495117,-11.69384765625,333.6941528320312,341.1876220703125,15,197269.477061625,-0.7967529296875,0.1743927001953125,-0.5698699951171875,197269.459818625,0.002663161090079238,-0.08165917692455464,-0.02139530356547859,197269.449015625,-77.34735107421875,-2.382339477539062,-575.3159790039062,197269.459818625,1.553972876965563,-0.9276139944481394,-0.1605846015442612,-0.0004656261298805475,-0.08870961517095566,-0.02457927539944649,-0.01958286762237549,0.00847017765045166,0.03210735321044922,1,-0.2614984810352325,0.3682448267936707,-0.6506269574165344,-0.6104905605316162,-0.7898958921432495,0.1598953157663345,-0.5920285582542419,0,0,0,-1,197266.279814,1,2,1561914551.117351,1561913957.287787,32,0.8918345,0,0,26.32609,0,0,1561914413.669193,197266.206564,0,1.477051,75.29124,3232235528,177845136,1,1,0.53,-17.63444,-22.6504,3
1561914554.352316,67,0,0,1561914553.999747,4.634731826376761,-74.15113345726779,2553.101,0,15.46875,4,30,-9999,1561914554.321148,-1.770347595214844,27.05955123901367,-11.64837646484375,333.7203063964844,341.2137756347656,15,197269.497324625,-0.79052734375,0.172943115234375,-0.586578369140625,197269.480082625,-0.001682851492821071,-0.01176158463822595,-0.01783492350415165,197269.469156625,-77.44029235839844,-2.407089233398438,-575.3740844726562,197269.480082625,1.553584256488264,-0.9288408546687323,-0.1602421727648836,-0.004811638966202736,-0.0188120249658823,-0.02101889625191689,-0.006087422370910645,0.0148354172706604,0.02122187614440918,1,-0.2619389891624451,0.368567556142807,-0.6503019332885742,-0.6104534268379211,-0.7906655073165894,0.1595572829246521,-0.5910918712615967,0,0,0,-1,197266.279814,1,2,1561914551.117351,1561913957.287787,32,0.8918345,0,0,26.32609,0,0,1561914413.669193,197266.206564,0,1.477051,75.29124,3232235528,177845136,1,1,0.53,-17.63444,-24.12569,3
1561914554.361196,68,0,0,1561914553.999747,4.634731826376761,-74.15113345726779,2553.101,0,15.46875,4,30,-9999,1561914554.359146,-1.549713134765625,27.02052116394043,-11.78594970703125,333.7261352539062,341.2196044921875,15,197269.517588625,-0.8156890869140625,0.177886962890625,-0.613372802734375,197269.500345625,0.01690148554207888,0.04266677014026848,0.01637551122678823,197269.489268625,-77.50369262695312,-2.395950317382812,-575.31787109375,197269.500345625,1.553489234047163,-0.9286541057653301,-0.1601187407226743,0.01377269811928272,0.03561633080244064,0.01319153979420662,4.351139068603516e-05,0.01350769400596619,0.00467294454574585,1,-0.2619015276432037,0.3684860169887543,-0.6502808332443237,-0.6105412244796753,-0.7905709147453308,0.15943543612957,-0.5912513136863708,0,0,0,-1,197266.279814,1,2,1561914551.117351,1561913957.287787,32,0.8918345,0,0,26.32609,0,0,1561914413.669193,197266.206564,0,1.477051,75.29124,3232235528,177845136,1,1,0.53,-17.63444,-24.12569,3
1561914554.381526,69,0,0,1561914553.999747,4.634731826376761,-74.15113345726779,2553.101,0,15.46875,4,30,-9999,1561914554.359146,-1.549713134765625,27.02052116394043,-11.78594970703125,333.7261352539062,341.2196044921875,15,197269.537852625,-0.924468994140625,0.194793701171875,-0.6277313232421875,197269.520609625,0.09024574091118812,0.07731050118056425,0.02632614632376029,197269.509379625,-77.35975646972656,-2.451934814453125,-575.5040283203125,197269.520609625,1.554502455338904,-0.9275477460817636,-0.1598963369163826,0.08711694926023483,0.07026006281375885,0.02314217388629913,-0.02574449777603149,0.01867109537124634,-0.02122598886489868,1,-0.2618017196655273,0.367948979139328,-0.6507051587104797,-0.6104557514190674,-0.789944589138031,0.1592158675193787,-0.5921468138694763,0,0,0,-1,197266.279814,1,2,1561914551.117351,1561913957.287787,32,0.8918345,0,0,26.32609,0,0,1561914413.669193,197266.206564,0,1.477051,75.29124,3232235528,177845136,1,1,0.53,-17.63444,-25.09339,3
1561914554.401737,70,0,0,1561914553.999747,4.634731826376761,-74.15113345726779,2553.101,0,15.46875,4,30,-9999,1561914554.398117,-1.577682495117188,26.94607925415039,-11.89111328125,333.3955688476562,340.8890380859375,15,197269.558115625,-1.107086181640625,0.2073516845703125,-0.640716552734375,197269.540873625,0.2195565929044216,0.1186331739186697,-0.01608575930018761,197269.529490625,-77.53378295898438,-2.34503173828125,-575.4859008789062,197269.540873625,1.556987091319906,-0.9252315427238439,-0.1581439730732786,0.2164278030395508,0.1115827336907387,-0.01926973089575768,-0.135676383972168,0.03730809688568115,-0.03358948230743408,1,-0.2620822787284851,0.3663904368877411,-0.6515325307846069,-0.610390305519104,-0.788792610168457,0.157485619187355,-0.5941418409347534,0,0,0,-1,197266.279814,1,2,1561914551.117351,1561913957.287787,32,0.8918345,0,0,26.32609,0,0,1561914413.669193,197266.206564,0,1.477051,75.29124,3232235528,177845136,1,1,0.53,-17.63444,-26.08717,3
1561914554.433835,71,0,0,1561914553.999747,4.634731826376761,-74.15113345726779,2553.101,0,15.46875,4,30,-9999,1561914554.422454,-1.605331420898438,26.91431045532227,-12.08233642578125,333.1442260742188,340.6376953125,15,197269.578348625,-1.405441284179688,0.1760406494140625,-0.6677703857421875,197269.561136625,0.3854984267433679,0.004053597495209608,-0.1784941110048168,197269.549601625,-77.59049987792969,-2.517349243164062,-575.7007446289062,197269.561136625,1.560752665157533,-0.9234532463814031,-0.1532471587638582,0.3823696374893188,-0.00299684377387166,-0.1816780865192413,-0.3187456130981445,0.05470365285873413,-0.04471498727798462,1,-0.2638039290904999,0.3638773262500763,-0.6522611379623413,-0.610373854637146,-0.7883405089378357,0.1526480317115784,-0.5960015654563904,0,0,0,-1,197266.279814,1,2,1561914551.117351,1561913957.287787,32,0.8918345,0,0,26.32609,0,0,1561914413.669193,197267.152653,0,1.984375,75.28645,3232235528,177845136,1,1,0.53,-17.63444,-27.07354,3
1561914554.442913,72,0,0,1561914553.999747,4.634731826376761,-74.15113345726779,2553.101,0,15.46875,4,30,-9999,1561914554.422454,-1.605331420898438,26.91431045532227,-12.08233642578125,333.1442260742188,340.6376953125,15,197269.598612625,-1.780670166015625,0.093017578125,-0.6889495849609375,197269.581400625,0.5748334675975703,-0.2729151558730312,-0.6099824002966541,197269.569712625,-77.22190856933594,-2.589263916015625,-575.5906982421875,197269.581400625,1.563941244572665,-0.9254853250832776,-0.1414230434002062,0.5717046856880188,-0.2799656093120575,-0.613166332244873,-0.6145045757293701,0.03508853912353516,-0.07232809066772461,1,-0.2689276039600372,0.3604951798915863,-0.6513713598251343,-0.6110945343971252,-0.7909367680549622,0.1409520953893661,-0.5954423546791077,0,0,0,-1,197266.279814,1,2,1561914551.117351,1561913957.287787,32,0.8918345,0,0,26.32609,0,0,1561914413.669193,197267.152653,0,1.984375,75.28645,3232235528,177845136,1,1,0.53,-17.63444,-28.12813,3
1561914554.462961,73,0,0,1561914553.999747,4.634731826376761,-74.15113345726779,2553.101,0,15.46875,4,30,-9999,1561914554.448732,-2.338111877441406,26.55864143371582,-12.57763671875,333.2593383789062,340.7528076171875,15,197269.618876625,-2.0445556640625,-0.0380096435546875,-0.70831298828125,197269.601664625,0.7115756042965609,-0.6491737452143691,-1.399457064374687,197269.589823625,-77.82322692871094,-2.704376220703125,-576.1898803710938,197269.601664625,1.562667224430437,-0.9350771910734706,-0.1176748454996279,0.7084468603134155,-0.6562241911888123,-1.40264105796814,-0.9815899729728699,-0.02438586950302124,-0.09929955005645752,1,-0.279570609331131,0.3563919961452484,-0.6463775038719177,-0.6140203475952148,-0.7990801930427551,0.1174034550786018,-0.58965003490448,0,0,0,-1,197266.279814,1,2,1561914551.117351,1561913957.287787,32,0.8918345,0,0,26.32609,0,0,1561914413.669193,197267.152653,0,1.984375,75.28645,3232235528,177845136,1,1,0.53,-17.63444,-28.12813,3
1561914554.483009,74,0,0,1561914553.999747,4.634731826376761,-74.15113345726779,2553.101,0,15.46875,4,30,-9999,1561914554.473259,-3.53582763671875,26.16339492797852,-12.927001953125,334.3396606445312,341.8331298828125,15,197269.639139625,-2.1669921875,-0.166595458984375,-0.7298126220703125,197269.621927625,0.6697754267750041,-1.189715019035534,-2.475465757508198,197269.609934625,-79.06190490722656,-2.84698486328125,-576.6025390625,197269.621927625,1.551274683822429,-0.9546035576241271,-0.0776243986589906,0.6666466593742371,-1.196765422821045,-2.478649854660034,-1.230928421020508,-0.1155561208724976,-0.1321209669113159,1,-0.2967976331710815,0.3518737554550171,-0.6341769099235535,-0.6212211847305298,-0.813627302646637,0.07754646986722946,-0.5761920213699341,0,0,0,-1,197266.279814,1,2,1561914551.117351,1561913957.287787,32,0.8918345,0,0,26.32609,0,0,1561914413.669193,197267.152653,0,1.984375,75.28645,3232235528,177845136,1,1,0.53,-17.63444,-29.2075,3
1561914554.518522,75,0,0,1561914553.999747,4.634731826376761,-74.15113345726779,2553.101,0,15.46875,4,30,-9999,1561914554.499653,-5.581916809082031,25.74607467651367,-13.12750244140625,336.634765625,344.1282348632812,15,197269.659403625,-2.156585693359375,-0.186431884765625,-0.7627410888671875,197269.642191625,0.4647666176412494,-2.034587694844959,-3.586707805547348,197269.650126625,-83.37994384765625,-4.309478759765625,-576.7145385742188,197269.642191625,1.526071567341587,-0.9881676194131411,-0.02021112804360119,0.4616378247737885,-2.041638135910034,-3.589891910552979,-1.332143545150757,-0.1868052184581757,-0.1797041296958923,1,-0.3212990760803223,0.3488734066486359,-0.6118958592414856,-0.6329595446586609,-0.8348486423492432,0.02020975202322006,-0.5501084923744202,0,0,0,-1,197266.279814,1,2,1561914551.117351,1561913957.287787,32,0.8918345,0,0,26.32609,0,0,1561914413.669193,197267.152653,0,1.984375,75.28645,3232235528,177845136,1,1,0.53,-17.63444,-31.34486,3
1561914554.523614,76,0,0,1561914553.999747,4.634731826376761,-74.15113345726779,2553.101,0,15.46875,4,30,-9999,1561914554.499653,-5.581916809082031,25.74607467651367,-13.12750244140625,336.634765625,344.1282348632812,15,197269.679667625,-2.075241088867188,-0.1342926025390625,-0.804412841796875,197269.662424625,0.2846788710401292,-3.169458905971946,-4.378361201713174,197269.670237625,-86.27682495117188,-5.099319458007812,-576.2942504882812,197269.662424625,1.489156554034097,-1.040128439680963,0.05246161086423452,0.2815500795841217,-3.176509380340576,-4.381545066833496,-1.295302987098694,-0.1339943408966064,-0.2573278546333313,1,-0.3533757627010345,0.3498842120170593,-0.578279435634613,-0.646760880947113,-0.8612827062606812,-0.05243755131959915,-0.5054132342338562,0,0,0,-1,197266.279814,1,2,1561914551.117351,1561913957.287787,32,0.8918345,0,0,26.32609,0,0,1561914413.669193,197267.152653,0,1.984375,75.28645,3232235528,177845136,1,1,0.53,-17.63444,-31.34486,3
1561914554.543582,77,0,0,1561914553.999747,4.634731826376761,-74.15113345726779,2553.101,0,15.46875,4,30,-9999,1561914554.523931,-11.63961029052734,23.89728736877441,-12.4700927734375,339.4695434570312,346.9630126953125,15,197269.699930625,-1.893508911132812,-0.08428955078125,-0.8567657470703125,197269.682688625,0.3568547976390207,-4.458497583126421,-4.813928921162795,197269.690348625,-89.79100036621094,-6.247528076171875,-575.6250610351562,197269.682688625,1.449771339207464,-1.113831991490036,0.1377897712625505,0.3537259995937347,-4.465548038482666,-4.817112922668457,-1.186350584030151,0.003061532974243164,-0.3673688173294067,1,-0.3933824896812439,0.3559890687465668,-0.5342822074890137,-0.6580763459205627,-0.8888905048370361,-0.1373541653156281,-0.4370439946651459,0,0,0,-1,197266.279814,1,2,1561914551.117351,1561913957.287787,32,0.8918345,0,0,26.32609,0,0,1561914413.669193,197267.152653,0,1.984375,75.28645,3232235528,177845136,1,1,0.53,-17.63444,-32.22607,3
1561914554.563802,78,0,0,1561914553.999747,4.634731826376761,-74.15113345726779,2553.101,0,15.46875,4,30,-9999,1561914554.550115,-15.0081787109375,22.327392578125,-11.5206298828125,341.7319641113281,349.2254333496094,15,197269.720194625,-1.62677001953125,-0.1305999755859375,-0.836700439453125,197269.702952625,0.5788250134393811,-5.351335654380937,-5.075196742008364,197269.710459625,-93.28913879394531,-8.1563720703125,-574.3931884765625,197269.702952625,1.417830240044577,-1.208395766753695,0.2334143208430336,0.5756962299346924,-5.358386039733887,-5.078380584716797,-0.9838168025016785,0.147011011838913,-0.511859655380249,1,-0.4400641322135925,0.3659105002880096,-0.4818966686725616,-0.663497269153595,-0.909692108631134,-0.2313005924224854,-0.3449061214923859,0,0,0,-1,197266.279814,1,2,1561914551.117351,1561913957.287787,32,0.8918345,0,0,26.32609,0,0,1561914413.669193,197267.152653,0,1.984375,75.28645,3232235528,177845136,1,1,0.53,-17.63444,-33.00243,3
1561914554.592634,79,0,0,1561914553.999747,4.634731826376761,-74.15113345726779,2553.101,0,15.46875,4,30,-9999,1561914554.574334,-18.61260986328125,20.5269889831543,-10.01251220703125,342.6676330566406,350.1611022949219,15,197269.740458625,-1.39154052734375,-0.210723876953125,-0.741912841796875,197269.723215625,0.9654273204545868,-5.849681271258668,-5.371277937255668,197269.730570625,-96.78598022460938,-10.4627685546875,-572.174072265625,197269.723215625,1.399551459219228,-1.317436083309224,0.3387553526416174,0.962298572063446,-5.85673189163208,-5.374461650848389,-0.713711142539978,0.2017134726047516,-0.6002873182296753,1,-0.4905547499656677,0.3756986260414124,-0.4230765104293823,-0.6627312898635864,-0.913058876991272,-0.3323134481906891,-0.2364131659269333,0,0,0,-1,197266.279814,1,2,1561914551.117351,1561913957.287787,32,0.8918345,0,0,26.32609,0,0,1561914413.669193,197267.152653,0,1.984375,75.28645,3232235528,177845136,1,1,0.53,-17.63444,-34.01752,3
1561914554.604527,80,0,0,1561914553.999747,4.634731826376761,-74.15113345726779,2553.101,0,15.46875,4,30,-9999,1561914554.600711,-22.05890655517578,17.9155101776123,-7.95355224609375,341.5988159179688,349.09228515625,15,197269.760721625,-1.171783447265625,-0.3283843994140625,-0.612091064453125,197269.743479625,1.377391709478944,-6.162570741409898,-5.605093360952483,197269.750681625,-99.7532958984375,-13.46073913574219,-569.9814453125,197269.743479625,1.401955105649391,-1.440627603542724,0.452538793780372,1.374262928962708,-6.169620990753174,-5.608277320861816,-0.4998090267181396,0.226526290178299,-0.625177264213562,1,-0.5434466600418091,0.3824891149997711,-0.3593092262744904,-0.6551828980445862,-0.8917314410209656,-0.437250167131424,-0.1167356073856354,0,0,0,-1,197266.279814,1,2,1561914551.117351,1561913957.287787,32,0.8918345,0,0,26.32609,0,0,1561914413.669193,197267.152653,0,1.984375,75.28645,3232235528,177845136,1,1,0.53,-17.63444,-34.72997,3
1561914554.624726,81,0,0,1561914553.999747,4.634731826376761,-74.15113345726779,2553.101,0,15.46875,4,30,-9999,1561914554.600711,-22.05890655517578,17.9155101776123,-7.95355224609375,341.5988159179688,349.09228515625,15,197269.780955625,-0.96246337890625,-0.4786834716796875,-0.5125579833984375,197269.763743625,1.570767298339015,-6.262401998032608,-5.682344739956847,197269.770792625,-102.259765625,-16.56671142578125,-567.1708984375,197269.763743625,1.428559385804882,-1.580345227325663,0.5689116743509949,1.567638516426086,-6.269452571868896,-5.685528755187988,-0.3293341398239136,0.2103310823440552,-0.6201357841491699,1,-0.5959263443946838,0.3858680427074432,-0.2918170392513275,-0.6409527063369751,-0.8424492478370667,-0.5387154817581177,0.008044708520174026,0,0,0,-1,197266.279814,1,2,1561914551.117351,1561913957.287787,32,0.8918345,0,0,26.32609,0,0,1561914413.669193,197267.152653,0,1.984375,75.28645,3232235528,177845136,1,1,0.53,-17.63444,-34.72997,3
1561914554.64482,82,0,0,1561914553.999747,4.634731826376761,-74.15113345726779,2553.101,0,15.46875,4,30,-9999,1561914554.625136,-27.03805541992188,11.82635498046875,-2.86383056640625,338.3335571289062,345.8270263671875,15,197269.801218625,-0.71746826171875,-0.586456298828125,-0.4021148681640625,197269.784006625,1.497795885522517,-5.692626139661207,-5.807284811969042,197269.790903625,-103.781494140625,-19.85090637207031,-564.7596435546875,197269.784006625,1.479698511472539,-1.732905169996841,0.6818294825902628,1.494667053222656,-5.699676513671875,-5.810468673706055,-0.1962218880653381,0.1515310406684875,-0.6378720998764038,1,-0.6440830230712891,0.3844660520553589,-0.2232505828142166,-0.6224966645240784,-0.7662414908409119,-0.630214512348175,0.1253141760826111,0,0,0,-1,197266.279814,1,2,1561914551.117351,1561913957.287787,32,0.8918345,0,0,26.32609,0,0,1561914413.669193,197267.152653,0,1.984375,75.28645,3232235528,177845136,1,1,0.53,-17.63444,-35.35361,3
1561914554.672752,83,0,0,1561914553.999747,4.634731826376761,-74.15113345726779,2553.101,0,15.46875,4,30,-9999,1561914554.651391,-28.37238311767578,8.7232666015625,-0.3138427734375,333.1387329101562,340.6322021484375,15,197269.821482625,-0.457794189453125,-0.634765625,-0.32269287109375,197269.804270625,1.122929064166854,-4.578549689273886,-5.570237908605526,197269.811014625,-104.9750366210938,-23.30235290527344,-562.2843627929688,197269.804270625,1.551923630260814,-1.885843716426141,0.7888064362836157,1.119800329208374,-4.58560037612915,-5.573421478271484,-0.04745930433273315,0.1230564117431641,-0.6204719543457031,1,-0.6844125986099243,0.375177264213562,-0.157892569899559,-0.6048895716667175,-0.6700089573860168,-0.7095127105712891,0.2183571755886078,0,0,0,-1,197266.279814,1,2,1561914551.117351,1561913957.287787,32,0.8918345,0,0,26.32609,0,0,1561914413.669193,197267.152653,0,1.984375,75.28645,3232235528,177845136,1,1,0.53,-17.63444,-20.67916,3
1561914554.685349,84,0,0,1561914553.999747,4.634731826376761,-74.15113345726779,2553.101,0,15.46875,4,30,-9999,1561914554.675602,-29.07434844970703,5.206642150878906,2,326.0615844726562,333.5550537109375,15,197269.841746625,-0.1841278076171875,-0.72613525390625,-0.18243408203125,197269.824534625,1.108440136256278,-4.060582167800559,-5.103733045720782,197269.831125625,-105.0844879150391,-26.41853332519531,-559.993896484375,197269.824534625,1.643039925266637,-2.039231091055361,0.8801069898015582,1.105311393737793,-4.067632675170898,-5.106916904449463,0.1106471419334412,0.1360414028167725,-0.6103231906890869,1,-0.7162719368934631,0.3616209328174591,-0.09973251074552536,-0.5884202122688293,-0.5684413313865662,-0.7708070278167725,0.2876303791999817,0,0,0,-1,197266.279814,1,2,1561914551.117351,1561913957.287787,32,0.8918345,0,0,26.32609,0,0,1561914413.669193,197267.152653,0,1.984375,75.28645,3232235528,177845136,1,1,0.53,-17.63444,-20.67916,3
1561914554.705885,85,0,0,1561914553.999747,4.634731826376761,-74.15113345726779,2553.101,0,15.46875,4,30,-9999,1561914554.701988,-29.27521514892578,2.384641647338867,4.27996826171875,315.5505981445312,323.0440673828125,15,197269.862009625,0.0044708251953125,-0.8098907470703125,-0.0189208984375,197269.844797625,1.427617329741184,-4.231705714172473,-5.059682230761999,197269.851237625,-104.9424133300781,-29.15829467773438,-557.9066772460938,197269.844797625,1.768176040916304,-2.222601072247947,0.9533121140753087,1.424488544464111,-4.23875617980957,-5.0628662109375,0.276160329580307,0.0892024040222168,-0.533659815788269,1,-0.7448698282241821,0.347536712884903,-0.04403039067983627,-0.5678455233573914,-0.4602881669998169,-0.8153376579284668,0.3512256443500519,0,0,0,-1,197266.279814,1,2,1561914551.117351,1561913957.287787,32,0.8918345,0,0,26.32609,0,0,1561914413.669193,197267.152653,0,1.984375,75.28645,3232235528,177845136,1,1,0.53,-17.63444,-21.14634,3
1561914554.726547,86,0,0,1561914553.999747,4.634731826376761,-74.15113345726779,2553.101,0,15.46875,4,30,-9999,1561914554.701988,-29.27521514892578,2.384641647338867,4.27996826171875,315.5505981445312,323.0440673828125,15,197269.882273625,0.0131072998046875,-0.7227783203125,0.0760345458984375,197269.865061625,1.257170758918369,-4.155778725178204,-5.0394896107448,197269.871348625,-104.0579528808594,-32.14459228515625,-555.4630126953125,197269.865061625,1.932379200136304,-2.445340245070142,1.008581422751852,1.254042029380798,-4.162829399108887,-5.042673587799072,0.3463480770587921,0.03618574142456055,-0.4279128313064575,1,-0.7707991600036621,0.3322117328643799,0.01246126741170883,-0.543459951877594,-0.341877281665802,-0.846076488494873,0.4089919626712799,0,0,0,-1,197266.279814,1,2,1561914551.117351,1561913957.287787,32,0.8918345,0,0,26.32609,0,0,1561914413.669193,197267.152653,0,1.984375,75.28645,3232235528,177845136,1,1,0.52,-17.63444,-18.44479,3
1561914554.756914,87,0,0,1561914553.999747,4.634731826376761,-74.15113345726779,2553.101,0,15.46875,4,30,-9999,1561914554.732638,-27.8726806640625,-3.345844268798828,8.87664794921875,302.7009887695312,310.1944580078125,15,197269.902537625,0.08355712890625,-0.61767578125,0.1018524169921875,197269.885294625,0.6617800845503682,-2.996561161681822,-4.644034157317844,197269.891459625,-103.0667572021484,-34.534423828125,-553.4450073242188,197269.885294625,2.113693231097203,-2.674895059875781,1.046206420705281,0.6586512923240662,-3.00361156463623,-4.647217750549316,0.2384631335735321,0.1427510976791382,-0.3712613582611084,1,-0.7907054424285889,0.313740074634552,0.06450731307268143,-0.5217191576957703,-0.2253558486700058,-0.8655294179916382,0.4472958743572235,0,0,0,-1,197266.279814,1,2,1561914551.117351,1561913957.287787,32,0.8918345,0,0,26.32609,0,0,1561914413.669193,197267.152653,0,1.984375,75.28645,3232235528,177845136,1,1,0.52,-17.63444,-19.28042,3
1561914554.766577,88,0,0,1561914553.999747,4.634731826376761,-74.15113345726779,2553.101,0,15.46875,4,30,-9999,1561914554.757428,-26.86583709716797,-5.615253448486328,10.36785888671875,290.4298095703125,297.9232788085938,15,197269.922800625,0.1762542724609375,-0.64154052734375,0.1619720458984375,197269.905558625,0.2768044363289829,-1.41587145775339,-3.948162148705044,197269.911570625,-102.2831726074219,-36.47015380859375,-552.6861572265625,197269.905558625,2.28549202187138,-2.869872816725603,1.069554137509247,0.2736756503582001,-1.422921895980835,-3.951346158981323,0.2125218361616135,0.2593106031417847,-0.3610328435897827,1,-0.8041962385177612,0.2910515367984772,0.1035865917801857,-0.5077667832374573,-0.1289647072553635,-0.8769863247871399,0.4628851711750031,0,0,0,-1,197266.279814,1,2,1561914551.117351,1561913957.287787,32,0.8918345,0,0,26.32609,0,0,1561914413.669193,197267.152653,0,1.984375,75.28645,3232235528,177845136,1,1,0.52,-17.63444,-20.14533,3
1561914554.786851,89,0,0,1561914553.999747,4.634731826376761,-74.15113345726779,2553.101,0,15.46875,4,30,-9999,1561914554.757428,-26.86583709716797,-5.615253448486328,10.36785888671875,290.4298095703125,297.9232788085938,15,197269.943064625,0.21038818359375,-0.7359466552734375,0.2005157470703125,197269.925822625,-0.04683541619456952,0.01931351054136364,-3.604189860207064,197269.931681625,-101.6150970458984,-38.45274353027344,-552.8251953125,197269.925822625,2.443480808035013,-3.022730444732515,1.081140654174913,-0.04996420070528984,0.01226306892931461,-3.607373952865601,0.2320262342691422,0.2409542798995972,-0.3050312995910645,1,-0.8147413730621338,0.2640040814876556,0.1278405636548996,-0.5001550316810608,-0.05577194690704346,-0.8824948668479919,0.4670033156871796,0,0,0,-1,197266.279814,1,2,1561914551.117351,1561913957.287787,32,0.8918345,0,0,26.32609,0,0,1561914413.669193,197267.152653,0,1.984375,75.28645,3232235528,177845136,1,1,0.52,-17.63444,-20.14533,3
1561914554.80694,90,0,0,1561914553.999747,4.634731826376761,-74.15113345726779,2553.101,0,15.46875,4,30,-9999,1561914554.80344,-25.56293487548828,-9.797183990478516,10.84161376953125,92.77772521972656,100.2711944580078,15,197269.963328625,0.1848907470703125,-0.7938079833984375,0.2864227294921875,197269.946085625,-0.7621474355005116,1.352024034831503,-3.55543616907931,197269.951792625,-101.1316680908203,-40.77986145019531,-553.213623046875,197269.946085625,2.598210377916256,3.137848201851364,1.093383333611646,-0.7652761936187744,1.344973683357239,-3.55862021446228,0.2086676806211472,0.1522399187088013,-0.2589641809463501,1,-0.8226512670516968,0.2301842868328094,0.1410516053438187,-0.5003644227981567,0.001720508094877005,-0.8881865739822388,0.4594798386096954,0,0,0,-1,197266.279814,1,2,1561914551.117351,1561913957.287787,32,0.8918345,0,0,26.32609,0,0,1561914413.669193,197267.152653,0,1.984375,75.28645,3232235528,177845136,1,1,0.52,-17.63444,-20.87777,3
1561914554.832643,91,0,0,1561914553.999747,4.634731826376761,-74.15113345726779,2553.101,0,15.46875,4,30,-9999,1561914554.827667,-24.32041168212891,-14.19789886474609,8.7738037109375,89.75019073486328,97.24365997314453,15,197269.983591625,0.1650543212890625,-0.702178955078125,0.355255126953125,197269.966349625,-1.342143973503418,1.770002640545587,-3.680559200258394,197269.971903625,-100.2383270263672,-42.80499267578125,-554.4324340820312,197269.966349625,2.762191978840692,3.024438777548477,1.110641635259354,-1.345272779464722,1.762952208518982,-3.683743238449097,0.1329831779003143,0.1021758317947388,-0.1546199321746826,1,-0.827236533164978,0.1902658045291901,0.1480975598096848,-0.5074896812438965,0.05190755799412727,-0.8959838151931763,0.4410427212715149,0,0,0,-1,197266.279814,1,2,1561914551.117351,1561913957.287787,32,0.8918345,0,0,26.32609,0,0,1561914413.669193,197267.152653,0,1.984375,75.28645,3232235528,177845136,1,1,0.52,-17.63444,-21.89334,3
1561914554.847463,92,0,0,1561914553.999747,4.634731826376761,-74.15113345726779,2553.101,0,15.46875,4,30,-9999,1561914554.827667,-24.32041168212891,-14.19789886474609,8.7738037109375,89.75019073486328,97.24365997314453,15,197270.003824625,0.255950927734375,-0.5140533447265625,0.388946533203125,197269.986613625,-1.602754526191956,1.813981550154937,-3.689991850523346,197269.992014625,-99.82308959960938,-45.36155700683594,-555.6094970703125,197269.986613625,2.945213106294754,2.896107534387906,1.126998450511565,-1.605883240699768,1.806931138038635,-3.693175792694092,0.06070530414581299,0.2009485363960266,-0.06124424934387207,1,-0.8285783529281616,0.1473350524902344,0.1549761742353439,-0.5174288153648376,0.1043490022420883,-0.9031274914741516,0.4164994060993195,0,0,0,-1,197266.279814,1,2,1561914551.117351,1561913957.287787,32,0.8918345,0,0,26.32609,0,0,1561914413.669193,197267.152653,0,1.984375,75.28645,3232235528,177845136,1,1,0.52,-17.63444,-22.55466,3
1561914554.867823,93,0,0,1561914553.999747,4.634731826376761,-74.15113345726779,2553.101,0,15.46875,4,30,-9999,1561914554.854937,-23.74827575683594,-16.39796829223633,7.4720458984375,86.79405212402344,94.28752136230469,15,197270.024088625,0.4102630615234375,-0.3750457763671875,0.47430419921875,197270.006876625,-1.35966491031505,1.459275923515611,-3.249890898266192,197270.012125625,-98.56599426269531,-47.11294555664062,-556.75732421875,197270.006876625,3.125491875765321,2.767182684808914,1.135330642935894,-1.362793684005737,1.452225565910339,-3.253074884414673,0.1016768962144852,0.3926203846931458,-0.003662824630737305,1,-0.8275946378707886,0.1067325249314308,0.1611707657575607,-0.5269907116889954,0.1542740315198898,-0.9066737294197083,0.3926094472408295,0,0,0,-1,197266.279814,1,2,1561914551.117351,1561913957.287787,32,0.8918345,0,0,26.32609,0,0,1561914413.669193,197267.152653,0,1.984375,75.28645,3232235528,177845136,1,1,0.52,-17.63444,-23.47451,3
1561914554.888198,94,0,0,1561914553.999747,4.634731826376761,-74.15113345726779,2553.101,0,15.46875,4,30,-9999,1561914554.878246,-22.61080169677734,-18.16402053833008,6.6201171875,85.76863098144531,93.26210021972656,15,197270.044352625,0.522003173828125,-0.2866058349609375,0.4724578857421875,197270.027140625,-0.6270513986712989,0.1891134658515078,-2.927696076950117,197270.032236625,-97.38674926757812,-48.83023071289062,-557.2764282226562,197270.027140625,-3.004501927723116,2.646453095890752,1.127397366821227,-0.6301801800727844,0.182063028216362,-2.930880069732666,0.2064158916473389,0.528252899646759,0.09681510925292969,1,-0.8265560269355774,0.07449615001678467,0.1711689680814743,-0.5309959650039673,0.2038471698760986,-0.9032986760139465,0.3774890899658203,0,0,0,-1,197266.279814,1,2,1561914551.117351,1561913957.287787,32,0.8918345,0,0,26.32609,0,0,1561914413.669193,197267.152653,0,1.984375,75.28645,3232235528,177845136,1,1,0.52,-17.63444,-24.46455,3
1561914554.912481,95,0,0,1561914553.999747,4.634731826376761,-74.15113345726779,2553.101,0,15.46875,4,30,-9999,1561914554.9047,-21.33805084228516,-19.82108306884766,6.6240234375,87.34420013427734,94.83766937255859,15,197270.064615625,0.5767364501953125,-0.1818084716796875,0.4146728515625,197270.047404625,-0.411517244277333,-1.233812971945611,-2.576967348766606,197270.052347625,-96.08561706542969,-49.89369201660156,-556.7802734375,197270.047404625,-2.883867568131131,2.526047354542241,1.105727148074779,-0.4146460294723511,-1.24086332321167,-2.580151319503784,0.2630465626716614,0.6071847081184387,0.1062889099121094,1,-0.8247534036636353,0.05353802442550659,0.19135782122612,-0.5294314026832581,0.2589566111564636,-0.8937905430793762,0.3661690056324005,0,0,0,-1,197266.279814,1,2,1561914551.117351,1561913957.287787,32,0.8918345,0,0,26.32609,0,0,1561914413.669193,197267.152653,0,1.984375,75.28645,3232235528,177845136,1,1,0.52,-17.63444,-25.47628,3
1561914554.928583,96,0,0,1561914553.999747,4.634731826376761,-74.15113345726779,2553.101,0,15.46875,4,30,-9999,1561914554.9047,-21.33805084228516,-19.82108306884766,6.6240234375,87.34420013427734,94.83766937255859,15,197270.084879625,0.6036834716796875,-0.081207275390625,0.364105224609375,197270.067667625,-0.9579422398948101,-1.693098271431259,-1.721336034785479,197270.072458625,-95.03474426269531,-51.18075561523438,-556.5739135742188,197270.067667625,-2.790713519941684,2.411642198258298,1.088365209174084,-0.9610710144042969,-1.700148701667786,-1.724519968032837,0.2673696875572205,0.7040612101554871,0.06894540786743164,1,-0.8191831707954407,0.04245811700820923,0.2162699401378632,-0.5294938087463379,0.309366762638092,-0.8858696818351746,0.3457275032997131,0,0,0,-1,197266.279814,1,2,1561914551.117351,1561913957.287787,32,0.8918345,0,0,26.32609,0,0,1561914413.669193,197267.152653,0,1.984375,75.28645,3232235528,177845136,1,1,0.52,-17.63444,-22.19872,3
1561914554.948744,97,0,0,1561914553.999747,4.634731826376761,-74.15113345726779,2553.101,0,15.46875,4,30,-9999,1561914554.929599,-19.01945495605469,-21.88753890991211,7.10760498046875,88.95823669433594,96.45170593261719,15,197270.105143625,0.6265411376953125,0.0203704833984375,0.339447021484375,197270.087900625,-1.855076522619841,-1.122270997061495,-0.9107976306976824,197270.092570625,-94.41618347167969,-52.09213256835938,-556.7801513671875,197270.087900625,-2.70685650791859,2.307718797901066,1.089990755572271,-1.858205318450928,-1.129321336746216,-0.913981556892395,0.2611886858940125,0.8054153919219971,0.05330419540405273,1,-0.808750331401825,0.03637853264808655,0.2359220087528229,-0.5375315546989441,0.342494785785675,-0.8866226673126221,0.3108009994029999,0,0,0,-1,197266.279814,1,2,1561914551.117351,1561913957.287787,32,0.8918345,0,0,26.32609,0,0,1561914413.669193,197267.152653,0,1.984375,75.28645,3232235528,177845136,1,1,0.52,-17.63444,-22.19872,3
1561914554.969119,98,0,0,1561914553.999747,4.634731826376761,-74.15113345726779,2553.101,0,15.46875,4,30,-9999,1561914554.955338,-18.65192413330078,-22.74322891235352,6.66729736328125,88.56739044189453,96.06085968017578,15,197270.125406625,0.724822998046875,0.09027099609375,0.3471221923828125,197270.108164625,-2.570956327870188,-0.1239379244939986,-0.3362435286984614,197270.112711625,-94.095947265625,-52.69992065429688,-557.7155151367188,197270.108164625,-2.612107159220781,2.210470832299091,1.109127743078052,-2.574084997177124,-0.1309883743524551,-0.3394275009632111,0.2691672444343567,0.9156809449195862,0.07354724407196045,1,-0.795038640499115,0.02938431315124035,0.2452280521392822,-0.5539974570274353,0.3573738932609558,-0.8953104615211487,0.2658997476100922,0,0,0,-1,197266.279814,1,2,1561914551.117351,1561913957.287787,32,0.8918345,0,0,26.32609,0,0,1561914413.669193,197267.152653,0,1.984375,75.28645,3232235528,177845136,1,1,0.52,-17.63444,-23.26672,3
1561914554.992306,99,0,0,1561914553.999747,4.634731826376761,-74.15113345726779,2553.101,0,15.46875,4,30,-9999,1561914554.979763,-18.45843505859375,-23.34424591064453,5.4100341796875,86.55638885498047,94.04985809326172,15,197270.145670625,0.8057098388671875,0.2494964599609375,0.3971710205078125,197270.128428625,-3.016341790678386,0.4112977998035105,0.4453833322793257,197270.132822625,-94.66334533691406,-52.96855163574219,-558.8640747070312,197270.128428625,-2.502039128456559,2.115936584687813,1.140885879544761,-3.019470453262329,0.4042473435401917,0.4421993792057037,0.3684451878070831,0.9992740750312805,0.1310009956359863,1,-0.7795003056526184,0.02097354456782341,0.2441052943468094,-0.5764998197555542,0.3563778102397919,-0.9090030789375305,0.2161212265491486,0,0,0,-1,197266.279814,1,2,1561914551.117351,1561913957.287787,32,0.8918345,0,0,26.32609,0,0,1561914413.669193,197267.152653,0,1.984375,75.28645,3232235528,177845136,1,1,0.52,-17.63444,-24.31762,3
1561914555.009541,100,0,0,1561914553.999747,4.634731826376761,-74.15113345726779,2553.101,0,15.46875,4,30,-9999,1561914555.006213,-19.13751983642578,-23.37493515014648,4.28704833984375,85.56932067871094,93.06278991699219,15,197270.165934625,0.9119415283203125,0.385711669921875,0.4492340087890625,197270.148691625,-3.403728931266838,-0.3808229811336248,2.275577141886229,197270.152933625,-95.52326965332031,-52.21878051757812,-560.3568115234375,197270.148691625,-2.387062697041008,2.012191221921383,1.194981891280585,-3.40685772895813,-0.3878734409809113,2.272392988204956,0.4738572835922241,1.179705381393433,0.2403755187988281,1,-0.7601882219314575,0.02261987142264843,0.2362661212682724,-0.6047978401184082,0.3318525552749634,-0.9302089810371399,0.1567955762147903,0,0,0,-1,197266.279814,1,2,1561914551.117351,1561913957.287787,32,0.8918345,0,0,26.32609,0,0,1561914413.669193,197267.152653,0,1.984375,75.28645,3232235528,177845136,1,1,0.52,-17.63444,-25.28538,3
1561914555.029865,101,0,0,1561914553.999747,4.634731826376761,-74.15113345726779,2553.101,0,15.46875,4,30,-9999,1561914555.006213,-19.13751983642578,-23.37493515014648,4.28704833984375,85.56932067871094,93.06278991699219,15,197270.186197625,0.7130126953125,0.562591552734375,0.4539794921875,197270.168955625,-3.195703293250241,-1.806084478574525,4.211206564313806,197270.173044625,-97.13401794433594,-51.29026794433594,-561.0131225585938,197270.168955625,-2.26754449945012,1.877042723901616,1.282051106946666,-3.198832035064697,-1.813134908676147,4.208022594451904,0.6404409408569336,1.344313621520996,0.3633872270584106,1,-0.7353611588478088,0.04655485227704048,0.2249659597873688,-0.6375475525856018,0.2715005874633789,-0.9586019515991211,0.08584677428007126,0,0,0,-1,197266.279814,1,2,1561914551.117351,1561913957.287787,32,0.8918345,0,0,26.32609,0,0,1561914413.669193,197267.152653,0,1.984375,75.28645,3232235528,177845136,1,1,0.52,-17.63444,-24.44207,3
1561914555.050222,102,0,0,1561914554.99974,4.634731826376761,-74.15113345726779,2553.082,0,324.84375,4,30,-9999,1561914555.03002,-22.13164520263672,-21.27946090698242,2.5760498046875,87.59886169433594,95.09233093261719,15,197270.206461625,0.3474884033203125,0.6927642822265625,0.334259033203125,197270.189219625,-2.479860772255155,-3.392808372900859,5.551284191127432,197270.193156625,-99.41902160644531,-49.02189636230469,-560.7613525390625,197270.189219625,-2.110910243939883,1.673061066759951,1.391715398355712,-2.482989549636841,-3.399858951568604,5.548100471496582,0.5358179807662964,1.546599388122559,0.4357953071594238,1,-0.707425594329834,0.09295768290758133,0.212950810790062,-0.6675027012825012,0.1771946996450424,-0.9840078353881836,0.01818420551717281,0,0,0,-1,197266.279814,1,2,1561914551.117351,1561913957.287787,32,0.8918345,0,0,26.32609,0,0,1561914413.669193,197267.152653,0,1.984375,75.28645,3232235528,177845136,1,1,0.52,-17.63444,-25.50519,3
1561914555.075131,103,0,0,1561914554.99974,4.634731826376761,-74.15113345726779,2553.082,0,324.84375,4,30,-9999,1561914555.056493,-24.31986999511719,-18.5606803894043,3.56842041015625,93.47879791259766,100.9722671508789,15,197270.226694625,-0.113555908203125,0.7868194580078125,0.200408935546875,197270.209482625,-1.711261296381709,-5.09864374487764,6.689831896139274,197270.213267625,-101.3740386962891,-45.80586242675781,-558.6922607421875,197270.209482625,-1.521891148423097,1.000201120467546,1.507906823752496,-1.71439003944397,-5.10569429397583,6.686647891998291,0.2945979237556458,1.690787315368652,0.3682045936584473,1,-0.6760729551315308,0.1610980033874512,0.2034433782100677,-0.68962562084198,0.05289050936698914,-0.9980230927467346,-0.03394558653235435,0,0,0,-1,197266.279814,1,2,1561914551.117351,1561913957.287787,32,0.8918345,0,0,26.32609,0,0,1561914413.669193,197267.152653,0,1.984375,75.28645,3232235528,177845136,1,1,0.52,-17.63444,-26.38256,3
1561914555.09057,104,0,0,1561914554.99974,4.634731826376761,-74.15113345726779,2553.082,0,324.84375,4,30,-9999,1561914555.080822,-26.15711212158203,-15.01473236083984,5.756103515625,102.4559936523438,109.949462890625,15,197270.246958625,-0.5570526123046875,0.810455322265625,0.13800048828125,197270.229746625,-1.08645414356102,-6.434000652342991,7.934995526966912,197270.233378625,-103.0669403076172,-41.66658020019531,-555.7235107421875,197270.229746625,0.4017451512685595,-1.037298733402867,1.454101084812512,-1.089582920074463,-6.441051006317139,7.931811809539795,-0.0133051723241806,1.780018329620361,0.2596195340156555,1,-0.6395471692085266,0.2477380186319351,0.1933887004852295,-0.7015740275382996,-0.1002507284283638,-0.9931988120079041,-0.05921058356761932,0,0,0,-1,197266.279814,1,2,1561914551.117351,1561913957.287787,32,0.8918345,0,0,26.32609,0,0,1561914413.669193,197267.152653,0,1.984375,75.28645,3232235528,177845136,1,1,0.52,-17.63444,-27.27917,3
1561914555.110842,105,0,0,1561914554.99974,4.634731826376761,-74.15113345726779,2553.082,0,324.84375,4,30,-9999,1561914555.10719,-26.57517242431641,-5.766933441162109,12.640869140625,112.1514892578125,119.6449584960938,15,197270.267222625,-1.271942138671875,0.5572662353515625,0.135772705078125,197270.250010625,-0.2363536825317693,-7.122989721118482,8.826798693821821,197270.253489625,-102.9314422607422,-36.698486328125,-552.1220703125,197270.250010625,0.630243297667509,-1.402281765224484,1.286950048512964,-0.2394824624061584,-7.130040168762207,8.823614120483398,-0.2809697985649109,1.770440697669983,0.1849699020385742,1,-0.5958239436149597,0.3485815823078156,0.178521528840065,-0.7011523842811584,-0.2760828137397766,-0.9599853754043579,-0.04696941748261452,0,0,0,-1,197266.279814,1,2,1561914551.117351,1561913957.287787,32,0.8918345,0,0,26.32609,0,0,1561914413.669193,197267.152653,0,1.984375,75.28645,3232235528,177845136,1,1,0.52,-17.63444,-27.27917,3
1561914555.131337,106,0,0,1561914554.99974,4.634731826376761,-74.15113345726779,2553.082,0,324.84375,4,30,-9999,1561914555.10719,-26.57517242431641,-5.766933441162109,12.640869140625,112.1514892578125,119.6449584960938,15,197270.287485625,-1.774871826171875,-0.1408538818359375,0.167510986328125,197270.270273625,1.072284528665144,-5.612243415847128,8.169088452049312,197270.273630625,-101.9662780761719,-32.01019287109375,-548.9312133789062,197270.270273625,0.6880767571210966,-1.588727439115514,1.11251439101738,1.069155812263489,-5.619293689727783,8.16590404510498,-0.8296052217483521,1.454080104827881,0.1278402805328369,1,-0.5526680946350098,0.4455605447292328,0.1538985818624496,-0.6872765421867371,-0.4423369467258453,-0.8968139290809631,0.007932444103062153,0,0,0,-1,197266.279814,1,2,1561914551.117351,1561913957.287787,32,0.8918345,0,0,26.32609,0,0,1561914413.669193,197267.152653,0,1.984375,75.28645,3232235528,177845136,1,1,0.52,-17.63444,-28.21498,3
1561914555.158165,107,0,0,1561914554.99974,4.634731826376761,-74.15113345726779,2553.082,0,324.84375,4,30,-9999,1561914555.131552,-25.74742126464844,-1.338884353637695,15.09320068359375,117.0827865600586,124.5762557983398,15,197270.307749625,-1.686065673828125,-0.7344512939453125,-0.206451416015625,197270.290537625,1.327494190663002,-1.677052459547423,5.539867219534262,197270.293741625,-101.1068267822266,-28.34481811523438,-547.7554931640625,197270.290537625,0.7254013626341063,-1.697605953124925,0.9703950216282374,1.324365377426147,-1.684102892875671,5.536683559417725,-1.214434623718262,0.684255063533783,0.09605872631072998,1,-0.5237132906913757,0.5113223195075989,0.1198263242840767,-0.6707574725151062,-0.5604372620582581,-0.8251089453697205,0.07145225256681442,0,0,0,-1,197266.279814,1,2,1561914551.117351,1561913957.287787,32,0.8918345,0,0,26.32609,0,0,1561914413.669193,197267.152653,0,1.984375,75.28645,3232235528,177845136,1,1,0.52,-17.63444,-29.21579,3
1561914555.171743,108,0,0,1561914554.99974,4.634731826376761,-74.15113345726779,2553.082,0,324.84375,4,30,-9999,1561914555.158321,-25.12131500244141,1.829128265380859,15.7410888671875,117.4598846435547,124.9533538818359,15,197270.328013625,-1.489883422851562,-0.73590087890625,-0.5092926025390625,197270.310770625,-1.836706303736583,1.273409117349018,4.13263479004098,197270.313853625,-101.0274047851562,-26.59294128417969,-548.117431640625,197270.310770625,0.7000659495523156,-1.679634313066297,0.8760373358597179,-1.839844942092896,1.266348958015442,4.129451751708984,-1.049653291702271,0.03375673294067383,-0.2759920358657837,1,-0.4972031712532043,0.536245584487915,0.08931116759777069,-0.676205039024353,-0.6364123225212097,-0.7682080268859863,0.06954064220190048,0,0,0,-1,197266.279814,1,2,1561914551.117351,1561913957.287787,32,0.8918345,0,0,26.32609,0,0,1561914413.669193,197267.152653,0,1.984375,75.28645,3232235528,177845136,1,1,0.52,-17.63444,-30.26622,3
1561914555.191974,109,0,0,1561914554.99974,4.634731826376761,-74.15113345726779,2553.082,0,324.84375,4,30,-9999,1561914555.182253,-25.28975677490234,3.181541442871094,15.4638671875,117.4354476928711,124.9289169311523,15,197270.348276625,-1.178939819335938,-0.4955596923828125,-0.4122467041015625,197270.331034625,-2.098966418404316,2.169216346902862,2.934969169887124,197270.333964625,-101.3693237304688,-25.2271728515625,-548.8665771484375,197270.331034625,0.6205497196426595,-1.582305149720118,0.8062418021028728,-2.102104902267456,2.162156343460083,2.93178653717041,-0.7977137565612793,-0.014210045337677,-0.5172590017318726,1,-0.4623494744300842,0.5387171506881714,0.06821946054697037,-0.7009727954864502,-0.6921696662902832,-0.7216907739639282,0.007966409437358379,0,0,0,-1,197266.279814,1,2,1561914551.117351,1561913957.287787,32,0.8918345,0,0,26.32609,0,0,1561914413.669193,197267.152653,0,1.984375,75.28645,3232235528,177845136,1,1,0.52,-18.19172,-31.24374,3
1561914555.212238,110,0,0,1561914554.99974,4.634731826376761,-74.15113345726779,2553.082,0,324.84375,4,30,-9999,1561914555.208703,-25.80349731445312,6.094781875610352,13.9305419921875,114.5203247070312,122.0137939453125,15,197270.368540625,-1.07208251953125,-0.26165771484375,-0.1298370361328125,197270.351298625,1.736541885661504,1.27783529108073,2.262129509961874,197270.354075625,-101.5863037109375,-23.86474609375,-549.4285888671875,197270.351298625,0.6130261506275146,-1.539412649949989,0.75670586527641,1.733403205871582,1.270775079727173,2.258946895599365,-0.4521963596343994,0.1909703612327576,-0.389431357383728,1,-0.448035329580307,0.5365227460861206,0.04372993484139442,-0.7137894630432129,-0.7267434597015381,-0.6865299940109253,-0.02281537279486656,0,0,0,-1,197266.279814,1,2,1561914551.117351,1561913957.287787,32,0.8918345,0,0,26.32609,0,0,1561914413.669193,197267.152653,0,1.984375,75.28645,3232235528,177845136,1,1,0.52,-18.74899,-32.30197,3
1561914555.239106,111,0,0,1561914554.99974,4.634731826376761,-74.15113345726779,2553.082,0,324.84375,4,30,-9999,1561914555.23312,-25.29221343994141,8.573566436767578,13.44573974609375,110.8464279174805,118.3398971557617,15,197270.388804625,-1.160598754882812,-0.2950439453125,0.14215087890625,197270.371561625,3.371494562064737,0.1569882862540999,2.841503933534138,197270.374186625,-101.3241119384766,-21.51583862304688,-549.936767578125,197270.371561625,0.6915181969928478,-1.579524016009685,0.7065593054816564,3.368355989456177,0.1499281674623489,2.838321208953857,-0.3115113973617554,0.3875628709793091,-0.1364753246307373,1,-0.4549830853939056,0.5443431735038757,0.007303331978619099,-0.7047180533409119,-0.7605711221694946,-0.6492206454277039,0.006638197228312492,0,0,0,-1,197266.279814,1,2,1561914551.117351,1561913957.287787,32,0.8918345,0,0,26.32609,0,0,1561914413.669193,197267.152653,0,1.984375,75.28645,3232235528,177845136,1,1,0.52,-19.30627,-33.17638,3
1561914555.253037,112,0,0,1561914554.99974,4.634731826376761,-74.15113345726779,2553.082,0,324.84375,4,30,-9999,1561914555.23312,-25.29221343994141,8.573566436767578,13.44573974609375,110.8464279174805,118.3398971557617,15,197270.409067625,-1.3709716796875,-0.480712890625,0.3595733642578125,197270.391825625,2.652364901336166,0.1422223895901556,3.234471728186852,197270.394297625,-100.7155914306641,-19.27249145507812,-550.662109375,197270.391825625,0.7688365554060724,-1.626280572875171,0.6419070681746734,2.649226427078247,0.135162279009819,3.231289148330688,-0.3608759045600891,0.3036800622940063,0.0977332592010498,1,-0.4594968855381012,0.5577377676963806,-0.03211281076073647,-0.6904780864715576,-0.7997229099273682,-0.5987240076065063,0.0444176122546196,0,0,0,-1,197266.279814,1,2,1561914551.117351,1561913957.287787,32,0.8918345,0,0,26.32609,0,0,1561914413.669193,197267.152653,0,1.984375,75.28645,3232235528,177845136,1,1,0.52,-19.86355,-33.98521,3
1561914555.27313,113,0,0,1561914554.99974,4.634731826376761,-74.15113345726779,2553.082,0,324.84375,4,30,-9999,1561914555.259823,-24.54218292236328,10.75521659851074,12.88092041015625,108.0470504760742,115.5405197143555,15,197270.429331625,-1.527557373046875,-0.59674072265625,0.431427001953125,197270.412089625,1.781231859281906,0.3438385978112584,2.72377783228275,197270.414408625,-100.1795654296875,-16.96749877929688,-551.3366088867188,197270.412089625,0.8176182311137827,-1.648774994675812,0.5776033525455407,1.778093218803406,0.3367784917354584,2.720595121383667,-0.5357438325881958,0.06530475616455078,0.2943110466003418,1,-0.4571918249130249,0.5688644647598267,-0.06688427925109863,-0.6803641319274902,-0.8352278470993042,-0.5460176467895508,0.06526228785514832,0,0,0,-1,197266.279814,1,2,1561914551.117351,1561913957.287787,32,0.8918345,0,0,26.32609,0,0,1561914413.669193,197267.152653,0,1.984375,75.28645,3232235528,177845136,1,1,0.52,-19.86355,-33.98521,3
1561914555.29325,114,0,0,1561914554.99974,4.634731826376761,-74.15113345726779,2553.082,0,324.84375,4,30,-9999,1561914555.283628,-23.95314025878906,12.83938598632812,12.3017578125,13.71802520751953,21.21149253845215,15,197270.449564625,-1.569366455078125,-0.5783538818359375,0.40185546875,197270.432352625,1.139151976263181,-0.01965625937365684,1.980428319336563,197270.434519625,-99.308837890625,-15.71261596679688,-551.5831298828125,197270.432352625,0.8474555940380589,-1.661036461423026,0.5278237021232687,1.136013269424438,-0.02671637386083603,1.977245688438416,-0.6671673059463501,-0.09308630228042603,0.3535737991333008,1,-0.4534299969673157,0.5773454904556274,-0.09216844290494919,-0.6727394461631775,-0.8603900671005249,-0.503654420375824,0.07785315811634064,0,0,0,-1,197266.279814,1,2,1561914551.117351,1561913957.287787,32,0.8918345,0,0,26.32609,0,0,1561914413.669193,197267.152653,0,1.984375,75.28645,3232235528,177845136,1,1,0.52,-20.42083,-34.99813,3
1561914555.320585,115,0,0,1561914554.99974,4.634731826376761,-74.15113345726779,2553.082,0,324.84375,4,30,-9999,1561914555.309998,-22.88004302978516,14.83125495910645,11.99310302734375,12.79617118835449,20.28963851928711,15,197270.4698386667,-1.555267333984375,-0.5110321044921875,0.3605804443359375,197270.452616625,0.6972824187261055,-0.2367486293214281,1.516252923457311,197270.4546406667,-98.67921447753906,-14.56341552734375,-551.6363525390625,197270.452616625,0.864003566560404,-1.671924756501665,0.4915039061411517,0.6941438317298889,-0.2438087314367294,1.513070225715637,-0.6922467947006226,-0.1064016222953796,0.3128501176834106,1,-0.4494389295578003,0.5852412581443787,-0.1083610653877258,-0.6661494970321655,-0.8771197199821472,-0.4719522893428802,0.08900536596775055,0,0,0,-1,197266.279814,1,2,1561914551.117351,1561913957.287787,32,0.8918345,0,0,26.32609,0,0,1561914413.669193,197267.152653,0,1.984375,75.28645,3232235528,177845136,1,1,0.52,-20.97811,-35.79986,3
1561914555.334102,116,0,0,1561914554.99974,4.634731826376761,-74.15113345726779,2553.082,0,324.84375,4,30,-9999,1561914555.309998,-22.88004302978516,14.83125495910645,11.99310302734375,12.79617118835449,20.28963851928711,15,197270.4901026667,-1.588348388671875,-0.530731201171875,0.3517913818359375,197270.4728906667,0.708589401766255,-0.5234725417626291,1.213203034585597,197270.4747516667,-98.35511779785156,-13.65180969238281,-551.7605590820312,197270.4728906667,0.8755936871384994,-1.68515529199729,0.4626832132135374,0.7054507732391357,-0.5305326581001282,1.210020422935486,-0.6662543416023254,-0.0646812915802002,0.2584683895111084,1,-0.446192592382431,0.5932691097259521,-0.1196474060416222,-0.659263551235199,-0.8890129923820496,-0.4463508129119873,0.1021121293306351,0,0,0,-1,197266.279814,1,2,1561914551.117351,1561913957.287787,32,0.8918345,0,0,26.32609,0,0,1561914413.669193,197267.152653,0,1.984375,75.28645,3232235528,177845136,1,1,0.52,-21.53539,-36.64376,3
1561914555.354089,117,0,0,1561914554.99974,4.634731826376761,-74.15113345726779,2553.082,0,324.84375,4,30,-9999,1561914555.334194,-22.31343078613281,15.8090295791626,11.990478515625,11.74463081359863,19.23809814453125,15,197270.5103656667,-1.618606567382812,-0.55572509765625,0.3761138916015625,197270.4931536667,0.9668646284949025,-0.3197015699035432,0.9535711935976631,197270.4948626667,-97.85755920410156,-13.16867065429688,-551.6415405273438,197270.4931536667,0.8916485638146888,-1.701998199629272,0.4389797580034278,0.9637260437011719,-0.3267616927623749,0.950388491153717,-0.6909424662590027,-0.1057150363922119,0.2333698272705078,1,-0.4459646642208099,0.6002718806266785,-0.1297239661216736,-0.6511227488517761,-0.8974059820175171,-0.4250161647796631,0.1184216216206551,0,0,0,-1,197266.279814,1,2,1561914551.117351,1561913957.287787,32,0.8918345,0,0,26.32609,0,0,1561914413.669193,197267.152653,0,1.984375,75.28645,3232235528,177845136,1,1,0.52,-22.09267,-37.6791,3
1561914555.374413,118,0,0,1561914554.99974,4.634731826376761,-74.15113345726779,2553.082,0,324.84375,4,30,-9999,1561914555.366519,-21.89853668212891,16.31295776367188,11.7567138671875,10.45655822753906,17.95002555847168,15,197270.5306296667,-1.561279296875,-0.5479888916015625,0.4461517333984375,197270.5134176667,0.8652895339904083,0.2650428516907569,0.7167961989814432,197270.5149736667,-97.67422485351562,-12.55134582519531,-552.1513671875,197270.5134176667,0.9098103523579052,-1.710257214003361,0.4196976731736576,0.8621509075164795,0.2579827308654785,0.7136135101318359,-0.7142606973648071,-0.1482406854629517,0.2491689920425415,1,-0.4470824897289276,0.6029840111732483,-0.1407438963651657,-0.6455374956130981,-0.9043458104133606,-0.407484382390976,0.1269449442625046,0,0,0,-1,197266.279814,1,2,1561914551.117351,1561913957.287787,32,0.8918345,0,0,26.32609,0,0,1561914413.669193,197268.098555,0,2.121826,75.28516,3232235528,177845136,1,1,0.52,-22.64995,-38.72061,3
1561914555.398245,119,0,0,1561914554.99974,4.634731826376761,-74.15113345726779,2553.082,0,324.84375,4,30,-9999,1561914555.366519,-21.89853668212891,16.31295776367188,11.7567138671875,10.45655822753906,17.95002555847168,15,197270.5508936667,-1.491912841796875,-0.53717041015625,0.4940948486328125,197270.5336506667,0.7090581181181089,0.3007582387537006,0.5116797981396493,197270.5350846667,-97.19853210449219,-12.2799072265625,-552.5009765625,197270.5336506667,0.9246458424053494,-1.709428686809914,0.4050965435410339,0.7059195041656494,0.2936981320381165,0.5084970593452454,-0.6510325074195862,-0.1538814306259155,0.3191473484039307,1,-0.4477871656417847,0.6024855375289917,-0.1509779244661331,-0.6431978940963745,-0.9102467894554138,-0.3941074907779694,0.1270043402910233,0,0,0,-1,197266.279814,1,2,1561914551.117351,1561913957.287787,32,0.8918345,0,0,26.32609,0,0,1561914413.669193,197268.098555,0,2.121826,75.28516,3232235528,177845136,1,1,0.52,-23.20723,-39.71669,3
1561914555.41532,120,0,0,1561914554.99974,4.634731826376761,-74.15113345726779,2553.082,0,324.84375,4,30,-9999,1561914555.411117,-21.3409423828125,17.55250549316406,10.90936279296875,8.259740829467773,15.75320816040039,15,197270.5711566667,-1.42193603515625,-0.5027313232421875,0.5023345947265625,197270.5539146667,0.7841169165970112,-0.2095929083181081,0.1401227533867371,197270.5551966667,-97.20474243164062,-11.99847412109375,-552.7761840820312,197270.5539146667,0.9395935804984017,-1.714057553251736,0.396266714844341,0.7809783220291138,-0.2166530191898346,0.136940062046051,-0.578855037689209,-0.1511933505535126,0.3623867034912109,1,-0.4504118263721466,0.6024808883666992,-0.1579101979732513,-0.6396954655647278,-0.913057804107666,-0.3859770596027374,0.1317080706357956,0,0,0,-1,197266.279814,1,2,1561914551.117351,1561913957.287787,32,0.8918345,0,0,26.32609,0,0,1561914413.669193,197268.098555,0,2.121826,75.28516,3232235528,177845136,1,1,0.52,-23.20723,-39.71669,3
1561914555.435246,121,0,0,1561914554.99974,4.634731826376761,-74.15113345726779,2553.082,0,324.84375,4,30,-9999,1561914555.411117,-21.3409423828125,17.55250549316406,10.90936279296875,8.259740829467773,15.75320816040039,15,197270.5914206667,-1.292083740234375,-0.442840576171875,0.4561767578125,197270.5741776667,0.6398199245176839,-0.5413985453760615,-0.1865853270286956,197270.5753076667,-97.39779663085938,-11.78375244140625,-552.439697265625,197270.5741776667,0.9561241493864236,-1.728756639677152,0.3947808358532783,0.6366813182830811,-0.5484586358070374,-0.1897680163383484,-0.5103471875190735,-0.1181254386901855,0.3571300506591797,1,-0.4561943411827087,0.603729248046875,-0.1603764593601227,-0.6337801218032837,-0.9115888476371765,-0.384605884552002,0.145204558968544,0,0,0,-1,197266.279814,1,2,1561914551.117351,1561913957.287787,32,0.8918345,0,0,26.32609,0,0,1561914413.669193,197268.098555,0,2.121826,75.28516,3232235528,177845136,1,1,0.52,-23.7645,-40.62476,3
