loggingTime,loggingSample,identifierForVendor,deviceID,locationTimestamp_since1970,locationLatitude,locationLongitude,locationAltitude,locationSpeed,locationCourse,locationVerticalAccuracy,locationHorizontalAccuracy,locationFloor,locationHeadingTimestamp_since1970,locationHeadingX,locationHeadingY,locationHeadingZ,locationTrueHeading,locationMagneticHeading,locationHeadingAccuracy,accelerometerTimestamp_sinceReboot,accelerometerAccelerationX,accelerometerAccelerationY,accelerometerAccelerationZ,gyroTimestamp_sinceReboot,gyroRotationX,gyroRotationY,gyroRotationZ,magnetometerTimestamp_sinceReboot,magnetometerX,magnetometerY,magnetometerZ,motionTimestamp_sinceReboot,motionYaw,motionRoll,motionPitch,motionRotationRateX,motionRotationRateY,motionRotationRateZ,motionUserAccelerationX,motionUserAccelerationY,motionUserAccelerationZ,motionAttitudeReferenceFrame,motionQuaternionX,motionQuaternionY,motionQuaternionZ,motionQuaternionW,motionGravityX,motionGravityY,motionGravityZ,motionMagneticFieldX,motionMagneticFieldY,motionMagneticFieldZ,motionMagneticFieldCalibrationAccuracy,activityTimestamp_sinceReboot,activity,activityActivityConfidence,activityActivityStartDate,pedometerStartDate,pedometerNumberofSteps,pedometerAverageActivePace,pedometerCurrentPace,pedometerCurrentCadence,pedometerDistance,pedometerFloorAscended,pedometerFloorDescended,pedometerEndDate,altimeterTimestamp_sinceReboot,altimeterReset,altimeterRelativeAltitude,altimeterPressure,IP_en0,IP_pdp_ip0,deviceOrientation,batteryState,batteryLevel,avAudioRecorderPeakPower,avAudioRecorderAveragePower,label
1561914545.53977,1,0,0,1561914544.999809,4.634731616829182,-74.15106003179601,2553.06,0.16,113.5546875,4,10,-9999,1561914545.490181,16.36631393432617,22.73426818847656,11.226806640625,20.23161506652832,27.72508239746094,15,197260.683775375,-0.4881134033203125,0.881500244140625,0.0765838623046875,197260.666533375,-0.3534251787872166,-0.2018170105672948,0.06889864056143997,197260.659575375,-59.30441284179688,-7.212615966796875,-552.1660766601562,197260.666533375,0.6929547954919494,-1.725716550733749,-1.047146206292638,-0.356464147567749,-0.2087787836790085,0.06570307910442352,0.004111737012863159,-0.0008416175842285156,0.0005097389221191406,1,0.08237437903881073,0.7292415499687195,-0.5485041737556458,-0.4007050693035126,-0.4940561950206757,0.8659997582435608,0.07715754956007004,0,0,0,-1,197258.814262875,3,2,1561914543.651799,1561913957.287787,32,0.8918345,0,0,26.32609,0,0,1561914413.669193,197257.693268,0,1.302734,75.29288,3232235528,177845136,1,1,0.53,-45.02357,-49.75747,2
1561914545.564018,2,0,0,1561914544.999809,4.634731616829182,-74.15106003179601,2553.06,0.16,113.5546875,4,10,-9999,1561914545.558272,16.87590026855469,22.08483123779297,11.75634765625,24.25728607177734,31.75075340270996,15,197260.704008375,-0.4895172119140625,0.887054443359375,0.0735931396484375,197260.686796375,-0.2986703204590785,-0.08647656902039898,0.09139968861151945,197260.679686375,-59.08456420898438,-7.361083984375,-552.0936279296875,197260.686796375,0.6791928922321543,-1.740770297254542,-1.047620506383265,-0.3017092943191528,-0.09343834966421127,0.08820412307977676,0.004320651292800903,0.01526343822479248,-0.007932543754577637,1,0.08343520760536194,0.7316398024559021,-0.5464988350868225,-0.3988496363162994,-0.4924340546131134,0.8662368059158325,0.08451646566390991,0,0,0,-1,197258.814262875,3,2,1561914543.651799,1561913957.287787,32,0.8918345,0,0,26.32609,0,0,1561914413.669193,197257.693268,0,1.302734,75.29288,3232235528,177845136,1,1,0.53,-45.02357,-50.30224,2
1561914545.568007,3,0,0,1561914544.999809,4.634731616829182,-74.15106003179601,2553.06,0.16,113.5546875,4,10,-9999,1561914545.558272,16.87590026855469,22.08483123779297,11.75634765625,24.25728607177734,31.75075340270996,15,197260.724272375,-0.4947357177734375,0.894256591796875,0.0731048583984375,197260.707060375,-0.1556005130100596,-0.04469769678756291,0.08114465420195133,197260.699797375,-58.94755554199219,-7.208389282226562,-551.6751708984375,197260.707060375,0.6690631561012336,-1.750887687254788,-1.04845443308446,-0.1586394906044006,-0.0516594797372818,0.07794909179210663,0.001325398683547974,0.0204012393951416,-0.01577150821685791,1,0.08465535193681717,0.7331547141075134,-0.5451235771179199,-0.3976908624172211,-0.4908426105976105,0.8666531443595886,0.08936472982168198,0,0,0,-1,197258.814262875,3,2,1561914543.651799,1561913957.287787,32,0.8918345,0,0,26.32609,0,0,1561914413.669193,197257.693268,0,1.302734,75.29288,3232235528,177845136,1,1,0.53,-45.02357,-50.30224,2
1561914545.589162,4,0,0,1561914544.999809,4.634731616829182,-74.15106003179601,2553.06,0.16,113.5546875,4,10,-9999,1561914545.584702,16.84804534912109,21.86056518554688,11.7862548828125,24.33725929260254,31.83072662353516,15,197260.744536375,-0.4869384765625,0.8709259033203125,0.0884552001953125,197260.727324375,-0.006975085211026533,-0.1434280026156345,0.08354522760854875,197260.719908375,-59.13156127929688,-7.5849609375,-551.5794677734375,197260.727324375,0.665390016299841,-1.755521078809691,-1.049820591617419,-0.01001405064016581,-0.150389775633812,0.08034966886043549,-0.005477011203765869,0.02692264318466187,-0.01831555366516113,1,0.08518318086862564,0.7337942719459534,-0.5449486374855042,-0.3966367840766907,-0.4892586767673492,0.8673339486122131,0.09142041206359863,0,0,0,-1,197258.814262875,3,2,1561914543.651799,1561913957.287787,32,0.8918345,0,0,26.32609,0,0,1561914413.669193,197257.693268,0,1.302734,75.29288,3232235528,177845136,1,1,0.53,-45.02357,-50.56301,2
1561914545.608779,5,0,0,1561914544.999809,4.634731616829182,-74.15106003179601,2553.06,0.16,113.5546875,4,10,-9999,1561914545.584702,16.84804534912109,21.86056518554688,11.7862548828125,24.33725929260254,31.83072662353516,15,197260.764799375,-0.506378173828125,0.87432861328125,0.055755615234375,197260.747587375,0.09704159538085232,-0.03202371315987582,0.09365378815816253,197260.740050375,-58.88755798339844,-7.2314453125,-552.0968627929688,197260.747587375,0.6662599333846759,-1.757364080187831,-1.051319019961885,0.0940026268362999,-0.0389854907989502,0.0904582291841507,0.0008731484413146973,0.002847135066986084,-0.003625631332397461,1,0.08484712988138199,0.734058141708374,-0.5455923080444336,-0.3953334987163544,-0.4878116548061371,0.8680787682533264,0.09208077937364578,0,0,0,-1,197258.814262875,3,2,1561914543.651799,1561913957.287787,32,0.8918345,0,0,26.32609,0,0,1561914413.669193,197257.693268,0,1.302734,75.29288,3232235528,177845136,1,1,0.53,-45.02357,-51.22707,2
1561914545.637998,6,0,0,1561914544.999809,4.634731616829182,-74.15106003179601,2553.06,0.16,113.5546875,4,10,-9999,1561914545.608945,17.00970458984375,21.99040603637695,11.69775390625,24.05581474304199,31.54928207397461,15,197260.785063375,-0.49658203125,0.8731842041015625,0.0644378662109375,197260.767851375,0.1695962234867531,0.03005723501096131,0.08913653431717011,197260.760161375,-59.04405212402344,-7.361663818359375,-551.9137573242188,197260.767851375,0.6709514196222263,-1.753299843410359,-1.053534736557163,0.166557252407074,0.02309545502066612,0.08594097197055817,-0.02008906006813049,0.005151987075805664,-0.03399252891540527,1,0.08495486527681351,0.7332507967948914,-0.5469262003898621,-0.394965261220932,-0.4862891137599945,0.8691765666007996,0.08974812179803848,0,0,0,-1,197258.814262875,3,2,1561914543.651799,1561913957.287787,32,0.8918345,0,0,26.32609,0,0,1561914413.669193,197257.693268,0,1.302734,75.29288,3232235528,177845136,1,1,0.53,-45.02357,-51.72177,2
1561914545.648994,7,0,0,1561914544.999809,4.634731616829182,-74.15106003179601,2553.06,0.16,113.5546875,4,10,-9999,1561914545.637339,16.80860900878906,21.85176086425781,11.66265869140625,23.52253150939941,31.01599884033203,15,197260.805327375,-0.48699951171875,0.877349853515625,0.0586090087890625,197260.788084375,0.2250312531572975,0.08535378030482157,0.07879920822991855,197260.780272375,-58.81640625,-7.40985107421875,-551.839111328125,197260.788084375,0.6784002766519752,-1.745805113762181,-1.055839363964535,0.2219922840595245,0.07839199900627136,0.07560364902019501,-0.01160761713981628,0.002870321273803711,-0.02131414413452148,1,0.08502908796072006,0.7318784594535828,-0.5486769080162048,-0.3950665593147278,-0.4849744141101837,0.8703139424324036,0.08575204759836197,0,0,0,-1,197258.814262875,3,2,1561914543.651799,1561913957.287787,32,0.8918345,0,0,26.32609,0,0,1561914413.669193,197257.693268,0,1.302734,75.29288,3232235528,177845136,1,1,0.53,-45.02357,-52.10184,2
1561914545.672319,8,0,0,1561914544.999809,4.634731616829182,-74.15106003179601,2553.06,0.16,113.5546875,4,10,-9999,1561914545.659466,16.82956314086914,22.03347778320312,11.4228515625,22.9181079864502,30.41157531738281,15,197260.825590375,-0.4841766357421875,0.8716888427734375,0.05743408203125,197260.808348375,0.2192295567225598,0.1169141034350236,0.08031587847071868,197260.800383375,-59.01348876953125,-7.583740234375,-551.9238891601562,197260.808348375,0.686898995539011,-1.736413843852741,-1.058093718017431,0.2161905765533447,0.1099523231387138,0.07712031900882721,-0.003177493810653687,0.005927860736846924,-0.02226114273071289,1,0.08523999899625778,0.7301843762397766,-0.5505357980728149,-0.3955695331096649,-0.4838220477104187,0.8714219927787781,0.08087015897035599,0,0,0,-1,197258.814262875,3,2,1561914543.651799,1561913957.287787,32,0.8918345,0,0,26.32609,0,0,1561914413.669193,197257.693268,0,1.302734,75.29288,3232235528,177845136,1,1,0.53,-44.92886,-52.64165,2
1561914545.690017,9,0,0,1561914544.999809,4.634731616829182,-74.15106003179601,2553.06,0.16,113.5546875,4,10,-9999,1561914545.688455,16.93774795532227,21.92196846008301,11.374755859375,22.35950660705566,29.85297393798828,15,197260.845854375,-0.48773193359375,0.86187744140625,0.0605010986328125,197260.828612375,0.2070312136655609,0.07970415036832747,0.06902966808707187,197260.820494375,-58.65036010742188,-7.344497680664062,-552.2847900390625,197260.828612375,0.6950617765946649,-1.727452956699433,-1.060280191316489,0.2039922326803207,0.07274237275123596,0.06583410501480103,-0.001532316207885742,-0.0008035898208618164,-0.01879990100860596,1,0.08545145392417908,0.7285705804824829,-0.5523237586021423,-0.3960069715976715,-0.4826443195343018,0.8724924325942993,0.07623407989740372,0,0,0,-1,197258.814262875,3,2,1561914543.651799,1561913957.287787,32,0.8918345,0,0,26.32609,0,0,1561914413.669193,197257.693268,0,1.302734,75.29288,3232235528,177845136,1,1,0.53,-44.92886,-53.08927,2
1561914545.714697,10,0,0,1561914544.999809,4.634731616829182,-74.15106003179601,2553.06,0.16,113.5546875,4,10,-9999,1561914545.710044,16.93112182617188,22.03257751464844,11.21673583984375,21.88593864440918,29.3794059753418,15,197260.866118375,-0.487213134765625,0.8482666015625,0.0623016357421875,197260.848875375,0.1672864638733274,0.05123469199927141,0.003043460493742553,197260.840605375,-58.91177368164062,-7.392791748046875,-552.477783203125,197260.848875375,0.7023387867085547,-1.720031090770073,-1.061518196405156,0.1642474830150604,0.04427291452884674,-0.0001520980149507523,-0.005603939294815063,-0.01121920347213745,-0.01198816299438477,1,0.08526305109262466,0.7273065447807312,-0.5537596344947815,-0.3963655233383179,-0.4821279942989349,0.8730967044830322,0.07248919457197189,0,0,0,-1,197258.814262875,3,2,1561914543.651799,1561913957.287787,32,0.8918345,0,0,26.32609,0,0,1561914413.669193,197257.693268,0,1.302734,75.29288,3232235528,177845136,1,1,0.53,-44.92886,-46.74383,2
1561914545.730169,11,0,0,1561914544.999809,4.634731616829182,-74.15106003179601,2553.06,0.16,113.5546875,4,10,-9999,1561914545.710044,16.93112182617188,22.03257751464844,11.21673583984375,21.88593864440918,29.3794059753418,15,197260.886381375,-0.490509033203125,0.847503662109375,0.0719757080078125,197260.869139375,0.1319806709860379,0.01958621823698776,-0.07838535299652023,197260.860716375,-59.00845336914062,-7.346466064453125,-552.4923706054688,197260.869139375,0.70876955993869,-1.713819129872677,-1.061077345317494,0.1289416998624802,0.01262443885207176,-0.08158091455698013,-0.004263132810592651,-0.02461504936218262,-0.007246136665344238,1,0.08450156450271606,0.7263837456703186,-0.5546615719795227,-0.3969592750072479,-0.4829500019550323,0.8728816509246826,0.06954772025346756,0,0,0,-1,197258.814262875,3,2,1561914543.651799,1561913957.287787,32,0.8918345,0,0,26.32609,0,0,1561914413.669193,197257.693268,0,1.302734,75.29288,3232235528,177845136,1,1,0.53,-44.92886,-46.74383,2
1561914545.750342,12,0,0,1561914544.999809,4.634731616829182,-74.15106003179601,2553.06,0.16,113.5546875,4,10,-9999,1561914545.737553,16.88821792602539,22.10268974304199,11.31915283203125,21.53807067871094,29.03153800964355,15,197260.906615375,-0.4865264892578125,0.8607025146484375,0.07904052734375,197260.889403375,0.07949695643551931,-0.03767547362524198,-0.1330089174829175,197260.880858375,-58.73171997070312,-7.44598388671875,-552.33251953125,197260.889403375,0.713625869817047,-1.709927889227042,-1.059155037786429,0.07645799219608307,-0.04463725537061691,-0.1362044662237167,-0.005631089210510254,-0.02443844079971313,0.004075288772583008,1,0.08318045735359192,0.7259691953659058,-0.554986834526062,-0.3975417017936707,-0.4848779439926147,0.8719421029090881,0.06790052354335785,0,0,0,-1,197258.814262875,3,2,1561914543.651799,1561913957.287787,32,0.8918345,0,0,26.32609,0,0,1561914413.669193,197257.693268,0,1.302734,75.29288,3232235528,177845136,1,1,0.53,-44.92886,-47.33378,2
1561914545.771766,13,0,0,1561914544.999809,4.634731616829182,-74.15106003179601,2553.06,0.16,113.5546875,4,10,-9999,1561914545.760789,16.7418327331543,22.21480941772461,11.31964111328125,21.36195182800293,28.85541915893555,15,197260.926878375,-0.48028564453125,0.86376953125,0.075042724609375,197260.909666375,0.03372494046421844,-0.02466007274580672,-0.115279721474042,197260.900969375,-59.00714111328125,-7.249649047851562,-552.392578125,197260.909666375,0.7165986548449779,-1.708164868769013,-1.056589272437903,0.03068597614765167,-0.03162185102701187,-0.1184752807021141,0.0006846785545349121,-0.009980440139770508,0.0116889476776123,1,0.0817384198307991,0.7259439826011658,-0.554871678352356,-0.398047149181366,-0.4872111976146698,0.8706830143928528,0.06735166907310486,0,0,0,-1,197258.814262875,3,2,1561914543.651799,1561913957.287787,32,0.8918345,0,0,26.32609,0,0,1561914413.669193,197257.693268,0,1.302734,75.29288,3232235528,177845136,1,1,0.53,-42.09797,-47.57376,2
1561914545.79306,14,0,0,1561914544.999809,4.634731616829182,-74.15106003179601,2553.06,0.16,113.5546875,4,10,-9999,1561914545.787351,16.86362838745117,22.07745361328125,11.25933837890625,21.28553581237793,28.77900314331055,15,197260.947142375,-0.480438232421875,0.871246337890625,0.0653076171875,197260.929930375,0.01474831980074981,0.006795055521337176,-0.04837898436237944,197260.921080375,-59.06178283691406,-7.3203125,-552.423828125,197260.929930375,0.7179010919758183,-1.707330400325808,-1.054972846359458,0.01170935481786728,-0.000166723970323801,-0.05157454311847687,0.008375585079193115,-0.006117284297943115,0.007906198501586914,1,0.08095993101596832,0.7259571552276611,-0.5546980500221252,-0.3984242379665375,-0.4886612296104431,0.8698868155479431,0.06713660061359406,0,0,0,-1,197258.814262875,3,2,1561914543.651799,1561913957.287787,32,0.8918345,0,0,26.32609,0,0,1561914413.669193,197257.693268,0,1.302734,75.29288,3232235528,177845136,1,1,0.53,-42.09797,-46.46264,2
1561914545.811267,15,0,0,1561914544.999809,4.634731616829182,-74.15106003179601,2553.06,0.16,113.5546875,4,10,-9999,1561914545.787351,16.86362838745117,22.07745361328125,11.25933837890625,21.28553581237793,28.77900314331055,15,197260.967406375,-0.4871368408203125,0.8737335205078125,0.0672149658203125,197260.950194375,0.0603996945746701,0.003876230966610331,-0.02720099474185132,197260.941191375,-59.32264709472656,-6.969589233398438,-552.250732421875,197260.950194375,0.7193278876253268,-1.706075485888426,-1.054321645597181,0.05736072733998299,-0.00308554875664413,-0.03039655275642872,0.008868157863616943,0.001680910587310791,-0.001292109489440918,1,0.08057360351085663,0.7258152365684509,-0.5547710657119751,-0.3986594676971436,-0.4893064200878143,0.8695654273033142,0.06659972667694092,0,0,0,-1,197258.814262875,3,2,1561914543.651799,1561913957.287787,32,0.8918345,0,0,26.32609,0,0,1561914413.669193,197257.693268,0,1.302734,75.29288,3232235528,177845136,1,1,0.53,-42.09797,-46.87119,2
1561914545.831829,16,0,0,1561914544.999809,4.634731616829182,-74.15106003179601,2553.06,0.16,113.5546875,4,10,-9999,1561914545.811406,16.76173782348633,22.18222999572754,11.42803955078125,21.06078338623047,28.55425071716309,15,197260.987669375,-0.4831390380859375,0.8739776611328125,0.0751953125,197260.970457375,0.1088636337758231,0.01431928454913805,-0.02655704239027016,197260.961302375,-59.13386535644531,-7.320587158203125,-552.5098876953125,197260.970457375,0.72294562344505,-1.702892788893807,-1.05389179281163,0.1058246642351151,0.007357505150139332,-0.02975259907543659,0.00274929404258728,0.004380404949188232,0.002123713493347168,1,0.08000114560127258,0.7253588438034058,-0.5552589893341064,-0.3989259004592896,-0.4898861348628998,0.8693531155586243,0.06509127467870712,0,0,0,-1,197258.814262875,3,2,1561914543.651799,1561913957.287787,32,0.8918345,0,0,26.32609,0,0,1561914413.669193,197257.693268,0,1.302734,75.29288,3232235528,177845136,1,1,0.53,-36.84916,-41.89509,2
1561914545.851654,17,0,0,1561914544.999809,4.634731616829182,-74.15106003179601,2553.06,0.16,113.5546875,4,10,-9999,1561914545.838044,16.74822998046875,22.23849678039551,11.04901123046875,20.76438903808594,28.25785636901855,15,197261.007933375,-0.4818878173828125,0.8716888427734375,0.0798492431640625,197260.990690375,0.09253712471309229,0.04223613699200267,-0.01897715329568663,197260.981413375,-59.14164733886719,-7.320831298828125,-552.3233642578125,197260.990690375,0.7271572988488966,-1.698762545642214,-1.053605790464894,0.08949816226959229,0.03527435660362244,-0.022172711789608,0.007258236408233643,0.004765927791595459,0.01209628582000732,1,0.07952620089054108,0.7247241735458374,-0.5558647513389587,-0.3993304967880249,-0.4903973042964935,0.869211733341217,0.06309908628463745,0,0,0,-1,197258.814262875,3,2,1561914543.651799,1561913957.287787,32,0.8918345,0,0,26.32609,0,0,1561914413.669193,197257.693268,0,1.302734,75.29288,3232235528,177845136,1,1,0.53,-36.84916,-40.72284,2
1561914545.876422,18,0,0,1561914544.999809,4.634731616829182,-74.15106003179601,2553.06,0.16,113.5546875,4,10,-9999,1561914545.862579,16.77255630493164,22.30161285400391,11.02630615234375,20.54195404052734,28.03542137145996,15,197261.028197375,-0.478729248046875,0.869354248046875,0.081939697265625,197261.010954375,0.07376743166632284,0.04054609496423839,-0.01494752425028774,197261.001555375,-59.17588806152344,-7.130996704101562,-552.5151977539062,197261.010954375,0.7304815940247459,-1.695098565344119,-1.053405813629632,0.07072846591472626,0.03358431160449982,-0.01814308203756809,0.008910119533538818,0.002575993537902832,0.01852583885192871,1,0.07927408069372177,0.7241390347480774,-0.5563346147537231,-0.3997876942157745,-0.4907979071140289,0.8691128492355347,0.06132344156503677,0,0,0,-1,197258.814262875,3,2,1561914543.651799,1561913957.287787,32,0.8918345,0,0,26.32609,0,0,1561914413.669193,197257.693268,0,1.302734,75.29288,3232235528,177845136,1,1,0.53,-36.84916,-40.77834,2
1561914545.892132,19,0,0,1561914544.999809,4.634731616829182,-74.15106003179601,2553.06,0.16,113.5546875,4,10,-9999,1561914545.888609,16.78357315063477,22.28659248352051,11.0697021484375,20.38594627380371,27.87941360473633,15,197261.048460375,-0.4805450439453125,0.86956787109375,0.084716796875,197261.031218375,0.05415005444458115,0.003563309538526021,-0.01389530930359743,197261.021666375,-58.85980224609375,-7.012954711914062,-552.552978515625,197261.031218375,0.7329732122104556,-1.692593284467915,-1.05321945338791,0.05111108720302582,-0.003398470114916563,-0.01709086820483208,0.01238131523132324,0.0003336071968078613,0.02182638645172119,1,0.0790068730711937,0.7237503528594971,-0.5566884875297546,-0.40005162358284,-0.4911105632781982,0.8690206408500671,0.06011331826448441,0,0,0,-1,197258.814262875,3,2,1561914543.651799,1561913957.287787,32,0.8918345,0,0,26.32609,0,0,1561914413.669193,197257.693268,0,1.302734,75.29288,3232235528,177845136,1,1,0.53,-36.84916,-40.77834,2
1561914545.912585,20,0,0,1561914544.999809,4.634731616829182,-74.15106003179601,2553.06,0.16,113.5546875,4,10,-9999,1561914545.888609,16.78357315063477,22.28659248352051,11.0697021484375,20.38594627380371,27.87941360473633,15,197261.068724375,-0.481964111328125,0.8704833984375,0.0805511474609375,197261.051481375,0.05367175071280292,-0.03581179349440453,-0.005975600853919794,197261.041777375,-59.06510925292969,-7.086532592773438,-552.6337280273438,197261.051481375,0.7350665129891272,-1.691331291959622,-1.05305445646902,0.0506327860057354,-0.04277357459068298,-0.009171159006655216,0.01078322529792786,0.0006288886070251465,0.02520608901977539,1,0.07854551076889038,0.7235924005508423,-0.5570175051689148,-0.399970144033432,-0.4913282692432404,0.8689389824867249,0.0595107190310955,0,0,0,-1,197258.814262875,3,2,1561914543.651799,1561913957.287787,32,0.8918345,0,0,26.32609,0,0,1561914413.669193,197258.639122,0,1.305176,75.29285,3232235528,177845136,1,1,0.53,-36.84916,-41.47922,2
1561914545.932518,21,0,0,1561914544.999809,4.634731616829182,-74.15106003179601,2553.06,0.16,113.5546875,4,10,-9999,1561914545.913926,16.69607543945312,22.20887184143066,10.85223388671875,20.23578262329102,27.72924995422363,15,197261.088988375,-0.4821929931640625,0.871185302734375,0.0790557861328125,197261.071745375,0.05919887523915337,-0.05703638843400903,-0.005518069778644182,197261.061888375,-59.00082397460938,-7.056533813476562,-552.6339111328125,197261.071745375,0.737135606887204,-1.69067149522215,-1.053104607258365,0.05615990981459618,-0.06399817019701004,-0.00871362816542387,0.009360164403915405,0.001519560813903809,0.0213698148727417,1,0.0779976099729538,0.7235378623008728,-0.5574173927307129,-0.3996188342571259,-0.4913242757320404,0.8689637780189514,0.0591813288629055,0,0,0,-1,197258.814262875,3,2,1561914543.651799,1561913957.287787,32,0.8918345,0,0,26.32609,0,0,1561914413.669193,197258.639122,0,1.305176,75.29285,3232235528,177845136,1,1,0.53,-36.84916,-42.17787,2
1561914545.95639,22,0,0,1561914544.999809,4.634731616829182,-74.15106003179601,2553.06,0.16,113.5546875,4,10,-9999,1561914545.939849,16.75857162475586,22.24282836914062,10.98699951171875,20.09144592285156,27.58491325378418,15,197261.109251375,-0.48284912109375,0.87506103515625,0.07806396484375,197261.092009375,0.04921921168629944,-0.07166433335348726,-0.01852015485262904,197261.081999375,-58.99807739257812,-7.314208984375,-552.515380859375,197261.092009375,0.7392505850795053,-1.690330998399446,-1.052920001945774,0.04618024453520775,-0.0786261111497879,-0.02171571180224419,0.009310781955718994,0.002312898635864258,0.02002263069152832,1,0.07726552337408066,0.7235652208328247,-0.5577819347381592,-0.3992027342319489,-0.4915038049221039,0.8688724637031555,0.05903318151831627,0,0,0,-1,197261.091704375,1,2,1561914545.929241,1561913957.287787,32,0.8918345,0,0,26.32609,0,0,1561914413.669193,197258.639122,0,1.305176,75.29285,3232235528,177845136,1,1,0.53,-36.84916,-42.58563,2
1561914545.973164,23,0,0,1561914544.999809,4.634731616829182,-74.15106003179601,2553.06,0.16,113.5546875,4,10,-9999,1561914545.963368,16.95458602905273,22.47781372070312,10.9139404296875,19.98367881774902,27.47714614868164,15,197261.129484375,-0.4780731201171875,0.874237060546875,0.0743865966796875,197261.112272375,0.03731381634920922,-0.05619802532285208,0.0006932208317476257,197261.102110375,-59.00225830078125,-6.903762817382812,-552.5493774414062,197261.112272375,0.7407884499008921,-1.690475654397521,-1.05274209564204,0.03427485004067421,-0.06315980106592178,-0.00250233756378293,0.008799433708190918,0.00627666711807251,0.01894116401672363,1,0.0766090527176857,0.7236659526824951,-0.5580514073371887,-0.398769736289978,-0.4916485846042633,0.8687843680381775,0.0591227151453495,0,0,0,-1,197261.091704375,1,2,1561914545.929241,1561913957.287787,32,0.8918345,0,0,26.32609,0,0,1561914413.669193,197258.639122,0,1.305176,75.29285,3232235528,177845136,1,1,0.53,-36.84916,-43.11298,2
1561914545.993566,24,0,0,1561914544.999809,4.634731616829182,-74.15106003179601,2553.06,0.16,113.5546875,4,10,-9999,1561914545.963368,16.95458602905273,22.47781372070312,10.9139404296875,19.98367881774902,27.47714614868164,15,197261.149748375,-0.4708251953125,0.871490478515625,0.0766754150390625,197261.132536375,0.05111751291130792,-0.05370504022642891,0.02076519965156584,197261.122221375,-59.09016418457031,-6.85650634765625,-552.7402954101562,197261.132536375,0.7422915266482772,-1.690410861966836,-1.053076574030515,0.04807854816317558,-0.06066682189702988,0.0175696425139904,0.01329100131988525,0.00528717041015625,0.01533043384552002,1,0.07619553059339523,0.7236866354942322,-0.5584290027618408,-0.3982826769351959,-0.4913641214370728,0.8689499497413635,0.05905621126294136,0,0,0,-1,197261.091704375,1,2,1561914545.929241,1561913957.287787,32,0.8918345,0,0,26.32609,0,0,1561914413.669193,197258.639122,0,1.305176,75.29285,3232235528,177845136,1,1,0.53,-36.84916,-43.1619,2
1561914546.014361,25,0,0,1561914544.999809,4.634731616829182,-74.15106003179601,2553.06,0.16,113.5546875,4,10,-9999,1561914545.998523,16.89783096313477,22.36184310913086,10.885498046875,19.86301803588867,27.35648536682129,15,197261.170012375,-0.4706268310546875,0.8712158203125,0.07501220703125,197261.152800375,0.04731025781693064,-0.05266853793017007,0.03848134617109995,197261.142332375,-59.02659606933594,-7.180343627929688,-552.6619873046875,197261.152800375,0.744039177425402,-1.690070683832787,-1.053667887709637,0.04427129402756691,-0.05963031947612762,0.03528578951954842,0.02004826068878174,0.002248048782348633,0.01784753799438477,1,0.07585649192333221,0.7236433625221252,-0.5589063167572021,-0.3977558612823486,-0.4908734261989594,0.8692424297332764,0.05882784724235535,0,0,0,-1,197261.091704375,1,2,1561914545.929241,1561913957.287787,32,0.8918345,0,0,26.32609,0,0,1561914413.669193,197258.639122,0,1.305176,75.29285,3232235528,177845136,1,1,0.53,-36.84916,-42.52687,2
1561914546.03966,26,0,0,1561914544.999809,4.634731616829182,-74.15106003179601,2553.06,0.16,113.5546875,4,10,-9999,1561914546.022026,16.99432373046875,22.42024612426758,10.932373046875,19.77197074890137,27.26543807983398,15,197261.190275375,-0.470855712890625,0.8640594482421875,0.069915771484375,197261.173063375,0.03795563817191831,-0.0530898500146206,0.06772951284289519,197261.162474375,-58.62150573730469,-6.875885009765625,-552.8845825195312,197261.173063375,0.7451719345508799,-1.690294929259395,-1.054820837231448,0.03491667285561562,-0.06005162745714188,0.06453394889831543,0.01923871040344238,0.001403987407684326,0.01619374752044678,1,0.07577100396156311,0.7236490845680237,-0.5594168901443481,-0.3970437347888947,-0.4898655116558075,0.8698118329048157,0.05881848558783531,0,0,0,-1,197261.091704375,1,2,1561914545.929241,1561913957.287787,32,0.8918345,0,0,26.32609,0,0,1561914413.669193,197258.639122,0,1.305176,75.29285,3232235528,177845136,1,1,0.53,-36.84916,-38.72735,2
1561914546.05495,27,0,0,1561914545.999802,4.63473203592434,-74.15106665349951,2553.065,0.22,156.796875,4,10,-9999,1561914546.047435,17.04272079467773,22.62930297851562,10.76910400390625,19.68191528320312,27.17538261413574,15,197261.210539375,-0.4789276123046875,0.860015869140625,0.069122314453125,197261.193327375,0.04790680590110839,-0.07795871458988954,0.06943473488887292,197261.182585375,-58.7899169921875,-7.012649536132812,-552.9376831054688,197261.193327375,0.746384997398594,-1.690714587940844,-1.056286753753772,0.04486783966422081,-0.0849204882979393,0.06623917073011398,0.01771789789199829,-0.006474733352661133,0.01104438304901123,1,0.0757063627243042,0.7236741185188293,-0.5600254535675049,-0.3961510956287384,-0.4885736107826233,0.8705341815948486,0.05887136608362198,0,0,0,-1,197261.091704375,1,2,1561914545.929241,1561913957.287787,32,0.8918345,0,0,26.32609,0,0,1561914413.669193,197258.639122,0,1.305176,75.29285,3232235528,177845136,1,1,0.53,-36.84916,-38.72735,2
1561914546.074518,28,0,0,1561914545.999802,4.63473203592434,-74.15106665349951,2553.065,0.22,156.796875,4,10,-9999,1561914546.047435,17.04272079467773,22.62930297851562,10.76910400390625,19.68191528320312,27.17538261413574,15,197261.230803375,-0.482574462890625,0.8596343994140625,0.06646728515625,197261.213560375,0.05619722637452506,-0.09259198583154793,0.05110712658305661,197261.202696375,-58.85369873046875,-6.970138549804688,-552.783447265625,197261.213560375,0.7480838724558315,-1.691176285038075,-1.057567174805135,0.05315826088190079,-0.09955376386642456,0.04791156947612762,0.008511781692504883,-0.01114767789840698,0.01015925407409668,1,0.07539188116788864,0.7237386107444763,-0.5606859922409058,-0.395157665014267,-0.48743936419487,0.871163547039032,0.05896302312612534,0,0,0,-1,197261.091704375,1,2,1561914545.929241,1561913957.287787,32,0.8918345,0,0,26.32609,0,0,1561914413.669193,197258.639122,0,1.305176,75.29285,3232235528,177845136,1,1,0.53,-36.84916,-39.5196,2
1561914546.094783,29,0,0,1561914545.999802,4.63473203592434,-74.15106665349951,2553.065,0.22,156.796875,4,10,-9999,1561914546.091114,17.02923202514648,22.10017585754395,10.7398681640625,19.53584861755371,27.02931594848633,15,197261.251066375,-0.4813690185546875,0.863128662109375,0.0655975341796875,197261.233824375,0.01952736237689701,-0.07250136488409917,0.04103585028870396,197261.222807375,-58.83720397949219,-7.1405029296875,-552.962890625,197261.233824375,0.7493181342244042,-1.692040645604472,-1.058538062164664,0.01648839749395847,-0.07946313917636871,0.03784029185771942,0.003974348306655884,-0.01200544834136963,0.007185220718383789,1,0.07502857595682144,0.7238865494728088,-0.5611945390701294,-0.3942330777645111,-0.4865487813949585,0.8716398477554321,0.05928204581141472,0,0,0,-1,197261.091704375,1,2,1561914545.929241,1561913957.287787,32,0.8918345,0,0,26.32609,0,0,1561914413.669193,197258.639122,0,1.305176,75.29285,3232235528,177845136,1,1,0.53,-36.84916,-40.22073,2
1561914546.115269,30,0,0,1561914545.999802,4.63473203592434,-74.15106665349951,2553.065,0.22,156.796875,4,10,-9999,1561914546.091114,17.02923202514648,22.10017585754395,10.7398681640625,19.53584861755371,27.02931594848633,15,197261.271330375,-0.480010986328125,0.8678131103515625,0.0635833740234375,197261.254088375,-0.01107608697363955,-0.0637542122837339,0.04593526774612273,197261.242918375,-58.66535949707031,-6.705123901367188,-552.741943359375,197261.254088375,0.7489721013231392,-1.693875334986925,-1.059365850385141,-0.01411505229771137,-0.07071598619222641,0.04273970797657967,0.004353880882263184,-0.008916616439819336,0.00551152229309082,1,0.07491650432348251,0.724175751209259,-0.5613934993743896,-0.3934391438961029,-0.4857228994369507,0.8720452785491943,0.06008600071072578,0,0,0,-1,197261.091704375,1,2,1561914545.929241,1561913957.287787,32,0.8918345,0,0,26.32609,0,0,1561914413.669193,197258.639122,0,1.305176,75.29285,3232235528,177845136,1,1,0.53,-36.84916,-40.58424,2
1561914546.135348,31,0,0,1561914545.999802,4.63473203592434,-74.15106665349951,2553.065,0.22,156.796875,4,10,-9999,1561914546.115347,17.16916656494141,22.4144401550293,10.73486328125,19.60905647277832,27.10252380371094,15,197261.291594375,-0.4869232177734375,0.8641204833984375,0.0545806884765625,197261.274351375,-0.02489815934725981,-0.06844084317005535,0.05449227064465633,197261.263029375,-58.44949340820312,-7.138031005859375,-552.819091796875,197261.274351375,0.7478316049241704,-1.696311415460544,-1.060270890219037,-0.02795928344130516,-0.07542452961206436,0.0512995533645153,0.004781097173690796,-0.004674792289733887,0.002413153648376465,1,0.07494897395372391,0.7245466113090515,-0.5614777207374573,-0.3926292657852173,-0.4847920536994934,0.8724879026412964,0.06117027997970581,0,0,0,-1,197261.091704375,1,2,1561914545.929241,1561913957.287787,32,0.8918345,0,0,26.32609,0,0,1561914413.669193,197258.639122,0,1.305176,75.29285,3232235528,177845136,1,1,0.53,-36.84916,-41.42487,2
1561914546.155514,32,0,0,1561914545.999802,4.63473203592434,-74.15106665349951,2553.065,0.22,156.796875,4,10,-9999,1561914546.142293,17.24979019165039,22.41925430297852,10.69830322265625,19.69112396240234,27.18459129333496,15,197261.311857375,-0.4940185546875,0.8607940673828125,0.05035400390625,197261.294615375,-0.004600344467002876,-0.08578015239534326,0.0436420197314555,197261.283140375,-58.32432556152344,-7.224319458007812,-552.7212524414062,197261.294615375,0.7466576399765982,-1.699048740183235,-1.061181198200773,-0.007661469746381044,-0.09276384115219116,0.04044930264353752,-0.003088712692260742,-0.008811831474304199,-0.007814645767211914,1,0.07491040229797363,0.724973201751709,-0.5615689754486084,-0.3917173743247986,-0.4838344752788544,0.8729323148727417,0.06239542365074158,0,0,0,-1,197261.091704375,1,2,1561914545.929241,1561913957.287787,32,0.8918345,0,0,26.32609,0,0,1561914413.669193,197258.639122,0,1.305176,75.29285,3232235528,177845136,1,1,0.53,-36.84916,-42.1742,2
1561914546.176252,33,0,0,1561914545.999802,4.63473203592434,-74.15106665349951,2553.065,0.22,156.796875,4,10,-9999,1561914546.165979,17.25386428833008,22.35128211975098,10.748046875,19.67953300476074,27.17300033569336,15,197261.332091375,-0.4969940185546875,0.8607940673828125,0.0498504638671875,197261.314879375,0.01522129721034789,-0.08431381589914562,0.01463407018998541,197261.303251375,-58.73492431640625,-6.806320190429688,-552.8596801757812,197261.314879375,0.7466275921355646,-1.700989016832063,-1.061684211720576,0.01216017082333565,-0.09129750728607178,0.01144135557115078,-0.01074141263961792,-0.01238358020782471,-0.01292300224304199,1,0.07454460114240646,0.7253148555755615,-0.5617566704750061,-0.3908847272396088,-0.4832771420478821,0.8731775879859924,0.06327707320451736,0,0,0,-1,197261.091704375,1,2,1561914545.929241,1561913957.287787,32,0.8918345,0,0,26.32609,0,0,1561914413.669193,197258.639122,0,1.305176,75.29285,3232235528,177845136,1,1,0.53,-36.84916,-42.94816,2
1561914546.196118,34,0,0,1561914545.999802,4.63473203592434,-74.15106665349951,2553.065,0.22,156.796875,4,10,-9999,1561914546.192449,17.19658660888672,22.41987609863281,10.5867919921875,19.63235855102539,27.12582588195801,15,197261.352354375,-0.492095947265625,0.8613433837890625,0.05181884765625,197261.335142375,0.01901550281538378,-0.06091980993556258,0.004748149907502274,197261.323363375,-58.41546630859375,-7.079254150390625,-553.0621337890625,197261.335142375,0.7471523423435974,-1.702142736732836,-1.061847568592782,0.01595437712967396,-0.06790350377559662,0.00155543559230864,-0.01393115520477295,-0.01246315240859985,-0.01396548748016357,1,0.07408485561609268,0.7255476713180542,-0.5619412660598755,-0.3902745246887207,-0.4830628633499146,0.8732572197914124,0.06381598114967346,0,0,0,-1,197261.091704375,1,2,1561914545.929241,1561913957.287787,32,0.8918345,0,0,26.32609,0,0,1561914413.669193,197258.639122,0,1.305176,75.29285,3232235528,177845136,1,1,0.53,-36.84916,-42.94816,2
1561914546.216536,35,0,0,1561914545.999802,4.63473203592434,-74.15106665349951,2553.065,0.22,156.796875,4,10,-9999,1561914546.192449,17.19658660888672,22.41987609863281,10.5867919921875,19.63235855102539,27.12582588195801,15,197261.372618375,-0.4886474609375,0.863677978515625,0.0507965087890625,197261.355406375,0.02163818385689381,-0.04052825178493485,0.003116431107610724,197261.343474375,-58.4287109375,-6.936813354492188,-553.03857421875,197261.355406375,0.7479418219514617,-1.702599865442499,-1.061830504616598,0.01857705786824226,-0.04751194268465042,-7.628300227224827e-05,-0.009047895669937134,-0.01190555095672607,-0.01221990585327148,1,0.07366418838500977,0.7256672382354736,-0.5621080994606018,-0.3898912072181702,-0.4830480813980103,0.8732488751411438,0.0640387088060379,0,0,0,-1,197261.091704375,1,2,1561914545.929241,1561913957.287787,32,0.8918345,0,0,26.32609,0,0,1561914413.669193,197258.639122,0,1.305176,75.29285,3232235528,177845136,1,1,0.53,-36.84916,-43.74756,2
1561914546.239004,36,0,0,1561914545.999802,4.63473203592434,-74.15106665349951,2553.065,0.22,156.796875,4,10,-9999,1561914546.216716,17.1708984375,22.37496566772461,10.4776611328125,19.57674026489258,27.0702075958252,15,197261.392882375,-0.49151611328125,0.8571624755859375,0.0547027587890625,197261.375670375,0.02387390759201533,-0.04382364731779891,0.02423290170695801,197261.383696375,-58.48493957519531,-7.27789306640625,-553.1034545898438,197261.375670375,0.7487164061263092,-1.702843174883091,-1.062102706470925,0.02081278152763844,-0.05080734193325043,0.02104018814861774,-0.005850315093994141,-0.009703516960144043,-0.0133284330368042,1,0.07340575009584427,0.7257231473922729,-0.5623334646224976,-0.3895109295845032,-0.4827971756458282,0.873381495475769,0.06412497907876968,0,0,0,-1,197261.091704375,1,2,1561914545.929241,1561913957.287787,32,0.8918345,0,0,26.32609,0,0,1561914413.669193,197258.639122,0,1.305176,75.29285,3232235528,177845136,1,1,0.53,-36.84916,-43.96585,2
1561914546.288535,37,0,0,1561914545.999802,4.63473203592434,-74.15106665349951,2553.065,0.22,156.796875,4,10,-9999,1561914546.268055,17.25323867797852,22.36652374267578,10.49462890625,19.42927551269531,26.92274284362793,15,197261.413145375,-0.496185302734375,0.8599090576171875,0.0561676025390625,197261.395933375,0.02961541658611716,-0.06589379590350357,0.01631452483782541,197261.403807375,-58.49978637695312,-6.986923217773438,-553.442626953125,197261.395933375,0.7496394325030075,-1.703259744935127,-1.062507325383135,0.0265542920678854,-0.07287748903036118,0.01312181074172258,-0.009096443653106689,-0.01641601324081421,-0.009576559066772461,1,0.07308870553970337,0.725808322429657,-0.5626258850097656,-0.3889889717102051,-0.4824196696281433,0.8735784888267517,0.06427936255931854,0,0,0,-1,197261.091704375,1,2,1561914545.929241,1561913957.287787,32,0.8918345,0,0,26.32609,0,0,1561914413.669193,197258.639122,0,1.305176,75.29285,3232235528,177845136,1,1,0.53,-36.84916,-44.39363,2
1561914546.292228,38,0,0,1561914545.999802,4.63473203592434,-74.15106665349951,2553.065,0.22,156.796875,4,10,-9999,1561914546.268055,17.25323867797852,22.36652374267578,10.49462890625,19.42927551269531,26.92274284362793,15,197261.433409375,-0.4992828369140625,0.866119384765625,0.0509033203125,197261.416197375,0.02878211348103137,-0.07111838533002102,0.01434138878618571,197261.423918375,-58.60134887695312,-7.077789306640625,-553.2505493164062,197261.416197375,0.7507686065111824,-1.703836689424398,-1.062752972253829,0.0257209874689579,-0.07810207456350327,0.01114867441356182,-0.01401519775390625,-0.01378893852233887,-0.008361577987670898,1,0.0725986659526825,0.7259435653686523,-0.562925398349762,-0.3883947730064392,-0.4821701049804688,0.8736980557441711,0.06452925503253937,0,0,0,-1,197261.091704375,1,2,1561914545.929241,1561913957.287787,32,0.8918345,0,0,26.32609,0,0,1561914413.669193,197258.639122,0,1.305176,75.29285,3232235528,177845136,1,1,0.53,-36.84916,-44.86383,2
1561914546.297906,39,0,0,1561914545.999802,4.63473203592434,-74.15106665349951,2553.065,0.22,156.796875,4,10,-9999,1561914546.29377,17.23839569091797,22.32021713256836,10.59417724609375,19.28322219848633,26.77668952941895,15,197261.45368825,-0.4991912841796875,0.8652191162109375,0.0479278564453125,197261.436430375,0.05143842382266247,-0.07025898324625245,0.01016395430028741,197261.44404425,-58.45292663574219,-6.907394409179688,-553.1980590820312,197261.436430375,0.7521144088158568,-1.70425202999438,-1.063053926921525,0.04837729781866074,-0.07724267244338989,0.006971240043640137,-0.01740023493766785,-0.007725000381469727,-0.01379120349884033,1,0.07209371775388718,0.7260507941246033,-0.5632739663124084,-0.3877825438976288,-0.481882631778717,0.8738443851470947,0.06469451636075974,0,0,0,-1,197261.091704375,1,2,1561914545.929241,1561913957.287787,32,0.8918345,0,0,26.32609,0,0,1561914413.669193,197258.639122,0,1.305176,75.29285,3232235528,177845136,1,1,0.53,-36.84916,-44.86383,2
1561914546.317557,40,0,0,1561914545.999802,4.63473203592434,-74.15106665349951,2553.065,0.22,156.796875,4,10,-9999,1561914546.29377,17.23839569091797,22.32021713256836,10.59417724609375,19.28322219848633,26.77668952941895,15,197261.47395125,-0.5023040771484375,0.8633575439453125,0.0485076904296875,197261.45670925,0.0815132356968183,-0.06473105977157498,-0.00512578615007551,197261.46415525,-58.36106872558594,-6.953521728515625,-553.38232421875,197261.45670925,0.754828546490363,-1.703366179186889,-1.06319832770273,0.07845211029052734,-0.07171475142240524,-0.008318500593304634,-0.01737684011459351,-0.008695483207702637,-0.01632308959960938,1,0.07140627503395081,0.7259659767150879,-0.5638028383255005,-0.3872995376586914,-0.481814444065094,0.8739145994186401,0.06425090879201889,0,0,0,-1,197261.091704375,1,2,1561914545.929241,1561913957.287787,32,0.8918345,0,0,26.32609,0,0,1561914413.669193,197258.639122,0,1.305176,75.29285,3232235528,177845136,1,1,0.53,-32.4312,-36.22771,2
1561914546.351897,41,0,0,1561914545.999802,4.63473203592434,-74.15106665349951,2553.065,0.22,156.796875,4,10,-9999,1561914546.344883,17.28071975708008,22.42183494567871,10.3499755859375,18.76363372802734,26.25710105895996,15,197261.49421525,-0.507171630859375,0.8596649169921875,0.0547637939453125,197261.47697325,0.09098823022310221,-0.05317054379565,-0.03169561171357806,197261.48423625,-58.35711669921875,-6.92913818359375,-553.2257080078125,197261.47697325,0.7585061996859901,-1.701502921256097,-1.063002020374195,0.08792710304260254,-0.06015423685312271,-0.03488832712173462,-0.02020078897476196,-0.01046162843704224,-0.01486766338348389,1,0.07053140550851822,0.7257499694824219,-0.5644016265869141,-0.386992335319519,-0.4821032583713531,0.8738191723823547,0.06337539106607437,0,0,0,-1,197261.091704375,1,2,1561914545.929241,1561913957.287787,32,0.8918345,0,0,26.32609,0,0,1561914413.669193,197258.639122,0,1.305176,75.29285,3232235528,177845136,1,1,0.53,-24.39798,-29.52417,2
1561914546.358187,42,0,0,1561914545.999802,4.63473203592434,-74.15106665349951,2553.065,0.22,156.796875,4,10,-9999,1561914546.344883,17.28071975708008,22.42183494567871,10.3499755859375,18.76363372802734,26.25710105895996,15,197261.51447925,-0.5126800537109375,0.8600006103515625,0.056304931640625,197261.49723625,0.08082986856110397,-0.05633384653844613,-0.08028152369265665,197261.50434725,-58.54397583007812,-6.842926025390625,-553.3216552734375,197261.49723625,0.7622733790026464,-1.699463317960176,-1.062028846944665,0.07776874303817749,-0.06331753730773926,-0.08347424119710922,-0.0240970253944397,-0.01368057727813721,-0.007737278938293457,1,0.06941457837820053,0.7255564332008362,-0.5648267865180969,-0.3869368433952332,-0.4830746054649353,0.8733455538749695,0.06250104308128357,0,0,0,-1,197261.091704375,1,2,1561914545.929241,1561913957.287787,32,0.8918345,0,0,26.32609,0,0,1561914413.669193,197258.639122,0,1.305176,75.29285,3232235528,177845136,1,1,0.53,-24.39798,-29.52417,2
1561914546.37846,43,0,0,1561914545.999802,4.63473203592434,-74.15106665349951,2553.065,0.22,156.796875,4,10,-9999,1561914546.3686,17.18963623046875,22.45372200012207,10.4093017578125,18.5117130279541,26.00518035888672,15,197261.53474225,-0.5102996826171875,0.8642730712890625,0.05535888671875,197261.51750025,0.07294558015392438,-0.03025617314439023,-0.1261329018644419,197261.52445825,-58.79438781738281,-6.678573608398438,-553.4772338867188,197261.51750025,0.765864448910701,-1.697363073497832,-1.060017997846881,0.06988445669412613,-0.03723986446857452,-0.1293256133794785,-0.02773410081863403,-0.01236367225646973,-0.005402922630310059,1,0.0680311992764473,0.7254141569137573,-0.5649707913398743,-0.3872389495372772,-0.4849459528923035,0.8723642826080322,0.06170788779854774,0,0,0,-1,197261.091704375,1,2,1561914545.929241,1561913957.287787,32,0.8918345,0,0,26.32609,0,0,1561914413.669193,197258.639122,0,1.305176,75.29285,3232235528,177845136,1,1,0.53,-18.76956,-21.99114,2
1561914546.398727,44,0,0,1561914545.999802,4.63473203592434,-74.15106665349951,2553.065,0.22,156.796875,4,10,-9999,1561914546.39498,17.09117889404297,22.54514503479004,10.05780029296875,18.24321746826172,25.73668479919434,15,197261.55497525,-0.4971466064453125,0.8653106689453125,0.05914306640625,197261.53776425,0.07378873695504347,-0.01563035875378406,-0.1556207530343443,197261.54456925,-58.86172485351562,-6.828659057617188,-553.5525512695312,197261.53776425,0.7694097453262837,-1.694845205650743,-1.057243164219052,0.07072761654853821,-0.02261405065655708,-0.1588134616613388,-0.02279952168464661,-0.006731331348419189,-0.005427122116088867,1,0.06652548164129257,0.7252360582351685,-0.564913809299469,-0.387916773557663,-0.4875001311302185,0.8710044026374817,0.06078596040606499,0,0,0,-1,197261.091704375,1,2,1561914545.929241,1561913957.287787,32,0.8918345,0,0,26.32609,0,0,1561914413.669193,197258.639122,0,1.305176,75.29285,3232235528,177845136,1,1,0.53,-18.62724,-22.42314,2
1561914546.431788,45,0,0,1561914545.999802,4.63473203592434,-74.15106665349951,2553.065,0.22,156.796875,4,10,-9999,1561914546.424662,17.09769439697266,22.85574531555176,10.10003662109375,17.97293281555176,25.46640014648438,15,197261.57523925,-0.47857666015625,0.871673583984375,0.0683746337890625,197261.55802725,0.08055795981380688,-0.005701295261641633,-0.160654127494594,197261.56468025,-58.660888671875,-6.710372924804688,-553.4633178710938,197261.55802725,0.7734068148139823,-1.691690298973462,-1.054094423487861,0.07749683409929276,-0.01268498692661524,-0.1638468354940414,-0.00673714280128479,-0.004142522811889648,-0.0004349946975708008,1,0.06490904092788696,0.7249661087989807,-0.5648400187492371,-0.3888015747070312,-0.4904094934463501,0.8694531917572021,0.05957808345556259,0,0,0,-1,197261.091704375,1,2,1561914545.929241,1561913957.287787,32,0.8918345,0,0,26.32609,0,0,1561914413.669193,197258.639122,0,1.305176,75.29285,3232235528,177845136,1,1,0.53,-18.62724,-21.58123,2
1561914546.439137,46,0,0,1561914545.999802,4.63473203592434,-74.15106665349951,2553.065,0.22,156.796875,4,10,-9999,1561914546.424662,17.09769439697266,22.85574531555176,10.10003662109375,17.97293281555176,25.46640014648438,15,197261.59550325,-0.471466064453125,0.8755035400390625,0.06695556640625,197261.57829125,0.06493106316943992,0.01348624776016126,-0.1123510432232818,197261.58479125,-58.90306091308594,-6.495101928710938,-553.683349609375,197261.57829125,0.7770363221612119,-1.688584126085284,-1.051360784414902,0.06186993792653084,0.006502555683255196,-0.1155437603592873,0.01437371969223022,0.003574073314666748,0.0100409984588623,1,0.06355053931474686,0.7246572375297546,-0.564800500869751,-0.389658123254776,-0.4929504096508026,0.8680995106697083,0.05833356454968452,0,0,0,-1,197261.091704375,1,2,1561914545.929241,1561913957.287787,32,0.8918345,0,0,26.32609,0,0,1561914413.669193,197258.639122,0,1.305176,75.29285,3232235528,177845136,1,1,0.53,-18.62724,-21.58123,2
1561914546.459503,47,0,0,1561914545.999802,4.63473203592434,-74.15106665349951,2553.065,0.22,156.796875,4,10,-9999,1561914546.445845,16.9295539855957,22.95525169372559,10.15509033203125,17.76227569580078,25.2557430267334,15,197261.61576625,-0.469940185546875,0.8705596923828125,0.0661163330078125,197261.59855525,0.07135008034485792,0.00339659565428706,-0.05496684595090845,197261.60490225,-59.07365417480469,-6.47027587890625,-553.4131469726562,197261.59855525,0.7799477525895904,-1.68598680298651,-1.049786339334541,0.06828895956277847,-0.00358709623105824,-0.05815955996513367,0.02299150824546814,0.008186638355255127,0.009745597839355469,1,0.06269867718219757,0.7243437767028809,-0.5649149417877197,-0.3902127742767334,-0.4944575428962708,0.8673169016838074,0.05721006169915199,0,0,0,-1,197261.091704375,1,2,1561914545.929241,1561913957.287787,32,0.8918345,0,0,26.32609,0,0,1561914413.669193,197258.639122,0,1.305176,75.29285,3232235528,177845136,1,1,0.53,-18.62724,-22.51806,2
1561914546.479767,48,0,0,1561914545.999802,4.63473203592434,-74.15106665349951,2553.065,0.22,156.796875,4,10,-9999,1561914546.471022,17.11886215209961,22.80922317504883,10.183349609375,17.51067352294922,25.00414085388184,15,197261.63603025,-0.475616455078125,0.8634796142578125,0.0655975341796875,197261.61881825,0.0905237749289924,-0.01294429447833014,-0.02337989120980563,197261.62501325,-58.85316467285156,-6.526016235351562,-553.4837646484375,197261.61881825,0.7833485948119319,-1.683269220728737,-1.049089637576387,0.0874626487493515,-0.0199279859662056,-0.02657260373234749,0.02527177333831787,0.003589808940887451,0.01018238067626953,1,0.06200012564659119,0.7239633798599243,-0.5653300881385803,-0.3904293179512024,-0.4952119886875153,0.866969883441925,0.05593398213386536,0,0,0,-1,197261.091704375,1,2,1561914545.929241,1561913957.287787,32,0.8918345,0,0,26.32609,0,0,1561914413.669193,197258.639122,0,1.305176,75.29285,3232235528,177845136,1,1,0.53,-18.62724,-23.51638,2
1561914546.512221,49,0,0,1561914545.999802,4.63473203592434,-74.15106665349951,2553.065,0.22,156.796875,4,10,-9999,1561914546.496669,17.10343170166016,23.03045272827148,9.9022216796875,17.27791023254395,24.77137756347656,15,197261.65629425,-0.4753875732421875,0.860565185546875,0.074005126953125,197261.63905125,0.08565871224963564,-0.03453187827451244,-0.02788063345203954,197261.64512425,-58.68392944335938,-6.613250732421875,-553.5721435546875,197261.63905125,0.7870584087444731,-1.680691978710763,-1.048731181189938,0.08259759098291397,-0.04151556640863419,-0.03107334673404694,0.0200461745262146,-0.003311634063720703,0.01090598106384277,1,0.06126509979367256,0.7235968112945557,-0.5658910870552063,-0.3904117345809937,-0.4956626296043396,0.8667911887168884,0.05469151586294174,0,0,0,-1,197261.091704375,1,2,1561914545.929241,1561913957.287787,32,0.8918345,0,0,26.32609,0,0,1561914413.669193,197258.639122,0,1.305176,75.29285,3232235528,177845136,1,1,0.53,-18.62724,-24.56419,2
1561914546.521936,50,0,0,1561914545.999802,4.63473203592434,-74.15106665349951,2553.065,0.22,156.796875,4,10,-9999,1561914546.496669,17.10343170166016,23.03045272827148,9.9022216796875,17.27791023254395,24.77137756347656,15,197261.67655725,-0.475341796875,0.86676025390625,0.0717315673828125,197261.65931525,0.03378486158874522,-0.05466697401216553,-0.04269926070556745,197261.66523525,-58.72540283203125,-6.410369873046875,-553.7139892578125,197261.65931525,0.7895620374847905,-1.679626466439675,-1.048091893326357,0.03072373755276203,-0.06165066361427307,-0.04589197412133217,0.02088424563407898,-0.005907058715820312,0.01978147029876709,1,0.06044474616646767,0.7235041260719299,-0.56619793176651,-0.3902667462825775,-0.4962718188762665,0.8664722442626953,0.05422357469797134,0,0,0,-1,197261.091704375,1,2,1561914545.929241,1561913957.287787,32,0.8918345,0,0,26.32609,0,0,1561914413.669193,197258.639122,0,1.305176,75.29285,3232235528,177845136,1,1,0.53,-18.62724,-24.56419,2
1561914546.540491,51,0,0,1561914545.999802,4.63473203592434,-74.15106665349951,2553.065,0.22,156.796875,4,10,-9999,1561914546.521173,17.10324478149414,23.12944412231445,9.83453369140625,17.21003913879395,24.70350646972656,15,197261.69682125,-0.4714202880859375,0.872222900390625,0.065277099609375,197261.67957925,0.0001896170696136418,-0.06915057560056147,-0.02852565106805674,197261.68534725,-58.67047119140625,-6.6661376953125,-553.54931640625,197261.67957925,0.7900935197146045,-1.680599697846752,-1.047371514553701,-0.002871508477255702,-0.07613426446914673,-0.03171836584806442,0.02149716019630432,0.0006479024887084961,0.01695668697357178,1,0.05973313748836517,0.7237536907196045,-0.5661627650260925,-0.389964371919632,-0.4968389570713043,0.8661123514175415,0.05477490648627281,0,0,0,-1,197261.091704375,1,2,1561914545.929241,1561913957.287787,32,0.8918345,0,0,26.32609,0,0,1561914413.669193,197258.639122,0,1.305176,75.29285,3232235528,177845136,1,1,0.53,-18.62724,-25.60174,2
1561914546.560739,52,0,0,1561914545.999802,4.63473203592434,-74.15106665349951,2553.065,0.22,156.796875,4,10,-9999,1561914546.546957,17.15163421630859,22.83135223388672,9.8995361328125,17.19460105895996,24.68806838989258,15,197261.71708525,-0.47039794921875,0.876983642578125,0.056549072265625,197261.69984225,0.01634408592592529,-0.06904085336365021,-0.004602741311983947,197261.70545825,-58.62771606445312,-6.465667724609375,-553.6356201171875,197261.69984225,0.7902840813419664,-1.682017969069368,-1.047012237212952,0.01328296028077602,-0.07602453976869583,-0.007795455865561962,0.02564969658851624,0.006290137767791748,0.009763121604919434,1,0.05914115905761719,0.7240575551986694,-0.5661581158638,-0.3894970118999481,-0.4970700144767761,0.8659327030181885,0.05551404133439064,0,0,0,-1,197261.091704375,1,2,1561914545.929241,1561913957.287787,32,0.8918345,0,0,26.32609,0,0,1561914413.669193,197258.639122,0,1.305176,75.29285,3232235528,177845136,1,1,0.53,-18.62724,-26.47715,2
1561914546.59127,53,0,0,1561914545.999802,4.63473203592434,-74.15106665349951,2553.065,0.22,156.796875,4,10,-9999,1561914546.571391,17.25846099853516,22.83703231811523,9.81622314453125,17.12564849853516,24.61911582946777,15,197261.73734925,-0.4732208251953125,0.881866455078125,0.056732177734375,197261.72010625,0.03212997328736997,-0.05240914603999635,0.02094336512849214,197261.72556925,-58.87165832519531,-6.4139404296875,-553.8252563476562,197261.72010625,0.791142587378475,-1.682665522503106,-1.047249245673927,0.029068848118186,-0.05939283967018127,0.01775065064430237,0.02643218636512756,0.01093238592147827,0.0007359981536865234,1,0.05872715637087822,0.7241944670677185,-0.5663996338844299,-0.388953685760498,-0.4968301355838776,0.8660512566566467,0.0558130107820034,0,0,0,-1,197261.091704375,1,2,1561914545.929241,1561913957.287787,32,0.8918345,0,0,26.32609,0,0,1561914413.669193,197258.639122,0,1.305176,75.29285,3232235528,177845136,1,1,0.53,-18.62724,-27.43775,2
1561914546.601267,54,0,0,1561914545.999802,4.63473203592434,-74.15106665349951,2553.065,0.22,156.796875,4,10,-9999,1561914546.597608,17.0435676574707,22.77701568603516,9.73028564453125,17.05091857910156,24.54438591003418,15,197261.75761225,-0.4783477783203125,0.8840484619140625,0.0610504150390625,197261.74037025,0.0338144226768451,-0.04800587549365934,0.04311631173227386,197261.74568025,-58.67086791992188,-6.625473022460938,-553.9359130859375,197261.74037025,0.7921213686684315,-1.683004225760007,-1.047932132767365,0.03075329773128033,-0.05498956888914108,0.03992359712719917,0.02300256490707397,0.01547402143478394,0.0008170604705810547,1,0.05850766971707344,0.7242474555969238,-0.5667592883110046,-0.3883637487888336,-0.4962233901023865,0.8663924336433411,0.05591505020856857,0,0,0,-1,197261.091704375,1,2,1561914545.929241,1561913957.287787,32,0.8918345,0,0,26.32609,0,0,1561914413.669193,197258.639122,0,1.305176,75.29285,3232235528,177845136,1,1,0.53,-18.62724,-28.35697,2
1561914546.621801,55,0,0,1561914545.999802,4.63473203592434,-74.15106665349951,2553.065,0.22,156.796875,4,10,-9999,1561914546.597608,17.0435676574707,22.77701568603516,9.73028564453125,17.05091857910156,24.54438591003418,15,197261.77784525,-0.48724365234375,0.879241943359375,0.062744140625,197261.76063325,0.03703791286027701,-0.03918388806666286,0.06585917480933254,197261.76579125,-58.71258544921875,-6.719085693359375,-553.9268188476562,197261.76063325,0.7932384085081171,-1.683095765842022,-1.049122891610404,0.03397678583860397,-0.04616758227348328,0.06266646087169647,0.01684486865997314,0.01706200838088989,0.005205631256103516,1,0.05847980082035065,0.7242254614830017,-0.5672565698623657,-0.3876822888851166,-0.495192676782608,0.8669864535331726,0.05584481358528137,0,0,0,-1,197261.091704375,1,2,1561914545.929241,1561913957.287787,32,0.8918345,0,0,26.32609,0,0,1561914413.669193,197258.639122,0,1.305176,75.29285,3232235528,177845136,1,1,0.53,-18.62724,-29.2724,2
1561914546.641771,56,0,0,1561914545.999802,4.63473203592434,-74.15106665349951,2553.065,0.22,156.796875,4,10,-9999,1561914546.621893,16.98001480102539,22.72541999816895,9.908203125,16.97797203063965,24.47143936157227,15,197261.79810925,-0.4889068603515625,0.8736572265625,0.0635833740234375,197261.78089725,0.03072275896737211,-0.03142130612129989,0.08328210729284893,197261.78590225,-58.8311767578125,-6.634597778320312,-554.1284790039062,197261.78089725,0.794196913874493,-1.683070703265054,-1.050666007887989,0.02766163274645805,-0.03840500116348267,0.08008939027786255,0.006620585918426514,0.01148754358291626,0.007061600685119629,1,0.05866164714097977,0.7241547107696533,-0.5678009986877441,-0.3869895040988922,-0.4938642680644989,0.8677543997764587,0.0556824691593647,0,0,0,-1,197261.091704375,1,2,1561914545.929241,1561913957.287787,32,0.8918345,0,0,26.32609,0,0,1561914413.669193,197258.639122,0,1.305176,75.29285,3232235528,177845136,1,1,0.53,-18.62724,-30.17224,2
1561914546.671962,57,0,0,1561914545.999802,4.63473203592434,-74.15106665349951,2553.065,0.22,156.796875,4,10,-9999,1561914546.648298,16.98413848876953,22.87874221801758,9.626708984375,16.93897438049316,24.43244171142578,15,197261.81837325,-0.4950408935546875,0.8666534423828125,0.0601806640625,197261.80116125,0.02291650118013185,-0.03969175288654097,0.07216154552900506,197261.80601325,-58.66557312011719,-6.802932739257812,-554.0258178710938,197261.80116125,0.7947236174352866,-1.683455386924696,-1.052314390464596,0.01985537633299828,-0.04667544364929199,0.06896883249282837,0.003513902425765991,0.005084753036499023,0.007871866226196289,1,0.05891897901892662,0.7241438627243042,-0.5682977437973022,-0.3862408101558685,-0.4924207925796509,0.868572473526001,0.05571155995130539,0,0,0,-1,197261.091704375,1,2,1561914545.929241,1561913957.287787,32,0.8918345,0,0,26.32609,0,0,1561914413.669193,197258.639122,0,1.305176,75.29285,3232235528,177845136,1,1,0.53,-18.62724,-31.11673,2
1561914546.682284,58,0,0,1561914545.999802,4.63473203592434,-74.15106665349951,2553.065,0.22,156.796875,4,10,-9999,1561914546.672587,17.15222930908203,22.48965072631836,9.65087890625,16.88650131225586,24.37996864318848,15,197261.83863625,-0.5026702880859375,0.8676605224609375,0.0607452392578125,197261.82142425,0.02840367829013111,-0.03197337941527332,0.04556641993514676,197261.82612425,-58.83221435546875,-6.660369873046875,-554.1561889648438,197261.82142425,0.7953240722041879,-1.683812448965509,-1.053531653463391,0.02534255385398865,-0.03895707428455353,0.04237370565533638,-0.003691047430038452,-0.002521634101867676,0.004412651062011719,1,0.0590115450322628,0.7241558432579041,-0.5687071681022644,-0.3856010138988495,-0.4913498759269714,0.8691750764846802,0.05576809495687485,0,0,0,-1,197261.091704375,1,2,1561914545.929241,1561913957.287787,32,0.8918345,0,0,26.32609,0,0,1561914413.669193,197258.639122,0,1.305176,75.29285,3232235528,177845136,1,1,0.53,-18.62724,-31.11673,2
1561914546.705901,59,0,0,1561914545.999802,4.63473203592434,-74.15106665349951,2553.065,0.22,156.796875,4,10,-9999,1561914546.698988,17.18460464477539,22.69812393188477,9.6602783203125,16.76098823547363,24.25445556640625,15,197261.85890025,-0.5115203857421875,0.8722991943359375,0.0663299560546875,197261.84168825,0.04702050589033002,-0.02878797243542954,0.01813772492009366,197261.84623525,-58.55357360839844,-6.668106079101562,-553.7471313476562,197261.84168825,0.7965510062691681,-1.683492208019818,-1.054236752575171,0.04395937919616699,-0.03577166423201561,0.01494501065462828,-0.01191180944442749,-0.001863002777099609,0.005203485488891602,1,0.0588967390358448,0.7240870594978333,-0.5690979361534119,-0.3851708769798279,-0.49075847864151,0.8695235252380371,0.05554179102182388,0,0,0,-1,197261.091704375,1,2,1561914545.929241,1561913957.287787,32,0.8918345,0,0,26.32609,0,0,1561914413.669193,197258.639122,0,1.305176,75.29285,3232235528,177845136,1,1,0.53,-18.62724,-32.07028,2
1561914546.722994,60,0,0,1561914545.999802,4.63473203592434,-74.15106665349951,2553.065,0.22,156.796875,4,10,-9999,1561914546.698988,17.18460464477539,22.69812393188477,9.6602783203125,16.76098823547363,24.25445556640625,15,197261.87916425,-0.52716064453125,0.8875274658203125,0.080474853515625,197261.86192125,0.07091119139721286,-0.04041613270304252,-0.01276399847253177,197261.86634625,-58.44778442382812,-6.479843139648438,-553.907958984375,197261.86192125,0.7987760513143689,-1.682430728223333,-1.054359469864572,0.06785006821155548,-0.04739982634782791,-0.01595671288669109,-0.0208091139793396,0.002715051174163818,0.01132106781005859,1,0.05843494832515717,0.7239404916763306,-0.5695235729217529,-0.3848875761032104,-0.4907112419605255,0.8695841431617737,0.05500895902514458,0,0,0,-1,197261.091704375,1,2,1561914545.929241,1561913957.287787,32,0.8918345,0,0,26.32609,0,0,1561914413.669193,197258.639122,0,1.305176,75.29285,3232235528,177845136,1,1,0.53,-18.62724,-32.90328,2
1561914546.75189,61,0,0,1561914545.999802,4.63473203592434,-74.15106665349951,2553.065,0.22,156.796875,4,10,-9999,1561914546.750171,17.489990234375,22.59024620056152,9.3189697265625,16.22082710266113,23.71429443359375,15,197261.89942725,-0.559112548828125,0.9260711669921875,0.1061553955078125,197261.88218525,0.0970040448094822,-0.03920466072316547,-0.04492060337080254,197261.88645725,-58.66116333007812,-6.65130615234375,-554.22607421875,197261.88218525,0.8022365850809474,-1.680352324808757,-1.053917441042843,0.09394291788339615,-0.0461883544921875,-0.04811332002282143,-0.03595435619354248,0.01816171407699585,0.0264439582824707,1,0.05762501806020737,0.7236676216125488,-0.5700269937515259,-0.3847774267196655,-0.4912062883377075,0.8693657517433167,0.05403093993663788,0,0,0,-1,197261.091704375,1,2,1561914545.929241,1561913957.287787,32,0.8918345,0,0,26.32609,0,0,1561914413.669193,197258.639122,0,1.305176,75.29285,3232235528,177845136,1,1,0.53,-18.62724,-33.70037,2
1561914546.763348,62,0,0,1561914545.999802,4.63473203592434,-74.15106665349951,2553.065,0.22,156.796875,4,10,-9999,1561914546.750171,17.489990234375,22.59024620056152,9.3189697265625,16.22082710266113,23.71429443359375,15,197261.91969125,-0.592864990234375,0.9547576904296875,0.134613037109375,197261.90244925,0.1092756247964583,-0.03935433037642792,-0.09357336069324212,197261.90656825,-58.69219970703125,-6.606475830078125,-554.00244140625,197261.90244925,0.8065756788348785,-1.677590652872763,-1.052635083452003,0.1062145009636879,-0.04633802175521851,-0.09676607698202133,-0.06665083765983582,0.05733978748321533,0.05336248874664307,1,0.05640823394060135,0.7233357429504395,-0.5704877972602844,-0.3848988115787506,-0.4924617111682892,0.8687313795089722,0.05279297009110451,0,0,0,-1,197261.091704375,1,2,1561914545.929241,1561913957.287787,32,0.8918345,0,0,26.32609,0,0,1561914413.669193,197258.639122,0,1.305176,75.29285,3232235528,177845136,1,1,0.53,-18.62724,-34.35454,2
1561914546.783586,63,0,0,1561914545.999802,4.63473203592434,-74.15106665349951,2553.065,0.22,156.796875,4,10,-9999,1561914546.773806,17.15322113037109,22.70742034912109,9.38116455078125,15.81709480285645,23.31056213378906,15,197261.93995525,-0.607177734375,0.88421630859375,0.1285552978515625,197261.92271225,0.1326054485777705,-0.04684287304562174,-0.1233355174554226,197261.92668025,-58.88531494140625,-6.29876708984375,-554.2614135742188,197261.92271225,0.8118777862973807,-1.674075934287222,-1.050658665980436,0.1295443177223206,-0.05382656306028366,-0.1265282332897186,-0.09851342439651489,0.08700692653656006,0.0833742618560791,1,0.05482349544763565,0.722920298576355,-0.5709574222564697,-0.3852121233940125,-0.4943515658378601,0.8677507638931274,0.05123874917626381,0,0,0,-1,197261.091704375,1,2,1561914545.929241,1561913957.287787,32,0.8918345,0,0,26.32609,0,0,1561914413.669193,197258.639122,0,1.305176,75.29285,3232235528,177845136,1,1,0.53,-18.62724,-34.99255,2
1561914546.80471,64,0,0,1561914545.999802,4.63473203592434,-74.15106665349951,2553.065,0.22,156.796875,4,10,-9999,1561914546.80006,17.10105895996094,23.0250301361084,9.1483154296875,14.90750312805176,22.40097045898438,15,197261.96021825,-0.6942901611328125,0.9124908447265625,0.147125244140625,197261.94297625,0.2717742576620412,-0.189356612459032,-0.2414259391439343,197261.94679125,-58.70941162109375,-6.54754638671875,-554.3110961914062,197261.94297625,0.8197222096857497,-1.669330804620125,-1.047661127485642,0.2687131464481354,-0.1963403075933456,-0.2446186393499374,-0.1100026369094849,0.01795917749404907,0.0794072151184082,1,0.05232508853077888,0.7223822474479675,-0.5716581344604492,-0.3855294287204742,-0.4971750974655151,0.8662570714950562,0.04914805293083191,0,0,0,-1,197261.091704375,1,2,1561914545.929241,1561913957.287787,32,0.8918345,0,0,26.32609,0,0,1561914413.669193,197258.639122,0,1.305176,75.29285,3232235528,177845136,1,1,0.53,-18.62724,-35.8947,2
1561914546.83194,65,0,0,1561914545.999802,4.63473203592434,-74.15106665349951,2553.065,0.22,156.796875,4,10,-9999,1561914546.824713,17.02834701538086,23.33773612976074,8.68255615234375,12.5750560760498,20.06852340698242,15,197261.98045225,-0.8302459716796875,0.9990997314453125,0.1752166748046875,197261.96324025,0.6313870249259479,-0.5665150839327078,-0.4177983097082849,197261.96690225,-58.87161254882812,-6.378402709960938,-554.8028564453125,197261.96324025,0.838520557365498,-1.660411157571483,-1.041678182151756,0.628325879573822,-0.5734987854957581,-0.4209910333156586,-0.1915433406829834,0.04923832416534424,0.1019506454467773,1,0.0460519827902317,0.7214336395263672,-0.5737098455429077,-0.3850581049919128,-0.5027467608451843,0.8632525205612183,0.04517456144094467,0,0,0,-1,197261.091704375,1,2,1561914545.929241,1561913957.287787,32,0.8918345,0,0,26.32609,0,0,1561914413.669193,197258.639122,0,1.305176,75.29285,3232235528,177845136,1,1,0.53,-18.62724,-36.77795,2
1561914546.844498,66,0,0,1561914545.999802,4.63473203592434,-74.15106665349951,2553.065,0.22,156.796875,4,10,-9999,1561914546.824713,17.02834701538086,23.33773612976074,8.68255615234375,12.5750560760498,20.06852340698242,15,197262.00071525,-0.9531402587890625,1.062973022460938,0.20635986328125,197261.98350325,1.225220282688471,-1.421099775605434,-0.6210768630818152,197261.98701325,-58.58683776855469,-5.9210205078125,-555.6558837890625,197261.98350325,0.8758803436173962,-1.647819194675139,-1.032821229904534,1.222159147262573,-1.428083419799805,-0.6242696046829224,-0.3193671703338623,0.1403517723083496,0.1357892751693726,1,0.03317501395940781,0.720147967338562,-0.578662097454071,-0.3813612759113312,-0.51087886095047,0.8587480187416077,0.03942735120654106,0,0,0,-1,197261.091704375,1,2,1561914545.929241,1561913957.287787,32,0.8918345,0,0,26.32609,0,0,1561914413.669193,197258.639122,0,1.305176,75.29285,3232235528,177845136,1,1,0.53,-18.62724,-36.77795,2
1561914546.864602,67,0,0,1561914545.999802,4.63473203592434,-74.15106665349951,2553.065,0.22,156.796875,4,10,-9999,1561914546.85087,16.99748992919922,23.71856880187988,7.38262939453125,7.791354656219482,15.28482246398926,15,197262.02097925,-0.974456787109375,1.090606689453125,0.2426910400390625,197262.00376725,2.052562966938558,-2.491472687240119,-1.075406286094935,197262.00712425,-59.29412841796875,-5.1375732421875,-557.492431640625,197262.00376725,0.9419110064608395,-1.631006576785953,-1.018404849376848,2.049501895904541,-2.498456478118896,-1.078598976135254,-0.4293664693832397,0.2117009162902832,0.1747851371765137,1,0.009347411803901196,0.7181225419044495,-0.5878602266311646,-0.3723346292972565,-0.5237738490104675,0.8512721061706543,0.03157471865415573,0,0,0,-1,197261.091704375,1,2,1561914545.929241,1561913957.287787,32,0.8918345,0,0,26.32609,0,0,1561914413.669193,197259.584999,0,1.305176,75.29285,3232235528,177845136,1,1,0.53,-18.62724,-37.58713,2
1561914546.884902,68,0,0,1561914545.999802,4.63473203592434,-74.15106665349951,2553.065,0.22,156.796875,4,10,-9999,1561914546.875271,16.52919769287109,24.52399444580078,5.54669189453125,0.9593567848205566,8.452824592590332,15,197262.04124325,-0.9828948974609375,1.140228271484375,0.2519378662109375,197262.02403125,2.605777425439083,-3.364347170331182,-1.605935672114056,197262.02723525,-59.51943969726562,-4.2550048828125,-559.44873046875,197262.02403125,1.033923514928168,-1.613437506180941,-0.9933431136009649,2.602716445922852,-3.371330976486206,-1.609128355979919,-0.429061233997345,0.2527510523796082,0.2194206714630127,1,-0.0271379929035902,0.7147718071937561,-0.5997207760810852,-0.3587474226951599,-0.54539555311203,0.8378556370735168,0.02327041327953339,0,0,0,-1,197261.091704375,1,2,1561914545.929241,1561913957.287787,32,0.8918345,0,0,26.32609,0,0,1561914413.669193,197259.584999,0,1.305176,75.29285,3232235528,177845136,1,1,0.53,-18.62724,-38.43198,2
1561914546.912277,69,0,0,1561914545.999802,4.63473203592434,-74.15106665349951,2553.065,0.22,156.796875,4,10,-9999,1561914546.90167,15.03062057495117,25.83074760437012,0.68267822265625,354.0703125,1.563788414001465,15,197262.06150625,-0.9326171875,1.143173217773438,0.2135467529296875,197262.04429425,2.696616518641141,-3.666406363277386,-1.942583468665992,197262.04734625,-60.60797119140625,-3.868377685546875,-562.1185302734375,197262.04429425,1.133359672123838,-1.603514031916354,-0.9590452605110392,2.693555355072021,-3.67339015007019,-1.945776104927063,-0.4089005589485168,0.3215845823287964,0.2331513166427612,1,-0.07155477255582809,0.7101219296455383,-0.6109315752983093,-0.3425920009613037,-0.5739943385124207,0.8186436295509338,0.01878648065030575,0,0,0,-1,197261.091704375,1,2,1561914545.929241,1561913957.287787,32,0.8918345,0,0,26.32609,0,0,1561914413.669193,197259.584999,0,1.305176,75.29285,3232235528,177845136,1,1,0.53,-18.62724,-39.26397,2
1561914546.925575,70,0,0,1561914545.999802,4.63473203592434,-74.15106665349951,2553.065,0.22,156.796875,4,10,-9999,1561914546.90167,15.03062057495117,25.83074760437012,0.68267822265625,354.0703125,1.563788414001465,15,197262.08177025,-0.8782501220703125,1.118255615234375,0.1533966064453125,197262.06452725,2.453453399518148,-3.568070737922864,-2.024003760040766,197262.06748825,-61.45388793945312,-2.875167846679688,-564.3494873046875,197262.06452725,1.224423062671951,-1.603657993108405,-0.920196791954708,2.450392246246338,-3.575054407119751,-2.027196407318115,-0.3272807598114014,0.3474523425102234,0.1936472654342651,1,-0.1173355355858803,0.704401969909668,-0.6192127466201782,-0.3265359103679657,-0.6053363680839539,0.7957208156585693,0.0198995266109705,0,0,0,-1,197261.091704375,1,2,1561914545.929241,1561913957.287787,32,0.8918345,0,0,26.32609,0,0,1561914413.669193,197259.584999,0,1.305176,75.29285,3232235528,177845136,1,1,0.53,-18.62724,-39.9245,2
1561914546.945696,71,0,0,1561914545.999802,4.63473203592434,-74.15106665349951,2553.065,0.22,156.796875,4,10,-9999,1561914546.925887,13.85453796386719,26.44122695922852,-1.27960205078125,348.4010009765625,355.8944702148438,15,197262.10203425,-0.855499267578125,1.08673095703125,0.10882568359375,197262.08479125,2.003760806278965,-3.212397851175621,-1.900409649643497,197262.08759925,-62.65582275390625,-2.533401489257812,-566.4351196289062,197262.08479125,1.299854726365081,-1.613920766560109,-0.8817561376935199,2.000699758529663,-3.21938157081604,-1.903602242469788,-0.2430447340011597,0.3463990092277527,0.1259866952896118,1,-0.1602346450090408,0.6985912919044495,-0.6238933801651001,-0.3115317225456238,-0.6352053880691528,0.7718566060066223,0.02740986831486225,0,0,0,-1,197261.091704375,1,2,1561914545.929241,1561913957.287787,32,0.8918345,0,0,26.32609,0,0,1561914413.669193,197259.584999,0,1.305176,75.29285,3232235528,177845136,1,1,0.53,-18.62724,-40.43171,2
1561914546.966447,72,0,0,1561914545.999802,4.63473203592434,-74.15106665349951,2553.065,0.22,156.796875,4,10,-9999,1561914546.95406,12.83255004882812,26.90903091430664,-3.3182373046875,344.3283386230469,351.8218078613281,15,197262.12229725,-0.8387298583984375,0.9911346435546875,0.0690155029296875,197262.10505525,1.505135291170666,-2.641929304604691,-1.569349697690765,197262.10771025,-63.86087036132812,-2.050994873046875,-567.7877807617188,197262.10505525,1.35716213444762,-1.629636310462219,-0.8477265452018445,1.502074122428894,-2.648913145065308,-1.572542309761047,-0.1949551105499268,0.3369529843330383,0.06991434097290039,1,-0.1966544687747955,0.6933849453926086,-0.6254467964172363,-0.2989323437213898,-0.660544216632843,0.7497780323028564,0.03891132399439812,0,0,0,-1,197261.091704375,1,2,1561914545.929241,1561913957.287787,32,0.8918345,0,0,26.32609,0,0,1561914413.669193,197259.584999,0,1.305176,75.29285,3232235528,177845136,1,1,0.53,-18.62724,-40.98896,2
1561914546.992088,73,0,0,1561914545.999802,4.63473203592434,-74.15106665349951,2553.065,0.22,156.796875,4,10,-9999,1561914546.976474,11.64707183837891,27.1871509552002,-4.46728515625,341.7693176269531,349.2627868652344,15,197262.14256125,-0.8030853271484375,0.916900634765625,0.0574798583984375,197262.12531825,0.9751081773331338,-2.028078662824696,-1.247349819766484,197262.12782125,-64.93521118164062,-1.933639526367188,-568.667724609375,197262.12531825,1.397615459322134,-1.647501506988911,-0.8212409878294404,0.9720470309257507,-2.035062313079834,-1.250542521476746,-0.1594198346138,0.2591427564620972,0.01680648326873779,1,-0.2251002788543701,0.6895174980163574,-0.6250032782554626,-0.2885591685771942,-0.6793100237846375,0.7319918870925903,0.0522090308368206,0,0,0,-1,197261.091704375,1,2,1561914545.929241,1561913957.287787,32,0.8918345,0,0,26.32609,0,0,1561914413.669193,197259.584999,0,1.305176,75.29285,3232235528,177845136,1,1,0.53,-18.62724,-41.74458,2
1561914547.006467,74,0,0,1561914545.999802,4.63473203592434,-74.15106665349951,2553.065,0.22,156.796875,4,10,-9999,1561914546.976474,11.64707183837891,27.1871509552002,-4.46728515625,341.7693176269531,349.2627868652344,15,197262.16282525,-0.849822998046875,0.8947906494140625,0.019989013671875,197262.14558225,0.5346021582741792,-1.459511346955974,-1.015967992673783,197262.14793225,-65.77983093261719,-2.047225952148438,-569.2505493164062,197262.14558225,1.422151101724108,-1.66455704371099,-0.7996012839510473,0.5315410494804382,-1.466494917869568,-1.019160628318787,-0.1091539859771729,0.1998223662376404,-0.007774949073791504,1,-0.2460233420133591,0.6870952844619751,-0.6227846741676331,-0.2819784879684448,-0.6939313411712646,0.7170782685279846,0.06525482982397079,0,0,0,-1,197261.091704375,1,2,1561914545.929241,1561913957.287787,32,0.8918345,0,0,26.32609,0,0,1561914413.669193,197259.584999,0,1.305176,75.29285,3232235528,177845136,1,1,0.53,-18.62724,-41.74458,2
1561914547.026791,75,0,0,1561914545.999802,4.63473203592434,-74.15106665349951,2553.065,0.22,156.796875,4,10,-9999,1561914547.005689,9.861274719238281,27.41458702087402,-5.89739990234375,340.4705810546875,347.9640502929688,15,197262.18308825,-0.85675048828125,0.8871917724609375,-0.0706787109375,197262.16584625,0.3480519849718727,-1.085397134924367,-0.6665844271568712,197262.16804325,-66.06600952148438,-1.950546264648438,-569.8599243164062,197262.16584625,1.436002695441054,-1.680667651354101,-0.7830392265073356,0.3449908792972565,-1.09238076210022,-0.6697771549224854,-0.1453237533569336,0.189353883266449,-0.05772829055786133,1,-0.2612038850784302,0.6860256195068359,-0.6197967529296875,-0.2774769365787506,-0.7044991850852966,0.7054367661476135,0.07771723717451096,0,0,0,-1,197261.091704375,1,2,1561914545.929241,1561913957.287787,32,0.8918345,0,0,26.32609,0,0,1561914413.669193,197259.584999,0,1.305176,75.29285,3232235528,177845136,1,1,0.53,-18.62724,-41.9948,2
1561914547.047032,76,0,0,1561914546.999794,4.634724408392454,-74.15107293992689,2553.06,0.39,180.703125,4,10,-9999,1561914547.027828,9.421920776367188,27.39427185058594,-6.26556396484375,339.4990234375,346.9924926757812,15,197262.20332125,-0.81951904296875,0.7938690185546875,-0.159149169921875,197262.18610925,0.6361844433136167,-0.9229962400707903,-0.3232025614725614,197262.18815425,-66.76905822753906,-1.868621826171875,-570.190185546875,197262.18610925,1.450639865316149,-1.690712822166552,-0.7741706260580206,0.6331233382225037,-0.9299799203872681,-0.3263952732086182,-0.1468840837478638,0.1880684494972229,-0.1562137603759766,1,-0.2722094357013702,0.684594452381134,-0.6189097762107849,-0.2723658084869385,-0.7098664045333862,0.6991233229637146,0.08553507924079895,0,0,0,-1,197261.091704375,1,2,1561914545.929241,1561913957.287787,32,0.8918345,0,0,26.32609,0,0,1561914413.669193,197259.584999,0,1.305176,75.29285,3232235528,177845136,1,1,0.53,-18.62724,-42.42804,2
1561914547.074717,77,0,0,1561914546.999794,4.634724408392454,-74.15107293992689,2553.06,0.39,180.703125,4,10,-9999,1561914547.06217,9.05810546875,27.29611968994141,-6.86077880859375,337.9231262207031,345.4165954589844,15,197262.22358525,-0.87408447265625,0.7481842041015625,-0.23248291015625,197262.20637325,0.8510490790095366,-0.9646486121518476,0.2641594811571776,197262.20826525,-66.94015502929688,-1.959335327148438,-570.9767456054688,197262.20637325,1.472940436089446,-1.694360005267492,-0.774906968299265,0.847987949848175,-0.9716323018074036,0.2609667479991913,-0.1104801893234253,0.09421944618225098,-0.2472093105316162,1,-0.2807221412658691,0.6820741295814514,-0.6215243339538574,-0.2639651596546173,-0.7090389132499695,0.6996496319770813,0.08806008100509644,0,0,0,-1,197261.091704375,1,2,1561914545.929241,1561913957.287787,32,0.8918345,0,0,26.32609,0,0,1561914413.669193,197259.584999,0,1.305176,75.29285,3232235528,177845136,1,1,0.53,-18.62724,-42.7971,2
1561914547.087731,78,0,0,1561914546.999794,4.634724408392454,-74.15107293992689,2553.06,0.39,180.703125,4,10,-9999,1561914547.06217,9.05810546875,27.29611968994141,-6.86077880859375,337.9231262207031,345.4165954589844,15,197262.24384925,-0.8874359130859375,0.6545257568359375,-0.2256622314453125,197262.22663725,0.6715464288999068,-0.8848129016256703,0.5345124097454436,197262.22837625,-66.76492309570312,-2.378204345703125,-571.4219970703125,197262.22663725,1.492826832594852,-1.699592692409942,-0.785713272274338,0.6684852838516235,-0.8917965888977051,0.5313196778297424,-0.1730554103851318,0.04085463285446167,-0.3232754468917847,1,-0.2856522798538208,0.6810279488563538,-0.6251983642578125,-0.2524495124816895,-0.7010290026664734,0.7073295712471008,0.09079258143901825,0,0,0,-1,197261.091704375,1,2,1561914545.929241,1561913957.287787,32,0.8918345,0,0,26.32609,0,0,1561914413.669193,197259.584999,0,1.305176,75.29285,3232235528,177845136,1,1,0.53,-18.62724,-43.19624,2
1561914547.107808,79,0,0,1561914546.999794,4.634724408392454,-74.15107293992689,2553.06,0.39,180.703125,4,10,-9999,1561914547.104712,9.098739624023438,26.78558158874512,-8.26275634765625,335.6282653808594,343.1217346191406,15,197262.26411225,-0.903350830078125,0.5692596435546875,-0.2021331787109375,197262.24690125,0.5024005459534862,-0.6836696708141655,0.178970816839941,197262.24848725,-66.61909484863281,-2.641998291015625,-571.7876586914062,197262.24690125,1.50782121512083,-1.704357971689612,-0.7953055398994583,0.4993394017219543,-0.690653383731842,0.1757781058549881,-0.1936041116714478,-0.05955177545547485,-0.3188865184783936,1,-0.2891673743724823,0.680436909198761,-0.6279756426811218,-0.2429701387882233,-0.6938318610191345,0.7140775322914124,0.09322431683540344,0,0,0,-1,197261.091704375,1,2,1561914545.929241,1561913957.287787,32,0.8918345,0,0,26.32609,0,0,1561914413.669193,197259.584999,0,1.305176,75.29285,3232235528,177845136,1,1,0.53,-18.62724,-43.96179,2
1561914547.128154,80,0,0,1561914546.999794,4.634724408392454,-74.15107293992689,2553.06,0.39,180.703125,4,10,-9999,1561914547.104712,9.098739624023438,26.78558158874512,-8.26275634765625,335.6282653808594,343.1217346191406,15,197262.28437625,-0.8646392822265625,0.529815673828125,-0.1828155517578125,197262.26716425,0.4828119308715173,-0.8296891954865561,-0.4241645962941193,197262.26859925,-66.99066162109375,-2.782379150390625,-572.3270263671875,197262.26716425,1.521694064489567,-1.709472739060235,-0.7942035655609123,0.479737251996994,-0.8366862535476685,-0.42735555768013,-0.2092260122299194,-0.1440460085868835,-0.2990137338638306,1,-0.2958419322967529,0.6789093017578125,-0.6287111639976501,-0.2372382879257202,-0.6941248178482056,0.713305652141571,0.09688057750463486,0,0,0,-1,197261.091704375,1,2,1561914545.929241,1561913957.287787,32,0.8918345,0,0,26.32609,0,0,1561914413.669193,197259.584999,0,1.305176,75.29285,3232235528,177845136,1,1,0.53,-18.62724,-40.98672,2
1561914547.155571,81,0,0,1561914546.999794,4.634724408392454,-74.15107293992689,2553.06,0.39,180.703125,4,10,-9999,1561914547.12847,8.766563415527344,26.76806449890137,-8.80682373046875,334.4429321289062,341.9364013671875,15,197262.30464025,-0.836151123046875,0.5391082763671875,-0.15081787109375,197262.28739725,0.5650511442814912,-1.295288050968455,-0.8606694821313389,197262.28871025,-67.69271850585938,-2.503555297851562,-572.78515625,197262.28739725,1.539178671554815,-1.718569150086185,-0.7822120881221737,0.5619764924049377,-1.302285194396973,-0.8638604879379272,-0.1630140542984009,-0.1750346422195435,-0.2872580289840698,1,-0.3084410429000854,0.6760808825492859,-0.6274168491363525,-0.232651874423027,-0.7016251683235168,0.7048503160476685,0.1044424697756767,0,0,0,-1,197261.091704375,1,2,1561914545.929241,1561913957.287787,32,0.8918345,0,0,26.32609,0,0,1561914413.669193,197259.584999,0,1.305176,75.29285,3232235528,177845136,1,1,0.53,-18.62724,-40.88398,2
1561914547.172229,82,0,0,1561914546.999794,4.634724408392454,-74.15107293992689,2553.06,0.39,180.703125,4,10,-9999,1561914547.158943,7.888603210449219,26.75922966003418,-9.3431396484375,333.1766052246094,340.6700744628906,15,197262.32490325,-0.7516937255859375,0.52728271484375,-0.10052490234375,197262.30766125,0.377067923996613,-1.457768041706408,-0.9754730304024747,197262.30882125,-68.50401306152344,-2.445816040039062,-573.2173461914062,197262.30766125,1.557271802589673,-1.73488450800035,-0.7650632853048518,0.3739932477474213,-1.464765191078186,-0.9786640405654907,-0.1245018243789673,-0.1534743309020996,-0.2686505317687988,1,-0.3250580132007599,0.673241138458252,-0.624066948890686,-0.2272093445062637,-0.7116492986679077,0.6925826668739319,0.1178326830267906,0,0,0,-1,197261.091704375,1,2,1561914545.929241,1561913957.287787,32,0.8918345,0,0,26.32609,0,0,1561914413.669193,197259.584999,0,1.305176,75.29285,3232235528,177845136,1,1,0.53,-18.62724,-41.57766,2
1561914547.188878,83,0,0,1561914546.999794,4.634724408392454,-74.15107293992689,2553.06,0.39,180.703125,4,10,-9999,1561914547.179055,6.976768493652344,26.78262710571289,-9.67816162109375,332.7622375488281,340.2557067871094,15,197262.34516725,-0.7847442626953125,0.5745849609375,-0.088134765625,197262.32792525,-0.06728183546365286,-1.404594834749668,-0.9322211637707157,197262.32893225,-69.34733581542969,-2.111618041992188,-573.266845703125,197262.32792525,1.566609190698574,-1.757265366441281,-0.7463279602450281,-0.07035650312900543,-1.41159188747406,-0.9354121685028076,-0.03023409843444824,-0.151664674282074,-0.2366360425949097,1,-0.3409871459007263,0.6721482872962952,-0.6182157397270203,-0.2230552136898041,-0.7214596271514893,0.678947389125824,0.1361111104488373,0,0,0,-1,197261.091704375,1,2,1561914545.929241,1561913957.287787,32,0.8918345,0,0,26.32609,0,0,1561914413.669193,197259.584999,0,1.305176,75.29285,3232235528,177845136,1,1,0.53,-18.62724,-41.57766,2
1561914547.209082,84,0,0,1561914546.999794,4.634724408392454,-74.15107293992689,2553.06,0.39,180.703125,4,10,-9999,1561914547.205684,4.966178894042969,27.29684448242188,-9.83721923828125,332.9718017578125,340.4652709960938,15,197262.36543125,-0.729461669921875,0.460113525390625,-0.005706787109375,197262.34818825,-0.3348751965303787,-1.731240863511701,-0.8670528129481498,197262.34907325,-70.24748229980469,-2.381591796875,-573.3740234375,197262.34818825,1.564334253177436,-1.790306456355747,-0.7276999038444358,-0.3379498720169067,-1.738237977027893,-0.8702437877655029,-0.05595570802688599,-0.09056895971298218,-0.2507312297821045,1,-0.3560844659805298,0.6741676926612854,-0.6089262962341309,-0.2188848257064819,-0.7287885546684265,0.6651539206504822,0.1625964492559433,0,0,0,-1,197261.091704375,1,2,1561914545.929241,1561913957.287787,32,0.8918345,0,0,26.32609,0,0,1561914413.669193,197259.584999,0,1.305176,75.29285,3232235528,177845136,1,1,0.53,-18.62724,-41.65435,2
1561914547.230722,85,0,0,1561914546.999794,4.634724408392454,-74.15107293992689,2553.06,0.39,180.703125,4,10,-9999,1561914547.229804,3.803985595703125,27.34209632873535,-9.81878662109375,333.10302734375,340.5964965820312,15,197262.38569425,-0.66766357421875,0.366851806640625,0.064178466796875,197262.36845225,-0.322854220001979,-2.312185220546568,-1.17713957236818,197262.36918425,-71.45793151855469,-2.305999755859375,-573.5084838867188,197262.36845225,1.562988222584483,-1.83256969713803,-0.7061045288652731,-0.3259288966655731,-2.319182395935059,-1.180330514907837,0.005511760711669922,-0.1887611150741577,-0.2026218175888062,1,-0.3749011158943176,0.676688015460968,-0.5970582962036133,-0.2122822850942612,-0.7349733710289001,0.6488746404647827,0.1969150304794312,0,0,0,-1,197261.091704375,1,2,1561914545.929241,1561913957.287787,32,0.8918345,0,0,26.32609,0,0,1561914413.669193,197259.584999,0,1.305176,75.29285,3232235528,177845136,1,1,0.53,-18.62724,-31.19955,2
1561914547.249621,86,0,0,1561914546.999794,4.634724408392454,-74.15107293992689,2553.06,0.39,180.703125,4,10,-9999,1561914547.229804,3.803985595703125,27.34209632873535,-9.81878662109375,333.10302734375,340.5964965820312,15,197262.40592825,-0.5639190673828125,0.31048583984375,0.11846923828125,197262.38871625,-0.7880272360255746,-2.150336931619182,-1.552212522392215,197262.38929625,-72.99505615234375,-1.576126098632812,-572.9717407226562,197262.38871625,1.560159508393423,-1.881533529911536,-0.6766981293295171,-0.79110187292099,-2.157334089279175,-1.555403470993042,0.07464265823364258,-0.2593703269958496,-0.1742062568664551,1,-0.3970648348331451,0.6793613433837891,-0.5815437436103821,-0.2064329385757446,-0.7423062324523926,0.6262221336364746,0.2383846342563629,0,0,0,-1,197261.091704375,1,2,1561914545.929241,1561913957.287787,32,0.8918345,0,0,26.32609,0,0,1561914413.669193,197259.584999,0,1.305176,75.29285,3232235528,177845136,1,1,0.53,-18.62724,-32.25875,2
1561914547.270035,87,0,0,1561914546.999794,4.634724408392454,-74.15107293992689,2553.06,0.39,180.703125,4,10,-9999,1561914547.25615,2.419670104980469,27.62986946105957,-9.22796630859375,334.2641296386719,341.7575988769531,15,197262.42619125,-0.51220703125,0.318878173828125,0.12774658203125,197262.40897925,-1.763426230549745,-1.406890479609316,-1.954662502106155,197262.40940725,-74.365234375,-1.593978881835938,-572.5343017578125,197262.40897925,1.544477444878887,-1.927194249070373,-0.6346283134672631,-1.76650083065033,-1.413887619972229,-1.957853436470032,0.1907682418823242,-0.2823923826217651,-0.1624977588653564,1,-0.4168825745582581,0.6831489205360413,-0.5617944002151489,-0.2095317095518112,-0.7546873092651367,0.5928782224655151,0.2809670567512512,0,0,0,-1,197261.091704375,1,2,1561914545.929241,1561913957.287787,32,0.8918345,0,0,26.32609,0,0,1561914413.669193,197259.584999,0,1.305176,75.29285,3232235528,177845136,1,1,0.53,-18.62724,-32.89944,2
1561914547.290161,88,0,0,1561914546.999794,4.634724408392454,-74.15107293992689,2553.06,0.39,180.703125,4,10,-9999,1561914547.280318,1.226333618164062,27.66414070129395,-8.36090087890625,336.4375915527344,343.9310607910156,15,197262.4464649167,-0.4703369140625,0.3344879150390625,0.104949951171875,197262.42924325,-2.395397553018856,-0.860607164161831,-2.360965809601331,197262.42951825,-75.64883422851562,-1.415878295898438,-571.1456298828125,197262.42924325,1.515394275626216,-1.966415616742023,-0.5778957135189839,-2.39847207069397,-0.8676041960716248,-2.364156723022461,0.2607079744338989,-0.2273843884468079,-0.1950528621673584,1,-0.4335271120071411,0.6880798935890198,-0.5374600887298584,-0.2230176478624344,-0.7729149460792542,0.5462625622749329,0.3227993845939636,0,0,0,-1,197261.091704375,1,2,1561914545.929241,1561913957.287787,32,0.8918345,0,0,26.32609,0,0,1561914413.669193,197259.584999,0,1.305176,75.29285,3232235528,177845136,1,1,0.53,-18.62724,-33.89635,2
1561914547.312094,89,0,0,1561914546.999794,4.634724408392454,-74.15107293992689,2553.06,0.39,180.703125,4,10,-9999,1561914547.306721,-2.077590942382812,28.5191593170166,-5.71478271484375,338.6466369628906,346.1401062011719,15,197262.4667289167,-0.3492431640625,0.3307037353515625,0.0815582275390625,197262.4495169167,-2.619701230566344,-0.2207230574618763,-2.573685535355301,197262.4496389167,-77.50984191894531,-0.950042724609375,-569.6630859375,197262.4495169167,1.483908409347805,-1.994770849104651,-0.5112219170831447,-2.622775793075562,-0.2277201414108276,-2.576876401901245,0.3245912790298462,-0.1547553837299347,-0.2538394927978516,1,-0.4480966031551361,0.6918122172355652,-0.5112411975860596,-0.2433878183364868,-0.7949281930923462,0.4892432987689972,0.3587894141674042,0,0,0,-1,197261.091704375,1,2,1561914545.929241,1561913957.287787,32,0.8918345,0,0,26.32609,0,0,1561914413.669193,197259.584999,0,1.305176,75.29285,3232235528,177845136,1,1,0.53,-19.18452,-34.88116,2
1561914547.330685,90,0,0,1561914546.999794,4.634724408392454,-74.15107293992689,2553.06,0.39,180.703125,4,10,-9999,1561914547.306721,-2.077590942382812,28.5191593170166,-5.71478271484375,338.6466369628906,346.1401062011719,15,197262.4869919167,-0.24267578125,0.3173980712890625,0.0590667724609375,197262.4697799167,-2.582659589280541,0.7261433617754033,-2.586074827062459,197262.4697499167,-79.1053466796875,-0.854461669921875,-568.1180419921875,197262.4697799167,1.454170504001327,-2.003359201127411,-0.4410638606738804,-2.585734128952026,0.7191463112831116,-2.589265823364258,0.4717638492584229,-0.09619802236557007,-0.2975225448608398,1,-0.4582924246788025,0.6924654841423035,-0.4871912002563477,-0.270378053188324,-0.8210070133209229,0.4269017577171326,0.3790807723999023,0,0,0,-1,197261.091704375,1,2,1561914545.929241,1561913957.287787,32,0.8918345,0,0,26.32609,0,0,1561914413.669193,197259.584999,0,1.305176,75.29285,3232235528,177845136,1,1,0.53,-19.18452,-34.88116,2
1561914547.350935,91,0,0,1561914546.999794,4.634724408392454,-74.15107293992689,2553.06,0.39,180.703125,4,10,-9999,1561914547.331043,-3.546562194824219,28.54674911499023,-4.1861572265625,340.5429382324219,348.0364074707031,15,197262.5072559167,-0.1528778076171875,0.2955322265625,0.0712738037109375,197262.4900139167,-2.215271989530257,1.707632206764258,-2.563540489498753,197262.4898609167,-80.39894104003906,-0.893524169921875,-567.0723266601562,197262.4900139167,1.42908813835651,-1.989027114637485,-0.3736218498877639,-2.21834659576416,1.700635075569153,-2.566731452941895,0.608090877532959,-0.04759171605110168,-0.3190582990646362,1,-0.4634341895580292,0.6886880993843079,-0.4684904813766479,-0.3024138510227203,-0.850766658782959,0.3649898171424866,0.3781251013278961,0,0,0,-1,197261.091704375,1,2,1561914545.929241,1561913957.287787,32,0.8918345,0,0,26.32609,0,0,1561914413.669193,197259.584999,0,1.305176,75.29285,3232235528,177845136,1,1,0.53,-19.7418,-35.54541,2
1561914547.371188,92,0,0,1561914546.999794,4.634724408392454,-74.15107293992689,2553.06,0.39,180.703125,4,10,-9999,1561914547.35797,-4.8841552734375,28.46823120117188,-3.11175537109375,341.9097290039062,349.4031982421875,15,197262.5275199167,-0.12628173828125,0.2982940673828125,0.1263885498046875,197262.5102769167,-1.797829744459716,2.503940808515543,-2.385826951009439,197262.5099719167,-81.60101318359375,-0.823638916015625,-566.0411376953125,197262.5102769167,1.409875964526056,-1.952264059613097,-0.3107189758586502,-1.800904393196106,2.496943712234497,-2.389017820358276,0.7307976484298706,-0.01021105051040649,-0.2831821441650391,1,-0.4642606973648071,0.6794777512550354,-0.4562728703022003,-0.3385072946548462,-0.8836754560470581,0.3057432770729065,0.3544560074806213,0,0,0,-1,197261.091704375,1,2,1561914545.929241,1561913957.287787,32,0.8918345,0,0,26.32609,0,0,1561914413.669193,197259.584999,0,1.305176,75.29285,3232235528,177845136,1,1,0.53,-20.29908,-35.32441,2
1561914547.392192,93,0,0,1561914546.999794,4.634724408392454,-74.15107293992689,2553.06,0.39,180.703125,4,10,-9999,1561914547.381718,-6.143333435058594,28.36651420593262,-2.3294677734375,342.5888366699219,350.0823059082031,15,197262.5477829167,-0.1556549072265625,0.2711639404296875,0.179595947265625,197262.5305409167,-1.050475369866267,2.805273224800264,-2.031810017828006,197262.5300829167,-82.77328491210938,-1.097091674804688,-565.7418212890625,197262.5305409167,1.397716759956534,-1.901436965751939,-0.2586431714660034,-1.053550004959106,2.79827618598938,-2.035001039505005,0.7880922555923462,0.04252496361732483,-0.1874619722366333,1,-0.4618309736251831,0.6660611033439636,-0.4510742127895355,-0.3736398220062256,-0.9143739938735962,0.2557691037654877,0.3138504922389984,0,0,0,-1,197261.091704375,1,2,1561914545.929241,1561913957.287787,32,0.8918345,0,0,26.32609,0,0,1561914413.669193,197259.584999,0,1.305176,75.29285,3232235528,177845136,1,1,0.53,-20.85635,-36.14582,2
1561914547.411651,94,0,0,1561914546.999794,4.634724408392454,-74.15107293992689,2553.06,0.39,180.703125,4,10,-9999,1561914547.408146,-7.806015014648438,27.76803016662598,-2.375,342.6534729003906,350.1469421386719,15,197262.5680469167,-0.267547607421875,0.2509613037109375,0.220703125,197262.5508049167,-0.4653546436099389,2.954588411321628,-1.667342307896885,197262.5501939167,-83.49336242675781,-1.526214599609375,-565.7908325195312,197262.5508049167,1.394681398692808,-1.844420743349245,-0.2183184680628642,-0.4684293270111084,2.947591304779053,-1.670533299446106,0.7842890620231628,0.05457565188407898,-0.0842125415802002,1,-0.4582880139350891,0.6495200991630554,-0.4521598815917969,-0.404533326625824,-0.9399439692497253,0.2165883183479309,0.2638085186481476,0,0,0,-1,197261.091704375,1,2,1561914545.929241,1561913957.287787,32,0.8918345,0,0,26.32609,0,0,1561914413.669193,197259.584999,0,1.305176,75.29285,3232235528,177845136,1,1,0.53,-21.41363,-36.52504,2
1561914547.432166,95,0,0,1561914546.999794,4.634724408392454,-74.15107293992689,2553.06,0.39,180.703125,4,10,-9999,1561914547.408146,-7.806015014648438,27.76803016662598,-2.375,342.6534729003906,350.1469421386719,15,197262.5883109167,-0.419158935546875,0.28778076171875,0.20208740234375,197262.5710679167,-0.3842448768182676,3.280259190492475,-1.10088288403096,197262.5703049167,-84.18492126464844,-1.525588989257812,-566.0680541992188,197262.5710679167,1.393796019902296,-1.781184953311221,-0.1887242162799133,-0.3873195350170135,3.273262023925781,-1.104073882102966,0.6930381059646606,0.06335538625717163,0.0155712366104126,1,-0.4513330161571503,0.6315571665763855,-0.4580643177032471,-0.4331410229206085,-0.9605857133865356,0.1876059174537659,0.2051318883895874,0,0,0,-1,197261.091704375,1,2,1561914545.929241,1561913957.287787,32,0.8918345,0,0,26.32609,0,0,1561914413.669193,197259.584999,0,1.305176,75.29285,3232235528,177845136,1,1,0.53,-21.97091,-34.89541,2
1561914547.452524,96,0,0,1561914546.999794,4.634724408392454,-74.15107293992689,2553.06,0.39,180.703125,4,10,-9999,1561914547.43233,-8.3621826171875,27.7685718536377,-2.7203369140625,342.9176025390625,350.4110717773438,15,197262.6085739167,-0.676116943359375,0.3511505126953125,0.115631103515625,197262.5913319167,-0.2297149545664198,2.881145086359968,-0.3464389082996118,197262.5904159167,-84.58430480957031,-1.554916381835938,-566.568359375,197262.5913319167,1.38958083232862,-1.718096704331027,-0.1729432531394702,-0.2327896356582642,2.874147891998291,-0.3496298789978027,0.5552560091018677,0.115698367357254,0.05750846862792969,1,-0.4396473169326782,0.6156294941902161,-0.4668424129486084,-0.4580051600933075,-0.9744150042533875,0.1720824390649796,0.1445788741111755,0,0,0,-1,197261.091704375,1,2,1561914545.929241,1561913957.287787,32,0.8918345,0,0,26.32609,0,0,1561914413.669193,197259.584999,0,1.305176,75.29285,3232235528,177845136,1,1,0.53,-22.52819,-29.16791,2
1561914547.47251,97,0,0,1561914546.999794,4.634724408392454,-74.15107293992689,2553.06,0.39,180.703125,4,10,-9999,1561914547.458737,-8.5250244140625,27.76904106140137,-3.0662841796875,342.8514099121094,350.3448791503906,15,197262.6288069167,-0.942169189453125,0.39508056640625,0.0439910888671875,197262.6115959167,0.3246209610691376,2.143723770000297,0.2652172887421571,197262.6105269167,-84.0806884765625,-1.5391845703125,-567.048583984375,197262.6115959167,1.390110799304785,-1.667895755271729,-0.1725804889943748,0.3215462863445282,2.13672661781311,0.262026309967041,0.3043875694274902,0.179425448179245,0.02012443542480469,1,-0.4280527830123901,0.6037583947181702,-0.477758914232254,-0.4732790589332581,-0.9805044531822205,0.1717250794172287,0.09550676494836807,0,0,0,-1,197261.091704375,1,2,1561914545.929241,1561913957.287787,32,0.8918345,0,0,26.32609,0,0,1561914413.669193,197259.584999,0,1.305176,75.29285,3232235528,177845136,1,1,0.53,-22.52819,-29.16791,2
1561914547.492752,98,0,0,1561914546.999794,4.634724408392454,-74.15107293992689,2553.06,0.39,180.703125,4,10,-9999,1561914547.483018,-8.091911315917969,27.70112037658691,-3.5594482421875,341.8243103027344,349.3177795410156,15,197262.6490709167,-1.129806518554688,0.4181365966796875,0.02606201171875,197262.6318589167,0.8449829306785541,2.129561878271583,0.5927799775513962,197262.6306389167,-83.82464599609375,-1.544754028320312,-567.6866455078125,197262.6318589167,1.401777736568442,-1.62401328527919,-0.1823883751872716,0.8419082760810852,2.122564792633057,0.58958899974823,0.0398518443107605,0.2137017548084259,-0.008318424224853516,1,-0.418149471282959,0.592710554599762,-0.4923805296421051,-0.4810473918914795,-0.9820210337638855,0.1813788414001465,0.05230956524610519,0,0,0,-1,197261.091704375,1,2,1561914545.929241,1561913957.287787,32,0.8918345,0,0,26.32609,0,0,1561914413.669193,197259.584999,0,1.305176,75.29285,3232235528,177845136,1,1,0.53,-23.08547,-30.03923,2
1561914547.512996,99,0,0,1561914546.999794,4.634724408392454,-74.15107293992689,2553.06,0.39,180.703125,4,10,-9999,1561914547.509367,-7.220588684082031,27.94418144226074,-5.4580078125,339.9891052246094,347.4825744628906,15,197262.6693349167,-1.212753295898438,0.395050048828125,0.0491180419921875,197262.6521229167,1.234894215348183,2.56850222492568,0.5531542710598892,197262.6507499167,-83.010498046875,-1.52130126953125,-568.6865234375,197262.6521229167,1.422656597249375,-1.572938859050233,-0.1953242818266146,1.2318195104599,2.561505079269409,0.5499632954597473,-0.1488240361213684,0.2240519523620605,0.02396023273468018,1,-0.4077484607696533,0.578612208366394,-0.5112193822860718,-0.4874462187290192,-0.9809824824333191,0.1940846592187881,0.002101789927110076,0,0,0,-1,197261.091704375,1,2,1561914545.929241,1561913957.287787,32,0.8918345,0,0,26.32609,0,0,1561914413.669193,197259.584999,0,1.305176,75.29285,3232235528,177845136,1,1,0.53,-23.64275,-31.05008,2
1561914547.53341,100,0,0,1561914546.999794,4.634724408392454,-74.15107293992689,2553.06,0.39,180.703125,4,10,-9999,1561914547.509367,-7.220588684082031,27.94418144226074,-5.4580078125,339.9891052246094,347.4825744628906,15,197262.6895989167,-1.27392578125,0.3962554931640625,0.01812744140625,197262.6723869167,1.522276194894743,3.00075484145037,0.2785480078946578,197262.6708909167,-82.62074279785156,-1.534591674804688,-570.028564453125,197262.6723869167,1.452263241233174,-1.510296188725958,-0.2020893515950559,1.519201517105103,2.993757724761963,0.2753570377826691,-0.2348963618278503,0.1943334639072418,0.1083507537841797,1,-0.3978456854820251,0.5586612820625305,-0.5327234268188477,-0.4958044290542603,-0.9778569340705872,0.2007165998220444,-0.05923276394605637,0,0,0,-1,197261.091704375,1,2,1561914545.929241,1561913957.287787,32,0.8918345,0,0,26.32609,0,0,1561914413.669193,197259.584999,0,1.305176,75.29285,3232235528,177845136,1,1,0.53,-24.20003,-32.06947,2
1561914547.553602,101,0,0,1561914546.999794,4.634724408392454,-74.15107293992689,2553.06,0.39,180.703125,4,10,-9999,1561914547.533604,-6.46307373046875,27.66464233398438,-6.6947021484375,337.8204956054688,345.31396484375,15,197262.7098619167,-1.2591552734375,0.34930419921875,0.0106201171875,197262.6926499167,1.324487215476193,2.829095733383241,0.4134373834232802,197262.6910019167,-81.97943115234375,-1.998764038085938,-570.9246215820312,197262.6926499167,1.481879898792769,-1.444232746064618,-0.2062030784801853,1.321412563323975,2.82209849357605,0.4102464020252228,-0.3029394149780273,0.1915106177330017,0.1416793465614319,1,-0.3867925405502319,0.5372295379638672,-0.5540148615837097,-0.5048202276229858,-0.9709863066673279,0.2047449052333832,-0.1235519051551819,0,0,0,-1,197261.091704375,1,2,1561914545.929241,1561913957.287787,32,0.8918345,0,0,26.32609,0,0,1561914413.669193,197259.584999,0,1.305176,75.29285,3232235528,177845136,1,1,0.53,-24.75731,-33.02283,2
1561914547.573865,102,0,0,1561914546.999794,4.634724408392454,-74.15107293992689,2553.06,0.39,180.703125,4,10,-9999,1561914547.560527,-5.848350524902344,27.57354736328125,-7.5970458984375,335.7866516113281,343.2801208496094,15,197262.7301259167,-1.183746337890625,0.3496856689453125,0.0023040771484375,197262.7128829167,1.268466822998049,2.013684809765036,0.7597689663309617,197262.7111129167,-81.25137329101562,-1.544403076171875,-571.9965209960938,197262.7128829167,1.510243403286349,-1.389183673380475,-0.2135272050335766,1.265392184257507,2.006687641143799,0.7565779685974121,-0.2979385256767273,0.1373958885669708,0.1871341466903687,1,-0.3765744566917419,0.5195523500442505,-0.5732546448707581,-0.5095450282096863,-0.9612167477607727,0.2119083106517792,-0.1765140742063522,0,0,0,-1,197261.091704375,1,2,1561914545.929241,1561913957.287787,32,0.8918345,0,0,26.32609,0,0,1561914413.669193,197259.584999,0,1.305176,75.29285,3232235528,177845136,1,1,0.53,-25.31458,-33.9585,2
1561914547.594125,103,0,0,1561914546.999794,4.634724408392454,-74.15107293992689,2553.06,0.39,180.703125,4,10,-9999,1561914547.584319,-5.104202270507812,27.5467472076416,-8.60589599609375,333.7049255371094,341.1983947753906,15,197262.7503899167,-1.141571044921875,0.34686279296875,0.0062408447265625,197262.7331469167,1.226696206564592,1.309238487706617,0.9827993865612826,197262.7312239167,-80.40322875976562,-1.88458251953125,-572.9458618164062,197262.7331469167,1.539210155624,-1.349806962321122,-0.2261767687718393,1.223621606826782,1.302241325378418,0.9796083569526672,-0.2329151034355164,0.1254323422908783,0.2159163951873779,1,-0.3687285482883453,0.5071815252304077,-0.5904667377471924,-0.5080896615982056,-0.9508312940597534,0.224253311753273,-0.2136123180389404,0,0,0,-1,197261.091704375,1,2,1561914545.929241,1561913957.287787,32,0.8918345,0,0,26.32609,0,0,1561914413.669193,197259.584999,0,1.305176,75.29285,3232235528,177845136,1,1,0.53,-25.87186,-34.93851,2
1561914547.615962,104,0,0,1561914546.999794,4.634724408392454,-74.15107293992689,2553.06,0.39,180.703125,4,10,-9999,1561914547.61064,-3.424476623535156,27.35045433044434,-10.19195556640625,331.7135009765625,339.2069702148438,15,197262.7706529167,-1.1636962890625,0.326690673828125,-0.0438995361328125,197262.7534109167,1.171219631581043,0.9145319151781914,0.9035181461740598,197262.7513359167,-79.36759948730469,-1.944076538085938,-573.6240844726562,197262.7534109167,1.568205204359061,-1.321088209071933,-0.2392355141472071,1.168144941329956,0.9075348377227783,0.9003271460533142,-0.2001837491989136,0.1099027991294861,0.246323823928833,1,-0.3634660542011261,0.4978463053703308,-0.6055029034614563,-0.5033960938453674,-0.9413872957229614,0.2369599789381027,-0.2400829643011093,0,0,0,-1,197261.091704375,1,2,1561914545.929241,1561913957.287787,32,0.8918345,0,0,26.32609,0,0,1561914413.669193,197259.584999,0,1.305176,75.29285,3232235528,177845136,1,1,0.53,-26.42914,-35.89886,2
1561914547.634828,105,0,0,1561914546.999794,4.634724408392454,-74.15107293992689,2553.06,0.39,180.703125,4,10,-9999,1561914547.61064,-3.424476623535156,27.35045433044434,-10.19195556640625,331.7135009765625,339.2069702148438,15,197262.7909169167,-1.14263916015625,0.2864227294921875,-0.0935211181640625,197262.7736739167,0.8769227542640925,0.7866943238999898,0.8375308733162944,197262.7714469167,-78.72154235839844,-2.04217529296875,-574.169921875,197262.7736739167,1.594000992159325,-1.298118261760205,-0.2505223382601522,0.8738480806350708,0.7796972393989563,0.8343398571014404,-0.2307066917419434,0.07878068089485168,0.2170048952102661,1,-0.3593879640102386,0.4902938604354858,-0.6181257367134094,-0.4983701705932617,-0.9329895973205566,0.2479100227355957,-0.2609044313430786,0,0,0,-1,197261.091704375,1,2,1561914545.929241,1561913957.287787,32,0.8918345,0,0,26.32609,0,0,1561914413.669193,197259.584999,0,1.305176,75.29285,3232235528,177845136,1,1,0.53,-26.42914,-35.89886,2
1561914547.654726,106,0,0,1561914546.999794,4.634724408392454,-74.15107293992689,2553.06,0.39,180.703125,4,10,-9999,1561914547.634993,-2.862716674804688,27.21834945678711,-10.678955078125,330.281005859375,337.7744750976562,15,197262.8111809167,-1.084259033203125,0.24212646484375,-0.1413726806640625,197262.7939379167,0.4765923844617463,0.6545282969020825,0.8418055131819806,197262.7915579167,-78.35972595214844,-2.127349853515625,-574.4929809570312,197262.7939379167,1.612210700376234,-1.278724188061313,-0.2630039111552078,0.4735177159309387,0.647531270980835,0.8386145234107971,-0.217920184135437,0.02644041180610657,0.1845148801803589,1,-0.3539996743202209,0.485454648733139,-0.6282305717468262,-0.4943119883537292,-0.9247189164161682,0.2599823474884033,-0.2780360281467438,0,0,0,-1,197261.091704375,1,2,1561914545.929241,1561913957.287787,32,0.8918345,0,0,26.32609,0,0,1561914413.669193,197259.584999,0,1.305176,75.29285,3232235528,177845136,1,1,0.53,-26.98642,-36.7825,2
1561914547.675138,107,0,0,1561914546.999794,4.634724408392454,-74.15107293992689,2553.06,0.39,180.703125,4,10,-9999,1561914547.66144,-2.313461303710938,27.18047142028809,-10.99444580078125,329.3932495117188,336.88671875,15,197262.8314139167,-1.031082153320312,0.2226104736328125,-0.205352783203125,197262.8142019167,0.2942673162288504,0.3464935031019584,0.8076494069372784,197262.8116689167,-77.70111083984375,-2.196914672851562,-574.61962890625,197262.8142019167,1.624585343302176,-1.265363683082338,-0.2768678525305425,0.2911926507949829,0.3394964337348938,0.8044583797454834,-0.1668630838394165,-0.03121763467788696,0.1478812098503113,1,-0.3485609292984009,0.4836097061634064,-0.6358954906463623,-0.4901672899723053,-0.9173959493637085,0.2733441293239594,-0.2892538607120514,0,0,0,-1,197261.091704375,1,2,1561914545.929241,1561913957.287787,32,0.8918345,0,0,26.32609,0,0,1561914413.669193,197259.584999,0,1.305176,75.29285,3232235528,177845136,1,1,0.53,-27.5437,-37.54541,2
1561914547.696927,108,0,0,1561914546.999794,4.634724408392454,-74.15107293992689,2553.06,0.39,180.703125,4,10,-9999,1561914547.685566,-1.367515563964844,26.99002075195312,-11.40771484375,328.6293334960938,336.122802734375,15,197262.8516769167,-0.985931396484375,0.21722412109375,-0.274261474609375,197262.8344649167,0.2798601473637398,0.06130676724195109,0.7870700959298,197262.8317799167,-77.28379821777344,-2.547042846679688,-574.7777099609375,197262.8344649167,1.635304709154667,-1.2585274294793,-0.2902547845141375,0.2767854630947113,0.05430969595909119,0.7838791012763977,-0.1192493438720703,-0.06358587741851807,0.08901512622833252,1,-0.3448933660984039,0.4835954904556274,-0.6418194174766541,-0.4850275814533234,-0.9118328094482422,0.2861963510513306,-0.2943679392337799,0,0,0,-1,197261.091704375,1,2,1561914545.929241,1561913957.287787,32,0.8918345,0,0,26.32609,0,0,1561914413.669193,197259.584999,0,1.305176,75.29285,3232235528,177845136,1,1,0.53,-28.10098,-38.26542,2
1561914547.720255,109,0,0,1561914546.999794,4.634724408392454,-74.15107293992689,2553.06,0.39,180.703125,4,10,-9999,1561914547.712257,-1.019584655761719,26.70554733276367,-11.47601318359375,327.8151245117188,335.30859375,15,197262.8719409167,-0.9304046630859375,0.196502685546875,-0.3150634765625,197262.8547289167,0.2769474480795202,-0.03544241305121053,0.8504554604025579,197262.8518909167,-77.13175964355469,-2.612594604492188,-575.123779296875,197262.8547289167,1.646144208872953,-1.255380558677724,-0.3042823067895324,0.2738727629184723,-0.04243948310613632,0.8472644686698914,-0.07893538475036621,-0.08238443732261658,0.02169984579086304,1,-0.3422300219535828,0.4846627116203308,-0.647138237953186,-0.4787409007549286,-0.9069960117340088,0.2996085286140442,-0.2959613502025604,0,0,0,-1,197261.091704375,1,2,1561914545.929241,1561913957.287787,32,0.8918345,0,0,26.32609,0,0,1561914413.669193,197259.584999,0,1.305176,75.29285,3232235528,177845136,1,1,0.53,-28.65826,-38.81905,2
1561914547.736629,110,0,0,1561914546.999794,4.634724408392454,-74.15107293992689,2553.06,0.39,180.703125,4,10,-9999,1561914547.712257,-1.019584655761719,26.70554733276367,-11.47601318359375,327.8151245117188,335.30859375,15,197262.8922049167,-0.9019012451171875,0.1891937255859375,-0.3440704345703125,197262.8749929167,0.409836789629493,-0.1113920389147443,0.8601616173114608,197262.8720019167,-76.48760986328125,-2.584060668945312,-575.2865600585938,197262.8749929167,1.658475978310964,-1.253265565345532,-0.3188562563186828,0.4067621231079102,-0.1183891072869301,0.8569706082344055,-0.02828103303909302,-0.1169780194759369,-0.01857942342758179,1,-0.3400968611240387,0.4858931005001068,-0.6526184678077698,-0.4715200066566467,-0.9021236300468445,0.3134806752204895,-0.2964840531349182,0,0,0,-1,197261.091704375,1,2,1561914545.929241,1561913957.287787,32,0.8918345,0,0,26.32609,0,0,1561914413.669193,197259.584999,0,1.305176,75.29285,3232235528,177845136,1,1,0.53,-29.21554,-39.31516,2
1561914547.756234,111,0,0,1561914546.999794,4.634724408392454,-74.15107293992689,2553.06,0.39,180.703125,4,10,-9999,1561914547.738302,-0.51666259765625,26.82585525512695,-11.80908203125,326.6990051269531,334.1924743652344,15,197262.9124679167,-0.8663330078125,0.211334228515625,-0.390045166015625,197262.8952559167,0.7342401704375712,-0.09020739139149098,0.7983834705565657,197262.8921129167,-76.05618286132812,-2.492111206054688,-575.5704345703125,197262.8952559167,1.675286609975223,-1.250262507610893,-0.3312095892389862,0.7311655282974243,-0.09720446169376373,0.7951924800872803,-0.00441586971282959,-0.1359933614730835,-0.04612147808074951,1,-0.3394403755664825,0.4855983555316925,-0.6588596105575562,-0.4635500013828278,-0.8974853157997131,0.3251871168613434,-0.2979489266872406,0,0,0,-1,197261.091704375,1,2,1561914545.929241,1561913957.287787,32,0.8918345,0,0,26.32609,0,0,1561914413.669193,197259.584999,0,1.305176,75.29285,3232235528,177845136,1,1,0.53,-29.77282,-39.90069,2
1561914547.777599,112,0,0,1561914546.999794,4.634724408392454,-74.15107293992689,2553.06,0.39,180.703125,4,10,-9999,1561914547.762777,-0.0239105224609375,26.64516067504883,-12.036376953125,324.9662780761719,332.4597473144531,15,197262.9327319167,-0.8459625244140625,0.19842529296875,-0.4238128662109375,197262.9154899167,1.089825439184951,0.02169970287807464,0.8139579029274581,197262.9122239167,-75.37876892089844,-2.957351684570312,-576.0922241210938,197262.9154899167,1.699300343100101,-1.243339138799256,-0.3404083932089469,1.086750745773315,0.0147026302292943,0.810766875743866,0.02619767189025879,-0.1225378513336182,-0.08686482906341553,1,-0.3401743471622467,0.4823808073997498,-0.6668432950973511,-0.4548737108707428,-0.8925306797027588,0.3338720798492432,-0.3031803369522095,0,0,0,-1,197261.091704375,1,2,1561914545.929241,1561913957.287787,32,0.8918345,0,0,26.32609,0,0,1561914413.669193,197259.584999,0,1.305176,75.29285,3232235528,177845136,1,1,0.53,-30.3301,-40.67242,2
1561914547.80789,113,0,0,1561914546.999794,4.634724408392454,-74.15107293992689,2553.06,0.39,180.703125,4,10,-9999,1561914547.787159,1.0760498046875,26.22163963317871,-13.11663818359375,322.8330688476562,330.3265380859375,15,197262.9529959167,-0.8412628173828125,0.1553497314453125,-0.408203125,197262.9357529167,1.182420354493698,0.1477452530587619,0.8739597212352703,197262.9323349167,-74.9061279296875,-3.203338623046875,-576.5411376953125,197262.9357529167,1.728743455190364,-1.231933010417364,-0.3490504038702744,1.179345726966858,0.1407481729984283,0.8707687258720398,0.0402977466583252,-0.1435803174972534,-0.1114429235458374,1,-0.3408109843730927,0.477140337228775,-0.6765729784965515,-0.4454593658447266,-0.8862602710723877,0.3420056402683258,-0.3123699426651001,0,0,0,-1,197261.091704375,1,2,1561914545.929241,1561913957.287787,32,0.8918345,0,0,26.32609,0,0,1561914413.669193,197260.53087,0,1.270996,75.29319,3232235528,177845136,1,1,0.53,-30.88737,-41.23937,2
1561914547.817002,114,0,0,1561914546.999794,4.634724408392454,-74.15107293992689,2553.06,0.39,180.703125,4,10,-9999,1561914547.81344,1.429389953613281,26.0546989440918,-13.794921875,320.7885131835938,328.281982421875,15,197262.9732589167,-0.8224639892578125,0.1345672607421875,-0.387359619140625,197262.9560169167,1.128409849690237,0.2100871910164268,0.797556292721987,197262.9524459167,-74.64656066894531,-3.271636962890625,-577.2769165039062,197262.9560169167,1.758433124510131,-1.217848964402556,-0.3572124878388608,1.125335216522217,0.2030901163816452,0.7943652868270874,0.03786152601242065,-0.1943143010139465,-0.08435815572738647,1,-0.3406196534633636,0.4712279438972473,-0.6865562796592712,-0.4365352392196655,-0.8791243433952332,0.349664032459259,-0.3238449394702911,0,0,0,-1,197261.091704375,1,2,1561914545.929241,1561913957.287787,32,0.8918345,0,0,26.32609,0,0,1561914413.669193,197260.53087,0,1.270996,75.29319,3232235528,177845136,1,1,0.53,-30.88737,-41.23937,2
1561914547.83742,115,0,0,1561914546.999794,4.634724408392454,-74.15107293992689,2553.06,0.39,180.703125,4,10,-9999,1561914547.81344,1.429389953613281,26.0546989440918,-13.794921875,320.7885131835938,328.281982421875,15,197262.9935229167,-0.82489013671875,0.170867919921875,-0.3834991455078125,197262.9762809167,1.01641993111077,0.1917521258595583,0.6038677824338321,197262.9725569167,-74.19195556640625,-3.717971801757812,-577.8300170898438,197262.9762809167,1.785572783643853,-1.204471637354938,-0.3628995908062766,1.013345241546631,0.1847550421953201,0.6006767749786377,0.05037885904312134,-0.2204191982746124,-0.052501380443573,1,-0.3406728208065033,0.4653094708919525,-0.6953892111778259,-0.4287925064563751,-0.8728428483009338,0.3549864590167999,-0.334858238697052,0,0,0,-1,197261.091704375,1,2,1561914545.929241,1561913957.287787,32,0.8918345,0,0,26.32609,0,0,1561914413.669193,197260.53087,0,1.270996,75.29319,3232235528,177845136,1,1,0.53,-31.44465,-41.44367,2
1561914547.883693,116,0,0,1561914546.999794,4.634724408392454,-74.15107293992689,2553.06,0.39,180.703125,4,10,-9999,1561914547.864363,2.344825744628906,25.37508392333984,-14.7054443359375,317.6353759765625,325.1288452148438,15,197263.0137869167,-0.81048583984375,0.2572479248046875,-0.4021759033203125,197262.9965439167,0.8581895465242571,0.2887764106933251,0.4613670925097633,197262.9926689167,-73.58940124511719,-3.823013305664062,-578.206298828125,197262.9965439167,1.808507856974224,-1.191834036776263,-0.3658174723939983,0.8551148772239685,0.2817793190479279,0.4581761360168457,0.04268521070480347,-0.1868448853492737,-0.03802204132080078,1,-0.3407038152217865,0.4595457911491394,-0.7027587294578552,-0.4229286909103394,-0.8675753474235535,0.3577128052711487,-0.3454771637916565,0,0,0,-1,197261.091704375,1,2,1561914545.929241,1561913957.287787,32,0.8918345,0,0,26.32609,0,0,1561914413.669193,197260.53087,0,1.270996,75.29319,3232235528,177845136,1,1,0.53,-32.55921,-42.29769,2
1561914547.889186,117,0,0,1561914546.999794,4.634724408392454,-74.15107293992689,2553.06,0.39,180.703125,4,10,-9999,1561914547.864363,2.344825744628906,25.37508392333984,-14.7054443359375,317.6353759765625,325.1288452148438,15,197263.0340499167,-0.8024444580078125,0.2896270751953125,-0.3936004638671875,197263.0168079167,0.8151065243056093,0.3579775863545981,0.4483061515756877,197263.0127799167,-73.38710021972656,-4.293350219726562,-578.4655151367188,197263.0168079167,1.828622396523742,-1.17801773201437,-0.3679907114860598,0.8120318651199341,0.3509804904460907,0.4451151788234711,0.05151349306106567,-0.1024934351444244,-0.04504376649856567,1,-0.33978670835495,0.4538490176200867,-0.7095769047737122,-0.4184097945690155,-0.8619993329048157,0.3597413897514343,-0.3571321368217468,0,0,0,-1,197261.091704375,1,2,1561914545.929241,1561913957.287787,32,0.8918345,0,0,26.32609,0,0,1561914413.669193,197260.53087,0,1.270996,75.29319,3232235528,177845136,1,1,0.53,-32.55921,-42.29769,2
1561914547.898012,118,0,0,1561914546.999794,4.634724408392454,-74.15107293992689,2553.06,0.39,180.703125,4,10,-9999,1561914547.864363,2.344825744628906,25.37508392333984,-14.7054443359375,317.6353759765625,325.1288452148438,15,197263.0542839167,-0.85400390625,0.3004608154296875,-0.365875244140625,197263.0370719167,0.795807394834132,0.2820383468193156,0.3811284457106569,197263.0328909167,-72.87055969238281,-4.3641357421875,-578.9403076171875,197263.0370719167,1.848322338218312,-1.164785537215428,-0.3694096721762528,0.7927327156066895,0.275041252374649,0.3779374659061432,0.05428403615951538,-0.07143792510032654,-0.02529579401016235,1,-0.3391033709049225,0.4481702446937561,-0.7160700559616089,-0.414000004529953,-0.8567284941673279,0.361065000295639,-0.3683046698570251,0,0,0,-1,197261.091704375,1,2,1561914545.929241,1561913957.287787,32,0.8918345,0,0,26.32609,0,0,1561914413.669193,197260.53087,0,1.270996,75.29319,3232235528,177845136,1,1,0.53,-33.11649,-41.71835,2
1561914547.918285,119,0,0,1561914546.999794,4.634724408392454,-74.15107293992689,2553.06,0.39,180.703125,4,10,-9999,1561914547.900644,2.83282470703125,24.98366546630859,-15.53668212890625,316.257080078125,323.7505493164062,15,197263.0745469167,-0.8843231201171875,0.3303680419921875,-0.3494110107421875,197263.0573349167,0.6895749642153072,0.3355367257451544,0.2371595550776273,197263.0530019167,-72.70895385742188,-4.547012329101562,-579.4237060546875,197263.0573349167,1.865885996823658,-1.152464559129915,-0.369151890508892,0.6865003108978271,0.32853963971138,0.233968585729599,-0.001793265342712402,-0.06036373972892761,0.01299470663070679,1,-0.3386596143245697,0.4425773322582245,-0.721752405166626,-0.4104976058006287,-0.8522106409072876,0.3608245849609375,-0.3788699507713318,0,0,0,-1,197261.091704375,1,2,1561914545.929241,1561913957.287787,32,0.8918345,0,0,26.32609,0,0,1561914413.669193,197260.53087,0,1.270996,75.29319,3232235528,177845136,1,1,0.53,-33.67377,-40.75562,2
1561914547.954758,120,0,0,1561914546.999794,4.634724408392454,-74.15107293992689,2553.06,0.39,180.703125,4,10,-9999,1561914547.939198,3.459480285644531,24.31010818481445,-16.1719970703125,314.4046936035156,321.8981628417969,15,197263.0948109167,-0.869415283203125,0.36090087890625,-0.3514404296875,197263.0775989167,0.5254478083431409,0.4141851990573744,0.100828077818727,197263.0731129167,-72.66403198242188,-5.165115356445312,-579.8946533203125,197263.0775989167,1.879282870831534,-1.140039898505515,-0.3670495696824775,0.5223731398582458,0.4071881175041199,0.09763710200786591,-0.03619801998138428,-0.02849504351615906,0.04033374786376953,1,-0.3377064168453217,0.4371292591094971,-0.726395845413208,-0.4089271724224091,-0.848125159740448,0.3588630855083466,-0.3897447884082794,0,0,0,-1,197261.091704375,1,2,1561914545.929241,1561913957.287787,32,0.8918345,0,0,26.32609,0,0,1561914413.669193,197260.53087,0,1.270996,75.29319,3232235528,177845136,1,1,0.53,-34.23105,-41.42482,2
1561914547.958745,121,0,0,1561914546.999794,4.634724408392454,-74.15107293992689,2553.06,0.39,180.703125,4,10,-9999,1561914547.939198,3.459480285644531,24.31010818481445,-16.1719970703125,314.4046936035156,321.8981628417969,15,197263.1150749167,-0.8782806396484375,0.3778839111328125,-0.3458709716796875,197263.0978629167,0.4069203619197473,0.298185891456793,0.05955014618693482,197263.0932239167,-72.302978515625,-5.173812866210938,-580.0225219726562,197263.0978629167,1.889000833580832,-1.129050419735461,-0.364339027737647,0.4038456976413727,0.2911888062953949,0.0563591755926609,-0.02474808692932129,0.004569083452224731,0.04801547527313232,1,-0.3365858495235443,0.432414174079895,-0.7299812436103821,-0.4084792733192444,-0.8446671962738037,0.3563317954540253,-0.3994559049606323,0,0,0,-1,197261.091704375,1,2,1561914545.929241,1561913957.287787,32,0.8918345,0,0,26.32609,0,0,1561914413.669193,197260.53087,0,1.270996,75.29319,3232235528,177845136,1,1,0.53,-34.23105,-41.42482,2
