loggingTime,loggingSample,identifierForVendor,deviceID,locationTimestamp_since1970,locationLatitude,locationLongitude,locationAltitude,locationSpeed,locationCourse,locationVerticalAccuracy,locationHorizontalAccuracy,locationFloor,locationHeadingTimestamp_since1970,locationHeadingX,locationHeadingY,locationHeadingZ,locationTrueHeading,locationMagneticHeading,locationHeadingAccuracy,accelerometerTimestamp_sinceReboot,accelerometerAccelerationX,accelerometerAccelerationY,accelerometerAccelerationZ,gyroTimestamp_sinceReboot,gyroRotationX,gyroRotationY,gyroRotationZ,magnetometerTimestamp_sinceReboot,magnetometerX,magnetometerY,magnetometerZ,motionTimestamp_sinceReboot,motionYaw,motionRoll,motionPitch,motionRotationRateX,motionRotationRateY,motionRotationRateZ,motionUserAccelerationX,motionUserAccelerationY,motionUserAccelerationZ,motionAttitudeReferenceFrame,motionQuaternionX,motionQuaternionY,motionQuaternionZ,motionQuaternionW,motionGravityX,motionGravityY,motionGravityZ,motionMagneticFieldX,motionMagneticFieldY,motionMagneticFieldZ,motionMagneticFieldCalibrationAccuracy,activityTimestamp_sinceReboot,activity,activityActivityConfidence,activityActivityStartDate,pedometerStartDate,pedometerNumberofSteps,pedometerAverageActivePace,pedometerCurrentPace,pedometerCurrentCadence,pedometerDistance,pedometerFloorAscended,pedometerFloorDescended,pedometerEndDate,altimeterTimestamp_sinceReboot,altimeterReset,altimeterRelativeAltitude,altimeterPressure,IP_en0,IP_pdp_ip0,deviceOrientation,batteryState,batteryLevel,avAudioRecorderPeakPower,avAudioRecorderAveragePower,label
1561914560.734371,1,0,0,1561914559.999705,4.634765940722669,-74.15114753886512,2553.066,0,201.4453125,4,30,-9999,1561914560.715337,-22.22704315185547,18.07312774658203,7.74127197265625,9.251129150390625,16.74459648132324,15,197275.879535625,-0.9405517578125,-0.3441925048828125,-0.0012359619140625,197275.862323625,-0.02074895436891635,0.009939982452611748,-0.04459809456279395,197275.864460625,-97.90937805175781,-11.17689514160156,-555.8934326171875,197275.862323625,0.9378790974028361,-1.56693992400013,0.3549628069164711,-0.02383100613951683,0.002935620956122875,-0.0477881170809269,-0.01855486631393433,-0.00135195255279541,0.008132576942443848,1,-0.4255214035511017,0.5631372332572937,-0.2040074169635773,-0.6783722639083862,-0.9376524090766907,-0.3475554883480072,-0.003615983296185732,0,0,0,-1,197274.374738625,1,2,1561914559.212275,1561913957.287787,32,0.8918345,0,0,26.32609,0,0,1561914413.669193,197272.828975,0,2.401855,75.28249,3232235528,177845136,1,1,0.52,-38.7915,-48.02458,4
1561914560.756038,2,0,0,1561914559.999705,4.634765940722669,-74.15114753886512,2553.066,0,201.4453125,4,30,-9999,1561914560.747345,-22.20607757568359,18.34673690795898,7.64300537109375,9.285446166992188,16.7789134979248,15,197275.899799625,-0.9310760498046875,-0.3395233154296875,-0.005126953125,197275.882587625,-0.01927888944719261,0.02339453859580107,-0.03285488573608954,197275.884571625,-97.80027770996094,-11.07487487792969,-555.8048095703125,197275.882587625,0.9373799108156782,-1.566528323861853,0.3557949954638516,-0.02236094139516354,0.01639017648994923,-0.03604490682482719,-0.003190398216247559,0.004143178462982178,0.002764701843261719,1,-0.4255743324756622,0.5629264116287231,-0.2036442905664444,-0.6786231398582458,-0.9373613595962524,-0.3483356833457947,-0.004000685177743435,0,0,0,-1,197274.374738625,1,2,1561914559.212275,1561913957.287787,32,0.8918345,0,0,26.32609,0,0,1561914413.669193,197272.828975,0,2.401855,75.28249,3232235528,177845136,1,1,0.52,-38.7915,-48.5075,4
1561914560.763725,3,0,0,1561914559.999705,4.634765940722669,-74.15114753886512,2553.066,0,201.4453125,4,30,-9999,1561914560.747345,-22.20607757568359,18.34673690795898,7.64300537109375,9.285446166992188,16.7789134979248,15,197275.920063625,-0.9286651611328125,-0.3438262939453125,-0.004852294921875,197275.902851625,-0.01649242399864271,-0.01438905936969812,-0.01940086222511824,197275.904682625,-98.08221435546875,-11.0750732421875,-555.8126220703125,197275.902851625,0.9370691714296787,-1.566394305161918,0.3563645083342527,-0.0195744764059782,-0.02139342203736305,-0.02259088307619095,0.006086230278015137,0.009346127510070801,-0.001001477241516113,1,-0.425634354352951,0.562825620174408,-0.2033748030662537,-0.6787499189376831,-0.9371622800827026,-0.3488694727420807,-0.004125435370951891,0,0,0,-1,197274.374738625,1,2,1561914559.212275,1561913957.287787,32,0.8918345,0,0,26.32609,0,0,1561914413.669193,197272.828975,0,2.401855,75.28249,3232235528,177845136,1,1,0.52,-38.7915,-48.5075,4
1561914560.784454,4,0,0,1561914559.999705,4.634765940722669,-74.15114753886512,2553.066,0,201.4453125,4,30,-9999,1561914560.780459,-22.26122283935547,18.17626762390137,7.89971923828125,9.355350494384766,16.84881782531738,15,197275.940326625,-0.93255615234375,-0.34368896484375,-0.0100860595703125,197275.923114625,-0.02702416084547006,-0.0198733070024983,-0.01532036680289883,197275.924793625,-98.29170227050781,-11.32560729980469,-555.8489379882812,197275.923114625,0.9365877725441287,-1.566789914393171,0.3567368659619771,-0.03010621294379234,-0.02687766775488853,-0.01851038634777069,0.008368611335754395,0.005392074584960938,-0.001098155975341797,1,-0.4256443977355957,0.5629829168319702,-0.2030013054609299,-0.6787249445915222,-0.9370338320732117,-0.3492183983325958,-0.003754164092242718,0,0,0,-1,197274.374738625,1,2,1561914559.212275,1561913957.287787,32,0.8918345,0,0,26.32609,0,0,1561914413.669193,197272.828975,0,2.401855,75.28249,3232235528,177845136,1,1,0.52,-38.7915,-49.02011,4
1561914560.804795,5,0,0,1561914559.999705,4.634765940722669,-74.15114753886512,2553.066,0,201.4453125,4,30,-9999,1561914560.780459,-22.26122283935547,18.17626762390137,7.89971923828125,9.355350494384766,16.84881782531738,15,197275.960590625,-0.93353271484375,-0.344696044921875,-0.016510009765625,197275.943348625,-0.03192384461899785,0.01756221580852754,-0.01979074900870584,197275.944904625,-97.98948669433594,-11.07095336914062,-555.8938598632812,197275.943348625,0.9358929898346969,-1.566749954013903,0.3571299946789134,-0.03500589728355408,0.01055785454809666,-0.02298076823353767,0.004340291023254395,0.005897790193557739,-0.00629502534866333,1,-0.425555944442749,0.563033401966095,-0.2026410400867462,-0.6788462400436401,-0.9368964433670044,-0.3495867550373077,-0.003791052848100662,0,0,0,-1,197274.374738625,1,2,1561914559.212275,1561913957.287787,32,0.8918345,0,0,26.32609,0,0,1561914413.669193,197272.828975,0,2.401855,75.28249,3232235528,177845136,1,1,0.52,-38.7915,-49.56559,4
1561914560.838106,6,0,0,1561914559.999705,4.634765940722669,-74.15114753886512,2553.066,0,201.4453125,4,30,-9999,1561914560.831682,-22.33043670654297,18.22047805786133,8.05279541015625,9.45941162109375,16.95287895202637,15,197275.980854625,-0.923309326171875,-0.34234619140625,-0.0169830322265625,197275.963611625,-0.03601179689226947,0.0647755345617793,-0.01892575428664811,197275.965015625,-98.36370849609375,-11.08302307128906,-555.7784423828125,197275.963611625,0.9350636700987486,-1.565779998809144,0.3576235589745085,-0.03909384831786156,0.05777117237448692,-0.02211577445268631,0.003186821937561035,0.005353063344955444,-0.01181107759475708,1,-0.4253640174865723,0.5627752542495728,-0.2023988366127014,-0.6792526245117188,-0.9367194771766663,-0.3500491380691528,-0.004698931705206633,0,0,0,-1,197274.374738625,1,2,1561914559.212275,1561913957.287787,32,0.8918345,0,0,26.32609,0,0,1561914413.669193,197272.828975,0,2.401855,75.28249,3232235528,177845136,1,1,0.52,-38.7915,-50.00015,4
1561914560.844767,7,0,0,1561914559.999705,4.634765940722669,-74.15114753886512,2553.066,0,201.4453125,4,30,-9999,1561914560.831682,-22.33043670654297,18.22047805786133,8.05279541015625,9.45941162109375,16.95287895202637,15,197276.001117625,-0.9171142578125,-0.3426361083984375,-0.0133819580078125,197275.983875625,-0.01440104359460348,0.03425677373390726,-0.00875833787694359,197275.985126625,-98.29110717773438,-11.19468688964844,-555.6849975585938,197275.983875625,0.9344009675866152,-1.564594737125887,0.3579427095158625,-0.01748309656977654,0.02725241333246231,-0.0119483582675457,0.01329225301742554,0.008001893758773804,-0.01117455959320068,1,-0.4251480400562286,0.5624454617500305,-0.2023178040981293,-0.6796850562095642,-0.9366015791893005,-0.3503480851650238,-0.005808493122458458,0,0,0,-1,197274.374738625,1,2,1561914559.212275,1561913957.287787,32,0.8918345,0,0,26.32609,0,0,1561914413.669193,197272.828975,0,2.401855,75.28249,3232235528,177845136,1,1,0.52,-38.7915,-50.00015,4
1561914560.865067,8,0,0,1561914559.999705,4.634765940722669,-74.15114753886512,2553.066,0,201.4453125,4,30,-9999,1561914560.855634,-22.35363006591797,18.23396873474121,8.00201416015625,9.459718704223633,16.95318603515625,15,197276.021381625,-0.92266845703125,-0.346771240234375,-0.0084991455078125,197276.004139625,0.006355633941474102,-0.01322552428944251,0.01307585463618005,197276.005237625,-98.12184143066406,-11.19906616210938,-555.5042724609375,197276.004139625,0.9343044398969855,-1.564489559097965,0.3579841996078041,0.003273582085967064,-0.0202298853546381,0.009885834529995918,0.01947212219238281,0.007750809192657471,-0.007475018501281738,1,-0.4251220226287842,0.5624213814735413,-0.2022933214902878,-0.6797285079956055,-0.9365863800048828,-0.3503869473934174,-0.005906911101192236,0,0,0,-1,197274.374738625,1,2,1561914559.212275,1561913957.287787,32,0.8918345,0,0,26.32609,0,0,1561914413.669193,197272.828975,0,2.401855,75.28249,3232235528,177845136,1,1,0.52,-38.7915,-45.45725,4
1561914560.885218,9,0,0,1561914559.999705,4.634765940722669,-74.15114753886512,2553.066,0,201.4453125,4,30,-9999,1561914560.855634,-22.35363006591797,18.23396873474121,8.00201416015625,9.459718704223633,16.95318603515625,15,197276.041645625,-0.9255218505859375,-0.3531951904296875,-0.0074310302734375,197276.024402625,-0.0005467469717932676,-0.007457916316657899,0.01631532378615244,197276.025348625,-97.77809143066406,-11.17559814453125,-555.5182495117188,197276.024402625,0.934355786397666,-1.564935595586904,0.3577249128653467,-0.003628798760473728,-0.01446227729320526,0.01312530413269997,0.0140112042427063,0.003372848033905029,-0.003009438514709473,1,-0.4251081347465515,0.562617301940918,-0.2023036181926727,-0.6795719265937805,-0.9366796612739563,-0.35014408826828,-0.005489690694957972,0,0,0,-1,197274.374738625,1,2,1561914559.212275,1561913957.287787,32,0.8918345,0,0,26.32609,0,0,1561914413.669193,197272.828975,0,2.401855,75.28249,3232235528,177845136,1,1,0.52,-38.7915,-46.21509,4
1561914560.911661,10,0,0,1561914559.999705,4.634765940722669,-74.15114753886512,2553.066,0,201.4453125,4,30,-9999,1561914560.888102,-22.11780548095703,18.32555389404297,7.89398193359375,9.47056770324707,16.96403503417969,15,197276.061878625,-0.93212890625,-0.3527984619140625,-0.00469970703125,197276.044666625,-0.01655154617484246,0.005697034203897507,0.009459548191961454,197276.045429625,-98.4117431640625,-11.23631286621094,-555.5978393554688,197276.044666625,0.9340819229000251,-1.565005902398984,0.357506867280891,-0.01963359862565994,-0.001307327300310135,0.006269527599215508,0.0112345814704895,-0.003255367279052734,-0.002006769180297852,1,-0.4249764084815979,0.5627458691596985,-0.2022693604230881,-0.6795580983161926,-0.936756432056427,-0.3499398231506348,-0.005424277856945992,0,0,0,-1,197274.374738625,1,2,1561914559.212275,1561913957.287787,32,0.8918345,0,0,26.32609,0,0,1561914413.669193,197272.828975,0,2.401855,75.28249,3232235528,177845136,1,1,0.52,-38.7915,-46.82991,4
1561914560.925834,11,0,0,1561914559.999705,4.634765940722669,-74.15114753886512,2553.066,0,201.4453125,4,30,-9999,1561914560.888102,-22.11780548095703,18.32555389404297,7.89398193359375,9.47056770324707,16.96403503417969,15,197276.082142625,-0.9326019287109375,-0.350830078125,-0.0081329345703125,197276.064930625,-0.03395716811127334,0.02074016593731909,-0.0009715211656609061,197276.065540625,-98.17715454101562,-11.11810302734375,-555.5630493164062,197276.064930625,0.9334849126057199,-1.564708775433571,0.3574877084920146,-0.03703922033309937,0.0137358047068119,-0.004161541350185871,0.004632472991943359,-0.002876579761505127,0.001002967357635498,1,-0.4247729778289795,0.5627757906913757,-0.2021360695362091,-0.6797000765800476,-0.9367613792419434,-0.3499218821525574,-0.005702653434127569,0,0,0,-1,197274.374738625,1,2,1561914559.212275,1561913957.287787,32,0.8918345,0,0,26.32609,0,0,1561914413.669193,197272.828975,0,2.401855,75.28249,3232235528,177845136,1,1,0.52,-38.7915,-47.4158,4
1561914560.94598,12,0,0,1561914559.999705,4.634765940722669,-74.15114753886512,2553.066,0,201.4453125,4,30,-9999,1561914560.932297,-22.27348327636719,18.37322616577148,8.03802490234375,9.570186614990234,17.06365394592285,15,197276.102405625,-0.938079833984375,-0.3441619873046875,-0.0197296142578125,197276.085193625,-0.03357527081095598,0.05789499156945058,0.007921306346331687,197276.085651625,-98.09898376464844,-11.21939086914062,-555.852294921875,197276.085193625,0.9326052223307172,-1.563780067722548,0.3575165785369392,-0.03665732219815254,0.05089062824845314,0.004731286317110062,0.004143774509429932,-0.0008811354637145996,-0.001560389995574951,1,-0.4244397878646851,0.5626407265663147,-0.2020244598388672,-0.6800532341003418,-0.9367457032203674,-0.349948912858963,-0.006572558544576168,0,0,0,-1,197274.374738625,1,2,1561914559.212275,1561913957.287787,32,0.8918345,0,0,26.32609,0,0,1561914413.669193,197272.828975,0,2.401855,75.28249,3232235528,177845136,1,1,0.52,-38.7915,-47.5456,4
1561914560.96624,13,0,0,1561914559.999705,4.634765940722669,-74.15114753886512,2553.066,0,201.4453125,4,30,-9999,1561914560.956965,-22.34385681152344,18.28285789489746,8.0394287109375,9.599306106567383,17.0927734375,15,197276.122669625,-0.9378662109375,-0.350799560546875,-0.0218353271484375,197276.105457625,-0.01061802326614592,0.1069094061679229,0.01067128648794751,197276.105762625,-97.99482727050781,-10.85711669921875,-555.8961181640625,197276.105457625,0.9321135111875004,-1.562063830506233,0.3573956140670185,-0.01370007544755936,0.09990504384040833,0.007481266744434834,-0.001304328441619873,0.005673646926879883,-0.01154905557632446,1,-0.4240936934947968,0.5621870160102844,-0.2022621631622314,-0.680573582649231,-0.9367755055427551,-0.349835604429245,-0.008180595934391022,0,0,0,-1,197274.374738625,1,2,1561914559.212275,1561913957.287787,32,0.8918345,0,0,26.32609,0,0,1561914413.669193,197272.828975,0,2.401855,75.28249,3232235528,177845136,1,1,0.52,-38.7915,-47.96395,4
1561914560.997067,14,0,0,1561914559.999705,4.634765940722669,-74.15114753886512,2553.066,0,201.4453125,4,30,-9999,1561914560.993488,-22.34748840332031,18.39007377624512,7.61383056640625,9.621973037719727,17.11544036865234,15,197276.142933625,-0.940460205078125,-0.3526763916015625,-0.019744873046875,197276.125721625,-0.01306679988847378,0.1103944187704006,0.01049232206269418,197276.125873625,-98.08065795898438,-10.92303466796875,-555.7161865234375,197276.125721625,0.9317869057141378,-1.559872017203035,0.3572568550946066,-0.01614885032176971,0.1033900529146194,0.007302301935851574,-0.001062452793121338,-0.001093953847885132,-0.01160097122192383,1,-0.4237406253814697,0.5615395903587341,-0.202662393450737,-0.681208610534668,-0.9368037581443787,-0.3497056066989899,-0.01023434195667505,0,0,0,-1,197274.374738625,1,2,1561914559.212275,1561913957.287787,32,0.8918345,0,0,26.32609,0,0,1561914413.669193,197272.828975,0,2.401855,75.28249,3232235528,177845136,1,1,0.52,-38.7915,-48.20399,4
1561914561.00697,15,0,0,1561914559.999705,4.634765940722669,-74.15114753886512,2553.066,0,201.4453125,4,30,-9999,1561914560.993488,-22.34748840332031,18.39007377624512,7.61383056640625,9.621973037719727,17.11544036865234,15,197276.163196625,-0.9334869384765625,-0.3484649658203125,-0.0140228271484375,197276.145984625,-0.001386175347386243,0.09092830909857542,0.001561677663222465,197276.145984625,-98.10664367675781,-11.083251953125,-555.9127197265625,197276.145984625,0.9315858277833197,-1.557803386002177,0.3572326995224609,-0.00446822727099061,0.08392395079135895,-0.001628342666663229,-0.003671050071716309,-0.002993404865264893,-0.007572531700134277,1,-0.4234674870967865,0.5608824491500854,-0.2030401825904846,-0.6818071603775024,-0.9367891550064087,-0.3496829867362976,-0.0121723311021924,0,0,0,-1,197274.374738625,1,2,1561914559.212275,1561913957.287787,32,0.8918345,0,0,26.32609,0,0,1561914413.669193,197272.828975,0,2.401855,75.28249,3232235528,177845136,1,1,0.52,-38.7915,-48.20399,4
1561914561.027086,16,0,0,1561914559.999705,4.634765940722669,-74.15114753886512,2553.066,0,201.4453125,4,30,-9999,1561914560.993488,-22.34748840332031,18.39007377624512,7.61383056640625,9.621973037719727,17.11544036865234,15,197276.183460625,-0.931976318359375,-0.3429107666015625,-0.012115478515625,197276.166217625,0.01948927917330887,0.01261326355483329,0.002738794865037488,197276.166095625,-98.13462829589844,-11.15902709960938,-555.8014526367188,197276.166217625,0.9317331351991885,-1.55695539569054,0.3572886675076649,0.01640722714364529,0.005608902312815189,-0.0004512255545705557,0.003271698951721191,0.001270413398742676,-0.001056373119354248,1,-0.4234386682510376,0.5605501532554626,-0.2032510340213776,-0.6820352673530579,-0.9367586374282837,-0.3497354090213776,-0.01296644005924463,0,0,0,-1,197274.374738625,1,2,1561914559.212275,1561913957.287787,32,0.8918345,0,0,26.32609,0,0,1561914413.669193,197272.828975,0,2.401855,75.28249,3232235528,177845136,1,1,0.52,-38.7915,-46.38679,4
1561914561.04737,17,0,0,1561914559.999705,4.634765940722669,-74.15114753886512,2553.066,0,201.4453125,4,30,-9999,1561914561.040462,-22.38384246826172,18.22705841064453,7.7386474609375,9.582696914672852,17.07616424560547,15,197276.203724625,-0.9380950927734375,-0.3473663330078125,-0.0164031982421875,197276.186481625,0.0345001866575405,-0.03507969051074174,0.03473667536233953,197276.186176625,-98.00360107421875,-11.03414916992188,-555.8251953125,197276.186481625,0.9322680069890568,-1.55758192333397,0.3569316095481662,0.03141813352704048,-0.04208405315876007,0.03154665231704712,0.004915356636047363,0.006490111351013184,0.0002657175064086914,1,-0.4235505163669586,0.5607266426086426,-0.2034211456775665,-0.6817701458930969,-0.9368916153907776,-0.3494008779525757,-0.0123811848461628,0,0,0,-1,197274.374738625,1,2,1561914559.212275,1561913957.287787,32,0.8918345,0,0,26.32609,0,0,1561914413.669193,197273.774976,0,2.256592,75.28386,3232235528,177845136,1,1,0.52,-38.7915,-46.61271,4
1561914561.075597,18,0,0,1561914560.999699,4.634765940722669,-74.15114753886512,2553.065,0,21.4453125,4,30,-9999,1561914561.040462,-22.38384246826172,18.22705841064453,7.7386474609375,9.582696914672852,17.07616424560547,15,197276.223987625,-0.945343017578125,-0.351959228515625,-0.0201416015625,197276.206745625,0.02243713218391758,-0.02037930760961336,0.03012914036039345,197276.206287625,-98.02995300292969,-10.91427612304688,-555.9588623046875,197276.206745625,0.9328614758969013,-1.558613736671458,0.3562785134735822,0.01935508102178574,-0.02738366834819317,0.02693912014365196,-0.0009632110595703125,0.001422584056854248,-0.004985928535461426,1,-0.4236359894275665,0.5610917210578918,-0.2036250680685043,-0.6813556551933289,-0.9371318221092224,-0.3487888872623444,-0.0114172575995326,0,0,0,-1,197274.374738625,1,2,1561914559.212275,1561913957.287787,32,0.8918345,0,0,26.32609,0,0,1561914413.669193,197273.774976,0,2.256592,75.28386,3232235528,177845136,1,1,0.52,-38.7915,-47.28286,4
1561914561.08803,19,0,0,1561914560.999699,4.634765940722669,-74.15114753886512,2553.065,0,21.4453125,4,30,-9999,1561914561.073238,-22.37041473388672,18.39371490478516,7.75,9.549276351928711,17.04274368286133,15,197276.244251625,-0.9434661865234375,-0.349700927734375,-0.0198516845703125,197276.227008625,-0.007564975392479084,0.02044029399857617,0.01702984990662069,197276.226398625,-98.31019592285156,-10.78422546386719,-555.72705078125,197276.227008625,0.9329258727180201,-1.558672292258761,0.355905478224924,-0.01064702682197094,0.01343593187630177,0.01383982971310616,-0.008080482482910156,-0.003520011901855469,-0.008777618408203125,1,-0.4235538244247437,0.5611774921417236,-0.2037604004144669,-0.68129563331604,-0.9372625350952148,-0.3484392464160919,-0.01136395987123251,0,0,0,-1,197274.374738625,1,2,1561914559.212275,1561913957.287787,32,0.8918345,0,0,26.32609,0,0,1561914413.669193,197273.774976,0,2.256592,75.28386,3232235528,177845136,1,1,0.52,-38.7915,-47.50261,4
1561914561.108268,20,0,0,1561914560.999699,4.634765940722669,-74.15114753886512,2553.065,0,21.4453125,4,30,-9999,1561914561.073238,-22.37041473388672,18.39371490478516,7.75,9.549276351928711,17.04274368286133,15,197276.264515625,-0.94134521484375,-0.3475494384765625,-0.0195159912109375,197276.247272625,-0.001634914593199644,-0.01879978676708736,0.006332997072208428,197276.246509625,-98.48527526855469,-11.35987854003906,-556.0484619140625,197276.247272625,0.9327195093039889,-1.558594951255621,0.3557415230827535,-0.004716966301202774,-0.02580414898693562,0.003142976900562644,-0.006147384643554688,-0.001415371894836426,-0.008414506912231445,1,-0.4234413504600525,0.5612297654151917,-0.2037617713212967,-0.6813220977783203,-0.9373188018798828,-0.3482855558395386,-0.01143714599311352,0,0,0,-1,197274.374738625,1,2,1561914559.212275,1561913957.287787,32,0.8918345,0,0,26.32609,0,0,1561914413.669193,197273.774976,0,2.256592,75.28386,3232235528,177845136,1,1,0.52,-38.7915,-48.18954,4
1561914561.128831,21,0,0,1561914560.999699,4.634765940722669,-74.15114753886512,2553.065,0,21.4453125,4,30,-9999,1561914561.108463,-22.44116973876953,18.17828750610352,7.687744140625,9.561794281005859,17.05526161193848,15,197276.284748625,-0.9472808837890625,-0.3459320068359375,-0.02392578125,197276.267536625,0.01444285522371772,-0.04193227031162463,0.008671252509298,197276.266620625,-98.0322265625,-11.2423095703125,-555.6968383789062,197276.267536625,0.9328373393013133,-1.559548215585718,0.3556719236646979,0.01136080361902714,-0.0489366315305233,0.005481231957674026,-0.00399172306060791,0.0006708800792694092,-0.008972048759460449,1,-0.4235517084598541,0.5615442991256714,-0.2036235183477402,-0.681035578250885,-0.9373534917831421,-0.3482203185558319,-0.01054390054196119,0,0,0,-1,197274.374738625,1,2,1561914559.212275,1561913957.287787,32,0.8918345,0,0,26.32609,0,0,1561914413.669193,197273.774976,0,2.256592,75.28386,3232235528,177845136,1,1,0.52,-38.7915,-48.25679,4
1561914561.154908,22,0,0,1561914560.999699,4.634765940722669,-74.15114753886512,2553.065,0,21.4453125,4,30,-9999,1561914561.135004,-22.18138885498047,18.15010833740234,7.8162841796875,9.539791107177734,17.03325843811035,15,197276.305011625,-0.945281982421875,-0.3494110107421875,-0.0275726318359375,197276.287799625,0.02375140218187169,-0.005788114313178216,0.01005529732781218,197276.286731625,-97.8238525390625,-10.94662475585938,-555.9056396484375,197276.287799625,0.9331417614536652,-1.56028364311116,0.3555150351492266,0.02066935040056705,-0.01279247552156448,0.006865276955068111,-0.009865403175354004,0.002141207456588745,-0.01407063007354736,1,-0.4236674606800079,0.5617635846138,-0.2036243081092834,-0.6807823777198792,-0.9374154806137085,-0.3480732440948486,-0.009855115786194801,0,0,0,-1,197274.374738625,1,2,1561914559.212275,1561913957.287787,32,0.8918345,0,0,26.32609,0,0,1561914413.669193,197273.774976,0,2.256592,75.28386,3232235528,177845136,1,1,0.52,-38.7915,-48.78922,4
1561914561.168947,23,0,0,1561914560.999699,4.634765940722669,-74.15114753886512,2553.065,0,21.4453125,4,30,-9999,1561914561.159152,-22.26227569580078,18.28151702880859,7.956298828125,9.498636245727539,16.99210357666016,15,197276.325275625,-0.9386749267578125,-0.3497467041015625,-0.0233917236328125,197276.308063625,0.03360243505407479,0.01787060986275871,-0.01187849741008043,197276.306842625,-98.03121948242188,-11.2010498046875,-555.6307373046875,197276.308063625,0.9337066479707646,-1.560477157017445,0.3555855781722271,0.03052038326859474,0.01086624898016453,-0.01506851706653833,-0.007889151573181152,-0.001271635293960571,-0.01789915561676025,1,-0.4238658845424652,0.5616947412490845,-0.2037517726421356,-0.6806775331497192,-0.9373928308486938,-0.3481393754482269,-0.009673459455370903,0,0,0,-1,197274.374738625,1,2,1561914559.212275,1561913957.287787,32,0.8918345,0,0,26.32609,0,0,1561914413.669193,197273.774976,0,2.256592,75.28386,3232235528,177845136,1,1,0.52,-38.7915,-48.78922,4
1561914561.189411,24,0,0,1561914560.999699,4.634765940722669,-74.15114753886512,2553.065,0,21.4453125,4,30,-9999,1561914561.185684,-22.12694549560547,18.21148490905762,7.84100341796875,9.459115982055664,16.95258331298828,15,197276.345539625,-0.9372100830078125,-0.3456268310546875,-0.0165252685546875,197276.328327625,0.02836213297712587,0.01184041420649229,-0.01180446153177622,197276.326954625,-98.04780578613281,-11.25563049316406,-555.838623046875,197276.328327625,0.9342788889203189,-1.560414909555453,0.3559216693168887,0.0252862349152565,0.004842128604650497,-0.01499527506530285,-0.001399755477905273,-0.001292288303375244,-0.01366114616394043,1,-0.424115777015686,0.5614806413650513,-0.2038463205099106,-0.6806702017784119,-0.9372751712799072,-0.3484544157981873,-0.009730594232678413,0,0,0,-1,197274.374738625,1,2,1561914559.212275,1561913957.287787,32,0.8918345,0,0,26.32609,0,0,1561914413.669193,197273.774976,0,2.256592,75.28386,3232235528,177845136,1,1,0.52,-38.7915,-48.88844,4
1561914561.209646,25,0,0,1561914560.999699,4.634765940722669,-74.15114753886512,2553.065,0,21.4453125,4,30,-9999,1561914561.185684,-22.12694549560547,18.21148490905762,7.84100341796875,9.459115982055664,16.95258331298828,15,197276.365802625,-0.937744140625,-0.3460235595703125,-0.01214599609375,197276.348590625,0.04531208805104419,-0.01980140165306616,-0.01350861831331793,197276.347065625,-98.36479187011719,-11.17196655273438,-555.8502197265625,197276.348590625,0.9349760251039432,-1.560856512375723,0.3562657959419073,0.04223619028925896,-0.02679968625307083,-0.01669943146407604,-5.072355270385742e-05,0.003150105476379395,-0.00720977783203125,1,-0.4244543015956879,0.5614096522331238,-0.2038737386465073,-0.6805094480514526,-0.9371592998504639,-0.3487769663333893,-0.009315496310591698,0,0,0,-1,197274.374738625,1,2,1561914559.212275,1561913957.287787,32,0.8918345,0,0,26.32609,0,0,1561914413.669193,197273.774976,0,2.256592,75.28386,3232235528,177845136,1,1,0.52,-38.7915,-43.45361,4
1561914561.236768,26,0,0,1561914560.999699,4.634765940722669,-74.15114753886512,2553.065,0,21.4453125,4,30,-9999,1561914561.210013,-22.39700317382812,18.27346420288086,7.85638427734375,9.392200469970703,16.88566780090332,15,197276.386066625,-0.9371337890625,-0.3451385498046875,-0.0114288330078125,197276.368824625,0.05038221413433704,-0.0262390609561147,-0.004447479020432328,197276.367145625,-98.01722717285156,-11.00588989257812,-555.9635009765625,197276.368824625,0.9359772360462659,-1.561827712432712,0.3564722041116052,0.04730631783604622,-0.03323734551668167,-0.007638292387127876,-0.0006480216979980469,0.002946823835372925,-0.003741323947906494,1,-0.42489293217659,0.5614834427833557,-0.2039384692907333,-0.6801555156707764,-0.9370961785316467,-0.3489703834056854,-0.008404679596424103,0,0,0,-1,197274.374738625,1,2,1561914559.212275,1561913957.287787,32,0.8918345,0,0,26.32609,0,0,1561914413.669193,197273.774976,0,2.256592,75.28386,3232235528,177845136,1,1,0.52,-30.46239,-32.93507,4
1561914561.249968,27,0,0,1561914560.999699,4.634765940722669,-74.15114753886512,2553.065,0,21.4453125,4,30,-9999,1561914561.236741,-22.33351898193359,18.28171157836914,7.60418701171875,9.332756042480469,16.82622337341309,15,197276.406330625,-0.939208984375,-0.3408660888671875,-0.0121307373046875,197276.389087625,0.03384238586829093,0.01606365506313995,-0.013410081352985,197276.387256625,-98.06126403808594,-11.10305786132812,-555.8743286132812,197276.389087625,0.9368591201991358,-1.562397666210505,0.3567351768120403,0.03076648712158203,0.009065369144082069,-0.01660089381039143,-0.000124812126159668,0.004078269004821777,-0.00355905294418335,1,-0.4252732396125793,0.5614336729049683,-0.2040284126996994,-0.6799318790435791,-0.9370089769363403,-0.3492168188095093,-0.007869805209338665,0,0,0,-1,197274.374738625,1,2,1561914559.212275,1561913957.287787,32,0.8918345,0,0,26.32609,0,0,1561914413.669193,197273.774976,0,2.256592,75.28386,3232235528,177845136,1,1,0.52,-26.15931,-32.94753,4
1561914561.270138,28,0,0,1561914560.999699,4.634765940722669,-74.15114753886512,2553.065,0,21.4453125,4,30,-9999,1561914561.260477,-22.56006622314453,18.33703231811523,7.681396484375,9.297151565551758,16.79061889648438,15,197276.426593625,-0.9297332763671875,-0.343902587890625,-0.0095672607421875,197276.409351625,0.02734320754406155,0.04027951253912145,-0.02063443844204295,197276.407367625,-98.36465454101562,-11.24665832519531,-555.9622802734375,197276.409351625,0.9373679673538997,-1.562042253421196,0.3571075427933006,0.02426731027662754,0.03328122571110725,-0.02382525242865086,-0.002332925796508789,0.008699595928192139,-0.003929078578948975,1,-0.4254853427410126,0.5611250996589661,-0.2041513174772263,-0.6800170540809631,-0.9368760585784912,-0.349565714597702,-0.008201691322028637,0,0,0,-1,197274.374738625,1,2,1561914559.212275,1561913957.287787,32,0.8918345,0,0,26.32609,0,0,1561914413.669193,197273.774976,0,2.256592,75.28386,3232235528,177845136,1,1,0.52,-23.0252,-31.26633,4
1561914561.290531,29,0,0,1561914560.999699,4.634765940722669,-74.15114753886512,2553.065,0,21.4453125,4,30,-9999,1561914561.287142,-22.54657745361328,18.41342163085938,7.5634765625,9.247276306152344,16.74074363708496,15,197276.446857625,-0.92041015625,-0.3432159423828125,-0.0065155029296875,197276.429615625,0.03634921940238251,0.02826519391344699,-0.02583932047649381,197276.427478625,-98.29515075683594,-10.91328430175781,-555.9754638671875,197276.429615625,0.9379408812326294,-1.561671724623374,0.3576751780559981,0.03327332064509392,0.02126690745353699,-0.02903013303875923,0.006940960884094238,0.006194919347763062,-0.001020312309265137,1,-0.4257691502571106,0.5607558488845825,-0.2042333781719208,-0.6801192760467529,-0.9366742968559265,-0.3500974774360657,-0.008547017350792885,0,0,0,-1,197274.374738625,1,2,1561914559.212275,1561913957.287787,32,0.8918345,0,0,26.32609,0,0,1561914413.669193,197273.774976,0,2.256592,75.28386,3232235528,177845136,1,1,0.52,-23.0252,-30.71334,4
1561914561.316929,30,0,0,1561914560.999699,4.634765940722669,-74.15114753886512,2553.065,0,21.4453125,4,30,-9999,1561914561.311218,-22.50418853759766,18.3460807800293,7.72027587890625,9.169279098510742,16.66274642944336,15,197276.467140125,-0.918426513671875,-0.338409423828125,-0.000274658203125,197276.449878625,0.05032255932591927,0.009413475505103084,0.0003584614827246654,197276.447609125,-98.41273498535156,-11.19448852539062,-555.9234619140625,197276.449878625,0.9388203036244179,-1.561775566323386,0.3579915653166875,0.04724666103720665,0.002415189519524574,-0.002832351950928569,0.01615428924560547,0.007177919149398804,0.00193321704864502,1,-0.4261159300804138,0.5605362057685852,-0.2044035345315933,-0.6800320744514465,-0.9365643858909607,-0.3503938317298889,-0.008448752574622631,0,0,0,-1,197274.374738625,1,2,1561914559.212275,1561913957.287787,32,0.8918345,0,0,26.32609,0,0,1561914413.669193,197273.774976,0,2.256592,75.28386,3232235528,177845136,1,1,0.52,-23.0252,-31.28555,4
1561914561.331015,31,0,0,1561914560.999699,4.634765940722669,-74.15114753886512,2553.065,0,21.4453125,4,30,-9999,1561914561.311218,-22.50418853759766,18.3460807800293,7.72027587890625,9.169279098510742,16.66274642944336,15,197276.487403125,-0.9169464111328125,-0.339019775390625,0.0046539306640625,197276.470161125,0.05784572308928411,-0.01102016059074789,0.01321806743839028,197276.467689125,-98.25119018554688,-11.01425170898438,-556.01416015625,197276.470161125,0.9399650550449401,-1.562300410639597,0.3579038437985161,0.05476982519030571,-0.0180184468626976,0.01002725400030613,0.0181729793548584,0.01190224289894104,0.00768280029296875,1,-0.4264655709266663,0.5604894161224365,-0.2047104388475418,-0.67975914478302,-0.9365994930267334,-0.350311666727066,-0.007957462221384048,0,0,0,-1,197274.374738625,1,2,1561914559.212275,1561913957.287787,32,0.8918345,0,0,26.32609,0,0,1561914413.669193,197273.774976,0,2.256592,75.28386,3232235528,177845136,1,1,0.52,-23.0252,-31.28555,4
1561914561.35123,32,0,0,1561914560.999699,4.634765940722669,-74.15114753886512,2553.065,0,21.4453125,4,30,-9999,1561914561.338438,-22.28284454345703,18.22546005249023,7.61053466796875,9.090236663818359,16.58370399475098,15,197276.507637125,-0.9188385009765625,-0.3368377685546875,0.005706787109375,197276.490425125,0.05141631958561482,-0.0342953895697134,0.01543568167809926,197276.487800125,-98.03909301757812,-11.44190979003906,-555.763427734375,197276.490425125,0.9410951226526015,-1.563300256739273,0.3576500533155028,0.04834042116999626,-0.0412936732172966,0.0122448680922389,0.01974952220916748,0.01105415821075439,0.01167559623718262,1,-0.4268128871917725,0.560642421245575,-0.2049667835235596,-0.6793376207351685,-0.93669593334198,-0.3500739634037018,-0.007021669764071703,0,0,0,-1,197274.374738625,1,2,1561914559.212275,1561913957.287787,32,0.8918345,0,0,26.32609,0,0,1561914413.669193,197273.774976,0,2.256592,75.28386,3232235528,177845136,1,1,0.52,-23.0252,-32.01247,4
1561914561.371554,33,0,0,1561914560.999699,4.634765940722669,-74.15114753886512,2553.065,0,21.4453125,4,30,-9999,1561914561.368029,-22.238037109375,18.1143913269043,7.84136962890625,9.041803359985352,16.53527069091797,15,197276.527900125,-0.925933837890625,-0.3348541259765625,0.004730224609375,197276.510688125,0.03078507693687996,-0.001370462696954776,0.02943219110311971,197276.507911125,-98.00733947753906,-11.36488342285156,-555.9855346679688,197276.510688125,0.9419579605255187,-1.564186027703461,0.3572589680572297,0.02770917862653732,-0.008368748240172863,0.02624137699604034,0.01799988746643066,0.01286983489990234,0.01189970970153809,1,-0.4270350933074951,0.560842752456665,-0.2052026987075806,-0.6789611577987671,-0.9368383884429932,-0.3497076034545898,-0.006192872300744057,0,0,0,-1,197274.374738625,1,2,1561914559.212275,1561913957.287787,32,0.8918345,0,0,26.32609,0,0,1561914413.669193,197273.774976,0,2.256592,75.28386,3232235528,177845136,1,1,0.52,-23.0252,-33.03093,4
1561914561.391805,34,0,0,1561914560.999699,4.634765940722669,-74.15114753886512,2553.065,0,21.4453125,4,30,-9999,1561914561.388202,-22.25450897216797,18.27219581604004,7.68475341796875,9.032611846923828,16.52607917785645,15,197276.548164125,-0.926422119140625,-0.338653564453125,0.005889892578125,197276.530952125,0.005799565905865557,0.03891331089991081,0.03309377128586966,197276.528022125,-98.01828002929688,-11.12728881835938,-555.896240234375,197276.530952125,0.9422893403201149,-1.563985374129232,0.356648215460656,0.002723668003454804,0.03191502392292023,0.02990295924246311,0.01111674308776855,0.01428121328353882,0.01111257076263428,1,-0.4269347488880157,0.5608347058296204,-0.2055642157793045,-0.6789215803146362,-0.9370505809783936,-0.3491353392601013,-0.006382305640727282,0,0,0,-1,197274.374738625,1,2,1561914559.212275,1561913957.287787,32,0.8918345,0,0,26.32609,0,0,1561914413.669193,197273.774976,0,2.256592,75.28386,3232235528,177845136,1,1,0.52,-19.60476,-25.60807,4
1561914561.412167,35,0,0,1561914560.999699,4.634765940722669,-74.15114753886512,2553.065,0,21.4453125,4,30,-9999,1561914561.388202,-22.25450897216797,18.27219581604004,7.68475341796875,9.032611846923828,16.52607917785645,15,197276.568428125,-0.925048828125,-0.3371429443359375,0.0058746337890625,197276.551216125,0.01158634863849873,0.003500991569018167,0.02290584853577153,197276.548133125,-98.0518798828125,-11.34873962402344,-555.834228515625,197276.551216125,0.9423812764868497,-1.56369705290353,0.3561351319789046,0.008510450832545757,-0.003497294150292873,0.01971503533422947,0.01080560684204102,0.01000091433525085,0.01254367828369141,1,-0.426785796880722,0.5608270764350891,-0.2058301270008087,-0.6789409518241882,-0.9372276663780212,-0.3486544787883759,-0.006653747987002134,0,0,0,-1,197274.374738625,1,2,1561914559.212275,1561913957.287787,32,0.8918345,0,0,26.32609,0,0,1561914413.669193,197273.774976,0,2.256592,75.28386,3232235528,177845136,1,1,0.52,-19.00931,-24.64815,4
1561914561.432347,36,0,0,1561914560.999699,4.634765940722669,-74.15114753886512,2553.065,0,21.4453125,4,30,-9999,1561914561.412342,-22.08007049560547,18.07230758666992,7.67132568359375,9.025400161743164,16.51886749267578,15,197276.588691125,-0.9266510009765625,-0.331085205078125,-0.0006561279296875,197276.571479125,0.007669903939428206,-0.01759923374767964,0.02603133439108852,197276.568214125,-98.03103637695312,-11.23666381835938,-555.8558959960938,197276.571479125,0.9425202916853879,-1.564102484259557,0.3557681820189627,0.004594005644321442,-0.0245975200086832,0.02284052036702633,0.01230931282043457,0.01116764545440674,0.01214921474456787,1,-0.4267627596855164,0.5610135793685913,-0.205914631485939,-0.6787756681442261,-0.9373581409454346,-0.3483105599880219,-0.006274621468037367,0,0,0,-1,197274.374738625,1,2,1561914559.212275,1561913957.287787,32,0.8918345,0,0,26.32609,0,0,1561914413.669193,197273.774976,0,2.256592,75.28386,3232235528,177845136,1,1,0.52,-18.39363,-21.85211,4
1561914561.452587,37,0,0,1561914560.999699,4.634765940722669,-74.15114753886512,2553.065,0,21.4453125,4,30,-9999,1561914561.438982,-22.44183349609375,18.15287017822266,7.59869384765625,9.010448455810547,16.50391578674316,15,197276.608955125,-0.9377288818359375,-0.336090087890625,-0.0018157958984375,197276.591713125,0.01991964600546568,0.009668606337532675,0.05587604914706151,197276.588325125,-98.05165100097656,-11.07437133789062,-555.9642333984375,197276.591713125,0.9427230473649489,-1.564487332927406,0.3549968711420881,0.01684374734759331,0.002670320682227612,0.05268523842096329,0.01097792387008667,0.01650220155715942,0.005259454250335693,1,-0.4266411662101746,0.5612660050392151,-0.2061616629362106,-0.6785684823989868,-0.9376289248466492,-0.3475874364376068,-0.005915573798120022,0,0,0,-1,197274.374738625,1,2,1561914559.212275,1561913957.287787,32,0.8918345,0,0,26.32609,0,0,1561914413.669193,197273.774976,0,2.256592,75.28386,3232235528,177845136,1,1,0.52,-18.39363,-22.3314,4
1561914561.478854,38,0,0,1561914560.999699,4.634765940722669,-74.15114753886512,2553.065,0,21.4453125,4,30,-9999,1561914561.463239,-22.46100616455078,18.39424896240234,7.73175048828125,8.959455490112305,16.45292282104492,15,197276.629219125,-0.93609619140625,-0.344085693359375,0.006134033203125,197276.611976125,0.04481274534665433,0.03861370527727689,0.04362550813269701,197276.608436125,-98.19807434082031,-10.91502380371094,-555.8333129882812,197276.611976125,0.9433623467960252,-1.564258615065478,0.3540157989566744,0.04173684865236282,0.03161542117595673,0.04043469578027725,0.000239253044128418,0.01057726144790649,0.004316449165344238,1,-0.426519513130188,0.5612619519233704,-0.2067583948373795,-0.6784667372703552,-0.9379681348800659,-0.3466673791408539,-0.006132252514362335,0,0,0,-1,197274.374738625,1,2,1561914559.212275,1561913957.287787,32,0.8918345,0,0,26.32609,0,0,1561914413.669193,197273.774976,0,2.256592,75.28386,3232235528,177845136,1,1,0.52,-18.39363,-22.74356,4
1561914561.493151,39,0,0,1561914560.999699,4.634765940722669,-74.15114753886512,2553.065,0,21.4453125,4,30,-9999,1561914561.489327,-22.17121124267578,18.43739891052246,7.60345458984375,8.896373748779297,16.38984107971191,15,197276.649482125,-0.9320526123046875,-0.336761474609375,0.008758544921875,197276.632240125,0.04617681645699292,0.008030229634915927,0.0517148599438127,197276.628547125,-98.24522399902344,-10.97039794921875,-556.1920166015625,197276.632240125,0.9442498789048118,-1.564206024967085,0.3532179773410736,0.04310091957449913,0.001031943596899509,0.04852404817938805,0.002147912979125977,0.001833200454711914,0.01231741905212402,1,-0.4265374541282654,0.5612255334854126,-0.207339808344841,-0.6783081889152527,-0.9382441639900208,-0.3459188938140869,-0.006183401681482792,0,0,0,-1,197274.374738625,1,2,1561914559.212275,1561913957.287787,32,0.8918345,0,0,26.32609,0,0,1561914413.669193,197273.774976,0,2.256592,75.28386,3232235528,177845136,1,1,0.52,-18.39363,-22.74356,4
1561914561.513581,40,0,0,1561914560.999699,4.634765940722669,-74.15114753886512,2553.065,0,21.4453125,4,30,-9999,1561914561.489327,-22.17121124267578,18.43739891052246,7.60345458984375,8.896373748779297,16.38984107971191,15,197276.669746125,-0.9387969970703125,-0.34613037109375,0.01397705078125,197276.652504125,0.04110828827035411,-0.03844565981249289,0.07584309941993059,197276.648658125,-98.04722595214844,-11.02125549316406,-555.996826171875,197276.652504125,0.9451170535531461,-1.564910448162988,0.3520441545826593,0.03803239017724991,-0.04544394463300705,0.07265228033065796,0.006601095199584961,0.008055835962295532,0.01428341865539551,1,-0.4265220165252686,0.5615305304527283,-0.2078795284032822,-0.6779001951217651,-0.9386537075042725,-0.3448173105716705,-0.005524865351617336,0,0,0,-1,197274.374738625,1,2,1561914559.212275,1561913957.287787,32,0.8918345,0,0,26.32609,0,0,1561914413.669193,197273.774976,0,2.256592,75.28386,3232235528,177845136,1,1,0.52,-16.61487,-22.84464,4
1561914561.533689,41,0,0,1561914560.999699,4.634765940722669,-74.15114753886512,2553.065,0,21.4453125,4,30,-9999,1561914561.513866,-22.1033935546875,18.34503555297852,7.6177978515625,8.841325759887695,16.33479309082031,15,197276.690010125,-0.950103759765625,-0.3492584228515625,0.01214599609375,197276.672767125,0.03327619782054008,-0.08296785428421957,0.0623155726628731,197276.668769125,-98.09733581542969,-10.83830261230469,-555.8751831054688,197276.672767125,0.9458462782162496,-1.566596362681365,0.3506667535744411,0.0302002988755703,-0.08996614068746567,0.05912476032972336,0.0003385543823242188,-0.002606332302093506,0.01792144775390625,1,-0.4265129864215851,0.5622406005859375,-0.2082316875457764,-0.6772087812423706,-0.9391356110572815,-0.3435240685939789,-0.003944358788430691,0,0,0,-1,197274.374738625,1,2,1561914559.212275,1561913957.287787,32,0.8918345,0,0,26.32609,0,0,1561914413.669193,197273.774976,0,2.256592,75.28386,3232235528,177845136,1,1,0.52,-16.61487,-21.64192,4
1561914561.565118,42,0,0,1561914560.999699,4.634765940722669,-74.15114753886512,2553.065,0,21.4453125,4,30,-9999,1561914561.547658,-22.21659851074219,18.37509727478027,7.71270751953125,8.817571640014648,16.31103897094727,15,197276.710243125,-0.95361328125,-0.34136962890625,0.0024871826171875,197276.693031125,0.005897303917871465,-0.06351239725675471,0.03475132274833497,197276.688850125,-98.26296997070312,-10.86557006835938,-555.7947998046875,197276.693031125,0.9462237514596581,-1.568533043116268,0.3497429409073858,0.002821406116709113,-0.07051068544387817,0.0315605103969574,-0.01064515113830566,-0.006602108478546143,0.01427227258682251,1,-0.4265598952770233,0.5630128979682922,-0.2082582414150238,-0.6765292286872864,-0.9394586086273193,-0.3426563143730164,-0.002126264851540327,0,0,0,-1,197274.374738625,1,2,1561914559.212275,1561913957.287787,32,0.8918345,0,0,26.32609,0,0,1561914413.669193,197273.774976,0,2.256592,75.28386,3232235528,177845136,1,1,0.52,-16.61487,-22.38084,4
1561914561.574159,43,0,0,1561914560.999699,4.634765940722669,-74.15114753886512,2553.065,0,21.4453125,4,30,-9999,1561914561.547658,-22.21659851074219,18.37509727478027,7.71270751953125,8.817571640014648,16.31103897094727,15,197276.730506125,-0.9506072998046875,-0.334014892578125,-0.007781982421875,197276.713295125,-0.0182668882329625,0.003444532553908487,0.02818556539685362,197276.708961125,-97.64317321777344,-10.70684814453125,-556.1114501953125,197276.713295125,0.9459692235365735,-1.569219730129645,0.3492625313586293,-0.02134278602898121,-0.003553753020241857,0.0249947514384985,-0.01398909091949463,0.0008353590965270996,0.003968596458435059,1,-0.4264241456985474,0.5634019374847412,-0.20818792283535,-0.6763124465942383,-0.9396241903305054,-0.3422049582004547,-0.001481409650295973,0,0,0,-1,197274.374738625,1,2,1561914559.212275,1561913957.287787,32,0.8918345,0,0,26.32609,0,0,1561914413.669193,197273.774976,0,2.256592,75.28386,3232235528,177845136,1,1,0.52,-16.61487,-23.10033,4
1561914561.594489,44,0,0,1561914560.999699,4.634765940722669,-74.15114753886512,2553.065,0,21.4453125,4,30,-9999,1561914561.590874,-21.94770812988281,18.68502807617188,7.63275146484375,8.878391265869141,16.37185859680176,15,197276.750770125,-0.9378662109375,-0.335540771484375,-0.0107879638671875,197276.733558125,-0.02037158444245213,0.03491830294868294,0.03995540583445881,197276.729072125,-97.76298522949219,-10.74737548828125,-556.1868896484375,197276.733558125,0.9454768977996548,-1.568753154602384,0.3486480358752557,-0.02344748191535473,0.02792001888155937,0.03676459565758705,-0.01077383756637573,0.007612615823745728,-0.005861759185791016,1,-0.4260633885860443,0.5634801387786865,-0.2083283513784409,-0.6764313578605652,-0.9398334622383118,-0.3416275084018707,-0.001920244190841913,0,0,0,-1,197274.374738625,1,2,1561914559.212275,1561913957.287787,32,0.8918345,0,0,26.32609,0,0,1561914413.669193,197273.774976,0,2.256592,75.28386,3232235528,177845136,1,1,0.52,-16.61487,-23.6201,4
1561914561.614895,45,0,0,1561914560.999699,4.634765940722669,-74.15114753886512,2553.065,0,21.4453125,4,30,-9999,1561914561.590874,-21.94770812988281,18.68502807617188,7.63275146484375,8.878391265869141,16.37185859680176,15,197276.771034125,-0.9286041259765625,-0.369415283203125,-0.01251220703125,197276.753822125,-0.006808371326787572,-0.002363022835227308,0.09542505659917422,197276.749183125,-98.1700439453125,-10.84181213378906,-555.7074584960938,197276.753822125,0.9451390842804624,-1.568288094839909,0.3475699020158228,-0.00988426897674799,-0.009361308068037033,0.09223423898220062,0.002334237098693848,0.005073249340057373,-0.00842970609664917,1,-0.4256150424480438,0.5636246204376221,-0.2086771130561829,-0.6764858961105347,-0.9402004480361938,-0.3406140208244324,-0.00235824566334486,0,0,0,-1,197274.374738625,1,2,1561914559.212275,1561913957.287787,32,0.8918345,0,0,26.32609,0,0,1561914413.669193,197273.774976,0,2.256592,75.28386,3232235528,177845136,1,1,0.52,-16.61487,-24.42932,4
1561914561.647386,46,0,0,1561914560.999699,4.634765940722669,-74.15114753886512,2553.065,0,21.4453125,4,30,-9999,1561914561.641591,-22.20201110839844,18.50644493103027,7.7159423828125,8.87401008605957,16.36747741699219,15,197276.791297125,-0.9463653564453125,-0.331695556640625,-0.0095367431640625,197276.774086125,-0.01721227644129112,-0.01859472336315126,0.1391211385007583,197276.769294125,-98.03993225097656,-10.900634765625,-556.1346435546875,197276.774086125,0.9448468644437794,-1.568742151303169,0.3445524169329621,-0.02028817310929298,-0.02559300884604454,0.1359303146600723,0.01262068748474121,-0.03163987398147583,-0.01057875156402588,1,-0.4247267842292786,0.5644824504852295,-0.2095001488924026,-0.6760743260383606,-0.9412248134613037,-0.3377754390239716,-0.001933443709276617,0,0,0,-1,197274.374738625,1,2,1561914559.212275,1561913957.287787,32,0.8918345,0,0,26.32609,0,0,1561914413.669193,197273.774976,0,2.256592,75.28386,3232235528,177845136,1,1,0.52,-16.61487,-25.26072,4
1561914561.655451,47,0,0,1561914560.999699,4.634765940722669,-74.15114753886512,2553.065,0,21.4453125,4,30,-9999,1561914561.641591,-22.20201110839844,18.50644493103027,7.7159423828125,8.87401008605957,16.36747741699219,15,197276.811561125,-0.9487457275390625,-0.3235321044921875,-0.0113372802734375,197276.794319125,0.05107756549495673,-0.07088695663129313,0.1272578211088914,197276.789405125,-97.66557312011719,-10.82911682128906,-555.7095336914062,197276.794319125,0.9451596562074818,-1.569903611963829,0.3419069073300463,0.04800166562199593,-0.07788524031639099,0.1240670084953308,-0.004248857498168945,0.003588706254959106,-0.008695662021636963,1,-0.424188494682312,0.5653703212738037,-0.2102520614862442,-0.6754364967346191,-0.9421164989471436,-0.3352842330932617,-0.0008410416194237769,0,0,0,-1,197274.374738625,1,2,1561914559.212275,1561913957.287787,32,0.8918345,0,0,26.32609,0,0,1561914413.669193,197273.774976,0,2.256592,75.28386,3232235528,177845136,1,1,0.52,-16.61487,-25.26072,4
1561914561.675493,48,0,0,1561914560.999699,4.634765940722669,-74.15114753886512,2553.065,0,21.4453125,4,30,-9999,1561914561.665903,-21.87661743164062,18.67782211303711,7.85809326171875,8.798255920410156,16.29172325134277,15,197276.831825125,-0.946441650390625,-0.33526611328125,-0.009796142578125,197276.814582125,0.05062296389688021,-0.01006515102384547,0.1019111854340622,197276.809486125,-97.80599975585938,-10.76992797851562,-556.0548095703125,197276.814582125,0.9463454621649812,-1.571415429074315,0.3397808592312725,0.04754706472158432,-0.01706343702971935,0.09872037172317505,-0.005918264389038086,0.009748399257659912,-0.01192092895507812,1,-0.4240816533565521,0.5660800337791443,-0.2110492140054703,-0.6746601462364197,-0.9428274631500244,-0.333280473947525,0.0005837067146785557,0,0,0,-1,197274.374738625,1,2,1561914559.212275,1561913957.287787,32,0.8918345,0,0,26.32609,0,0,1561914413.669193,197273.774976,0,2.256592,75.28386,3232235528,177845136,1,1,0.52,-16.61487,-26.31099,4
1561914561.697392,49,0,0,1561914560.999699,4.634765940722669,-74.15114753886512,2553.065,0,21.4453125,4,30,-9999,1561914561.692655,-21.71129608154297,18.75449752807617,7.71923828125,8.757680892944336,16.25114822387695,15,197276.852088125,-0.941925048828125,-0.3239288330078125,0.001220703125,197276.834846125,0.0300098307435579,0.03343545485372682,0.09628019762519867,197276.829597125,-97.755859375,-10.72958374023438,-556.0036010742188,197276.834846125,0.9470620519673221,-1.5713801606945,0.3377059369959726,0.02693393267691135,0.02643717080354691,0.09308937937021255,-0.002924740314483643,-0.003942608833312988,-0.01034700870513916,1,-0.4236938059329987,0.5663558840751648,-0.2119984924793243,-0.6743745803833008,-0.9435169100761414,-0.3313234746456146,0.0005508572212420404,0,0,0,-1,197274.374738625,1,2,1561914559.212275,1561913957.287787,32,0.8918345,0,0,26.32609,0,0,1561914413.669193,197273.774976,0,2.256592,75.28386,3232235528,177845136,1,1,0.52,-16.61487,-27.33637,4
1561914561.727334,50,0,0,1561914560.999699,4.634765940722669,-74.15114753886512,2553.065,0,21.4453125,4,30,-9999,1561914561.716757,-21.93453979492188,18.93719100952148,7.63543701171875,8.741128921508789,16.23459625244141,15,197276.872352125,-0.935638427734375,-0.3273773193359375,0.0002899169921875,197276.855110125,0.02464702325646533,0.03121171534351065,0.05226027533506093,197276.849708125,-97.78517150878906,-10.63188171386719,-555.99072265625,197276.855110125,0.9475937780659847,-1.570973052014782,0.3364779435695099,0.02157112583518028,0.02421342954039574,0.04906946420669556,0.001998424530029297,0.006235778331756592,0.001053929328918457,1,-0.4234535098075867,0.5663660764694214,-0.2126782089471817,-0.6743031144142151,-0.9439234733581543,-0.3301645815372467,0.0001668150944169611,0,0,0,-1,197274.374738625,1,2,1561914559.212275,1561913957.287787,32,0.8918345,0,0,26.32609,0,0,1561914413.669193,197273.774976,0,2.256592,75.28386,3232235528,177845136,1,1,0.52,-16.61487,-28.39696,4
1561914561.736248,51,0,0,1561914560.999699,4.634765940722669,-74.15114753886512,2553.065,0,21.4453125,4,30,-9999,1561914561.716757,-21.93453979492188,18.93719100952148,7.63543701171875,8.741128921508789,16.23459625244141,15,197276.892616125,-0.9302978515625,-0.321014404296875,-0.0007171630859375,197276.875373125,-0.008206530899079172,0.03414785044532302,0.06317364316609664,197276.869819125,-97.60386657714844,-10.21517944335938,-555.95654296875,197276.875373125,0.9477097550789437,-1.570527207425621,0.3352929074502543,-0.01128242816776037,0.02714956551790237,0.05998283252120018,0.008675575256347656,0.001668453216552734,0.0005440711975097656,1,-0.4231032729148865,0.5664420127868652,-0.2132111787796021,-0.6742908358573914,-0.9443140029907227,-0.3290457725524902,-0.0002541331923566759,0,0,0,-1,197274.374738625,1,2,1561914559.212275,1561913957.287787,32,0.8918345,0,0,26.32609,0,0,1561914413.669193,197273.774976,0,2.256592,75.28386,3232235528,177845136,1,1,0.52,-16.61487,-29.45854,4
1561914561.756521,52,0,0,1561914560.999699,4.634765940722669,-74.15114753886512,2553.065,0,21.4453125,4,30,-9999,1561914561.742825,-22.05647277832031,18.82826232910156,7.84100341796875,8.762693405151367,16.25616073608398,15,197276.912880125,-0.930877685546875,-0.317169189453125,-0.001556396484375,197276.895637125,-0.0009781790683861041,0.01121164187312458,0.0707748375494008,197276.889900125,-97.57962036132812,-10.48136901855469,-555.8563232421875,197276.895637125,0.9473782910451507,-1.570031732872584,0.333967922095777,-0.004054076969623566,0.004213356412947178,0.06758402287960052,0.01445102691650391,0.006779879331588745,5.125999450683594e-06,1,-0.4225809574127197,0.5666252374649048,-0.2136507034301758,-0.6743252873420715,-0.9447488784790039,-0.3277942836284637,-0.0007223493885248899,0,0,0,-1,197274.374738625,1,2,1561914559.212275,1561913957.287787,32,0.8918345,0,0,26.32609,0,0,1561914413.669193,197273.774976,0,2.256592,75.28386,3232235528,177845136,1,1,0.52,-16.61487,-30.47853,4
1561914561.777308,53,0,0,1561914560.999699,4.634765940722669,-74.15114753886512,2553.065,0,21.4453125,4,30,-9999,1561914561.767022,-22.00318908691406,19.01189804077148,7.58770751953125,8.736549377441406,16.23001670837402,15,197276.933113125,-0.9384765625,-0.32257080078125,0.00030517578125,197276.915901125,0.02906866961432389,-0.01799764264675549,0.0714709878583475,197276.910011125,-97.85551452636719,-10.43965148925781,-555.6514892578125,197276.915901125,0.9476393284131737,-1.570344894884595,0.3326655053156141,0.02599277161061764,-0.02499592863023281,0.0682801753282547,0.01429754495620728,0.009394377470016479,-0.001129746437072754,1,-0.4223190546035767,0.5669508576393127,-0.2141113728284836,-0.6740695238113403,-0.9451752305030823,-0.3265635669231415,-0.0004266822943463922,0,0,0,-1,197274.374738625,1,2,1561914559.212275,1561913957.287787,32,0.8918345,0,0,26.32609,0,0,1561914413.669193,197273.774976,0,2.256592,75.28386,3232235528,177845136,1,1,0.52,-16.61487,-31.53332,4
1561914561.80746,54,0,0,1561914560.999699,4.634765940722669,-74.15114753886512,2553.065,0,21.4453125,4,30,-9999,1561914561.793537,-21.93207550048828,19.04486083984375,7.78570556640625,8.703424453735352,16.19689178466797,15,197276.953376125,-0.9381103515625,-0.325469970703125,0.0028533935546875,197276.936164125,0.0257213424402033,-0.01986398593868302,0.06373530383999435,197276.930122125,-97.8895263671875,-10.36936950683594,-555.8319091796875,197276.936164125,0.948228557910787,-1.571069196676061,0.3313672171058448,0.02264544367790222,-0.02686227113008499,0.06054449453949928,0.007121801376342773,0.002765417098999023,4.720687866210938e-05,1,-0.4221955835819244,0.567344605922699,-0.214594379067421,-0.6736618280410767,-0.9455984234809875,-0.3253361582756042,0.0002580253349151462,0,0,0,-1,197274.374738625,1,2,1561914559.212275,1561913957.287787,32,0.8918345,0,0,26.32609,0,0,1561914413.669193,197273.774976,0,2.256592,75.28386,3232235528,177845136,1,1,0.52,-16.61487,-32.57559,4
1561914561.817274,55,0,0,1561914560.999699,4.634765940722669,-74.15114753886512,2553.065,0,21.4453125,4,30,-9999,1561914561.793537,-21.93207550048828,19.04486083984375,7.78570556640625,8.703424453735352,16.19689178466797,15,197276.973640125,-0.934814453125,-0.3243865966796875,0.0054779052734375,197276.956428125,-0.00201255083577288,-0.01447268262792661,0.07062064052228521,197276.950233125,-97.8277587890625,-10.50566101074219,-555.8815307617188,197276.956428125,0.948513892092076,-1.5717102443077,0.3301143958091097,-0.005088448524475098,-0.02147096768021584,0.06742982566356659,0.007894515991210938,-0.001318752765655518,0.001988887786865234,1,-0.4219901263713837,0.5677645802497864,-0.2149772644042969,-0.6733145713806152,-0.9460048675537109,-0.3241512477397919,0.0008645706693641841,0,0,0,-1,197274.374738625,1,2,1561914559.212275,1561913957.287787,32,0.8918345,0,0,26.32609,0,0,1561914413.669193,197273.774976,0,2.256592,75.28386,3232235528,177845136,1,1,0.52,-16.61487,-32.57559,4
1561914561.837625,56,0,0,1561914560.999699,4.634765940722669,-74.15114753886512,2553.065,0,21.4453125,4,30,-9999,1561914561.818476,-21.78694915771484,18.97449111938477,7.84661865234375,8.727720260620117,16.22118759155273,15,197276.993904125,-0.93609619140625,-0.3153839111328125,0.0067596435546875,197276.976692125,-0.03457102674253661,0.003981159513559453,0.08449091611163589,197276.970314125,-97.41253662109375,-10.34492492675781,-555.695068359375,197276.976692125,0.9479854405431165,-1.571717560078104,0.3285457117055159,-0.03764692321419716,-0.003017126116901636,0.08130010217428207,0.01169770956039429,-0.001719743013381958,0.004606008529663086,1,-0.4213958382606506,0.5682090520858765,-0.2153262943029404,-0.673200249671936,-0.9465121626853943,-0.3226668536663055,0.0008719587349332869,0,0,0,-1,197274.374738625,1,2,1561914559.212275,1561913957.287787,32,0.8918345,0,0,26.32609,0,0,1561914413.669193,197273.774976,0,2.256592,75.28386,3232235528,177845136,1,1,0.52,-16.61487,-33.58536,4
1561914561.858578,57,0,0,1561914560.999699,4.634765940722669,-74.15114753886512,2553.065,0,21.4453125,4,30,-9999,1561914561.844359,-21.90077209472656,18.96782302856445,7.7484130859375,8.773754119873047,16.26722145080566,15,197277.014167125,-0.930877685546875,-0.3106536865234375,0.002410888671875,197276.996955125,-0.0143714825065036,-0.0171339795052428,0.06452386583876681,197276.990425125,-97.81919860839844,-10.39859008789062,-556.032958984375,197276.996955125,0.947365882699689,-1.571781487525314,0.3271273224442275,-0.01744738034904003,-0.024132264778018,0.0613330565392971,0.01087278127670288,0.005940109491348267,0.005826711654663086,1,-0.4208239316940308,0.5686595439910889,-0.2155821025371552,-0.6730958223342896,-0.9469689130783081,-0.3213240206241608,0.0009329169406555593,0,0,0,-1,197274.374738625,1,2,1561914559.212275,1561913957.287787,32,0.8918345,0,0,26.32609,0,0,1561914413.669193,197273.774976,0,2.256592,75.28386,3232235528,177845136,1,1,0.52,-16.61487,-34.44713,4
1561914561.896692,58,0,0,1561914560.999699,4.634765940722669,-74.15114753886512,2553.065,0,21.4453125,4,30,-9999,1561914561.844359,-21.90077209472656,18.96782302856445,7.7484130859375,8.773754119873047,16.26722145080566,15,197277.034431125,-0.929931640625,-0.3083038330078125,0.0021209716796875,197277.017189125,-0.0110308132351082,0.004664526649273785,0.08159978843224587,197277.010536125,-97.25782775878906,-10.38714599609375,-555.739990234375,197277.017189125,0.9471048993372772,-1.57206105120842,0.3257438675219534,-0.01410671044141054,-0.002333758864551783,0.07840897142887115,0.01653438806533813,0.009359955787658691,0.001212596893310547,1,-0.4203869104385376,0.5690992474555969,-0.2159014344215393,-0.6728947758674622,-0.9474120736122131,-0.3200136125087738,0.001198215875774622,0,0,0,-1,197274.374738625,1,2,1561914559.212275,1561913957.287787,32,0.8918345,0,0,26.32609,0,0,1561914413.669193,197273.774976,0,2.256592,75.28386,3232235528,177845136,1,1,0.52,-16.61487,-36.0536,4
1561914561.899192,59,0,0,1561914560.999699,4.634765940722669,-74.15114753886512,2553.065,0,21.4453125,4,30,-9999,1561914561.844359,-21.90077209472656,18.96782302856445,7.7484130859375,8.773754119873047,16.26722145080566,15,197277.054695125,-0.9281463623046875,-0.314666748046875,0.0054473876953125,197277.037452125,0.01515019080924277,0.02724227373874755,0.09123936631389669,197277.030616125,-97.47488403320312,-10.41535949707031,-555.8949584960938,197277.037452125,0.9469909800070726,-1.571802758990481,0.3240703941879554,0.01207429263740778,0.02024398744106293,0.0880485475063324,0.01801496744155884,0.01012390851974487,0.001166939735412598,1,-0.4198508858680725,0.5693876147270203,-0.2164809107780457,-0.6727993488311768,-0.9479466080665588,-0.318427711725235,0.0009540443425066769,0,0,0,-1,197274.374738625,1,2,1561914559.212275,1561913957.287787,32,0.8918345,0,0,26.32609,0,0,1561914413.669193,197273.774976,0,2.256592,75.28386,3232235528,177845136,1,1,0.52,-16.61487,-36.0536,4
1561914561.918858,60,0,0,1561914560.999699,4.634765940722669,-74.15114753886512,2553.065,0,21.4453125,4,30,-9999,1561914561.900879,-21.66677093505859,18.98049163818359,7.777587890625,8.793760299682617,16.28722763061523,15,197277.074958125,-0.9355926513671875,-0.3128662109375,0.0133209228515625,197277.057716125,0.03754950610568122,0.02572693507849247,0.1082058329865735,197277.050727125,-97.43251037597656,-10.25654602050781,-555.8198852539062,197277.057716125,0.9475833308761176,-1.571645604915669,0.3221673079448737,0.03447360917925835,0.01872864924371243,0.1050150170922279,0.0204046368598938,0.001956343650817871,0.00464177131652832,1,-0.4194612205028534,0.5696095824241638,-0.2173537015914917,-0.6725730299949646,-0.9485509991645813,-0.3166230916976929,0.0008055837824940681,0,0,0,-1,197274.374738625,1,2,1561914559.212275,1561913957.287787,32,0.8918345,0,0,26.32609,0,0,1561914413.669193,197273.774976,0,2.256592,75.28386,3232235528,177845136,1,1,0.52,-16.61487,-36.96801,4
1561914561.957364,61,0,0,1561914560.999699,4.634765940722669,-74.15114753886512,2553.065,0,21.4453125,4,30,-9999,1561914561.947667,-21.88995361328125,19.36103248596191,7.87335205078125,8.738790512084961,16.23225784301758,15,197277.095222125,-0.9375457763671875,-0.3115997314453125,0.01593017578125,197277.077980125,0.01955532556834284,-8.735168375459901e-05,0.08230765664998893,197277.070838125,-97.51414489746094,-10.10044860839844,-555.9288330078125,197277.077980125,0.9481122034564636,-1.571621772447467,0.3202335466352053,0.01647942699491978,-0.00708563718944788,0.07911684364080429,0.01356899738311768,0.001922041177749634,0.01253747940063477,1,-0.4190589189529419,0.5698959231376648,-0.2181871682405472,-0.6723114252090454,-0.9491616487503052,-0.3147882521152496,0.0007834815187379718,0,0,0,-1,197274.374738625,1,2,1561914559.212275,1561913957.287787,32,0.8918345,0,0,26.32609,0,0,1561914413.669193,197273.774976,0,2.256592,75.28386,3232235528,177845136,1,1,0.52,-16.61487,-37.94221,4
1561914561.959415,62,0,0,1561914560.999699,4.634765940722669,-74.15114753886512,2553.065,0,21.4453125,4,30,-9999,1561914561.947667,-21.88995361328125,19.36103248596191,7.87335205078125,8.738790512084961,16.23225784301758,15,197277.115486125,-0.9385223388671875,-0.3098907470703125,0.0106353759765625,197277.098243125,-0.0213923740882795,-0.00516813041140777,0.07334851642685337,197277.090950125,-97.37931823730469,-10.14091491699219,-555.689208984375,197277.098243125,0.9480568750863296,-1.571865791585853,0.3188120453689135,-0.02446827106177807,-0.01216641627252102,0.07015769928693771,0.01206231117248535,0.001838922500610352,0.01491463184356689,1,-0.4186650216579437,0.5702871084213257,-0.2185956388711929,-0.6720924973487854,-0.9496080875396729,-0.3134386837482452,0.001015572808682919,0,0,0,-1,197274.374738625,1,2,1561914559.212275,1561913957.287787,32,0.8918345,0,0,26.32609,0,0,1561914413.669193,197273.774976,0,2.256592,75.28386,3232235528,177845136,1,1,0.52,-16.61487,-37.94221,4
1561914561.979362,63,0,0,1561914560.999699,4.634765940722669,-74.15114753886512,2553.065,0,21.4453125,4,30,-9999,1561914561.969887,-21.43588256835938,19.21744537353516,7.8385009765625,8.802169799804688,16.2956371307373,15,197277.135719125,-0.9358062744140625,-0.3062286376953125,0.0042724609375,197277.118507125,-0.03849785776985844,-0.003128947964734097,0.08008258555922773,197277.111061125,-97.33309936523438,-9.89642333984375,-555.8172607421875,197277.118507125,0.9472229264753571,-1.571731653621048,0.3172610986643353,-0.04157375544309616,-0.01012723334133625,0.07689177244901657,0.01157057285308838,0.00207480788230896,0.009746789932250977,1,-0.4179706275463104,0.5707406401634216,-0.2188650369644165,-0.6720518469810486,-0.9500929117202759,-0.3119655251502991,0.0008886476280167699,0,0,0,-1,197274.374738625,1,2,1561914559.212275,1561913957.287787,32,0.8918345,0,0,26.32609,0,0,1561914413.669193,197273.774976,0,2.256592,75.28386,3232235528,177845136,1,1,0.52,-16.61487,-38.86417,4
1561914561.999673,64,0,0,1561914560.999699,4.634765940722669,-74.15114753886512,2553.065,0,21.4453125,4,30,-9999,1561914561.996146,-21.44464111328125,19.06143951416016,7.9400634765625,8.848348617553711,16.34181594848633,15,197277.155983125,-0.939208984375,-0.30352783203125,-0.001678466796875,197277.138771125,-0.02518578074498836,-0.02063390580982493,0.08950671370869114,197277.131172125,-97.31205749511719,-10.14083862304688,-555.6549072265625,197277.138771125,0.9464879787652875,-1.571944451382578,0.3156886982598756,-0.02826167829334736,-0.02763219177722931,0.08631590008735657,0.01477599143981934,0.004242569208145142,0.003181099891662598,1,-0.4173356592655182,0.571293830871582,-0.2191024720668793,-0.6718991994857788,-0.9505822658538818,-0.3104712069034576,0.001091387355700135,0,0,0,-1,197274.374738625,1,2,1561914559.212275,1561913957.287787,32,0.8918345,0,0,26.32609,0,0,1561914413.669193,197274.72104,0,2.256592,75.28386,3232235528,177845136,1,1,0.52,-16.61487,-39.69614,4
1561914562.041029,65,0,0,1561914560.999699,4.634765940722669,-74.15114753886512,2553.065,0,21.4453125,4,30,-9999,1561914562.020695,-21.64330291748047,19.3623046875,7.87518310546875,8.886981964111328,16.38044929504395,15,197277.176246125,-0.9528045654296875,-0.304901123046875,-0.0035247802734375,197277.159034125,-0.02696663656592435,0.02281956211645296,0.1225605375782096,197277.151283125,-97.31976318359375,-10.15373229980469,-555.7855224609375,197277.159034125,0.9458704800423273,-1.571939711396752,0.3136222709030947,-0.03004253469407558,0.01582127623260021,0.1193697229027748,0.01201272010803223,0.004978418350219727,-0.002766132354736328,1,-0.41656893491745,0.5718514919281006,-0.2195908278226852,-0.6717410683631897,-0.9512217044830322,-0.3085062503814697,0.001087612705305219,0,0,0,-1,197274.374738625,1,2,1561914559.212275,1561913957.287787,32,0.8918345,0,0,26.32609,0,0,1561914413.669193,197274.72104,0,2.256592,75.28386,3232235528,177845136,1,1,0.52,-16.61487,-40.45022,4
1561914562.043574,66,0,0,1561914560.999699,4.634765940722669,-74.15114753886512,2553.065,0,21.4453125,4,30,-9999,1561914562.020695,-21.64330291748047,19.3623046875,7.87518310546875,8.886981964111328,16.38044929504395,15,197277.196510125,-0.959381103515625,-0.3062744140625,-0.0037841796875,197277.179298125,-0.002358229145265165,0.01308677359664938,0.1130762219881104,197277.171363125,-97.09689331054688,-9.674911499023438,-555.64697265625,197277.179298125,0.9454176599928504,-1.571493669382613,0.3112407158131234,-0.005434127058833838,0.006088487803936005,0.1098854020237923,-0.0008504390716552734,0.001338839530944824,-0.004188656806945801,1,-0.4157098829746246,0.5722911953926086,-0.2203320264816284,-0.67165607213974,-0.9519541263580322,-0.3062399625778198,0.0006638382328674197,0,0,0,-1,197274.374738625,1,2,1561914559.212275,1561913957.287787,32,0.8918345,0,0,26.32609,0,0,1561914413.669193,197274.72104,0,2.256592,75.28386,3232235528,177845136,1,1,0.52,-16.61487,-40.45022,4
1561914562.060452,67,0,0,1561914561.999692,4.634765940722669,-74.15114753886512,2553.061,0,193.359375,4,30,-9999,1561914562.046701,-21.3699951171875,19.50370788574219,8.0283203125,8.89006233215332,16.38352966308594,15,197277.216774125,-0.9657135009765625,-0.307861328125,-0.00201416015625,197277.199562125,0.0006386260294010013,-0.009889382391900244,0.0980927450631066,197277.191474125,-97.15423583984375,-10.02067565917969,-555.7444458007812,197277.199562125,0.9454417035179182,-1.57164452266077,0.3091897854398842,-0.002437271876260638,-0.01688766852021217,0.0949019268155098,-0.006801128387451172,-0.001987487077713013,-0.004592180252075195,1,-0.4151468575000763,0.572762668132782,-0.2209978252649307,-0.6713835597038269,-0.9525799751281738,-0.304286926984787,0.0008079746039584279,0,0,0,-1,197274.374738625,1,2,1561914559.212275,1561913957.287787,32,0.8918345,0,0,26.32609,0,0,1561914413.669193,197274.72104,0,2.256592,75.28386,3232235528,177845136,1,1,0.52,-16.61487,-41.30079,4
1561914562.080656,68,0,0,1561914561.999692,4.634765940722669,-74.15114753886512,2553.061,0,193.359375,4,30,-9999,1561914562.070792,-21.25006866455078,19.59031295776367,8.08306884765625,8.899309158325195,16.39277648925781,15,197277.237037125,-0.965118408203125,-0.2990570068359375,-0.004364013671875,197277.219795125,-0.00284372341198661,-0.02672988154501631,0.075251611341824,197277.211586125,-97.25312805175781,-9.81170654296875,-555.6932373046875,197277.219795125,0.9453061888146727,-1.572124580293922,0.3075304959996819,-0.005919621326029301,-0.03372816741466522,0.07206079363822937,-0.01263028383255005,-0.005155414342880249,-0.003280043601989746,1,-0.4146862924098969,0.5732959508895874,-0.2214101701974869,-0.6710771918296814,-0.9530832171440125,-0.3027059137821198,0.001265936880372465,0,0,0,-1,197274.374738625,1,2,1561914559.212275,1561913957.287787,32,0.8918345,0,0,26.32609,0,0,1561914413.669193,197274.72104,0,2.256592,75.28386,3232235528,177845136,1,1,0.52,-16.61487,-42.16863,4
1561914562.116098,69,0,0,1561914561.999692,4.634765940722669,-74.15114753886512,2553.061,0,193.359375,4,30,-9999,1561914562.09739,-21.50801849365234,19.34829139709473,7.76348876953125,8.87922477722168,16.3726921081543,15,197277.257301125,-0.9675750732421875,-0.299041748046875,-0.00830078125,197277.240058125,0.01656912303803699,-0.02224911301095799,0.07421564167778318,197277.231697125,-97.13975524902344,-9.874481201171875,-555.8809204101562,197277.240058125,0.9454131543093083,-1.572816793829249,0.3061327630114918,0.01349322497844696,-0.02924739941954613,0.0710248276591301,-0.01161408424377441,0.002316474914550781,-0.006290555000305176,1,-0.4143936038017273,0.5737954378128052,-0.2217721194028854,-0.6707115173339844,-0.9535043239593506,-0.3013734519481659,0.001926526660099626,0,0,0,-1,197274.374738625,1,2,1561914559.212275,1561913957.287787,32,0.8918345,0,0,26.32609,0,0,1561914413.669193,197274.72104,0,2.256592,75.28386,3232235528,177845136,1,1,0.52,-16.61487,-42.92118,4
1561914562.121838,70,0,0,1561914561.999692,4.634765940722669,-74.15114753886512,2553.061,0,193.359375,4,30,-9999,1561914562.09739,-21.50801849365234,19.34829139709473,7.76348876953125,8.87922477722168,16.3726921081543,15,197277.277565125,-0.9761810302734375,-0.3003692626953125,-0.00738525390625,197277.260322125,0.02647448439647771,0.01472009029319497,0.07713153675531093,197277.251808125,-97.42591857910156,-9.711929321289062,-555.7371215820312,197277.260322125,0.9458271233634675,-1.57316539660071,0.304657723172601,0.02339858561754227,0.007721804082393646,0.07394072413444519,-0.01362800598144531,0.0009249448776245117,-0.01056075096130371,1,-0.4141288995742798,0.5741317272186279,-0.2223341763019562,-0.6704010367393494,-0.9539470076560974,-0.2999666631221771,0.002259971341118217,0,0,0,-1,197274.374738625,1,2,1561914559.212275,1561913957.287787,32,0.8918345,0,0,26.32609,0,0,1561914413.669193,197274.72104,0,2.256592,75.28386,3232235528,177845136,1,1,0.52,-16.61487,-42.92118,4
1561914562.141462,71,0,0,1561914561.999692,4.634765940722669,-74.15114753886512,2553.061,0,193.359375,4,30,-9999,1561914562.122312,-21.46530914306641,19.5770149230957,7.91326904296875,8.841827392578125,16.33529472351074,15,197277.297828125,-0.976104736328125,-0.301239013671875,0,197277.280586125,0.03945899260726804,0.04905569359536858,0.07265343138234269,197277.271888125,-97.12522888183594,-9.937286376953125,-555.790771484375,197277.280586125,0.9464136330446995,-1.572741825073427,0.303202162287748,0.03638309612870216,0.04205740615725517,0.0694626122713089,-0.02179765701293945,-0.001791417598724365,-0.009242057800292969,1,-0.4138333201408386,0.5741692781448364,-0.2231071889400482,-0.6702945232391357,-0.9543834328651428,-0.2985778152942657,0.00185675360262394,0,0,0,-1,197274.374738625,1,2,1561914559.212275,1561913957.287787,32,0.8918345,0,0,26.32609,0,0,1561914413.669193,197274.72104,0,2.256592,75.28386,3232235528,177845136,1,1,0.52,-16.61487,-43.46419,4
1561914562.162234,72,0,0,1561914561.999692,4.634765940722669,-74.15114753886512,2553.061,0,193.359375,4,30,-9999,1561914562.147994,-21.02156066894531,19.48071098327637,7.83392333984375,8.76936149597168,16.2628288269043,15,197277.318092125,-0.970001220703125,-0.30035400390625,0.0064697265625,197277.300849125,0.06279680587185042,0.01157756020690147,0.05748672897434143,197277.291999125,-96.7960205078125,-9.953857421875,-555.7371826171875,197277.300849125,0.9474547286775782,-1.572496349708758,0.3019271243161566,0.05972091108560562,0.004579274915158749,0.05429591611027718,-0.02134084701538086,-0.003878325223922729,-0.001623153686523438,1,-0.4137394726276398,0.5741351842880249,-0.2239347994327545,-0.6701057553291321,-0.9547638893127441,-0.2973607182502747,0.001623122137971222,0,0,0,-1,197274.374738625,1,2,1561914559.212275,1561913957.287787,32,0.8918345,0,0,26.32609,0,0,1561914413.669193,197274.72104,0,2.256592,75.28386,3232235528,177845136,1,1,0.52,-16.61487,-44.41505,4
1561914562.201714,73,0,0,1561914561.999692,4.634765940722669,-74.15114753886512,2553.061,0,193.359375,4,30,-9999,1561914562.198783,-21.14083862304688,19.75948715209961,7.754638671875,8.662185668945312,16.15565299987793,15,197277.338356125,-0.970062255859375,-0.2953338623046875,0.013275146484375,197277.321113125,0.05888249170165195,-0.03888721192122803,0.04045687906772073,197277.312110125,-97.22731018066406,-9.718902587890625,-555.901123046875,197277.321113125,0.9487269639887045,-1.573376633496548,0.301026869594901,0.05580412968993187,-0.04588792845606804,0.03726638481020927,-0.01497197151184082,-0.003852933645248413,0.00400543212890625,1,-0.4139456450939178,0.5743528008460999,-0.2244808077812195,-0.6696089506149292,-0.9550292491912842,-0.2965010702610016,0.002464273944497108,0,0,0,-1,197274.374738625,1,2,1561914559.212275,1561913957.287787,32,0.8918345,0,0,26.32609,0,0,1561914413.669193,197274.72104,0,2.256592,75.28386,3232235528,177845136,1,1,0.52,-16.61487,-45.89565,4
1561914562.205646,74,0,0,1561914561.999692,4.634765940722669,-74.15114753886512,2553.061,0,193.359375,4,30,-9999,1561914562.198783,-21.14083862304688,19.75948715209961,7.754638671875,8.662185668945312,16.15565299987793,15,197277.358589125,-0.9656219482421875,-0.301513671875,0.0157928466796875,197277.341377125,0.0182064344762177,-0.05788886629894339,0.0239569982180258,197277.332222125,-97.06752014160156,-9.794326782226562,-555.9692993164062,197277.341377125,0.9495409366857021,-1.574772954120742,0.3004142960943065,0.01512807421386242,-0.0648895800113678,0.02076650224626064,-0.01485580205917358,0.0005821287631988525,0.009476661682128906,1,-0.4141609370708466,0.5747781991958618,-0.2246697396039963,-0.6690472960472107,-0.9552064538002014,-0.295915961265564,0.003798520192503929,0,0,0,-1,197274.374738625,1,2,1561914559.212275,1561913957.287787,32,0.8918345,0,0,26.32609,0,0,1561914413.669193,197274.72104,0,2.256592,75.28386,3232235528,177845136,1,1,0.52,-16.61487,-45.89565,4
1561914562.222658,75,0,0,1561914561.999692,4.634765940722669,-74.15114753886512,2553.061,0,193.359375,4,30,-9999,1561914562.198783,-21.14083862304688,19.75948715209961,7.754638671875,8.662185668945312,16.15565299987793,15,197277.378852125,-0.964019775390625,-0.2946014404296875,0.0124053955078125,197277.361641125,-0.017140903724077,-0.05825558358104731,0.017476994653645,197277.352302125,-96.93949890136719,-9.786041259765625,-555.6141357421875,197277.361641125,0.9494122587074508,-1.576031087455364,0.3000776080368196,-0.02021926455199718,-0.06525629758834839,0.01428649853914976,-0.01032143831253052,-0.005919337272644043,0.01079201698303223,1,-0.4141689240932465,0.5752951502799988,-0.2244792133569717,-0.668661892414093,-0.955300509929657,-0.295594334602356,0.005000815261155367,0,0,0,-1,197274.374738625,1,2,1561914559.212275,1561913957.287787,32,0.8918345,0,0,26.32609,0,0,1561914413.669193,197274.72104,0,2.256592,75.28386,3232235528,177845136,1,1,0.52,-16.61487,-46.74306,4
1561914562.24316,76,0,0,1561914561.999692,4.634765940722669,-74.15114753886512,2553.061,0,193.359375,4,30,-9999,1561914562.222945,-21.21975708007812,19.7753791809082,8.00286865234375,8.69624137878418,16.1897087097168,15,197277.399116125,-0.9657745361328125,-0.2967376708984375,0.0052490234375,197277.381904125,-0.01909539764808615,-0.0638213239432039,0.02134603508531212,197277.372413125,-96.90792846679688,-9.554718017578125,-555.650390625,197277.381904125,0.9489173632118033,-1.577253695654178,0.2997504410666161,-0.02217375673353672,-0.07082203775644302,0.01815553940832615,-0.008629500865936279,0.0006803572177886963,0.006236076354980469,1,-0.4140701293945312,0.5758737921714783,-0.2241705358028412,-0.6683284044265747,-0.9553902745246887,-0.2952817976474762,0.006169393192976713,0,0,0,-1,197274.374738625,1,2,1561914559.212275,1561913957.287787,32,0.8918345,0,0,26.32609,0,0,1561914413.669193,197274.72104,0,2.256592,75.28386,3232235528,177845136,1,1,0.52,-16.61487,-47.16917,4
1561914562.281595,77,0,0,1561914561.999692,4.634765940722669,-74.15114753886512,2553.061,0,193.359375,4,30,-9999,1561914562.273713,-21.20015716552734,19.66489410400391,7.85980224609375,8.768667221069336,16.26213455200195,15,197277.419380125,-0.9638671875,-0.2981719970703125,0.0040740966796875,197277.402168125,-0.01800083844006359,-0.04940483401427796,0.008311725762137302,197277.392524125,-96.92623901367188,-9.828750610351562,-556.0187377929688,197277.402168125,0.9485031886010797,-1.578505086647421,0.299504665846999,-0.02107919752597809,-0.05640555173158646,0.005121230147778988,-0.01032012701034546,-0.001690715551376343,-0.00211644172668457,1,-0.4140207469463348,0.5764282941818237,-0.2238557189702988,-0.6679864525794983,-0.955454409122467,-0.2950469553470612,0.007365514524281025,0,0,0,-1,197274.374738625,1,2,1561914559.212275,1561913957.287787,32,0.8918345,0,0,26.32609,0,0,1561914413.669193,197274.72104,0,2.256592,75.28386,3232235528,177845136,1,1,0.52,-16.61487,-48.05115,4
1561914562.284318,78,0,0,1561914561.999692,4.634765940722669,-74.15114753886512,2553.061,0,193.359375,4,30,-9999,1561914562.273713,-21.20015716552734,19.66489410400391,7.85980224609375,8.768667221069336,16.26213455200195,15,197277.439643125,-0.9590911865234375,-0.292236328125,0.006195068359375,197277.422432125,-0.02411439103844949,-0.01852468222648217,-0.005072522928273925,197277.412605125,-97.32261657714844,-9.747772216796875,-555.6949462890625,197277.422432125,0.9479623117580903,-1.579184112281004,0.2995257548377304,-0.02719275094568729,-0.02552539855241776,-0.008263018913567066,-0.008424222469329834,-0.003104865550994873,-0.003940105438232422,1,-0.4139467775821686,0.5767626762390137,-0.2235274463891983,-0.6678535938262939,-0.9554429650306702,-0.2950671017169952,0.008014238439500332,0,0,0,-1,197274.374738625,1,2,1561914559.212275,1561913957.287787,32,0.8918345,0,0,26.32609,0,0,1561914413.669193,197274.72104,0,2.256592,75.28386,3232235528,177845136,1,1,0.52,-16.61487,-48.05115,4
1561914562.304104,79,0,0,1561914561.999692,4.634765940722669,-74.15114753886512,2553.061,0,193.359375,4,30,-9999,1561914562.300096,-21.20763397216797,19.65155982971191,7.97760009765625,8.786617279052734,16.28008460998535,15,197277.4599155,-0.951141357421875,-0.293701171875,0.0110931396484375,197277.442665125,-0.009754093808524218,-0.04261004480904979,-0.01444312153982673,197277.432716125,-97.14578247070312,-9.71173095703125,-555.6273193359375,197277.442665125,0.9474892850151641,-1.579671772444204,0.2997972754430055,-0.01283245347440243,-0.04961076378822327,-0.01763361692428589,-0.003732442855834961,0.003090202808380127,-0.002284407615661621,1,-0.4139423370361328,0.5769674777984619,-0.2231772243976593,-0.6677965521812439,-0.9553588032722473,-0.2953265309333801,0.008479457348585129,0,0,0,-1,197274.374738625,1,2,1561914559.212275,1561913957.287787,32,0.8918345,0,0,26.32609,0,0,1561914413.669193,197274.72104,0,2.256592,75.28386,3232235528,177845136,1,1,0.52,-16.61487,-48.53831,4
1561914562.323993,80,0,0,1561914561.999692,4.634765940722669,-74.15114753886512,2553.061,0,193.359375,4,30,-9999,1561914562.300096,-21.20763397216797,19.65155982971191,7.97760009765625,8.786617279052734,16.28008460998535,15,197277.4801795,-0.95037841796875,-0.29400634765625,0.019866943359375,197277.4629365,0.007744472449950425,-0.1138535987103045,-0.03610527384653126,197277.4528355,-97.02351379394531,-9.674301147460938,-555.4613647460938,197277.4629365,0.9474688715408897,-1.581493217617207,0.3003730968413774,0.004666111897677183,-0.1208543106913567,-0.03929577022790909,0.004030108451843262,0.002175480127334595,0.0008753538131713867,1,-0.4143037497997284,0.5774610638618469,-0.2225994318723679,-0.6673384308815002,-0.9551714658737183,-0.2958766222000122,0.01021775510162115,0,0,0,-1,197274.374738625,1,2,1561914559.212275,1561913957.287787,32,0.8918345,0,0,26.32609,0,0,1561914413.669193,197274.72104,0,2.256592,75.28386,3232235528,177845136,1,1,0.52,-16.61487,-47.73601,4
1561914562.35071,81,0,0,1561914561.999692,4.634765940722669,-74.15114753886512,2553.061,0,193.359375,4,30,-9999,1561914562.327182,-21.3079833984375,19.93156814575195,8.12603759765625,8.784461975097656,16.27792930603027,15,197277.5004425,-0.94476318359375,-0.2912750244140625,0.021514892578125,197277.4832005,-0.01368758273857125,-0.1055370792582051,-0.04033357470925007,197277.4729165,-97.22041320800781,-9.708831787109375,-555.4810180664062,197277.4832005,0.9474591815517397,-1.583948628057643,0.3012380700154983,-0.01676594279706478,-0.112537793815136,-0.04352406784892082,0.004508733749389648,0.002696424722671509,0.007307291030883789,1,-0.4148201942443848,0.5781038403511047,-0.2217957824468613,-0.6667283177375793,-0.9548871517181396,-0.2967027425765991,0.01255968771874905,0,0,0,-1,197274.374738625,1,2,1561914559.212275,1561913957.287787,32,0.8918345,0,0,26.32609,0,0,1561914413.669193,197274.72104,0,2.256592,75.28386,3232235528,177845136,1,1,0.52,-16.61487,-48.38253,4
1561914562.364329,82,0,0,1561914561.999692,4.634765940722669,-74.15114753886512,2553.061,0,193.359375,4,30,-9999,1561914562.350754,-21.25591278076172,19.48443984985352,8.0452880859375,8.850332260131836,16.34379959106445,15,197277.5207065,-0.932342529296875,-0.2864532470703125,0.01812744140625,197277.5034645,-0.06192328903430443,-0.06263994568364475,-0.02721510949562874,197277.4930275,-97.28094482421875,-9.729568481445312,-555.3360595703125,197277.5034645,0.9465828785413641,-1.585428954938556,0.3020127520785415,-0.06500165164470673,-0.06964065879583359,-0.03040560521185398,0.009874284267425537,0.006167411804199219,0.007544994354248047,1,-0.4149510264396667,0.5786195397377014,-0.2209353446960449,-0.6664852499961853,-0.9546374678611755,-0.2974424660205841,0.0139698525890708,0,0,0,-1,197274.374738625,1,2,1561914559.212275,1561913957.287787,32,0.8918345,0,0,26.32609,0,0,1561914413.669193,197274.72104,0,2.256592,75.28386,3232235528,177845136,1,1,0.52,-16.61487,-43.42484,4
1561914562.384644,83,0,0,1561914561.999692,4.634765940722669,-74.15114753886512,2553.061,0,193.359375,4,30,-9999,1561914562.3748,-21.21966552734375,19.74246978759766,8.180419921875,8.942859649658203,16.43632698059082,15,197277.5409705,-0.937469482421875,-0.2892913818359375,0.0179443359375,197277.5237275,-0.0541753544749369,-0.08611065068662209,-0.004754807810227472,197277.5131385,-97.33869934082031,-9.523651123046875,-555.41552734375,197277.5237275,0.945250398213258,-1.586650751363914,0.3024019117114035,-0.05725371465086937,-0.09311136603355408,-0.007945303805172443,0.02216124534606934,0.011360764503479,0.002993106842041016,1,-0.4148107171058655,0.5792229771614075,-0.2201065272092819,-0.6663225889205933,-0.9545037746429443,-0.2978139817714691,0.01513437647372484,0,0,0,-1,197274.374738625,1,2,1561914559.212275,1561913957.287787,32,0.8918345,0,0,26.32609,0,0,1561914413.669193,197274.72104,0,2.256592,75.28386,3232235528,177845136,1,1,0.52,-16.61487,-44.32368,4
1561914562.404898,84,0,0,1561914561.999692,4.634765940722669,-74.15114753886512,2553.061,0,193.359375,4,30,-9999,1561914562.401279,-21.17681121826172,19.54438400268555,8.34698486328125,8.985763549804688,16.4792308807373,15,197277.5612035,-0.9552459716796875,-0.2802886962890625,0.016204833984375,197277.5439915,-0.02320492152618743,-0.07174369555397161,0.0154031911128003,197277.5332185,-97.00117492675781,-9.82061767578125,-555.3660888671875,197277.5439915,0.9442666554178402,-1.588162370346651,0.3024377182131041,-0.02628328092396259,-0.07874441146850586,0.01221269462257624,0.01699990034103394,0.008556753396987915,0.001367330551147461,1,-0.4147018790245056,0.579923152923584,-0.2194533199071884,-0.6659968495368958,-0.9544693827629089,-0.2978481650352478,0.01657702401280403,0,0,0,-1,197274.374738625,1,2,1561914559.212275,1561913957.287787,32,0.8918345,0,0,26.32609,0,0,1561914413.669193,197274.72104,0,2.256592,75.28386,3232235528,177845136,1,1,0.52,-16.61487,-32.50637,4
1561914562.441832,85,0,0,1561914561.999692,4.634765940722669,-74.15114753886512,2553.061,0,193.359375,4,30,-9999,1561914562.432364,-21.14986419677734,19.54833602905273,8.39532470703125,8.984811782836914,16.47827911376953,15,197277.5814675,-0.9549407958984375,-0.2902374267578125,0.0166015625,197277.5642555,-0.002860767642963118,-0.031761125476394,0.05009086431108237,197277.5533295,-96.90473937988281,-9.695159912109375,-555.22998046875,197277.5642555,0.9439758495919366,-1.589369963543807,0.3018579683027205,-0.005939127877354622,-0.03876184299588203,0.04690036922693253,-0.0006248950958251953,0.01700598001480103,-0.001528024673461914,1,-0.414585292339325,0.5805044770240784,-0.2193021327257156,-0.6656126379966736,-0.9546211361885071,-0.2972946763038635,0.01773282513022423,0,0,0,-1,197274.374738625,1,2,1561914559.212275,1561913957.287787,32,0.8918345,0,0,26.32609,0,0,1561914413.669193,197274.72104,0,2.256592,75.28386,3232235528,177845136,1,1,0.52,-17.17214,-30.44474,4
1561914562.445984,86,0,0,1561914561.999692,4.634765940722669,-74.15114753886512,2553.061,0,193.359375,4,30,-9999,1561914562.432364,-21.14986419677734,19.54833602905273,8.39532470703125,8.984811782836914,16.47827911376953,15,197277.6017305,-0.95635986328125,-0.29644775390625,0.0218353271484375,197277.5845185,0.02092259247198952,-0.00457930549439125,0.05704331265284324,197277.5734405,-97.1405029296875,-9.732192993164062,-555.1705932617188,197277.5845185,0.9440918461121633,-1.589761184403331,0.3007467171236107,0.01784423179924488,-0.011580022983253,0.05385281890630722,2.980232238769531e-06,0.005996048450469971,-0.001510977745056152,1,-0.4143462777137756,0.5808385610580444,-0.219635397195816,-0.6653600335121155,-0.9549437761306763,-0.2962335050106049,0.01811254397034645,0,0,0,-1,197274.374738625,1,2,1561914559.212275,1561913957.287787,32,0.8918345,0,0,26.32609,0,0,1561914413.669193,197274.72104,0,2.256592,75.28386,3232235528,177845136,1,1,0.52,-17.17214,-30.44474,4
1561914562.46576,87,0,0,1561914561.999692,4.634765940722669,-74.15114753886512,2553.061,0,193.359375,4,30,-9999,1561914562.432364,-21.14986419677734,19.54833602905273,8.39532470703125,8.984811782836914,16.47827911376953,15,197277.6219945,-0.9615325927734375,-0.2957916259765625,0.0246734619140625,197277.6047825,0.0392794955497967,-0.02415460477090968,0.03332946104234166,197277.5935215,-96.86701965332031,-9.758697509765625,-555.287841796875,197277.6047825,0.9446759315944482,-1.590417671115552,0.2998771260471337,0.03620113432407379,-0.03115532174706459,0.03013896569609642,-0.001170992851257324,-0.001044958829879761,0.003090858459472656,1,-0.4143411219120026,0.5811141729354858,-0.219987690448761,-0.6650061011314392,-0.9551888108253479,-0.2954028248786926,0.01874449476599693,0,0,0,-1,197277.6167455,1,2,1561914562.454282,1561913957.287787,32,0.8918345,0,0,26.32609,0,0,1561914413.669193,197274.72104,0,2.256592,75.28386,3232235528,177845136,1,1,0.52,-17.35356,-22.93383,4
1561914562.485973,88,0,0,1561914561.999692,4.634765940722669,-74.15114753886512,2553.061,0,193.359375,4,30,-9999,1561914562.476653,-20.99485015869141,19.87048149108887,8.207763671875,8.910133361816406,16.40360069274902,15,197277.6422585,-0.9574127197265625,-0.292755126953125,0.023040771484375,197277.6250465,0.02102672207061162,-0.004916994320613297,0.03138721765934688,197277.6136325,-96.91000366210938,-9.559768676757812,-555.3328857421875,197277.6250465,0.94527665283364,-1.59106617743889,0.2993378456453962,0.01794836111366749,-0.0119177121669054,0.02819672226905823,-0.006196975708007812,-0.000904083251953125,0.005306243896484375,1,-0.4144339561462402,0.581315815448761,-0.2202353775501251,-0.6646899580955505,-0.9553356170654297,-0.2948875725269318,0.01936716213822365,0,0,0,-1,197277.6167455,1,2,1561914562.454282,1561913957.287787,32,0.8918345,0,0,26.32609,0,0,1561914413.669193,197274.72104,0,2.256592,75.28386,3232235528,177845136,1,1,0.52,-17.08467,-19.95001,4
1561914562.517978,89,0,0,1561914561.999692,4.634765940722669,-74.15114753886512,2553.061,0,193.359375,4,30,-9999,1561914562.502698,-21.16522216796875,19.81621360778809,8.143310546875,8.901239395141602,16.39470672607422,15,197277.6625215,-0.9571075439453125,-0.289703369140625,0.0231781005859375,197277.6452795,0.007162838067877119,-0.00924835951751817,0.03487436079069663,197277.6337435,-97.3104248046875,-9.423980712890625,-555.5199584960938,197277.6452795,0.9454746850365486,-1.591318551789231,0.298720763223531,0.004084477666765451,-0.01624907553195953,0.03168386593461037,-0.001900255680084229,0.001542747020721436,0.003428816795349121,1,-0.4143441617488861,0.5814850926399231,-0.2204575687646866,-0.6645241975784302,-0.9555124640464783,-0.2942978739738464,0.01961199380457401,0,0,0,-1,197277.6167455,1,2,1561914562.454282,1561913957.287787,32,0.8918345,0,0,26.32609,0,0,1561914413.669193,197274.72104,0,2.256592,75.28386,3232235528,177845136,1,1,0.52,-17.08467,-19.98406,4
1561914562.526715,90,0,0,1561914561.999692,4.634765940722669,-74.15114753886512,2553.061,0,193.359375,4,30,-9999,1561914562.502698,-21.16522216796875,19.81621360778809,8.143310546875,8.901239395141602,16.39470672607422,15,197277.6827855,-0.954010009765625,-0.28662109375,0.01849365234375,197277.6655435,0.00939323548081848,-0.006352704464275015,0.03656466913456993,197277.6538245,-96.94493103027344,-9.566268920898438,-555.4093017578125,197277.6655435,0.9455855031646737,-1.591700431836842,0.2980681310972362,0.006314875092357397,-0.01335342228412628,0.03337417542934418,-0.001410841941833496,0.003970742225646973,0.003197193145751953,1,-0.4142332375049591,0.5817226767539978,-0.2206359803676605,-0.6643261909484863,-0.9556967616081238,-0.2936740815639496,0.01998089626431465,0,0,0,-1,197277.6167455,1,2,1561914562.454282,1561913957.287787,32,0.8918345,0,0,26.32609,0,0,1561914413.669193,197274.72104,0,2.256592,75.28386,3232235528,177845136,1,1,0.52,-17.08467,-20.55844,4
1561914562.546747,91,0,0,1561914561.999692,4.634765940722669,-74.15114753886512,2553.061,0,193.359375,4,30,-9999,1561914562.52688,-21.41172027587891,19.80098915100098,8.26312255859375,8.893026351928711,16.38649368286133,15,197277.7030495,-0.9507293701171875,-0.2854156494140625,0.013641357421875,197277.6858065,0.01448839527835808,-0.004687429834648467,0.04830201900687615,197277.6739355,-96.94279479980469,-9.494247436523438,-555.2669677734375,197277.6858065,0.9457356458993702,-1.591952965360262,0.2972956307210691,0.01141003519296646,-0.01168814674019814,0.0451115220785141,0.001908302307128906,0.006314486265182495,-0.00173342227935791,1,-0.4140854775905609,0.5819336175918579,-0.2208947986364365,-0.6641476154327393,-0.9559183120727539,-0.2929355502128601,0.02022703550755978,0,0,0,-1,197277.6167455,1,2,1561914562.454282,1561913957.287787,32,0.8918345,0,0,26.32609,0,0,1561914413.669193,197274.72104,0,2.256592,75.28386,3232235528,177845136,1,1,0.52,-17.08467,-21.42419,4
1561914562.566923,92,0,0,1561914561.999692,4.634765940722669,-74.15114753886512,2553.061,0,193.359375,4,30,-9999,1561914562.553928,-21.16888427734375,19.75896263122559,8.20050048828125,8.865985870361328,16.35945320129395,15,197277.7233125,-0.9542388916015625,-0.2841339111328125,0.014007568359375,197277.7060705,0.03225993554856584,-0.01381887658031216,0.05162804089227611,197277.7141275,-96.999755859375,-9.506027221679688,-555.3363037109375,197277.7060705,0.9461210178705323,-1.592428323398408,0.296354451624428,0.02918157353997231,-0.02081959322094917,0.04843754693865776,0.005454361438751221,0.006619900465011597,-0.007045984268188477,1,-0.413983017206192,0.5822042226791382,-0.2212425917387009,-0.6638584733009338,-0.9561837911605835,-0.2920355200767517,0.02068739011883736,0,0,0,-1,197277.6167455,1,2,1561914562.454282,1561913957.287787,32,0.8918345,0,0,26.32609,0,0,1561914413.669193,197274.72104,0,2.256592,75.28386,3232235528,177845136,1,1,0.52,-17.08467,-22.37849,4
1561914562.607417,93,0,0,1561914561.999692,4.634765940722669,-74.15114753886512,2553.061,0,193.359375,4,30,-9999,1561914562.57772,-21.18203735351562,19.87484359741211,8.239990234375,8.820932388305664,16.31439971923828,15,197277.7435765,-0.9525299072265625,-0.284423828125,0.0159149169921875,197277.7263345,0.03387993643966104,-0.01817820496866287,0.04971136385574609,197277.7342385,-96.6888427734375,-9.505905151367188,-555.371337890625,197277.7263345,0.9467525342310069,-1.593081711175117,0.2953907752946158,0.03080157563090324,-0.02517892047762871,0.04652087017893791,0.002212047576904297,0.006979793310165405,-0.007310867309570312,1,-0.4139657318592072,0.5824874043464661,-0.2216427773237228,-0.6634872555732727,-0.9564509391784668,-0.2911137342453003,0.02131840586662292,0,0,0,-1,197277.6167455,1,2,1561914562.454282,1561913957.287787,32,0.8918345,0,0,26.32609,0,0,1561914413.669193,197274.72104,0,2.256592,75.28386,3232235528,177845136,1,1,0.52,-17.08467,-23.33093,4
1561914562.61004,94,0,0,1561914561.999692,4.634765940722669,-74.15114753886512,2553.061,0,193.359375,4,30,-9999,1561914562.60396,-21.03994750976562,19.71510314941406,8.29803466796875,8.776582717895508,16.27005004882812,15,197277.7638405,-0.94976806640625,-0.280487060546875,0.0173187255859375,197277.7465975,0.03551724787784176,-0.008487494394082532,0.05335829665250059,197277.7543495,-96.81513977050781,-9.483734130859375,-555.302001953125,197277.7465975,0.9474322448867992,-1.593764905429835,0.2944326432759054,0.03243888914585114,-0.01548821199685335,0.05016780272126198,0.00418466329574585,0.005773097276687622,-0.006063222885131836,1,-0.4139676690101624,0.5827691555023193,-0.2220507860183716,-0.6631020903587341,-0.9567145705223083,-0.29019695520401,0.02197823859751225,0,0,0,-1,197277.6167455,1,2,1561914562.454282,1561913957.287787,32,0.8918345,0,0,26.32609,0,0,1561914413.669193,197274.72104,0,2.256592,75.28386,3232235528,177845136,1,1,0.52,-17.08467,-23.33093,4
1561914562.627889,95,0,0,1561914561.999692,4.634765940722669,-74.15114753886512,2553.061,0,193.359375,4,30,-9999,1561914562.60396,-21.03994750976562,19.71510314941406,8.29803466796875,8.776582717895508,16.27005004882812,15,197277.7840735,-0.94354248046875,-0.2789306640625,0.0172271728515625,197277.7668615,0.02156761008800671,0.001245294125721052,0.07050932038871989,197277.7744295,-96.91819763183594,-9.576217651367188,-555.41455078125,197277.7668615,0.9479472527310213,-1.594121370857417,0.2932525162044921,0.01848924905061722,-0.005755423102527857,0.06731882691383362,0.007280468940734863,0.00858035683631897,-0.005008459091186523,1,-0.4138225615024567,0.583021879196167,-0.22254678606987,-0.6628042459487915,-0.9570485353469849,-0.289067417383194,0.0223272480070591,0,0,0,-1,197277.6167455,1,2,1561914562.454282,1561913957.287787,32,0.8918345,0,0,26.32609,0,0,1561914413.669193,197274.72104,0,2.256592,75.28386,3232235528,177845136,1,1,0.52,-17.08467,-24.28432,4
1561914562.647943,96,0,0,1561914561.999692,4.634765940722669,-74.15114753886512,2553.061,0,193.359375,4,30,-9999,1561914562.628229,-21.13216400146484,20.09281539916992,8.2125244140625,8.757099151611328,16.25056648254395,15,197277.8043365,-0.9424896240234375,-0.276611328125,0.01470947265625,197277.7871255,0.008749815761455337,0.02716584101546228,0.07818055590869315,197277.7945405,-96.63916015625,-9.517471313476562,-555.3681030273438,197277.7871255,0.9481899070102771,-1.594049227945903,0.29183734259008,0.005671455059200525,0.02016512304544449,0.07499006390571594,0.01391541957855225,0.008781701326370239,-0.005040526390075684,1,-0.413483738899231,0.5832366943359375,-0.2231204956769943,-0.6626336574554443,-0.9574579000473022,-0.2877123653888702,0.02226768806576729,0,0,0,-1,197277.6167455,1,2,1561914562.454282,1561913957.287787,32,0.8918345,0,0,26.32609,0,0,1561914413.669193,197274.72104,0,2.256592,75.28386,3232235528,177845136,1,1,0.52,-17.08467,-25.30883,4
1561914562.684999,97,0,0,1561914561.999692,4.634765940722669,-74.15114753886512,2553.061,0,193.359375,4,30,-9999,1561914562.678954,-20.96916961669922,20.14577102661133,8.0731201171875,8.736028671264648,16.22949600219727,15,197277.8246005,-0.92919921875,-0.2752838134765625,0.013092041015625,197277.8073885,0.004623247652377558,0.0357034028380383,0.1016794904192253,197277.8146515,-96.96218872070312,-9.486663818359375,-555.6025390625,197277.8073885,0.9481704533652772,-1.593474682064951,0.290078522886673,0.001544887199997902,0.02870268374681473,0.09848899394273758,0.01548540592193604,0.009416133165359497,-0.007019519805908203,1,-0.4129143953323364,0.5834091305732727,-0.2238270938396454,-0.6625986099243164,-0.9579750299453735,-0.2860274612903595,0.02172902226448059,0,0,0,-1,197277.6167455,1,2,1561914562.454282,1561913957.287787,32,0.8918345,0,0,26.32609,0,0,1561914413.669193,197274.72104,0,2.256592,75.28386,3232235528,177845136,1,1,0.52,-17.08467,-27.32974,4
1561914562.688643,98,0,0,1561914561.999692,4.634765940722669,-74.15114753886512,2553.061,0,193.359375,4,30,-9999,1561914562.678954,-20.96916961669922,20.14577102661133,8.0731201171875,8.736028671264648,16.22949600219727,15,197277.8448645,-0.9190521240234375,-0.2721710205078125,0.0114898681640625,197277.8276525,0.02309892771480227,0.04739707686846723,0.1442149667177529,197277.8347635,-97.01585388183594,-9.23443603515625,-555.419921875,197277.8276525,0.9483913204071204,-1.592826615414271,0.2877071227163124,0.02002056688070297,0.04039635881781578,0.1410244703292847,0.02946501970291138,0.008470505475997925,-0.008031010627746582,1,-0.4122320115566254,0.5836319923400879,-0.2248347848653793,-0.6624860167503357,-0.9586642384529114,-0.2837543487548828,0.02112306840717793,0,0,0,-1,197277.6167455,1,2,1561914562.454282,1561913957.287787,32,0.8918345,0,0,26.32609,0,0,1561914413.669193,197274.72104,0,2.256592,75.28386,3232235528,177845136,1,1,0.52,-17.08467,-27.32974,4
1561914562.708871,99,0,0,1561914561.999692,4.634765940722669,-74.15114753886512,2553.061,0,193.359375,4,30,-9999,1561914562.705426,-20.93145751953125,20.14734268188477,8.355712890625,8.68585205078125,16.17931938171387,15,197277.8651285,-0.9166717529296875,-0.2618865966796875,0.012847900390625,197277.8479165,0.04219112956958033,0.04867858998501336,0.2213579550657511,197277.8548435,-96.62440490722656,-9.53106689453125,-555.6817626953125,197277.8479165,0.9489216126459519,-1.592038151227529,0.2842274770472704,0.03911276906728745,0.04167786985635757,0.2181674540042877,0.04061007499694824,0.008245021104812622,-0.008898138999938965,1,-0.4113072752952576,0.5839694738388062,-0.226346880197525,-0.6622486114501953,-0.9596621990203857,-0.2804160118103027,0.0203880425542593,0,0,0,-1,197277.6167455,1,2,1561914562.454282,1561913957.287787,32,0.8918345,0,0,26.32609,0,0,1561914413.669193,197274.72104,0,2.256592,75.28386,3232235528,177845136,1,1,0.52,-17.08467,-28.40685,4
1561914562.729065,100,0,0,1561914561.999692,4.634765940722669,-74.15114753886512,2553.061,0,193.359375,4,30,-9999,1561914562.705426,-20.93145751953125,20.14734268188477,8.355712890625,8.68585205078125,16.17931938171387,15,197277.8853915,-0.9195709228515625,-0.2702789306640625,0.0129241943359375,197277.8681495,0.05793147687638466,0.04110269563206494,0.3173555912992924,197277.8749545,-96.55451965332031,-9.257232666015625,-555.662353515625,197277.8681495,0.9497876777924719,-1.591540894115701,0.2787178935089895,0.05485311523079872,0.03410197794437408,0.3141651153564453,0.04453027248382568,0.0132366418838501,-0.007094621658325195,1,-0.4099326729774475,0.5847448110580444,-0.2285925000905991,-0.6616449952125549,-0.9612020254135132,-0.2751232385635376,0.01994258165359497,0,0,0,-1,197277.6167455,1,2,1561914562.454282,1561913957.287787,32,0.8918345,0,0,26.32609,0,0,1561914413.669193,197274.72104,0,2.256592,75.28386,3232235528,177845136,1,1,0.52,-17.08467,-28.40685,4
1561914562.763723,101,0,0,1561914561.999692,4.634765940722669,-74.15114753886512,2553.061,0,193.359375,4,30,-9999,1561914562.756527,-20.50089263916016,20.53781700134277,8.00408935546875,8.332895278930664,15.82636260986328,15,197277.9056555,-0.9327545166015625,-0.25,0.0088348388671875,197277.8884125,0.1049732880554353,0.01586977693578218,0.3795039174457085,197277.8950655,-96.57777404785156,-8.9183349609375,-555.51416015625,197277.8884125,0.95120217367871,-1.591375210236943,0.2717988187811724,0.101894922554493,0.008869060315191746,0.3763134181499481,0.04351472854614258,-0.001814275979995728,-0.006897807121276855,1,-0.4083504378795624,0.5857993960380554,-0.2314227372407913,-0.660706102848053,-0.9630856513977051,-0.2684646546840668,0.0198220256716013,0,0,0,-1,197277.6167455,1,2,1561914562.454282,1561913957.287787,32,0.8918345,0,0,26.32609,0,0,1561914413.669193,197274.72104,0,2.256592,75.28386,3232235528,177845136,1,1,0.52,-17.08467,-30.45299,4
1561914562.770195,102,0,0,1561914561.999692,4.634765940722669,-74.15114753886512,2553.061,0,193.359375,4,30,-9999,1561914562.756527,-20.50089263916016,20.53781700134277,8.00408935546875,8.332895278930664,15.82636260986328,15,197277.9259195,-0.931304931640625,-0.252288818359375,0.0141448974609375,197277.9086765,0.2790329695291612,-0.1328216972582849,0.5062821032422766,197277.9151765,-96.15280151367188,-8.691665649414062,-555.658447265625,197277.9086765,0.9547693709654517,-1.59322510747425,0.2629979137852577,0.2759546041488647,-0.1398224085569382,0.50309157371521,0.03261750936508179,0.009976565837860107,-0.01282095909118652,1,-0.4070941507816315,0.5874540209770203,-0.2351800352334976,-0.6586823463439941,-0.9653720259666443,-0.2599765360355377,0.02165574952960014,0,0,0,-1,197277.6167455,1,2,1561914562.454282,1561913957.287787,32,0.8918345,0,0,26.32609,0,0,1561914413.669193,197274.72104,0,2.256592,75.28386,3232235528,177845136,1,1,0.52,-17.08467,-30.45299,4
1561914562.789797,103,0,0,1561914561.999692,4.634765940722669,-74.15114753886512,2553.061,0,193.359375,4,30,-9999,1561914562.780092,-20.15863800048828,20.9850025177002,7.95947265625,7.752001285552979,15.24546909332275,15,197277.9461825,-0.946868896484375,-0.24969482421875,0.028594970703125,197277.9289405,0.4421553147220406,-0.3897166075939444,0.6329838563155594,197277.9352875,-95.86964416503906,-8.31298828125,-555.5457153320312,197277.9289405,0.9620214675406751,-1.600529913679293,0.2512841582029254,0.4390769302845001,-0.3967173099517822,0.6297933459281921,0.03686094284057617,-0.003640860319137573,-0.01465058326721191,1,-0.4067491888999939,0.5907223224639893,-0.240007609128952,-0.6542160511016846,-0.9681658744812012,-0.2486479878425598,0.02879552915692329,0,0,0,-1,197277.6167455,1,2,1561914562.454282,1561913957.287787,32,0.8918345,0,0,26.32609,0,0,1561914413.669193,197274.72104,0,2.256592,75.28386,3232235528,177845136,1,1,0.52,-17.08467,-31.47684,4
1561914562.810055,104,0,0,1561914561.999692,4.634765940722669,-74.15114753886512,2553.061,0,193.359375,4,30,-9999,1561914562.806434,-19.68529510498047,21.05624771118164,7.9083251953125,6.916894435882568,14.41036224365234,15,197277.9664465,-0.952972412109375,-0.22857666015625,0.027923583984375,197277.9492035,0.5955363492796283,-0.6357122648523457,0.7749718877297881,197277.9553685,-94.88943481445312,-8.095977783203125,-555.4185791015625,197277.9492035,0.9723476063901435,-1.613599318430585,0.2368833763653676,0.5924580097198486,-0.6427130103111267,0.7717813849449158,0.02431488037109375,-0.01502063870429993,-0.0130000114440918,1,-0.4072997570037842,0.5957385301589966,-0.2455450296401978,-0.647232711315155,-0.9711837768554688,-0.2346741855144501,0.0415949784219265,0,0,0,-1,197277.6167455,1,2,1561914562.454282,1561913957.287787,32,0.8918345,0,0,26.32609,0,0,1561914413.669193,197274.72104,0,2.256592,75.28386,3232235528,177845136,1,1,0.52,-17.08467,-32.55774,4
1561914562.84413,105,0,0,1561914561.999692,4.634765940722669,-74.15114753886512,2553.061,0,193.359375,4,30,-9999,1561914562.831033,-18.66079711914062,21.81208038330078,7.921875,5.913614749908447,13.40708255767822,15,197277.9866795,-0.9977264404296875,-0.2127685546875,0.0305633544921875,197277.9694675,0.7249097855584785,-0.8035167135576934,0.9023735195375437,197277.9754795,-94.39991760253906,-7.989700317382812,-555.6030883789062,197277.9694675,0.9850854507698756,-1.631423379531576,0.2193546415764908,0.7218314409255981,-0.810517430305481,0.8991829752922058,0.02127230167388916,-0.0109768807888031,-0.03121447563171387,1,-0.4083795845508575,0.6023247838020325,-0.2518990933895111,-0.6379480361938477,-0.9742447137832642,-0.2175997793674469,0.05913805961608887,0,0,0,-1,197277.6167455,1,2,1561914562.454282,1561913957.287787,32,0.8918345,0,0,26.32609,0,0,1561914413.669193,197274.72104,0,2.256592,75.28386,3232235528,177845136,1,1,0.52,-17.08467,-33.56981,4
1561914562.85071,106,0,0,1561914561.999692,4.634765940722669,-74.15114753886512,2553.061,0,193.359375,4,30,-9999,1561914562.831033,-18.66079711914062,21.81208038330078,7.921875,5.913614749908447,13.40708255767822,15,197278.0069435,-1.041534423828125,-0.2423095703125,0.020538330078125,197277.9897315,0.7990647071634079,-0.768551006341607,1.105245940844837,197277.9955905,-94.22859191894531,-7.405776977539062,-555.7127685546875,197277.9897315,0.9994179658227083,-1.650881697954625,0.197769704206291,0.7959863543510437,-0.7755517363548279,1.102055430412292,-0.02036178112030029,-0.01628556847572327,-0.04787707328796387,1,-0.4091667830944061,0.6097562909126282,-0.2597254514694214,-0.6271543502807617,-0.9773646593093872,-0.1964830011129379,0.07844038307666779,0,0,0,-1,197277.6167455,1,2,1561914562.454282,1561913957.287787,32,0.8918345,0,0,26.32609,0,0,1561914413.669193,197274.72104,0,2.256592,75.28386,3232235528,177845136,1,1,0.52,-17.08467,-34.52673,4
1561914562.870913,107,0,0,1561914561.999692,4.634765940722669,-74.15114753886512,2553.061,0,193.359375,4,30,-9999,1561914562.857354,-18.04467010498047,22.35272598266602,7.96697998046875,4.829121112823486,12.32258892059326,15,197278.0272065,-1.117279052734375,-0.22222900390625,0.0490570068359375,197278.0099945,0.8733724942149078,-0.5816860473984532,1.078953350350812,197278.0157015,-93.31402587890625,-6.406204223632812,-555.7518920898438,197278.0099945,1.014484858963318,-1.667169887309051,0.1740386567977592,0.8702941536903381,-0.5886867642402649,1.075762867927551,-0.06121128797531128,-0.06914818286895752,-0.07423245906829834,1,-0.4093428552150726,0.616298496723175,-0.2690692543983459,-0.6166167855262756,-0.9803231358528137,-0.1731614023447037,0.09477081894874573,0,0,0,-1,197277.6167455,1,2,1561914562.454282,1561913957.287787,32,0.8918345,0,0,26.32609,0,0,1561914413.669193,197274.72104,0,2.256592,75.28386,3232235528,177845136,1,1,0.52,-17.08467,-35.52708,4
1561914562.89108,108,0,0,1561914561.999692,4.634765940722669,-74.15114753886512,2553.061,0,193.359375,4,30,-9999,1561914562.857354,-18.04467010498047,22.35272598266602,7.96697998046875,4.829121112823486,12.32258892059326,15,197278.0474705,-1.22821044921875,-0.1750030517578125,0.0520172119140625,197278.0302585,0.9940629600756637,-0.6697261582948376,1.066819455792193,197278.0357825,-92.83834838867188,-6.040481567382812,-555.91357421875,197278.0302585,1.031234249299641,-1.682300274700934,0.15084651160739,0.9909846186637878,-0.6767268776893616,1.063628911972046,-0.1347745656967163,-0.07195392251014709,-0.06095242500305176,1,-0.4101954102516174,0.6218878030776978,-0.2788846492767334,-0.6059855818748474,-0.9825044870376587,-0.1502750813961029,0.1100094318389893,0,0,0,-1,197277.6167455,1,2,1561914562.454282,1561913957.287787,32,0.8918345,0,0,26.32609,0,0,1561914413.669193,197274.72104,0,2.256592,75.28386,3232235528,177845136,1,1,0.52,-17.08467,-35.52708,4
1561914562.915944,109,0,0,1561914561.999692,4.634765940722669,-74.15114753886512,2553.061,0,193.359375,4,30,-9999,1561914562.88136,-17.28327941894531,23.04010772705078,7.71923828125,3.592600345611572,11.08606815338135,15,197278.0677345,-1.4263916015625,-0.179901123046875,0.009185791015625,197278.0505225,1.211115116290975,-0.8529977139791476,1.227731643596415,197278.0558935,-92.08622741699219,-5.51483154296875,-556.1593627929688,197278.0505225,1.05016481071611,-1.700491001905901,0.125252322789745,1.208036780357361,-0.8599984645843506,1.224541068077087,-0.2443768978118896,-0.05007797479629517,-0.0763009786605835,1,-0.4116784930229187,0.6282355785369873,-0.2894048094749451,-0.5933682322502136,-0.9838335514068604,-0.1249250844120979,0.1283182501792908,0,0,0,-1,197277.6167455,1,2,1561914562.454282,1561913957.287787,32,0.8918345,0,0,26.32609,0,0,1561914413.669193,197274.72104,0,2.256592,75.28386,3232235528,177845136,1,1,0.52,-17.08467,-37.46918,4
1561914562.931585,110,0,0,1561914561.999692,4.634765940722669,-74.15114753886512,2553.061,0,193.359375,4,30,-9999,1561914562.907973,-16.86066436767578,23.68888092041016,7.5804443359375,1.990159511566162,9.483627319335938,15,197278.0879975,-1.680099487304688,-0.2660369873046875,0.0582427978515625,197278.0707555,1.900708988950022,-0.8939872252648842,0.9171122519583692,197278.0760045,-91.63882446289062,-5.004959106445312,-556.9767456054688,197278.0707555,1.077806307986723,-1.721413882765673,0.09820397670360723,1.89763069152832,-0.900987982749939,0.9139217138290405,-0.4424766302108765,-0.08185490965843201,-0.1401399374008179,1,-0.4161504805088043,0.6336258053779602,-0.3022050857543945,-0.5779352784156799,-0.9839149713516235,-0.0980462059378624,0.1493257731199265,0,0,0,-1,197277.6167455,1,2,1561914562.454282,1561913957.287787,32,0.8918345,0,0,26.32609,0,0,1561914413.669193,197275.667002,0,2.42041,75.28233,3232235528,177845136,1,1,0.52,-17.08467,-37.46918,4
1561914562.95184,111,0,0,1561914561.999692,4.634765940722669,-74.15114753886512,2553.061,0,193.359375,4,30,-9999,1561914562.932001,-15.75841522216797,24.54528617858887,6.4349365234375,359.2166137695312,6.710096836090088,15,197278.1082615,-1.8653564453125,-0.46453857421875,0.1735382080078125,197278.0910195,2.2272114733293,-0.9421795220348491,-0.1375051323512982,197278.0961155,-91.46876525878906,-4.860519409179688,-557.6849365234375,197278.0910195,1.119359217852526,-1.74438155290548,0.08221329903725515,2.224133014678955,-0.9491802453994751,-0.1406956315040588,-0.6984543800354004,-0.1839162707328796,-0.1138886213302612,1,-0.4285967946052551,0.6343268156051636,-0.3145027458667755,-0.5612685084342957,-0.9816450476646423,-0.08212071657180786,0.1721314489841461,0,0,0,-1,197277.6167455,1,2,1561914562.454282,1561913957.287787,32,0.8918345,0,0,26.32609,0,0,1561914413.669193,197275.667002,0,2.42041,75.28233,3232235528,177845136,1,1,0.52,-17.08467,-38.24096,4
1561914562.972931,112,0,0,1561914561.999692,4.634765940722669,-74.15114753886512,2553.061,0,193.359375,4,30,-9999,1561914562.958407,-15.78156280517578,24.54010009765625,5.6612548828125,356.1194763183594,3.612953662872314,15,197278.1285255,-2.055984497070312,-0.55938720703125,0.2994384765625,197278.1112825,1.63917591725988,-0.4455359314097872,-2.061719181082359,197278.1161965,-92.09674072265625,-4.976318359375,-558.490966796875,197278.1112825,1.162983737127949,-1.763529409525106,0.09563128938210873,1.636097550392151,-0.4525366425514221,-2.064909696578979,-0.8883565664291382,-0.3690529763698578,-0.01712870597839355,1,-0.448871523141861,0.6275729537010193,-0.3179925978183746,-0.5509513020515442,-0.9769999384880066,-0.09548559039831161,0.1906669139862061,0,0,0,-1,197277.6167455,1,2,1561914562.454282,1561913957.287787,32,0.8918345,0,0,26.32609,0,0,1561914413.669193,197275.667002,0,2.42041,75.28233,3232235528,177845136,1,1,0.52,-17.08467,-38.85315,4
1561914563.002678,113,0,0,1561914561.999692,4.634765940722669,-74.15114753886512,2553.061,0,193.359375,4,30,-9999,1561914562.984814,-16.95085906982422,24.0687313079834,5.10638427734375,354.03662109375,1.530074238777161,15,197278.1487885,-2.15264892578125,-0.5227813720703125,0.3818206787109375,197278.1315465,0.3946863325041413,0.3673367333734635,-4.307871322400412,197278.1363075,-94.14727783203125,-6.30706787109375,-558.849853515625,197278.1315465,1.196709516198735,-1.768491639327527,0.1546197069862958,0.3916079699993134,0.3603360056877136,-4.311061859130859,-1.087160110473633,-0.4053828418254852,0.1053714752197266,1,-0.4748137593269348,0.609578013420105,-0.3066272735595703,-0.5558293461799622,-0.9688243865966797,-0.1540043503046036,0.1940669268369675,0,0,0,-1,197277.6167455,1,2,1561914562.454282,1561913957.287787,32,0.8918345,0,0,26.32609,0,0,1561914413.669193,197275.667002,0,2.42041,75.28233,3232235528,177845136,1,1,0.52,-17.08467,-35.42582,4
1561914563.012462,114,0,0,1561914561.999692,4.634765940722669,-74.15114753886512,2553.061,0,193.359375,4,30,-9999,1561914563.009119,-19.32827758789062,22.44944000244141,4.67547607421875,353.9010009765625,1.394473314285278,15,197278.1690525,-1.940872192382812,-0.550506591796875,0.4403839111328125,197278.1518105,-0.9493104021696452,1.083690581297845,-6.565508079603322,197278.1564185,-97.11894226074219,-8.612762451171875,-558.814697265625,197278.1518105,1.212649298819388,-1.75675315837529,0.2646868056304898,-0.9523887634277344,1.076689839363098,-6.568698406219482,-1.204114198684692,-0.261174350976944,0.2033724784851074,1,-0.5040063858032227,0.5789660215377808,-0.2771492302417755,-0.5778964161872864,-0.9485347270965576,-0.2616069912910461,0.1784481853246689,0,0,0,-1,197277.6167455,1,2,1561914562.454282,1561913957.287787,32,0.8918345,0,0,26.32609,0,0,1561914413.669193,197275.667002,0,2.42041,75.28233,3232235528,177845136,1,1,0.52,-17.08467,-36.13419,4
1561914563.033155,115,0,0,1561914561.999692,4.634765940722669,-74.15114753886512,2553.061,0,193.359375,4,30,-9999,1561914563.009119,-19.32827758789062,22.44944000244141,4.67547607421875,353.9010009765625,1.394473314285278,15,197278.1892855,-1.596466064453125,-0.3332061767578125,0.4696502685546875,197278.1720735,-3.544512414920023,1.850340623253353,-7.135778220673042,197278.1764985,-100.3133697509766,-12.24966430664062,-558.6914672851562,197278.1720735,1.193804203723524,-1.718476104399156,0.4103265728774973,-3.547590732574463,1.843339920043945,-7.138968467712402,-1.033862829208374,-0.151597797870636,0.3054546117782593,1,-0.5267952680587769,0.5384713411331177,-0.2317389249801636,-0.6154937148094177,-0.9070093631744385,-0.3989088237285614,0.134929284453392,0,0,0,-1,197277.6167455,1,2,1561914562.454282,1561913957.287787,32,0.8918345,0,0,26.32609,0,0,1561914413.669193,197275.667002,0,2.42041,75.28233,3232235528,177845136,1,1,0.52,-17.08467,-36.59103,4
1561914563.053696,116,0,0,1561914562.999686,4.634730149996127,-74.15111518471888,2553.064,0,201.4453125,4,30,-9999,1561914563.034905,-25.26464080810547,15.91632652282715,5.284912109375,359.2097778320312,6.703234195709229,15,197278.2095495,-1.405609130859375,-0.39996337890625,0.42694091796875,197278.1923375,-5.566506287286106,1.207834900776324,-8.518900520185619,197278.1966095,-103.1559600830078,-17.12295532226562,-557.5778198242188,197278.1923375,1.103250426107956,-1.64097974343284,0.5752774657808651,-5.569584846496582,1.200834155082703,-8.522090911865234,-0.7594900727272034,0.2108614444732666,0.4108117818832397,1,-0.5323439836502075,0.4960132241249084,-0.1659312397241592,-0.6656183004379272,-0.8369759321212769,-0.5440676212310791,0.05883847177028656,0,0,0,-1,197277.6167455,1,2,1561914562.454282,1561913957.287787,32,0.8918345,0,0,26.32609,0,0,1561914413.669193,197275.667002,0,2.42041,75.28233,3232235528,177845136,1,1,0.52,-17.08467,-36.59103,4
1561914563.079234,117,0,0,1561914562.999686,4.634730149996127,-74.15111518471888,2553.064,0,201.4453125,4,30,-9999,1561914563.066473,-27.85476684570312,10.30387115478516,6.40277099609375,9.679018020629883,17.1724853515625,15,197278.2298135,-1.673248291015625,0.00714111328125,0.4822845458984375,197278.2126015,-5.85866571151216,-0.6920780693238727,-11.4431483361563,197278.2167215,-104.8463897705078,-24.12294006347656,-556.1781005859375,197278.2126015,0.9596942858428751,-1.546880507548045,0.7795471689224301,-5.861743927001953,-0.6990787982940674,-11.44633865356445,-0.6945804357528687,0.3029940724372864,0.4439489841461182,1,-0.5394899845123291,0.4477125406265259,-0.0700615867972374,-0.709644615650177,-0.7110286355018616,-0.7029574513435364,-0.01700807549059391,0,0,0,-1,197277.6167455,1,2,1561914562.454282,1561913957.287787,32,0.8918345,0,0,26.32609,0,0,1561914413.669193,197275.667002,0,2.42041,75.28233,3232235528,177845136,1,1,0.52,-17.08467,-32.15015,4
1561914563.09373,118,0,0,1561914562.999686,4.634730149996127,-74.15111518471888,2553.064,0,201.4453125,4,30,-9999,1561914563.066473,-27.85476684570312,10.30387115478516,6.40277099609375,9.679018020629883,17.1724853515625,15,197278.2500765,-1.298187255859375,0.576171875,0.2593231201171875,197278.2328645,-6.596467859907712,-0.7849638018236563,-12.59717806184921,197278.2368325,-105.1790161132812,-32.43864440917969,-555.8765258789062,197278.2328645,0.7169969749171572,-1.374051688311172,1.014708990660334,-6.599546432495117,-0.7919645309448242,-12.60036754608154,-1.155564546585083,0.8564680814743042,0.5854709148406982,1,-0.5462623834609985,0.3873037993907928,0.05146709084510803,-0.7409078478813171,-0.5176838040351868,-0.8493269681930542,-0.1031863540410995,0,0,0,-1,197277.6167455,1,2,1561914562.454282,1561913957.287787,32,0.8918345,0,0,26.32609,0,0,1561914413.669193,197275.667002,0,2.42041,75.28233,3232235528,177845136,1,1,0.52,-17.08467,-32.15015,4
1561914563.113913,119,0,0,1561914562.999686,4.634730149996127,-74.15111518471888,2553.064,0,201.4453125,4,30,-9999,1561914563.110135,-26.49510955810547,-13.00590133666992,6.38031005859375,106.9187469482422,114.4122161865234,15,197278.2703405,-0.41412353515625,0.5967864990234375,0.0192718505859375,197278.2531285,-6.531871289771185,0.2257777372108467,-11.89798109661545,197278.2569435,-103.5142059326172,-40.35848999023438,-556.9232177734375,197278.2531285,0.206721549238993,-0.9195374055284775,1.191646997985897,-6.534949779510498,0.2187770158052444,-11.90117073059082,-1.003814458847046,1.505151748657227,0.483691930770874,1,-0.5381243228912354,0.3134291470050812,0.1711641103029251,-0.7634705901145935,-0.2943727374076843,-0.9289798140525818,-0.2243687659502029,0,0,0,-1,197277.6167455,1,2,1561914562.454282,1561913957.287787,32,0.8918345,0,0,26.32609,0,0,1561914413.669193,197275.667002,0,2.42041,75.28233,3232235528,177845136,1,1,0.52,-17.08467,-30.40847,4
1561914563.13437,120,0,0,1561914562.999686,4.634730149996127,-74.15111518471888,2553.064,0,201.4453125,4,30,-9999,1561914563.110135,-26.49510955810547,-13.00590133666992,6.38031005859375,106.9187469482422,114.4122161865234,15,197278.2906045,0.260986328125,0.3507232666015625,-0.1612548828125,197278.2733925,-3.521859034055591,-0.8673422985586414,-10.56494753088508,197278.2770235,-99.94610595703125,-46.68716430664062,-557.8565673828125,197278.2733925,-0.5129291172635575,-0.2448669824752904,1.230486643613069,-3.524937391281128,-0.8743430376052856,-10.56813716888428,-0.3332063555717468,1.539437770843506,0.3430942893028259,1,-0.5288022756576538,0.241778701543808,0.2737798988819122,-0.7661304473876953,-0.08091717958450317,-0.9426513314247131,-0.3238224387168884,0,0,0,-1,197277.6167455,1,2,1561914562.454282,1561913957.287787,32,0.8918345,0,0,26.32609,0,0,1561914413.669193,197275.667002,0,2.42041,75.28233,3232235528,177845136,1,1,0.52,-17.08467,-31.22552,4
