loggingTime,loggingSample,identifierForVendor,deviceID,locationTimestamp_since1970,locationLatitude,locationLongitude,locationAltitude,locationSpeed,locationCourse,locationVerticalAccuracy,locationHorizontalAccuracy,locationFloor,locationHeadingTimestamp_since1970,locationHeadingX,locationHeadingY,locationHeadingZ,locationTrueHeading,locationMagneticHeading,locationHeadingAccuracy,accelerometerTimestamp_sinceReboot,accelerometerAccelerationX,accelerometerAccelerationY,accelerometerAccelerationZ,gyroTimestamp_sinceReboot,gyroRotationX,gyroRotationY,gyroRotationZ,magnetometerTimestamp_sinceReboot,magnetometerX,magnetometerY,magnetometerZ,motionTimestamp_sinceReboot,motionYaw,motionRoll,motionPitch,motionRotationRateX,motionRotationRateY,motionRotationRateZ,motionUserAccelerationX,motionUserAccelerationY,motionUserAccelerationZ,motionAttitudeReferenceFrame,motionQuaternionX,motionQuaternionY,motionQuaternionZ,motionQuaternionW,motionGravityX,motionGravityY,motionGravityZ,motionMagneticFieldX,motionMagneticFieldY,motionMagneticFieldZ,motionMagneticFieldCalibrationAccuracy,activityTimestamp_sinceReboot,activity,activityActivityConfidence,activityActivityStartDate,pedometerStartDate,pedometerNumberofSteps,pedometerAverageActivePace,pedometerCurrentPace,pedometerCurrentCadence,pedometerDistance,pedometerFloorAscended,pedometerFloorDescended,pedometerEndDate,altimeterTimestamp_sinceReboot,altimeterReset,altimeterRelativeAltitude,altimeterPressure,IP_en0,IP_pdp_ip0,deviceOrientation,batteryState,batteryLevel,avAudioRecorderPeakPower,avAudioRecorderAveragePower,label
1561914504.891856,1,0,0,1561914504.000074,4.634690880779768,-74.15106112144342,2553.062,0.61,196.875,4,50,-9999,1561914504.87553,-4.103904724121094,24.81818771362305,-15.696533203125,330.9422912597656,338.4357604980469,15,197220.040904375,-0.695220947265625,0.0271453857421875,-0.593658447265625,197220.023661375,0.00849548387735277,-0.6611100332201043,0.5237290041756038,197220.018534375,-79.49113464355469,-4.433746337890625,-579.5286254882812,197220.023661375,1.610770317827902,-0.8797173099902845,0.01185216823146618,0.005698833614587784,-0.6678302884101868,0.5205027461051941,0.1179167032241821,0.02679023146629333,0.005885064601898193,1,-0.3107612133026123,0.2911448776721954,-0.6506978869438171,-0.6286926865577698,-0.7705046534538269,-0.01185189094394445,-0.6373242735862732,0,0,0,-1,197219.913767375,3,1,1561914504.751304,1561913957.287787,32,0.8918345,0,0,26.32609,0,0,1561914413.669193,197217.027653,0,1.907715,75.28717,3232235528,177845136,1,1,0.53,-10.5339,-21.0846,0
1561914504.915491,2,0,0,1561914504.000074,4.634690880779768,-74.15106112144342,2553.062,0.61,196.875,4,50,-9999,1561914504.87553,-4.103904724121094,24.81818771362305,-15.696533203125,330.9422912597656,338.4357604980469,15,197220.061167375,-0.7073516845703125,0.02703857421875,-0.521881103515625,197220.043925375,-0.06590977487004404,-0.7181099363471792,0.4787548712668906,197220.038645375,-80.08212280273438,-4.521408081054688,-579.0867309570312,197220.043925375,1.616668137783493,-0.8940008745536503,0.003495691516293012,-0.06870642304420471,-0.724830150604248,0.4755285978317261,0.08435797691345215,0.03064107894897461,0.03263574838638306,1,-0.3136734962463379,0.2974253594875336,-0.6515647768974304,-0.6233862042427063,-0.7795789241790771,-0.003495684359222651,-0.6262941956520081,0,0,0,-1,197219.913767375,3,1,1561914504.751304,1561913957.287787,32,0.8918345,0,0,26.32609,0,0,1561914413.669193,197217.027653,0,1.907715,75.28717,3232235528,177845136,1,1,0.53,-11.09118,-21.7578,0
1561914504.925461,3,0,0,1561914504.000074,4.634690880779768,-74.15106112144342,2553.062,0.61,196.875,4,50,-9999,1561914504.923456,-4.184921264648438,25.05832672119141,-15.557373046875,330.1943359375,337.6878051757812,15,197220.081400375,-0.716278076171875,0.0494537353515625,-0.42596435546875,197220.064189375,-0.05684570609995936,-0.7182742533864371,0.3672243479754622,197220.058756375,-79.95346069335938,-4.3974609375,-578.947265625,197220.064189375,1.620897750207079,-0.9087608783819893,-0.004108058729134774,-0.05964235588908195,-0.7249944806098938,0.3639980554580688,0.08138430118560791,0.02293050289154053,0.09283733367919922,1,-0.316756933927536,0.3038187623023987,-0.6516939997673035,-0.6185905337333679,-0.7887359857559204,0.004108047112822533,-0.6147184371948242,0,0,0,-1,197219.913767375,3,1,1561914504.751304,1561913957.287787,32,0.8918345,0,0,26.32609,0,0,1561914413.669193,197217.027653,0,1.907715,75.28717,3232235528,177845136,1,1,0.53,-11.09118,-21.7578,0
1561914504.945686,4,0,0,1561914504.000074,4.634690880779768,-74.15106112144342,2553.062,0.61,196.875,4,50,-9999,1561914504.923456,-4.184921264648438,25.05832672119141,-15.557373046875,330.1943359375,337.6878051757812,15,197220.101664375,-0.75164794921875,0.0822601318359375,-0.356689453125,197220.084452375,-0.04534910599019629,-0.728689876409737,0.3249354803938759,197220.078867375,-79.70500183105469,-4.320999145507812,-579.048583984375,197220.084452375,1.624139911710708,-0.9233905513222086,-0.01002344205553525,-0.04814575612545013,-0.7354100942611694,0.3217091858386993,0.08133292198181152,0.03943046927452087,0.1771245002746582,1,-0.3201897144317627,0.3097323477268219,-0.6512575149536133,-0.6143354177474976,-0.7976109981536865,0.0100232744589448,-0.6030888557434082,0,0,0,-1,197219.913767375,3,1,1561914504.751304,1561913957.287787,32,0.8918345,0,0,26.32609,0,0,1561914413.669193,197217.027653,0,1.907715,75.28717,3232235528,177845136,1,1,0.53,-11.64846,-21.94819,0
1561914504.965866,5,0,0,1561914504.000074,4.634690880779768,-74.15106112144342,2553.062,0.61,196.875,4,50,-9999,1561914504.962436,-4.23138427734375,25.12334251403809,-15.06451416015625,329.7640075683594,337.2574768066406,15,197220.121928375,-0.7725677490234375,0.1174774169921875,-0.3566436767578125,197220.104716375,-0.1925265731045533,-0.9098471485046331,0.529519781649872,197220.098979375,-79.99977111816406,-4.297698974609375,-578.880859375,197220.104716375,1.627395372631201,-0.9400948512312194,-0.01776290891296542,-0.1953232288360596,-0.9165673851966858,0.5262935161590576,0.05583858489990234,0.06449815630912781,0.2329288721084595,1,-0.3237516283988953,0.3168212473392487,-0.6507417559623718,-0.6093801856040955,-0.8074865937232971,0.01776197552680969,-0.5896183848381042,0,0,0,-1,197219.913767375,3,1,1561914504.751304,1561913957.287787,32,0.8918345,0,0,26.32609,0,0,1561914413.669193,197217.027653,0,1.907715,75.28717,3232235528,177845136,1,1,0.53,-12.20573,-22.49719,0
1561914504.994978,6,0,0,1561914504.000074,4.634690880779768,-74.15106112144342,2553.062,0.61,196.875,4,50,-9999,1561914504.9868,-4.023262023925781,25.43417739868164,-14.84710693359375,329.9743041992188,337.4677734375,15,197220.142191375,-0.8329315185546875,0.1136016845703125,-0.39544677734375,197220.124980375,-0.5751005826549053,-1.159131809709282,0.7835440706465351,197220.119090375,-79.6932373046875,-4.0858154296875,-578.71240234375,197220.124980375,1.629140598306063,-0.9607860355796149,-0.03302998343090569,-0.5778972506523132,-1.165852069854736,0.7803177833557129,0.04662728309631348,0.08445343375205994,0.2159197330474854,1,-0.3260709643363953,0.3277133107185364,-0.6502441167831421,-0.6028800010681152,-0.819195032119751,0.03302397951483727,-0.5725634098052979,0,0,0,-1,197219.913767375,3,1,1561914504.751304,1561913957.287787,32,0.8918345,0,0,26.32609,0,0,1561914413.669193,197217.027653,0,1.907715,75.28717,3232235528,177845136,1,1,0.53,-12.76301,-23.18514,0
1561914505.006348,7,0,0,1561914504.000074,4.634690880779768,-74.15106112144342,2553.062,0.61,196.875,4,50,-9999,1561914504.9868,-4.023262023925781,25.43417739868164,-14.84710693359375,329.9743041992188,337.4677734375,15,197220.162455375,-0.85858154296875,0.1024017333984375,-0.3946990966796875,197220.145213375,-1.003441814486596,-1.205901179508818,0.7174646524150531,197220.139170375,-79.98721313476562,-3.634201049804688,-578.3687133789062,197220.145213375,1.624434772991351,-0.9856273306854716,-0.05529995395055029,-1.006248116493225,-1.212631106376648,0.7142395973205566,-0.0005871057510375977,0.05832991003990173,0.1560491323471069,1,-0.3265015482902527,0.342999666929245,-0.6481991410255432,-0.5963101983070374,-0.8323444724082947,0.05527177453041077,-0.5514959096908569,0,0,0,-1,197219.913767375,3,1,1561914504.751304,1561913957.287787,32,0.8918345,0,0,26.32609,0,0,1561914413.669193,197217.027653,0,1.907715,75.28717,3232235528,177845136,1,1,0.53,-13.32029,-23.79936,0
1561914505.026701,8,0,0,1561914504.000074,4.634690880779768,-74.15106112144342,2553.062,0.61,196.875,4,50,-9999,1561914505.013375,-4.095664978027344,26.17587089538574,-13.76434326171875,330.7979125976562,338.2913818359375,15,197220.182719375,-0.871368408203125,0.142364501953125,-0.3756561279296875,197220.165476375,-1.022026684153714,-1.196410206015993,0.4710894947013156,197220.159281375,-79.93803405761719,-3.151397705078125,-577.3377075195312,197220.165476375,1.612810650555171,-1.010678722583547,-0.07677907325966331,-1.024832963943481,-1.203140139579773,0.4678644239902496,-0.0138847827911377,0.02569806575775146,0.1350215077400208,1,-0.3259283602237701,0.3590409457683563,-0.6439796686172485,-0.5917350649833679,-0.8446967005729675,0.07670366019010544,-0.5297206044197083,0,0,0,-1,197219.913767375,3,1,1561914504.751304,1561913957.287787,32,0.8918345,0,0,26.32609,0,0,1561914413.669193,197217.027653,0,1.907715,75.28717,3232235528,177845136,1,1,0.53,-13.32029,-23.79936,0
1561914505.047486,9,0,0,1561914505.000068,4.634686354552056,-74.15105734958699,2553.055,0.61,198.6328125,4,50,-9999,1561914505.04242,-4.176101684570312,26.44492340087891,-13.1756591796875,331.4452209472656,338.9386901855469,15,197220.202982375,-0.9579010009765625,0.2116241455078125,-0.3894805908203125,197220.185740375,-0.6878854548197609,-1.565543774176933,0.4254471746751015,197220.179392375,-79.84573364257812,-2.853424072265625,-577.1249389648438,197220.185740375,1.602257626649362,-1.038926545891124,-0.09328618886921559,-0.6906917691230774,-1.572273731231689,0.4222221076488495,-0.01325547695159912,0.04921355843544006,0.1292845010757446,1,-0.3279414772987366,0.374144434928894,-0.6388380527496338,-0.5868188142776489,-0.8581129908561707,0.09315094351768494,-0.5049406290054321,0,0,0,-1,197219.913767375,3,1,1561914504.751304,1561913957.287787,32,0.8918345,0,0,26.32609,0,0,1561914413.669193,197217.027653,0,1.907715,75.28717,3232235528,177845136,1,1,0.53,-13.87757,-24.1165,0
1561914505.073589,10,0,0,1561914505.000068,4.634686354552056,-74.15105734958699,2553.055,0.61,198.6328125,4,50,-9999,1561914505.063662,-4.226119995117188,26.75149154663086,-12.68792724609375,331.7197265625,339.2131958007812,15,197220.223246375,-1.093658447265625,0.2180328369140625,-0.41796875,197220.206004375,-0.462636887717513,-2.008844514483817,0.5323560482108064,197220.199503375,-80.26254272460938,-2.621932983398438,-576.3487548828125,197220.206004375,1.597186141861868,-1.076328828341778,-0.1072560471419365,-0.4654432237148285,-2.01557469367981,0.5291309952735901,-0.08273756504058838,0.1045736372470856,0.08235538005828857,1,-0.3345450460910797,0.390078991651535,-0.6334012746810913,-0.5785506963729858,-0.8751634359359741,0.1070505231618881,-0.4718359708786011,0,0,0,-1,197219.913767375,3,1,1561914504.751304,1561913957.287787,32,0.8918345,0,0,26.32609,0,0,1561914413.669193,197217.027653,0,1.907715,75.28717,3232235528,177845136,1,1,0.53,-14.43485,-24.95528,0
1561914505.087926,11,0,0,1561914505.000068,4.634686354552056,-74.15105734958699,2553.055,0.61,198.6328125,4,50,-9999,1561914505.063662,-4.226119995117188,26.75149154663086,-12.68792724609375,331.7197265625,339.2131958007812,15,197220.243510375,-1.14141845703125,0.22113037109375,-0.4057769775390625,197220.226267375,-0.5377124641112828,-1.76520735268679,0.4342651673604629,197220.219615375,-80.56697082519531,-2.74322509765625,-576.1002197265625,197220.226267375,1.593029118305964,-1.116556333045242,-0.1207964860146655,-0.5405187606811523,-1.771937251091003,0.4310401082038879,-0.2016117572784424,0.09752994775772095,0.01761335134506226,1,-0.3422264754772186,0.4063126742839813,-0.627626895904541,-0.5691006183624268,-0.8920466899871826,0.1205029264092445,-0.4355821013450623,0,0,0,-1,197219.913767375,3,1,1561914504.751304,1561913957.287787,32,0.8918345,0,0,26.32609,0,0,1561914413.669193,197217.027653,0,1.907715,75.28717,3232235528,177845136,1,1,0.53,-14.99213,-25.68841,0
1561914505.107705,12,0,0,1561914505.000068,4.634686354552056,-74.15105734958699,2553.055,0.61,198.6328125,4,50,-9999,1561914505.088028,-4.819503784179688,26.74822235107422,-12.36041259765625,332.2606811523438,339.754150390625,15,197220.263743375,-1.10211181640625,0.22161865234375,-0.36334228515625,197220.246531375,-0.6808813411528526,-1.114708951146215,0.1830278764445677,197220.239726375,-80.51087951660156,-2.454071044921875,-575.4143676757812,197220.246531375,1.584327121634217,-1.146888142359613,-0.1316255654750413,-0.6836876273155212,-1.12143886089325,0.1798028200864792,-0.2378146648406982,0.08988457918167114,0.001990795135498047,1,-0.3465768694877625,0.419524222612381,-0.6217645406723022,-0.5632873773574829,-0.9036037921905518,0.1312458217144012,-0.4077678024768829,0,0,0,-1,197219.913767375,3,1,1561914504.751304,1561913957.287787,32,0.8918345,0,0,26.32609,0,0,1561914413.669193,197217.027653,0,1.907715,75.28717,3232235528,177845136,1,1,0.53,-15.54941,-26.15013,0
1561914505.127983,13,0,0,1561914505.000068,4.634686354552056,-74.15105734958699,2553.055,0.61,198.6328125,4,50,-9999,1561914505.114293,-4.960968017578125,27.14726066589355,-11.5675048828125,333.2310180664062,340.7244873046875,15,197220.284007375,-1.058563232421875,0.2399749755859375,-0.327239990234375,197220.266795375,-0.8188360150961562,-0.7087081787508726,0.002459695582797184,197220.259837375,-80.63221740722656,-2.270889282226562,-574.7984619140625,197220.266795375,1.570859552607117,-1.166811689968301,-0.1391554152728497,-0.8216423392295837,-0.715438187122345,-0.0007653585635125637,-0.1914982199668884,0.0829119086265564,0.02594327926635742,1,-0.3475669324398041,0.4295980036258698,-0.6158153414726257,-0.5616174936294556,-0.9106135964393616,0.1387067437171936,-0.3892855644226074,0,0,0,-1,197219.913767375,3,1,1561914504.751304,1561913957.287787,32,0.8918345,0,0,26.32609,0,0,1561914413.669193,197217.027653,0,1.907715,75.28717,3232235528,177845136,1,1,0.53,-16.10669,-26.55283,0
1561914505.158382,14,0,0,1561914505.000068,4.634686354552056,-74.15105734958699,2553.055,0.61,198.6328125,4,50,-9999,1561914505.147212,-4.995880126953125,27.66702842712402,-10.8875732421875,334.4783325195312,341.9718017578125,15,197220.304270375,-1.067489624023438,0.272186279296875,-0.3180999755859375,197220.287058375,-0.9555930654972512,-0.6836600834342412,0.03205167635132165,197220.279948375,-80.67120361328125,-1.960433959960938,-574.7998657226562,197220.287058375,1.554012330409885,-1.182806808258088,-0.1460183806790176,-0.9583993554115295,-0.6903901100158691,0.02882662042975426,-0.1427425146102905,0.0944749116897583,0.04706203937530518,1,-0.34669029712677,0.4389246106147766,-0.6095108985900879,-0.5618250966072083,-0.9158207774162292,0.145500048995018,-0.3743020594120026,0,0,0,-1,197219.913767375,3,1,1561914504.751304,1561913957.287787,32,0.8918345,0,0,26.32609,0,0,1561914413.669193,197217.027653,0,1.907715,75.28717,3232235528,177845136,1,1,0.53,-16.66397,-26.62572,0
1561914505.17029,15,0,0,1561914505.000068,4.634686354552056,-74.15105734958699,2553.055,0.61,198.6328125,4,50,-9999,1561914505.147212,-4.995880126953125,27.66702842712402,-10.8875732421875,334.4783325195312,341.9718017578125,15,197220.324534375,-1.0572509765625,0.256011962890625,-0.3116302490234375,197220.307322375,-1.098003474260366,-0.8908444288624817,0.1733696564352863,197220.300059375,-81.18939208984375,-1.510574340820312,-573.878173828125,197220.307322375,1.535154516203314,-1.201900601485515,-0.1557573110227186,-1.100809812545776,-0.8975744247436523,0.1701446026563644,-0.1460548639297485,0.1170579791069031,0.0381205677986145,1,-0.3452627658843994,0.4502036869525909,-0.6026542782783508,-0.5611755847930908,-0.9214348196983337,0.1551282852888107,-0.3562205135822296,0,0,0,-1,197219.913767375,3,1,1561914504.751304,1561913957.287787,32,0.8918345,0,0,26.32609,0,0,1561914413.669193,197217.027653,0,1.907715,75.28717,3232235528,177845136,1,1,0.53,-17.22124,-22.66995,0
1561914505.189343,16,0,0,1561914505.000068,4.634686354552056,-74.15105734958699,2553.055,0.61,198.6328125,4,50,-9999,1561914505.147212,-4.995880126953125,27.66702842712402,-10.8875732421875,334.4783325195312,341.9718017578125,15,197220.344798375,-1.058609008789062,0.25921630859375,-0.3029327392578125,197220.327586375,-1.090265127080923,-0.9285145761655434,0.1268338458633508,197220.320170375,-80.97705078125,-1.206253051757812,-573.2579345703125,197220.327586375,1.514897130157473,-1.22391050596382,-0.166668717306458,-1.093071460723877,-0.9352445602416992,0.1236087903380394,-0.1298466920852661,0.09011381864547729,0.02362954616546631,1,-0.3438261151313782,0.4627674520015717,-0.5951769948005676,-0.559816300868988,-0.9274042844772339,0.1658981591463089,-0.3352597653865814,0,0,0,-1,197219.913767375,3,1,1561914504.751304,1561913957.287787,32,0.8918345,0,0,26.32609,0,0,1561914413.669193,197217.027653,0,1.907715,75.28717,3232235528,177845136,1,1,0.53,-17.22124,-22.66995,0
1561914505.209054,17,0,0,1561914505.000068,4.634686354552056,-74.15105734958699,2553.055,0.61,198.6328125,4,50,-9999,1561914505.18956,-5.295921325683594,28.00193786621094,-9.1990966796875,337.2996826171875,344.7931518554688,15,197220.365061375,-1.0538330078125,0.290069580078125,-0.28070068359375,197220.347819375,-0.9210199082258426,-0.9018565999699594,0.02891926627717045,197220.340281375,-81.16539001464844,-1.334121704101562,-572.76220703125,197220.347819375,1.495725967607286,-1.245806169577391,-0.174915122176084,-0.9238262176513672,-0.9085866212844849,0.02569421194493771,-0.125415027141571,0.08519172668457031,0.01149463653564453,1,-0.3432251214981079,0.4743235409259796,-0.5875957608222961,-0.5585203766822815,-0.9331939816474915,0.1740245521068573,-0.314427375793457,0,0,0,-1,197219.913767375,3,1,1561914504.751304,1561913957.287787,32,0.8918345,0,0,26.32609,0,0,1561914413.669193,197217.027653,0,1.907715,75.28717,3232235528,177845136,1,1,0.53,-17.77852,-22.79568,0
1561914505.236433,18,0,0,1561914505.000068,4.634686354552056,-74.15105734958699,2553.055,0.61,198.6328125,4,50,-9999,1561914505.21558,-5.725341796875,28.33086204528809,-8.1295166015625,338.4669189453125,345.9603881835938,15,197220.385325375,-1.0723876953125,0.302581787109375,-0.27294921875,197220.368083375,-0.7371070633510415,-1.024213139408669,-0.06946189913199173,197220.360362375,-81.37501525878906,-0.9395599365234375,-571.9373779296875,197220.368083375,1.479405752281243,-1.267953992229467,-0.1795106498114162,-0.7399133443832397,-1.030943036079407,-0.07268694788217545,-0.114677906036377,0.111521452665329,0.01274144649505615,1,-0.3443352878093719,0.4844709932804108,-0.5801161527633667,-0.5569437742233276,-0.9391551613807678,0.1785481125116348,-0.2934421300888062,0,0,0,-1,197219.913767375,3,1,1561914504.751304,1561913957.287787,32,0.8918345,0,0,26.32609,0,0,1561914413.669193,197217.027653,0,1.907715,75.28717,3232235528,177845136,1,1,0.53,-18.3358,-23.24257,0
1561914505.253633,19,0,0,1561914505.000068,4.634686354552056,-74.15105734958699,2553.055,0.61,198.6328125,4,50,-9999,1561914505.240246,-6.004714965820312,28.49769592285156,-7.52508544921875,339.409912109375,346.9033813476562,15,197220.405589375,-1.064697265625,0.29156494140625,-0.2711181640625,197220.388346375,-0.6226007238575585,-1.195601670309045,-0.03727386893285803,197220.380473375,-81.61346435546875,-0.9210662841796875,-571.3654174804688,197220.388346375,1.465504680042108,-1.2931806523903,-0.1822161571384812,-0.6254070401191711,-1.20233166217804,-0.04049892351031303,-0.1265976428985596,0.1213722825050354,-0.003423035144805908,1,-0.3473520278930664,0.4945538341999054,-0.5724228620529175,-0.5541616678237915,-0.9457900524139404,0.1812094897031784,-0.2695261538028717,0,0,0,-1,197219.913767375,3,1,1561914504.751304,1561913957.287787,32,0.8918345,0,0,26.32609,0,0,1561914413.669193,197217.973118,0,1.762451,75.28853,3232235528,177845136,1,1,0.53,-18.89308,-23.73225,0
1561914505.269947,20,0,0,1561914505.000068,4.634686354552056,-74.15105734958699,2553.055,0.61,198.6328125,4,50,-9999,1561914505.240246,-6.004714965820312,28.49769592285156,-7.52508544921875,339.409912109375,346.9033813476562,15,197220.4258535,-1.11114501953125,0.2794342041015625,-0.294464111328125,197220.408610375,-0.4685451105958539,-1.356141281876766,0.08630159933678076,197220.400584375,-81.98138427734375,-0.829498291015625,-571.17431640625,197220.408610375,1.454754704798265,-1.321386389321471,-0.1853579014563924,-0.4713514447212219,-1.362871289253235,0.08307654410600662,-0.1122386455535889,0.1072666347026825,-0.02851408720016479,1,-0.3517036139965057,0.5049777626991272,-0.5651597380638123,-0.5494511127471924,-0.9524586200714111,0.1842983216047287,-0.2426040470600128,0,0,0,-1,197219.913767375,3,1,1561914504.751304,1561913957.287787,32,0.8918345,0,0,26.32609,0,0,1561914413.669193,197217.973118,0,1.762451,75.28853,3232235528,177845136,1,1,0.53,-19.45036,-22.92653,0
1561914505.290253,21,0,0,1561914505.000068,4.634686354552056,-74.15105734958699,2553.055,0.61,198.6328125,4,50,-9999,1561914505.268703,-6.222648620605469,28.51175498962402,-7.119873046875,340.0683288574219,347.5617980957031,15,197220.4461175,-1.128738403320312,0.229522705078125,-0.31707763671875,197220.4288755,-0.4621234302593458,-1.135532474025654,0.2090682655833625,197220.4206965,-82.02261352539062,-0.719268798828125,-570.5348510742188,197220.4288755,1.446386859129346,-1.349036027877011,-0.1905578573716552,-0.4649297595024109,-1.14226245880127,0.2058432102203369,-0.1532912254333496,0.09002751111984253,-0.0784982442855835,1,-0.3557190299034119,0.5152485370635986,-0.5590551495552063,-0.5435441732406616,-0.9578537940979004,0.1894066780805588,-0.2159658372402191,0,0,0,-1,197219.913767375,3,1,1561914504.751304,1561913957.287787,32,0.8918345,0,0,26.32609,0,0,1561914413.669193,197217.973118,0,1.762451,75.28853,3232235528,177845136,1,1,0.53,-19.20744,-22.99835,0
1561914505.315539,22,0,0,1561914505.000068,4.634686354552056,-74.15105734958699,2553.055,0.61,198.6328125,4,50,-9999,1561914505.290426,-6.187477111816406,28.73721885681152,-6.7608642578125,340.7102661132812,348.2037353515625,15,197220.4663505,-1.081069946289062,0.19244384765625,-0.316741943359375,197220.4491385,-0.5242208900289413,-0.5890419646453611,0.2222807403834636,197220.4408075,-81.81607055664062,-0.5922698974609375,-570.0156860351562,197220.4491385,1.437111443181206,-1.368598612339887,-0.1969920705252374,-0.5270271897315979,-0.5957719683647156,0.2190556824207306,-0.1680570840835571,0.03380227088928223,-0.1201388835906982,1,-0.3567550480365753,0.5236949920654297,-0.5544106960296631,-0.5395351052284241,-0.9606813192367554,0.1957204639911652,-0.1969387829303741,0,0,0,-1,197219.913767375,3,1,1561914504.751304,1561913957.287787,32,0.8918345,0,0,26.32609,0,0,1561914413.669193,197217.973118,0,1.762451,75.28853,3232235528,177845136,1,1,0.53,-19.03961,-23.52787,0
1561914505.330564,23,0,0,1561914505.000068,4.634686354552056,-74.15105734958699,2553.055,0.61,198.6328125,4,50,-9999,1561914505.319439,-6.164138793945312,28.90666007995605,-6.1046142578125,341.3061828613281,348.7996520996094,15,197220.4866145,-1.01287841796875,0.175811767578125,-0.2857208251953125,197220.4694025,-0.3504493625851621,-0.1843727727950577,0.2190266238474958,197220.4609185,-81.92604064941406,-0.5850677490234375,-569.7904663085938,197220.4694025,1.428563824852916,-1.377716899268,-0.2030711581666234,-0.3532556891441345,-0.1911027580499649,0.2158015668392181,-0.1198182702064514,-0.009234517812728882,-0.1288027763366699,1,-0.3551366031169891,0.5290637016296387,-0.5517768263816833,-0.5380631685256958,-0.9612516760826111,0.2016783356666565,-0.1879391819238663,0,0,0,-1,197219.913767375,3,1,1561914504.751304,1561913957.287787,32,0.8918345,0,0,26.32609,0,0,1561914413.669193,197217.973118,0,1.762451,75.28853,3232235528,177845136,1,1,0.53,-19.03961,-24.15593,0
1561914505.353479,24,0,0,1561914505.000068,4.634686354552056,-74.15105734958699,2553.055,0.61,198.6328125,4,50,-9999,1561914505.34161,-5.567428588867188,28.92745018005371,-6.042724609375,341.3014526367188,348.794921875,15,197220.5068775,-0.952239990234375,0.1552886962890625,-0.260711669921875,197220.4896665,0.06692284134871018,-0.192211521147597,0.2022995753568171,197220.4810295,-81.68037414550781,-0.3161773681640625,-569.61181640625,197220.4896665,1.426244979444048,-1.381263225865766,-0.2079668364514018,0.06411650776863098,-0.1989415138959885,0.1990745216608047,-0.05194747447967529,-0.03065919876098633,-0.101379930973053,1,-0.3539754450321198,0.5315364003181458,-0.5515696406364441,-0.5366017818450928,-0.9609310030937195,0.2064709663391113,-0.1843408793210983,0,0,0,-1,197219.913767375,3,1,1561914504.751304,1561913957.287787,32,0.8918345,0,0,26.32609,0,0,1561914413.669193,197217.973118,0,1.762451,75.28853,3232235528,177845136,1,1,0.53,-19.03961,-24.7091,0
1561914505.371203,25,0,0,1561914505.000068,4.634686354552056,-74.15105734958699,2553.055,0.61,198.6328125,4,50,-9999,1561914505.368796,-5.666358947753906,29.03186798095703,-6.11865234375,340.5455017089844,348.0389709472656,15,197220.5271415,-0.9493560791015625,0.14080810546875,-0.2373504638671875,197220.5099295,0.4945016101603111,-0.5266142729005956,0.178500502591433,197220.5011405,-81.63923645019531,-0.226898193359375,-569.6109008789062,197220.5099295,1.432785714132619,-1.387242685161619,-0.210535153855293,0.4916952848434448,-0.5333442687988281,0.175275444984436,0.009251534938812256,-0.05369457602500916,-0.08221727609634399,1,-0.3565676212310791,0.5325526595115662,-0.5528036952018738,-0.5325930714607239,-0.9614915251731873,0.2089832723140717,-0.178494393825531,0,0,0,-1,197219.913767375,3,1,1561914504.751304,1561913957.287787,32,0.8918345,0,0,26.32609,0,0,1561914413.669193,197217.973118,0,1.762451,75.28853,3232235528,177845136,1,1,0.53,-19.03961,-24.7091,0
1561914505.396618,26,0,0,1561914505.000068,4.634686354552056,-74.15105734958699,2553.055,0.61,198.6328125,4,50,-9999,1561914505.391782,-5.740135192871094,28.7619457244873,-6.49755859375,339.3721313476562,346.8656005859375,15,197220.5474055,-0.9579620361328125,0.126800537109375,-0.2216033935546875,197220.5301625,0.7499845124860106,-0.7410773039041316,0.1430453063669901,197220.5212515,-81.58128356933594,-0.47314453125,-570.1473999023438,197220.5301625,1.446277371402234,-1.397610087593181,-0.2115233893728214,0.7471781969070435,-0.7478073239326477,0.1398202478885651,0.01373028755187988,-0.06914147734642029,-0.06886935234069824,1,-0.3627270758152008,0.5330933332443237,-0.5547201037406921,-0.5258576273918152,-0.9630863666534424,0.2099495828151703,-0.1684811264276505,0,0,0,-1,197219.913767375,3,1,1561914504.751304,1561913957.287787,32,0.8918345,0,0,26.32609,0,0,1561914413.669193,197217.973118,0,1.762451,75.28853,3232235528,177845136,1,1,0.53,-19.03961,-25.01945,0
1561914505.411639,27,0,0,1561914505.000068,4.634686354552056,-74.15105734958699,2553.055,0.61,198.6328125,4,50,-9999,1561914505.391782,-5.740135192871094,28.7619457244873,-6.49755859375,339.3721313476562,346.8656005859375,15,197220.5676695,-0.962890625,0.1218719482421875,-0.2188873291015625,197220.5504265,0.8649177567022333,-0.8850208945068054,0.1057525289903925,197220.5413325,-81.63258361816406,-0.6640777587890625,-570.284423828125,197220.5504265,1.463268018846521,-1.41064897652003,-0.2111179987194558,0.8621114492416382,-0.8917509317398071,0.1025274768471718,0.007323026657104492,-0.08275267481803894,-0.06568026542663574,1,-0.3710038661956787,0.5332865715026855,-0.5566748976707458,-0.5177591443061829,-0.965285062789917,0.2095532119274139,-0.1559231281280518,0,0,0,-1,197219.913767375,3,1,1561914504.751304,1561913957.287787,32,0.8918345,0,0,26.32609,0,0,1561914413.669193,197217.973118,0,1.762451,75.28853,3232235528,177845136,1,1,0.53,-19.03961,-23.61992,0
1561914505.431892,28,0,0,1561914505.000068,4.634686354552056,-74.15105734958699,2553.055,0.61,198.6328125,4,50,-9999,1561914505.419169,-5.682479858398438,28.7437801361084,-7.34295654296875,338.0081176757812,345.5015869140625,15,197220.5879325,-0.967803955078125,0.12237548828125,-0.2104644775390625,197220.5706905,0.9731422318164373,-0.9791900043358983,0.09095627229002126,197220.5614435,-81.5272216796875,-0.805389404296875,-570.8027954101562,197220.5706905,1.482248846095562,-1.425760937411932,-0.2101449911858086,0.9703359007835388,-0.9859200119972229,0.08773121982812881,0.004841804504394531,-0.08672976493835449,-0.07753944396972656,1,-0.3805731236934662,0.533376157283783,-0.5584987998008728,-0.5086777806282043,-0.9677324891090393,0.2086016982793808,-0.1413479447364807,0,0,0,-1,197219.913767375,3,1,1561914504.751304,1561913957.287787,32,0.8918345,0,0,26.32609,0,0,1561914413.669193,197217.973118,0,1.762451,75.28853,3232235528,177845136,1,1,0.53,-19.03961,-24.41603,0
1561914505.453152,29,0,0,1561914505.000068,4.634686354552056,-74.15105734958699,2553.055,0.61,198.6328125,4,50,-9999,1561914505.442384,-6.017906188964844,28.28265762329102,-7.72564697265625,336.3721618652344,343.8656311035156,15,197220.6081965,-0.969085693359375,0.119110107421875,-0.195831298828125,197220.5909535,1.143548588906792,-1.055448290569772,0.108557636566573,197220.5815545,-81.77621459960938,-1.085098266601562,-571.16064453125,197220.5909535,1.50408057663945,-1.441947768318024,-0.2091388537070779,1.140742301940918,-1.062178254127502,0.1053325831890106,0.002297282218933105,-0.08524212241172791,-0.08477199077606201,1,-0.3912228941917419,0.5330088138580322,-0.5606583952903748,-0.4985062777996063,-0.9701012969017029,0.2076175957918167,-0.1256925016641617,0,0,0,-1,197219.913767375,3,1,1561914504.751304,1561913957.287787,32,0.8918345,0,0,26.32609,0,0,1561914413.669193,197217.973118,0,1.762451,75.28853,3232235528,177845136,1,1,0.53,-19.03961,-25.34064,0
1561914505.475381,30,0,0,1561914505.000068,4.634686354552056,-74.15105734958699,2553.055,0.61,198.6328125,4,50,-9999,1561914505.468847,-6.062652587890625,28.284423828125,-8.2926025390625,334.42578125,341.9192504882812,15,197220.6284605,-0.98333740234375,0.110565185546875,-0.177276611328125,197220.6112175,1.315399977204625,-1.102581448174213,0.1118583584216172,197220.6016655,-81.84437561035156,-1.16650390625,-571.6490478515625,197220.6112175,1.529683646604407,-1.45878495047542,-0.2083469498820414,1.312593698501587,-1.10931134223938,0.1086333096027374,0.003157317638397217,-0.08773279190063477,-0.0864713191986084,1,-0.403003990650177,0.5318907499313354,-0.5634551048278809,-0.4870302081108093,-0.9722430109977722,0.2068428844213486,-0.1093600243330002,0,0,0,-1,197219.913767375,3,1,1561914504.751304,1561913957.287787,32,0.8918345,0,0,26.32609,0,0,1561914413.669193,197217.973118,0,1.762451,75.28853,3232235528,177845136,1,1,0.53,-19.03961,-26.22964,0
1561914505.492829,31,0,0,1561914505.000068,4.634686354552056,-74.15105734958699,2553.055,0.61,198.6328125,4,50,-9999,1561914505.468847,-6.062652587890625,28.284423828125,-8.2926025390625,334.42578125,341.9192504882812,15,197220.6486935,-0.9857177734375,0.103302001953125,-0.1575164794921875,197220.6314815,1.382543328291593,-0.9866140985067121,0.1232345836501087,197220.6217765,-81.81373596191406,-1.592117309570312,-572.3946533203125,197220.6314815,1.557865456469759,-1.474620652260948,-0.2078256795713366,1.379737019538879,-0.9933441281318665,0.120009534060955,-0.009377479553222656,-0.09576767683029175,-0.08331549167633057,1,-0.4151102900505066,0.5298140048980713,-0.5668838620185852,-0.4749980568885803,-0.9739599227905273,0.2063328623771667,-0.09396113455295563,0,0,0,-1,197219.913767375,3,1,1561914504.751304,1561913957.287787,32,0.8918345,0,0,26.32609,0,0,1561914413.669193,197217.973118,0,1.762451,75.28853,3232235528,177845136,1,1,0.53,-19.03961,-27.11202,0
1561914505.512954,32,0,0,1561914505.000068,4.634686354552056,-74.15105734958699,2553.055,0.61,198.6328125,4,50,-9999,1561914505.492993,-6.227081298828125,27.88559150695801,-8.896240234375,332.3775939941406,339.8710632324219,15,197220.6689565,-0.9882354736328125,0.097747802734375,-0.1356964111328125,197220.6517445,1.37387340736284,-0.7799533305487812,0.1129910008332279,197220.6418875,-82.20968627929688,-1.621871948242188,-572.8325805664062,197220.6517445,1.586519774808503,-1.48669038755018,-0.2077223557114536,1.371067047119141,-0.7866833209991455,0.1097659468650818,-0.0106734037399292,-0.1029297709465027,-0.07531553506851196,1,-0.4261413216590881,0.5265957713127136,-0.5710481405258179,-0.4636857509613037,-0.975044310092926,0.2062317579984665,-0.08220093697309494,0,0,0,-1,197219.913767375,3,1,1561914504.751304,1561913957.287787,32,0.8918345,0,0,26.32609,0,0,1561914413.669193,197217.973118,0,1.762451,75.28853,3232235528,177845136,1,1,0.53,-19.03961,-27.11202,0
1561914505.536566,33,0,0,1561914505.000068,4.634686354552056,-74.15105734958699,2553.055,0.61,198.6328125,4,50,-9999,1561914505.519691,-6.24847412109375,27.59717178344727,-10.2816162109375,330.4001770019531,337.8936462402344,15,197220.6892205,-0.995330810546875,0.0955963134765625,-0.1076507568359375,197220.6720085,1.292938077622569,-0.5794655036815451,0.06824456819771652,197220.6619985,-82.01451110839844,-1.895736694335938,-573.4637451171875,197220.6720085,1.614252361316248,-1.494886641126018,-0.2072880300770089,1.290131807327271,-0.5861955285072327,0.06501951813697815,-0.01246088743209839,-0.1080589592456818,-0.06148308515548706,1,-0.4358853399753571,0.5223957300186157,-0.5755520462989807,-0.4537031650543213,-0.9757745862007141,0.2058067470788956,-0.07421334087848663,0,0,0,-1,197219.913767375,3,1,1561914504.751304,1561913957.287787,32,0.8918345,0,0,26.32609,0,0,1561914413.669193,197217.973118,0,1.762451,75.28853,3232235528,177845136,1,1,0.53,-19.03961,-27.90652,0
1561914505.558996,34,0,0,1561914505.000068,4.634686354552056,-74.15105734958699,2553.055,0.61,198.6328125,4,50,-9999,1561914505.543762,-6.4483642578125,27.36140060424805,-10.788330078125,328.6021118164062,336.0955810546875,15,197220.7094845,-1.000640869140625,0.1033935546875,-0.0941314697265625,197220.6922725,1.194033334743098,-0.4610432521212096,0.05053028589094545,197220.6821095,-82.37875366210938,-2.116592407226562,-574.1716918945312,197220.6922725,1.639943906223527,-1.500006602905466,-0.2065484344048173,1.191227078437805,-0.4677732288837433,0.04730523005127907,-0.01903736591339111,-0.1094866096973419,-0.03842353820800781,1,-0.4442491233348846,0.5177152752876282,-0.5800471305847168,-0.4451506733894348,-0.9762934446334839,0.2050829231739044,-0.06922721862792969,0,0,0,-1,197219.913767375,3,1,1561914504.751304,1561913957.287787,32,0.8918345,0,0,26.32609,0,0,1561914413.669193,197217.973118,0,1.762451,75.28853,3232235528,177845136,1,1,0.53,-19.03961,-28.35794,0
1561914505.573889,35,0,0,1561914505.000068,4.634686354552056,-74.15105734958699,2553.055,0.61,198.6328125,4,50,-9999,1561914505.570293,-6.736526489257812,27.0488395690918,-11.31768798828125,326.9683532714844,334.4618225097656,15,197220.7297475,-1.019241333007812,0.1096343994140625,-0.0956268310546875,197220.7125355,1.106936515504819,-0.4666377546231391,0.06311638520265993,197220.7022215,-82.45127868652344,-2.219039916992188,-574.7632446289062,197220.7125355,1.663677373980326,-1.504550941949568,-0.2060117612504868,1.104130148887634,-0.4733677506446838,0.05989133194088936,-0.02393341064453125,-0.1011640429496765,-0.02933430671691895,1,-0.4518352746963501,0.5132701992988586,-0.5841558575630188,-0.4372190237045288,-0.9767074584960938,0.2045576274394989,-0.06479717046022415,0,0,0,-1,197219.913767375,3,1,1561914504.751304,1561913957.287787,32,0.8918345,0,0,26.32609,0,0,1561914413.669193,197217.973118,0,1.762451,75.28853,3232235528,177845136,1,1,0.53,-19.03961,-28.83499,0
1561914505.594205,36,0,0,1561914505.000068,4.634686354552056,-74.15105734958699,2553.055,0.61,198.6328125,4,50,-9999,1561914505.570293,-6.736526489257812,27.0488395690918,-11.31768798828125,326.9683532714844,334.4618225097656,15,197220.7500115,-1.06011962890625,0.11175537109375,-0.122314453125,197220.7327695,0.9862151569754183,-0.4781535294927507,0.1170938668086039,197220.7223015,-82.26182556152344,-2.263580322265625,-575.2857055664062,197220.7327695,1.685553812447198,-1.509983280918376,-0.2063132235871571,0.9834088683128357,-0.4848835170269012,0.1138688176870346,-0.04225790500640869,-0.09521833062171936,-0.03614014387130737,1,-0.4589396715164185,0.5095400214195251,-0.5877185463905334,-0.4293369650840759,-0.9769834280014038,0.2048527151346207,-0.05948668718338013,0,0,0,-1,197219.913767375,3,1,1561914504.751304,1561913957.287787,32,0.8918345,0,0,26.32609,0,0,1561914413.669193,197217.973118,0,1.762451,75.28853,3232235528,177845136,1,1,0.53,-19.03961,-29.12484,0
1561914505.614296,37,0,0,1561914505.000068,4.634686354552056,-74.15105734958699,2553.055,0.61,198.6328125,4,50,-9999,1561914505.594395,-6.514106750488281,27.03000640869141,-11.77740478515625,325.6155700683594,333.1090393066406,15,197220.7702755,-1.073394775390625,0.115753173828125,-0.149169921875,197220.7530325,0.7162435930552518,-0.1858758609142984,0.1850950220826872,197220.7424125,-82.49504089355469,-2.745559692382812,-575.6629638671875,197220.7530325,1.703341135091994,-1.513632260538126,-0.2083338217721114,0.7134372591972351,-0.1926058530807495,0.1818699687719345,-0.08334088325500488,-0.09507465362548828,-0.06641685962677002,1,-0.4639963209629059,0.5067135691642761,-0.5910643935203552,-0.422601044178009,-0.9767787456512451,0.2068300396203995,-0.0558975450694561,0,0,0,-1,197219.913767375,3,1,1561914504.751304,1561913957.287787,32,0.8918345,0,0,26.32609,0,0,1561914413.669193,197217.973118,0,1.762451,75.28853,3232235528,177845136,1,1,0.53,-19.03961,-26.16903,0
1561914505.638855,38,0,0,1561914505.000068,4.634686354552056,-74.15105734958699,2553.055,0.61,198.6328125,4,50,-9999,1561914505.620934,-6.563529968261719,26.53464317321777,-12.53399658203125,324.7165222167969,332.2099914550781,15,197220.7905385,-1.058212280273438,0.131500244140625,-0.1656036376953125,197220.7732965,0.5103351681052682,0.1795921323222565,0.2241287078638696,197220.7625235,-82.31277465820312,-2.7850341796875,-576.1488037109375,197220.7732965,1.715976807966471,-1.510996268306368,-0.2116977898657742,0.5075288414955139,0.1728621423244476,0.2209036499261856,-0.09746682643890381,-0.09436690807342529,-0.09073972702026367,1,-0.4655177295207977,0.5040616393089294,-0.5949906706809998,-0.4185703694820404,-0.9759279489517212,0.2101200968027115,-0.05843021348118782,0,0,0,-1,197219.913767375,3,1,1561914504.751304,1561913957.287787,32,0.8918345,0,0,26.32609,0,0,1561914413.669193,197217.973118,0,1.762451,75.28853,3232235528,177845136,1,1,0.53,-19.03961,-26.56632,0
1561914505.655249,39,0,0,1561914505.000068,4.634686354552056,-74.15105734958699,2553.055,0.61,198.6328125,4,50,-9999,1561914505.620934,-6.563529968261719,26.53464317321777,-12.53399658203125,324.7165222167969,332.2099914550781,15,197220.8108025,-1.037185668945312,0.141448974609375,-0.1665191650390625,197220.7935605,0.4606768011552147,0.4017841894414205,0.2279082660829101,197220.7826345,-82.2059326171875,-2.94140625,-576.28564453125,197220.7935605,1.726025732747416,-1.502874802470451,-0.2157206544082376,0.4578704535961151,0.3950541913509369,0.2246832102537155,-0.08364224433898926,-0.08255118131637573,-0.0993073582649231,1,-0.4645546078681946,0.5010398030281067,-0.5997505187988281,-0.4164702296257019,-0.9745700359344482,0.2140514403581619,-0.06629626452922821,0,0,0,-1,197219.913767375,3,1,1561914504.751304,1561913957.287787,32,0.8918345,0,0,26.32609,0,0,1561914413.669193,197217.973118,0,1.762451,75.28853,3232235528,177845136,1,1,0.53,-19.03961,-26.56632,0
1561914505.675054,40,0,0,1561914505.000068,4.634686354552056,-74.15105734958699,2553.055,0.61,198.6328125,4,50,-9999,1561914505.654616,-6.386039733886719,26.49929809570312,-12.73956298828125,324.00537109375,331.4988403320312,15,197220.8310355,-1.007003784179688,0.1522979736328125,-0.160308837890625,197220.8138235,0.557582575320473,0.434269162102098,0.1348337154618398,197220.8027455,-82.11018371582031,-3.048126220703125,-576.6068725585938,197220.8138235,1.736565050060319,-1.491902602467436,-0.2187885612926132,0.5547762513160706,0.4275391697883606,0.1316086500883102,-0.06406104564666748,-0.07559823989868164,-0.08958607912063599,1,-0.4630694091320038,0.4970917105674744,-0.6050662398338318,-0.4151641130447388,-0.973124623298645,0.2170472294092178,-0.0769331082701683,0,0,0,-1,197219.913767375,3,1,1561914504.751304,1561913957.287787,32,0.8918345,0,0,26.32609,0,0,1561914413.669193,197217.973118,0,1.762451,75.28853,3232235528,177845136,1,1,0.53,-19.03961,-27.1612,0
1561914505.696454,41,0,0,1561914505.000068,4.634686354552056,-74.15105734958699,2553.055,0.61,198.6328125,4,50,-9999,1561914505.654616,-6.386039733886719,26.49929809570312,-12.73956298828125,324.00537109375,331.4988403320312,15,197220.8512995,-0.9772186279296875,0.1662445068359375,-0.14837646484375,197220.8340875,0.7769596711674233,0.2734006501397526,-0.0360562716824738,197220.8228565,-81.93600463867188,-3.222183227539062,-576.9676513671875,197220.8340875,1.750266102914502,-1.481658096103541,-0.2185916208223578,0.7741533517837524,0.2666706442832947,-0.03928132727742195,-0.03467559814453125,-0.06455698609352112,-0.07340693473815918,1,-0.463395744562149,0.4917452931404114,-0.6102412939071655,-0.4135898947715759,-0.9723281860351562,0.2168549746274948,-0.08690190315246582,0,0,0,-1,197219.913767375,3,1,1561914504.751304,1561913957.287787,32,0.8918345,0,0,26.32609,0,0,1561914413.669193,197217.973118,0,1.762451,75.28853,3232235528,177845136,1,1,0.53,-19.03961,-27.62105,0
1561914505.716277,42,0,0,1561914505.000068,4.634686354552056,-74.15105734958699,2553.055,0.61,198.6328125,4,50,-9999,1561914505.695822,-6.040794372558594,26.41269874572754,-13.61529541015625,321.9151306152344,329.4085998535156,15,197220.8715635,-0.94659423828125,0.1708526611328125,-0.1409912109375,197220.8543515,1.027702679385,0.0009637979984996763,-0.1811309068001043,197220.8429685,-81.87741088867188,-3.179275512695312,-577.4935302734375,197220.8543515,1.768660573612174,-1.474938992047928,-0.2143428091593643,1.024896383285522,-0.005766199436038733,-0.1843559592962265,-0.004588007926940918,-0.04646080732345581,-0.0548560619354248,1,-0.4669434726238251,0.4849779307842255,-0.6148190498352051,-0.4108013510704041,-0.9726306796073914,0.2127053290605545,-0.0935204029083252,0,0,0,-1,197219.913767375,3,1,1561914504.751304,1561913957.287787,32,0.8918345,0,0,26.32609,0,0,1561914413.669193,197217.973118,0,1.762451,75.28853,3232235528,177845136,1,1,0.53,-19.03961,-28.42984,0
1561914505.73628,43,0,0,1561914505.000068,4.634686354552056,-74.15105734958699,2553.055,0.61,198.6328125,4,50,-9999,1561914505.722156,-6.199668884277344,25.63716506958008,-14.4892578125,320.2905578613281,327.7840270996094,15,197220.8918265,-0.93475341796875,0.165771484375,-0.136627197265625,197220.8746145,1.204409010350046,-0.2028537791796626,-0.2342207568147249,197220.8630795,-82.13970947265625,-3.415084838867188,-578.1217041015625,197220.8746145,1.791363103123558,-1.472458690887948,-0.2075988298088177,1.201602697372437,-0.2095837742090225,-0.2374458163976669,0.02720701694488525,-0.03525823354721069,-0.04491996765136719,1,-0.4733888506889343,0.4773545861244202,-0.6188259720802307,-0.4063128530979156,-0.9738012552261353,0.206110879778862,-0.09607119113206863,0,0,0,-1,197219.913767375,3,1,1561914504.751304,1561913957.287787,32,0.8918345,0,0,26.32609,0,0,1561914413.669193,197217.973118,0,1.762451,75.28853,3232235528,177845136,1,1,0.53,-19.03961,-29.09994,0
1561914505.756121,44,0,0,1561914505.000068,4.634686354552056,-74.15105734958699,2553.055,0.61,198.6328125,4,50,-9999,1561914505.746238,-6.193771362304688,25.43168258666992,-15.10284423828125,318.4586791992188,325.9521484375,15,197220.9120905,-0.924652099609375,0.160858154296875,-0.128814697265625,197220.8948785,1.286733444914903,-0.3219066672861288,-0.2149692979267601,197220.8831905,-82.13670349121094,-3.705825805664062,-578.5552368164062,197220.8948785,1.816527804232082,-1.472789405060996,-0.200465373897447,1.283927083015442,-0.328636646270752,-0.2181943506002426,0.04051792621612549,-0.03335395455360413,-0.04073667526245117,1,-0.4812700152397156,0.4695038795471191,-0.6225562691688538,-0.4004610180854797,-0.9752713441848755,0.1991254091262817,-0.09589055925607681,0,0,0,-1,197219.913767375,3,1,1561914504.751304,1561913957.287787,32,0.8918345,0,0,26.32609,0,0,1561914413.669193,197217.973118,0,1.762451,75.28853,3232235528,177845136,1,1,0.53,-19.03961,-24.53845,0
1561914505.776964,45,0,0,1561914505.000068,4.634686354552056,-74.15105734958699,2553.055,0.61,198.6328125,4,50,-9999,1561914505.772773,-6.578041076660156,25.00637435913086,-15.76348876953125,316.5091247558594,324.0025939941406,15,197220.9323545,-0.914031982421875,0.1569671630859375,-0.12127685546875,197220.9151115,1.354824348717722,-0.3720302884786192,-0.2448728685428238,197220.9033015,-82.42825317382812,-4.059738159179688,-579.2659912109375,197220.9151115,1.843205208286683,-1.47483568172317,-0.1931651305035446,1.352017998695374,-0.3787602782249451,-0.2480979263782501,0.05223441123962402,-0.03110793232917786,-0.03478324413299561,1,-0.4899492561817169,0.4614477157592773,-0.626078188419342,-0.3937536180019379,-0.976886510848999,0.1919661164283752,-0.09403146058320999,0,0,0,-1,197219.913767375,3,1,1561914504.751304,1561913957.287787,32,0.8918345,0,0,26.32609,0,0,1561914413.669193,197217.973118,0,1.762451,75.28853,3232235528,177845136,1,1,0.53,-19.03961,-24.96602,0
1561914505.796809,46,0,0,1561914505.000068,4.634686354552056,-74.15105734958699,2553.055,0.61,198.6328125,4,50,-9999,1561914505.772773,-6.578041076660156,25.00637435913086,-15.76348876953125,316.5091247558594,324.0025939941406,15,197220.9526175,-0.9014739990234375,0.146209716796875,-0.123809814453125,197220.9353755,1.355403053622596,-0.2797770567377293,-0.2353816287338904,197220.9233815,-82.6917724609375,-4.879119873046875,-580.2183227539062,197220.9353755,1.870686468626273,-1.476620318964306,-0.1855126528427279,1.352596759796143,-0.2865070402622223,-0.2386066913604736,0.06445467472076416,-0.02748328447341919,-0.02885353565216064,1,-0.4986746907234192,0.4528927803039551,-0.6296799182891846,-0.3869301676750183,-0.9784866571426392,0.1844504177570343,-0.09242336452007294,0,0,0,-1,197219.913767375,3,1,1561914504.751304,1561913957.287787,32,0.8918345,0,0,26.32609,0,0,1561914413.669193,197217.973118,0,1.762451,75.28853,3232235528,177845136,1,1,0.53,-18.23053,-20.50995,0
1561914505.820418,47,0,0,1561914505.000068,4.634686354552056,-74.15105734958699,2553.055,0.61,198.6328125,4,50,-9999,1561914505.797051,-6.945793151855469,24.46735000610352,-16.71429443359375,314.6218872070312,322.1153564453125,15,197220.9728815,-0.901824951171875,0.1392364501953125,-0.1446990966796875,197220.9556385,1.15037853183841,0.005436843365396765,-0.1003710793756694,197220.9636045,-82.88156127929688,-5.408203125,-581.0757446289062,197220.9556385,1.896431434582167,-1.47520503320735,-0.1793595889190171,1.147572159767151,-0.001293153967708349,-0.1035961285233498,0.07799196243286133,-0.03218972682952881,-0.02989518642425537,1,-0.5054892301559448,0.4444359540939331,-0.6339321136474609,-0.3809032440185547,-0.9794659018516541,0.1783994734287262,-0.09391464293003082,0,0,0,-1,197219.913767375,3,1,1561914504.751304,1561913957.287787,32,0.8918345,0,0,26.32609,0,0,1561914413.669193,197217.973118,0,1.762451,75.28853,3232235528,177845136,1,1,0.53,-17.1897,-20.92134,0
1561914505.837177,48,0,0,1561914505.000068,4.634686354552056,-74.15105734958699,2553.055,0.61,198.6328125,4,50,-9999,1561914505.823337,-6.995513916015625,23.76563262939453,-17.65960693359375,313.2863159179688,320.77978515625,15,197220.9931455,-0.9141998291015625,0.1450347900390625,-0.168365478515625,197220.9759025,0.6790440263168069,0.5682211049270125,0.1620679997173171,197220.9837155,-82.78147888183594,-5.664810180664062,-581.39306640625,197220.9759025,1.915455565960048,-1.466695968655648,-0.1779700832027846,0.6762377023696899,0.561491072177887,0.1588429361581802,0.07705211639404297,-0.03779566287994385,-0.04242789745330811,1,-0.5073065161705017,0.4376122951507568,-0.6394605040550232,-0.3771284818649292,-0.978877067565918,0.177032083272934,-0.1022711545228958,0,0,0,-1,197219.913767375,3,1,1561914504.751304,1561913957.287787,32,0.8918345,0,0,26.32609,0,0,1561914413.669193,197217.973118,0,1.762451,75.28853,3232235528,177845136,1,1,0.53,-17.1897,-20.92134,0
1561914505.876981,49,0,0,1561914505.000068,4.634686354552056,-74.15105734958699,2553.055,0.61,198.6328125,4,50,-9999,1561914505.874656,-5.777626037597656,23.73838233947754,-17.946044921875,313.1184692382812,320.6119384765625,15,197221.0134085,-0.9065399169921875,0.1528778076171875,-0.1830291748046875,197220.9961665,0.1126628993869301,1.349412539066572,0.4991592125907507,197221.0038265,-81.78947448730469,-5.86688232421875,-581.7528686523438,197220.9961665,1.924267677782783,-1.445912592611961,-0.1836584608921606,0.1098565608263016,1.342682600021362,0.4959341585636139,0.06132549047470093,-0.03759291768074036,-0.04590094089508057,1,-0.5011862516403198,0.4331051409244537,-0.6472865343093872,-0.3771637082099915,-0.9755253195762634,0.1826277226209641,-0.1224645525217056,0,0,0,-1,197219.913767375,3,1,1561914504.751304,1561913957.287787,32,0.8918345,0,0,26.32609,0,0,1561914413.669193,197217.973118,0,1.762451,75.28853,3232235528,177845136,1,1,0.53,-17.08567,-22.54021,0
1561914505.879189,50,0,0,1561914505.000068,4.634686354552056,-74.15105734958699,2553.055,0.61,198.6328125,4,50,-9999,1561914505.874656,-5.777626037597656,23.73838233947754,-17.946044921875,313.1184692382812,320.6119384765625,15,197221.0336415,-0.8805084228515625,0.1554718017578125,-0.18994140625,197221.0164295,-0.3105549431396661,1.868535606136883,0.7626177497490195,197221.0239375,-80.88484191894531,-5.41845703125,-581.712158203125,197221.0164295,1.923639046725759,-1.412785246951257,-0.1968373365846,-0.3133612871170044,1.86180567741394,0.7593927383422852,0.06193298101425171,-0.04269090294837952,-0.02871328592300415,1,-0.4870747327804565,0.4308134913444519,-0.6574231386184692,-0.3807267844676971,-0.9684728980064392,0.1955687254667282,-0.1543158739805222,0,0,0,-1,197219.913767375,3,1,1561914504.751304,1561913957.287787,32,0.8918345,0,0,26.32609,0,0,1561914413.669193,197217.973118,0,1.762451,75.28853,3232235528,177845136,1,1,0.53,-17.08567,-22.54021,0
1561914505.898008,51,0,0,1561914505.000068,4.634686354552056,-74.15105734958699,2553.055,0.61,198.6328125,4,50,-9999,1561914505.874656,-5.777626037597656,23.73838233947754,-17.946044921875,313.1184692382812,320.6119384765625,15,197221.0539055,-0.8596649169921875,0.155792236328125,-0.199493408203125,197221.0366935,-0.4146890691356174,1.763944481697874,0.8217010437968635,197221.0440485,-79.71430969238281,-5.433197021484375,-581.4393310546875,197221.0366935,1.918526568822526,-1.3761313732206,-0.214338202951679,-0.4174953997135162,1.757214546203613,0.8184760212898254,0.07815361022949219,-0.05722904205322266,-0.0009299516677856445,1,-0.4695331454277039,0.4301545023918152,-0.6678489446640015,-0.3853355646133423,-0.9586620926856995,0.212700828909874,-0.1890114545822144,0,0,0,-1,197219.913767375,3,1,1561914504.751304,1561913957.287787,32,0.8918345,0,0,26.32609,0,0,1561914413.669193,197217.973118,0,1.762451,75.28853,3232235528,177845136,1,1,0.53,-17.08567,-23.33467,0
1561914505.919845,52,0,0,1561914505.000068,4.634686354552056,-74.15105734958699,2553.055,0.61,198.6328125,4,50,-9999,1561914505.898203,-3.634407043457031,23.9903450012207,-18.07073974609375,313.3896179199219,320.8830871582031,15,197221.0741695,-0.873260498046875,0.17474365234375,-0.2160186767578125,197221.0569575,-0.1338310353114249,1.142909696561282,0.7504183414275846,197221.0641595,-79.01742553710938,-5.183792114257812,-581.8355712890625,197221.0569575,1.915742281515999,-1.346862221004713,-0.2311578217006078,-0.1366373747587204,1.136179685592651,0.7471933364868164,0.08943235874176025,-0.07331249117851257,0.01666724681854248,1,-0.4548830687999725,0.4301175177097321,-0.6765037178993225,-0.3878441751003265,-0.9490973353385925,0.2291046977043152,-0.2161606252193451,0,0,0,-1,197219.913767375,3,1,1561914504.751304,1561913957.287787,32,0.8918345,0,0,26.32609,0,0,1561914413.669193,197217.973118,0,1.762451,75.28853,3232235528,177845136,1,1,0.53,-17.08567,-24.17207,0
1561914505.954369,53,0,0,1561914505.000068,4.634686354552056,-74.15105734958699,2553.055,0.61,198.6328125,4,50,-9999,1561914505.94895,-2.271987915039062,24.03969192504883,-18.37811279296875,311.5538330078125,319.0473022460938,15,197221.0944325,-0.9355621337890625,0.2258453369140625,-0.2188568115234375,197221.0772215,0.4118314972859624,0.3495675899482368,0.6663372858077118,197221.0842405,-78.15786743164062,-5.229568481445312,-582.04443359375,197221.0772215,1.921652835188533,-1.330553788619327,-0.2444367632061851,0.4090251624584198,0.3428376019001007,0.6631122231483459,0.06914734840393066,-0.06726625561714172,0.0148465633392334,1,-0.4472417831420898,0.429583728313446,-0.6831672191619873,-0.3856361210346222,-0.9424078464508057,0.2420098632574081,-0.2308652102947235,0,0,0,-1,197219.913767375,3,1,1561914504.751304,1561913957.287787,32,0.8918345,0,0,26.32609,0,0,1561914413.669193,197217.973118,0,1.762451,75.28853,3232235528,177845136,1,1,0.53,-17.08567,-24.90489,0
1561914505.959482,54,0,0,1561914505.000068,4.634686354552056,-74.15105734958699,2553.055,0.61,198.6328125,4,50,-9999,1561914505.94895,-2.271987915039062,24.03969192504883,-18.37811279296875,311.5538330078125,319.0473022460938,15,197221.1146965,-1.021881103515625,0.256317138671875,-0.2392730712890625,197221.0974545,0.9300179306008932,-0.3467251981167953,0.5673340059679072,197221.1043515,-78.07159423828125,-5.937026977539062,-582.4229736328125,197221.0974545,1.938656506210654,-1.326666093198716,-0.253174439581383,0.9272116422653198,-0.3534551858901978,0.5641089677810669,0.003853321075439453,-0.02463310956954956,0.01515036821365356,1,-0.4473346173763275,0.4276542365550995,-0.6884545087814331,-0.3781984448432922,-0.9394153952598572,0.2504784762859344,-0.2340071946382523,0,0,0,-1,197219.913767375,3,1,1561914504.751304,1561913957.287787,32,0.8918345,0,0,26.32609,0,0,1561914413.669193,197217.973118,0,1.762451,75.28853,3232235528,177845136,1,1,0.53,-17.08567,-25.16407,0
1561914505.978961,55,0,0,1561914505.000068,4.634686354552056,-74.15105734958699,2553.055,0.61,198.6328125,4,50,-9999,1561914505.975274,-2.382522583007812,23.45345687866211,-18.901611328125,309.8869934082031,317.3804626464844,15,197221.1349605,-1.09552001953125,0.2765960693359375,-0.2703857421875,197221.1177175,1.065761914523322,-0.7291830938436197,0.4325335800196934,197221.1244625,-78.00155639648438,-6.121856689453125,-582.8038330078125,197221.1177175,1.962074365496485,-1.33251180790461,-0.2580100991515266,1.062955617904663,-0.735913097858429,0.4293085038661957,-0.08230185508728027,0.001160085201263428,-0.01104998588562012,1,-0.4531275629997253,0.4249280691146851,-0.6921334862709045,-0.3675089478492737,-0.9395792484283447,0.2551570236682892,-0.2282231003046036,0,0,0,-1,197219.913767375,3,1,1561914504.751304,1561913957.287787,32,0.8918345,0,0,26.32609,0,0,1561914413.669193,197217.973118,0,1.762451,75.28853,3232235528,177845136,1,1,0.53,-17.08567,-25.16407,0
1561914505.999331,56,0,0,1561914505.000068,4.634686354552056,-74.15105734958699,2553.055,0.61,198.6328125,4,50,-9999,1561914505.975274,-2.382522583007812,23.45345687866211,-18.901611328125,309.8869934082031,317.3804626464844,15,197221.1552235,-1.090606689453125,0.2646484375,-0.2960052490234375,197221.1379815,0.9004901320146397,-0.5829542447095489,0.2993006906891002,197221.1445735,-78.297607421875,-6.430587768554688,-583.234130859375,197221.1379815,1.984107469903382,-1.341098984386005,-0.2604288450406872,0.8977007269859314,-0.5896672010421753,0.2960735261440277,-0.1546194553375244,0.01910111308097839,-0.05038046836853027,1,-0.460170716047287,0.4221851229667664,-0.6944732069969177,-0.3573647141456604,-0.9409006237983704,0.2574949562549591,-0.2200052738189697,0,0,0,-1,197219.913767375,3,1,1561914504.751304,1561913957.287787,32,0.8918345,0,0,26.32609,0,0,1561914413.669193,197217.973118,0,1.762451,75.28853,3232235528,177845136,1,1,0.53,-17.08567,-26.06526,0
1561914506.03495,57,0,0,1561914505.000068,4.634686354552056,-74.15105734958699,2553.055,0.61,198.6328125,4,50,-9999,1561914506.028154,-2.515174865722656,22.65723991394043,-20.0123291015625,307.3870849609375,314.8805541992188,15,197221.1754875,-1.030807495117188,0.2709197998046875,-0.2953948974609375,197221.1582455,0.7452182530830959,-0.153898220441281,0.1489322239566102,197221.1646845,-78.31803894042969,-6.78515625,-583.59619140625,197221.1582455,2.0016105612583,-1.34423233064222,-0.2611780538806888,0.7424288988113403,-0.1606112122535706,0.1457050293684006,-0.1492095589637756,0.006429582834243774,-0.07899260520935059,1,-0.4647577404975891,0.4189199507236481,-0.69693922996521,-0.3504026234149933,-0.9413971304893494,0.2582188248634338,-0.2170126289129257,0,0,0,-1,197219.913767375,3,1,1561914504.751304,1561913957.287787,32,0.8918345,0,0,26.32609,0,0,1561914413.669193,197217.973118,0,1.762451,75.28853,3232235528,177845136,1,1,0.53,-17.08567,-26.99902,0
1561914506.039846,58,0,0,1561914505.000068,4.634686354552056,-74.15105734958699,2553.055,0.61,198.6328125,4,50,-9999,1561914506.028154,-2.515174865722656,22.65723991394043,-20.0123291015625,307.3870849609375,314.8805541992188,15,197221.1957515,-0.9568023681640625,0.28924560546875,-0.2613067626953125,197221.1785085,0.8643768686848382,0.1341474188489263,0.01670547688584904,197221.1847955,-78.37107849121094,-6.982986450195312,-583.8431396484375,197221.1785085,2.017896314370272,-1.339822780172959,-0.2591022112860142,0.8615874648094177,0.1274344325065613,0.013478291220963,-0.08985674381256104,0.01470696926116943,-0.07411098480224609,1,-0.4671100676059723,0.413722425699234,-0.7005487084388733,-0.3462273776531219,-0.9409507513046265,0.2562128305435181,-0.221283882856369,0,0,0,-1,197219.913767375,3,1,1561914504.751304,1561913957.287787,32,0.8918345,0,0,26.32609,0,0,1561914413.669193,197217.973118,0,1.762451,75.28853,3232235528,177845136,1,1,0.53,-17.08567,-26.99902,0
1561914506.059941,59,0,0,1561914506.000062,4.634682079781438,-74.15105718194893,2553.051,0.6,201.4453125,4,50,-9999,1561914506.054137,-2.527450561523438,22.23582077026367,-20.48968505859375,305.8316345214844,313.3251037597656,15,197221.2159845,-0.90802001953125,0.3148040771484375,-0.211181640625,197221.1987725,1.154129327917677,0.07014153784217995,-0.06791273832589263,197221.2049065,-78.20034790039062,-7.395309448242188,-584.5875244140625,197221.1987725,2.038211786980116,-1.332281234156122,-0.2537894472532312,1.151339888572693,0.06342854350805283,-0.07113992422819138,-0.01623773574829102,0.03817182779312134,-0.03261464834213257,1,-0.4698947072029114,0.4060208201408386,-0.7051756381988525,-0.3421598076820374,-0.9405646324157715,0.251073807477951,-0.2286921143531799,0,0,0,-1,197219.913767375,3,1,1561914504.751304,1561913957.287787,32,0.8918345,0,0,26.32609,0,0,1561914413.669193,197217.973118,0,1.762451,75.28853,3232235528,177845136,1,1,0.53,-17.08567,-27.47278,0
1561914506.080182,60,0,0,1561914506.000062,4.634682079781438,-74.15105718194893,2553.051,0.6,201.4453125,4,50,-9999,1561914506.076599,-2.654365539550781,21.75057411193848,-21.28704833984375,303.9048461914062,311.3983154296875,15,197221.2362485,-0.883758544921875,0.3363800048828125,-0.1778411865234375,197221.2190365,1.382230939495727,-0.2062908548825189,-0.181289897517182,197221.2250175,-78.44216918945312,-7.85858154296875,-585.2365112304688,197221.2190365,2.063448112501812,-1.327351209852692,-0.2451101736858764,1.379441499710083,-0.2130038440227509,-0.1845170855522156,0.03348517417907715,0.07214087247848511,0.02266114950180054,1,-0.4752568006515503,0.3964966237545013,-0.709608793258667,-0.3367145657539368,-0.9415051937103271,0.2426632046699524,-0.2338428050279617,0,0,0,-1,197219.913767375,3,1,1561914504.751304,1561913957.287787,32,0.8918345,0,0,26.32609,0,0,1561914413.669193,197217.973118,0,1.762451,75.28853,3232235528,177845136,1,1,0.53,-17.08567,-28.25303,0
1561914506.116026,61,0,0,1561914506.000062,4.634682079781438,-74.15105718194893,2553.051,0.6,201.4453125,4,50,-9999,1561914506.101271,-3.162361145019531,20.50127792358398,-22.51898193359375,301.913330078125,309.4067993164062,15,197221.2565115,-0.8824310302734375,0.3591461181640625,-0.168792724609375,197221.2392995,1.465539145767259,-0.5412217114796802,-0.2565817225914662,197221.2451285,-78.86497497558594,-8.651290893554688,-585.8789672851562,197221.2392995,2.091329180933557,-1.328507949510691,-0.2336117614208117,1.462749719619751,-0.5479346513748169,-0.2598088979721069,0.06066310405731201,0.1048873066902161,0.05556643009185791,1,-0.4837701022624969,0.3863452672958374,-0.7126591205596924,-0.3298801183700562,-0.9444215893745422,0.2314926832914352,-0.2334076464176178,0,0,0,-1,197219.913767375,3,1,1561914504.751304,1561913957.287787,32,0.8918345,0,0,26.32609,0,0,1561914413.669193,197217.973118,0,1.762451,75.28853,3232235528,177845136,1,1,0.53,-17.08567,-28.69163,0
1561914506.121292,62,0,0,1561914506.000062,4.634682079781438,-74.15105718194893,2553.051,0.6,201.4453125,4,50,-9999,1561914506.101271,-3.162361145019531,20.50127792358398,-22.51898193359375,301.913330078125,309.4067993164062,15,197221.2767755,-0.889190673828125,0.3793792724609375,-0.1797027587890625,197221.2595635,1.386949794631239,-0.7645085941229758,-0.2453394543658057,197221.2652095,-79.36808776855469,-8.929397583007812,-586.3299560546875,197221.2595635,2.119027850249942,-1.335937252835848,-0.2215949692872455,1.384160399436951,-0.7712215781211853,-0.2485666424036026,0.06633549928665161,0.139360249042511,0.05822312831878662,1,-0.4943964779376984,0.3769140541553497,-0.7139955163002014,-0.3220532834529877,-0.9487665295600891,0.2197858691215515,-0.2270158380270004,0,0,0,-1,197219.913767375,3,1,1561914504.751304,1561913957.287787,32,0.8918345,0,0,26.32609,0,0,1561914413.669193,197217.973118,0,1.762451,75.28853,3232235528,177845136,1,1,0.53,-17.08567,-29.11106,0
1561914506.141052,63,0,0,1561914506.000062,4.634682079781438,-74.15105718194893,2553.051,0.6,201.4453125,4,50,-9999,1561914506.127266,-3.613105773925781,20.05580902099609,-22.83245849609375,300.0852661132812,307.5787353515625,15,197221.2970395,-0.8805389404296875,0.3940277099609375,-0.2017822265625,197221.2798275,1.262119444855954,-0.7864232141010198,-0.190262087229659,197221.2853205,-79.72880554199219,-9.881179809570312,-586.4341430664062,197221.2798275,2.144631045646198,-1.346560643724974,-0.2111182196468188,1.259330034255981,-0.7931361794471741,-0.1934892684221268,0.06412678956985474,0.1698258519172668,0.03772139549255371,1,-0.5052441954612732,0.3688037395477295,-0.714233934879303,-0.3139777481555939,-0.9533174633979797,0.2095534205436707,-0.217424213886261,0,0,0,-1,197219.913767375,3,1,1561914504.751304,1561913957.287787,32,0.8918345,0,0,26.32609,0,0,1561914413.669193,197217.973118,0,1.762451,75.28853,3232235528,177845136,1,1,0.53,-17.08567,-29.11106,0
1561914506.161097,64,0,0,1561914506.000062,4.634682079781438,-74.15105718194893,2553.051,0.6,201.4453125,4,50,-9999,1561914506.151753,-4.068023681640625,19.2718505859375,-23.21221923828125,298.4261169433594,305.9195861816406,15,197221.3173025,-0.85894775390625,0.39410400390625,-0.224334716796875,197221.3000605,1.146542248288151,-0.6938852904396005,-0.07128323500149693,197221.3054315,-79.87435913085938,-10.52467346191406,-587.0310668945312,197221.3000605,2.168242855601752,-1.357019636312291,-0.2030375033452292,1.143752813339233,-0.7005982398986816,-0.07451042532920837,0.07662391662597656,0.1923823356628418,0.006011962890625,1,-0.5150050520896912,0.3617632985115051,-0.7143239974975586,-0.3060038387775421,-0.9571628570556641,0.2016453593969345,-0.2077942192554474,0,0,0,-1,197219.913767375,3,1,1561914504.751304,1561913957.287787,32,0.8918345,0,0,26.32609,0,0,1561914413.669193,197217.973118,0,1.762451,75.28853,3232235528,177845136,1,1,0.53,-17.08567,-29.57415,0
1561914506.19639,65,0,0,1561914506.000062,4.634682079781438,-74.15105718194893,2553.051,0.6,201.4453125,4,50,-9999,1561914506.151753,-4.068023681640625,19.2718505859375,-23.21221923828125,298.4261169433594,305.9195861816406,15,197221.3375665,-0.833465576171875,0.3714752197265625,-0.2469329833984375,197221.3203245,1.074396681725686,-0.5413250421299752,0.1650653875242013,197221.3255735,-79.91122436523438,-10.76136779785156,-587.3775634765625,197221.3203245,2.190690107596468,-1.365213349123364,-0.1990990009845586,1.071607351303101,-0.5480380058288574,0.1618382036685944,0.1006555557250977,0.1963177919387817,-0.02422952651977539,1,-0.5227755904197693,0.3558835387229919,-0.7151515483856201,-0.2976756393909454,-0.9596032500267029,0.1977862119674683,-0.2001051753759384,0,0,0,-1,197219.913767375,3,1,1561914504.751304,1561913957.287787,32,0.8918345,0,0,26.32609,0,0,1561914413.669193,197218.91889,0,1.762451,75.28853,3232235528,177845136,1,1,0.53,-17.08567,-31.25067,0
1561914506.20236,66,0,0,1561914506.000062,4.634682079781438,-74.15105718194893,2553.051,0.6,201.4453125,4,50,-9999,1561914506.151753,-4.068023681640625,19.2718505859375,-23.21221923828125,298.4261169433594,305.9195861816406,15,197221.3578305,-0.8334503173828125,0.3372344970703125,-0.261474609375,197221.3405875,1.102412870077211,-0.4274543991886942,0.4388892139611675,197221.3456845,-80.24481201171875,-11.18019104003906,-587.91455078125,197221.3405875,2.213757929049462,-1.370524646643841,-0.2007173836371082,1.099623441696167,-0.4341673851013184,0.4356620311737061,0.1268720626831055,0.1721028387546539,-0.05199122428894043,1,-0.5284271240234375,0.351132333278656,-0.7173077464103699,-0.287993848323822,-0.9603376388549805,0.1993723660707474,-0.1949417144060135,0,0,0,-1,197219.913767375,3,1,1561914504.751304,1561913957.287787,32,0.8918345,0,0,26.32609,0,0,1561914413.669193,197218.91889,0,1.762451,75.28853,3232235528,177845136,1,1,0.53,-17.08567,-31.25067,0
1561914506.222028,67,0,0,1561914506.000062,4.634682079781438,-74.15105718194893,2553.051,0.6,201.4453125,4,50,-9999,1561914506.207152,-4.492591857910156,18.98462867736816,-23.59893798828125,296.8125915527344,304.3060607910156,15,197221.3780935,-0.859588623046875,0.3166656494140625,-0.2550201416015625,197221.3608515,1.227172912399717,-0.3567602554203229,0.603123428909155,197221.3657955,-80.37443542480469,-12.2706298828125,-588.2684936523438,197221.3608515,2.239370491324232,-1.37335333463558,-0.2065917225558364,1.224383473396301,-0.3634732663631439,0.599896252155304,0.1262698769569397,0.1321091949939728,-0.06948322057723999,1,-0.5327439904212952,0.3466816246509552,-0.7207823395729065,-0.2765293419361115,-0.9597201943397522,0.2051253020763397,-0.19199138879776,0,0,0,-1,197219.913767375,3,1,1561914504.751304,1561913957.287787,32,0.8918345,0,0,26.32609,0,0,1561914413.669193,197218.91889,0,1.762451,75.28853,3232235528,177845136,1,1,0.53,-17.08567,-32.10272,0
1561914506.242247,68,0,0,1561914506.000062,4.634682079781438,-74.15105718194893,2553.051,0.6,201.4453125,4,50,-9999,1561914506.228482,-4.255836486816406,16.96826934814453,-24.596435546875,292.9013366699219,300.3948059082031,15,197221.3983265,-0.8903045654296875,0.3025665283203125,-0.2281036376953125,197221.3811155,1.459567805971083,-0.438368832284166,0.6312024678624054,197221.3859065,-80.38906860351562,-12.96772766113281,-588.82470703125,197221.3811155,2.268943865688091,-1.374963449126926,-0.2137206997028354,1.456778407096863,-0.4450818300247192,0.6279752850532532,0.09898066520690918,0.1045682430267334,-0.06486368179321289,1,-0.5370223522186279,0.3413630723953247,-0.7250479459762573,-0.263407826423645,-0.9585692882537842,0.2120974063873291,-0.190156489610672,0,0,0,-1,197219.913767375,3,1,1561914504.751304,1561913957.287787,32,0.8918345,0,0,26.32609,0,0,1561914413.669193,197218.91889,0,1.762451,75.28853,3232235528,177845136,1,1,0.53,-17.08567,-32.99387,0
1561914506.272766,69,0,0,1561914506.000062,4.634682079781438,-74.15105718194893,2553.051,0.6,201.4453125,4,50,-9999,1561914506.252694,-4.455276489257812,16.34782600402832,-25.2572021484375,290.3170471191406,297.8105163574219,15,197221.418614625,-0.920684814453125,0.2898406982421875,-0.201324462890625,197221.4013785,1.719614301140743,-0.6767720835908603,0.5823062976163326,197221.406041625,-80.44145202636719,-13.65327453613281,-589.3919677734375,197221.4013785,2.303886716094015,-1.378869802736417,-0.2195400633177816,1.716824889183044,-0.6834850311279297,0.5790790915489197,0.06777238845825195,0.08478578925132751,-0.0419316291809082,1,-0.5432375073432922,0.3343755900859833,-0.7290040254592896,-0.2482722103595734,-0.9580770134925842,0.2177807539701462,-0.1861719489097595,0,0,0,-1,197219.913767375,3,1,1561914504.751304,1561913957.287787,32,0.8918345,0,0,26.32609,0,0,1561914413.669193,197218.91889,0,1.762451,75.28853,3232235528,177845136,1,1,0.53,-17.08567,-33.9089,0
1561914506.282796,70,0,0,1561914506.000062,4.634682079781438,-74.15105718194893,2553.051,0.6,201.4453125,4,50,-9999,1561914506.279771,-4.648597717285156,15.58011531829834,-25.80120849609375,287.56982421875,295.0632934570312,15,197221.438878625,-0.9408111572265625,0.2705078125,-0.19744873046875,197221.421666625,1.803236494104794,-0.8527124894264001,0.4916951710035856,197221.426152625,-80.66824340820312,-14.45018005371094,-589.54248046875,197221.421666625,2.342236503769353,-1.386195078718074,-0.2235032494392868,1.800447106361389,-0.8594254851341248,0.4884679913520813,0.03787434101104736,0.06819361448287964,-0.02233541011810303,1,-0.5515137314796448,0.3260952234268188,-0.7319470643997192,-0.2318362891674042,-0.9585591554641724,0.2216470837593079,-0.1789890229701996,0,0,0,-1,197219.913767375,3,1,1561914504.751304,1561913957.287787,32,0.8918345,0,0,26.32609,0,0,1561914413.669193,197218.91889,0,1.762451,75.28853,3232235528,177845136,1,1,0.53,-17.08567,-34.18683,0
1561914506.303116,71,0,0,1561914506.000062,4.634682079781438,-74.15105718194893,2553.051,0.6,201.4453125,4,50,-9999,1561914506.279771,-4.648597717285156,15.58011531829834,-25.80120849609375,287.56982421875,295.0632934570312,15,197221.459141625,-0.9330291748046875,0.2564849853515625,-0.2099609375,197221.441930625,1.734155427008684,-0.9296687901819839,0.3832184945341511,197221.446263625,-81.37910461425781,-15.25093078613281,-590.0584106445312,197221.441930625,2.380081485579881,-1.396194009351883,-0.2257483282212006,1.731366038322449,-0.9363817572593689,0.3799913227558136,0.0189971923828125,0.04667204618453979,-0.02813994884490967,1,-0.5608661770820618,0.3174503743648529,-0.7335827946662903,-0.2156632989645004,-0.959808349609375,0.2238357663154602,-0.1693087816238403,0,0,0,-1,197219.913767375,3,1,1561914504.751304,1561913957.287787,32,0.8918345,0,0,26.32609,0,0,1561914413.669193,197218.91889,0,1.762451,75.28853,3232235528,177845136,1,1,0.53,-17.08567,-34.18683,0
1561914506.323899,72,0,0,1561914506.000062,4.634682079781438,-74.15105718194893,2553.051,0.6,201.4453125,4,50,-9999,1561914506.303389,-5.655448913574219,13.84707546234131,-26.49029541015625,284.9853210449219,292.4787902832031,15,197221.479405625,-0.9302978515625,0.25457763671875,-0.2200469970703125,197221.462193625,1.638951412779986,-0.8663169815389609,0.2932475918474591,197221.466374625,-81.52030944824219,-16.00834655761719,-590.3910522460938,197221.462193625,2.4157273349996,-1.406693349750896,-0.2265558657613721,1.636162042617798,-0.8730299472808838,0.2900204062461853,0.02832514047622681,0.03186224400997162,-0.05076825618743896,1,-0.5701613426208496,0.3087388873100281,-0.7343856692314148,-0.2006836235523224,-0.9613543152809143,0.2246227413415909,-0.159192681312561,0,0,0,-1,197219.913767375,3,1,1561914504.751304,1561913957.287787,32,0.8918345,0,0,26.32609,0,0,1561914413.669193,197218.91889,0,1.762451,75.28853,3232235528,177845136,1,1,0.53,-17.08567,-34.2293,0
1561914506.351904,73,0,0,1561914506.000062,4.634682079781438,-74.15105718194893,2553.051,0.6,201.4453125,4,50,-9999,1561914506.330043,-5.873985290527344,13.048095703125,-26.7437744140625,282.5650024414062,290.0584716796875,15,197221.499669625,-0.9242095947265625,0.2539520263671875,-0.218109130859375,197221.482426625,1.578964774490388,-0.7562866168895741,0.2859814231292869,197221.486455625,-81.77445983886719,-16.91578674316406,-590.6050415039062,197221.482426625,2.449512548067089,-1.415643182526459,-0.2270564051679549,1.576175332069397,-0.7629995942115784,0.2827542424201965,0.03233158588409424,0.02946716547012329,-0.06948190927505493,1,-0.5785089731216431,0.3000746965408325,-0.7351236939430237,-0.1867504119873047,-0.9626294374465942,0.2251104563474655,-0.1505650877952576,0,0,0,-1,197219.913767375,3,1,1561914504.751304,1561913957.287787,32,0.8918345,0,0,26.32609,0,0,1561914413.669193,197218.91889,0,1.762451,75.28853,3232235528,177845136,1,1,0.53,-17.08567,-33.15276,0
1561914506.36389,74,0,0,1561914506.000062,4.634682079781438,-74.15105718194893,2553.051,0.6,201.4453125,4,50,-9999,1561914506.354115,-6.054229736328125,12.22074317932129,-27.13299560546875,280.2682189941406,287.7616882324219,15,197221.519932625,-0.9298248291015625,0.2643585205078125,-0.214111328125,197221.502690625,1.504700929596874,-0.65810998225213,0.2951679973095153,197221.506566625,-82.10493469238281,-17.6376953125,-591.1448974609375,197221.502690625,2.482128295745627,-1.422705629985297,-0.2281297463475453,1.501911520957947,-0.6648229360580444,0.2919408082962036,0.03921973705291748,0.02779591083526611,-0.07438194751739502,1,-0.5857596397399902,0.2915854454040527,-0.7360759377479553,-0.1733662784099579,-0.96342933177948,0.2261561155319214,-0.1437271386384964,0,0,0,-1,197219.913767375,3,1,1561914504.751304,1561913957.287787,32,0.8918345,0,0,26.32609,0,0,1561914413.669193,197218.91889,0,1.762451,75.28853,3232235528,177845136,1,1,0.53,-17.08567,-33.15276,0
1561914506.384233,75,0,0,1561914506.000062,4.634682079781438,-74.15105718194893,2553.051,0.6,201.4453125,4,50,-9999,1561914506.380479,-6.599815368652344,10.78875732421875,-27.75732421875,278.2283325195312,285.7218017578125,15,197221.540196625,-0.96533203125,0.2879791259765625,-0.2097930908203125,197221.522954625,1.351282344467916,-0.5794942658213179,0.2896256927649514,197221.526677625,-82.16773986816406,-18.55877685546875,-591.2279052734375,197221.522954625,2.512447660919154,-1.42842316995023,-0.2297308743717774,1.348492980003357,-0.5862072110176086,0.2863985300064087,0.03405094146728516,0.03664304316043854,-0.07594645023345947,1,-0.5919787287712097,0.2836878001689911,-0.7370249629020691,-0.1608626246452332,-0.9638757109642029,0.227715477347374,-0.1381648331880569,0,0,0,-1,197219.913767375,3,1,1561914504.751304,1561913957.287787,32,0.8918345,0,0,26.32609,0,0,1561914413.669193,197218.91889,0,1.762451,75.28853,3232235528,177845136,1,1,0.53,-17.08567,-33.05661,0
1561914506.40461,76,0,0,1561914506.000062,4.634682079781438,-74.15105718194893,2553.051,0.6,201.4453125,4,50,-9999,1561914506.380479,-6.599815368652344,10.78875732421875,-27.75732421875,278.2283325195312,285.7218017578125,15,197221.560460625,-0.9908599853515625,0.3094635009765625,-0.2210845947265625,197221.543217625,1.198702921398443,-0.5629760091601015,0.2648982420435657,197221.546788625,-82.53761291503906,-19.18124389648438,-591.377197265625,197221.543217625,2.539385652562133,-1.433878345720351,-0.2316724163887099,1.195913553237915,-0.5696889758110046,0.2616710662841797,-0.001156926155090332,0.05837355554103851,-0.07694900035858154,1,-0.5974740386009216,0.2767719924449921,-0.7376043796539307,-0.1495386213064194,-0.9641751646995544,0.2296055853366852,-0.1328440755605698,0,0,0,-1,197219.913767375,3,1,1561914504.751304,1561913957.287787,32,0.8918345,0,0,26.32609,0,0,1561914413.669193,197218.91889,0,1.762451,75.28853,3232235528,177845136,1,1,0.53,-17.08567,-31.51844,0
1561914506.433738,77,0,0,1561914506.000062,4.634682079781438,-74.15105718194893,2553.051,0.6,201.4453125,4,50,-9999,1561914506.431168,-7.028114318847656,9.145883560180664,-27.90594482421875,274.7268981933594,282.2203674316406,15,197221.580724625,-1.007080078125,0.3384552001953125,-0.237457275390625,197221.563481625,1.122488044690337,-0.5731412950409339,0.2737322136954675,197221.566899625,-82.96214294433594,-19.53347778320312,-591.438720703125,197221.563481625,2.563840914800755,-1.43991261620455,-0.2338727282533913,1.119698643684387,-0.5798542499542236,0.2705050408840179,-0.02640384435653687,0.07771694660186768,-0.09412717819213867,1,-0.6027268171310425,0.2706320285797119,-0.7376748919487,-0.1389770209789276,-0.9644561409950256,0.2317465543746948,-0.1269573718309402,0,0,0,-1,197219.913767375,3,1,1561914504.751304,1561913957.287787,32,0.8918345,0,0,26.32609,0,0,1561914413.669193,197218.91889,0,1.762451,75.28853,3232235528,177845136,1,1,0.53,-17.08567,-32.16556,0
1561914506.444877,78,0,0,1561914506.000062,4.634682079781438,-74.15105718194893,2553.051,0.6,201.4453125,4,50,-9999,1561914506.431168,-7.028114318847656,9.145883560180664,-27.90594482421875,274.7268981933594,282.2203674316406,15,197221.600957625,-1.004608154296875,0.3481597900390625,-0.2503814697265625,197221.583745625,1.145260735171604,-0.5895495631491301,0.2981691135419255,197221.587010625,-83.01795959472656,-20.52525329589844,-591.4409790039062,197221.583745625,2.587852153144658,-1.446198574770519,-0.2366889405090186,1.142471313476562,-0.596262514591217,0.2949419319629669,-0.04249650239944458,0.1039700210094452,-0.1166465282440186,1,-0.6078612208366394,0.264762818813324,-0.7375157475471497,-0.1283585131168365,-0.9645835757255554,0.2344851642847061,-0.1208107694983482,0,0,0,-1,197219.913767375,3,1,1561914504.751304,1561913957.287787,32,0.8918345,0,0,26.32609,0,0,1561914413.669193,197218.91889,0,1.762451,75.28853,3232235528,177845136,1,1,0.53,-17.08567,-30.82914,0
1561914506.465681,79,0,0,1561914506.000062,4.634682079781438,-74.15105718194893,2553.051,0.6,201.4453125,4,50,-9999,1561914506.455466,-7.413642883300781,8.456474304199219,-28.00146484375,272.9095458984375,280.4030151367188,15,197221.621220625,-0.9859619140625,0.350616455078125,-0.24700927734375,197221.604008625,1.209944923307994,-0.5796186354442247,0.286485825839748,197221.607121625,-83.2655029296875,-21.21258544921875,-591.8704833984375,197221.604008625,2.612915351374481,-1.45234589406506,-0.2397035111477097,1.207155585289001,-0.5863316059112549,0.2832586467266083,-0.04000639915466309,0.1107451468706131,-0.1355866193771362,1,-0.6129928827285767,0.2585387527942657,-0.7373148798942566,-0.1173213571310043,-0.9646017551422119,0.2374146282672882,-0.1147948801517487,0,0,0,-1,197219.913767375,3,1,1561914504.751304,1561913957.287787,32,0.8918345,0,0,26.32609,0,0,1561914413.669193,197218.91889,0,1.762451,75.28853,3232235528,177845136,1,1,0.53,-17.08567,-30.82914,0
1561914506.485615,80,0,0,1561914506.000062,4.634682079781438,-74.15105718194893,2553.051,0.6,201.4453125,4,50,-9999,1561914506.481779,-7.909149169921875,7.30323600769043,-28.24688720703125,270.9490661621094,278.4425354003906,15,197221.641484625,-0.9495391845703125,0.3440704345703125,-0.23541259765625,197221.624272625,1.291114877540301,-0.5486071898146879,0.2441900340393275,197221.627232625,-83.46389770507812,-22.02392578125,-591.6495971679688,197221.624272625,2.639349122748341,-1.45756166577326,-0.2420618775627038,1.288325548171997,-0.555320143699646,0.2409628480672836,-0.02133369445800781,0.1109115481376648,-0.1373106837272644,1,-0.6179725527763367,0.2515166401863098,-0.737282395362854,-0.1061314791440964,-0.9646282196044922,0.2397049069404602,-0.1096986085176468,0,0,0,-1,197219.913767375,3,1,1561914504.751304,1561913957.287787,32,0.8918345,0,0,26.32609,0,0,1561914413.669193,197218.91889,0,1.762451,75.28853,3232235528,177845136,1,1,0.53,-17.08567,-31.07558,0
1561914506.5129,81,0,0,1561914506.000062,4.634682079781438,-74.15105718194893,2553.051,0.6,201.4453125,4,50,-9999,1561914506.50613,-8.010711669921875,6.342100143432617,-28.1865234375,268.7433166503906,276.2367858886719,15,197221.661748625,-0.9222564697265625,0.332855224609375,-0.2245635986328125,197221.644536625,1.416094630652739,-0.5611339006340936,0.2159317643447147,197221.647343625,-83.7098388671875,-22.55711364746094,-591.7322998046875,197221.644536625,2.667822906500528,-1.46200194349275,-0.2435178765268785,1.413305282592773,-0.5678468942642212,0.2127045691013336,0.01521873474121094,0.102952241897583,-0.1300362944602966,1,-0.6229456663131714,0.2434143275022507,-0.7373864650726318,-0.09460107982158661,-0.9647579193115234,0.2411181926727295,-0.1053763255476952,0,0,0,-1,197219.913767375,3,1,1561914504.751304,1561913957.287787,32,0.8918345,0,0,26.32609,0,0,1561914413.669193,197218.91889,0,1.762451,75.28853,3232235528,177845136,1,1,0.53,-17.08567,-31.36953,0
1561914506.525924,82,0,0,1561914506.000062,4.634682079781438,-74.15105718194893,2553.051,0.6,201.4453125,4,50,-9999,1561914506.50613,-8.010711669921875,6.342100143432617,-28.1865234375,268.7433166503906,276.2367858886719,15,197221.682011625,-0.897064208984375,0.321685791015625,-0.2034912109375,197221.664769625,1.599870056415292,-0.5854624098241855,0.2429356851659002,197221.667454625,-84.44961547851562,-23.6226806640625,-592.1351318359375,197221.664769625,2.699392883445062,-1.466122952694781,-0.2447878924592616,1.597080707550049,-0.5921753644943237,0.2397084981203079,0.04262232780456543,0.09050467610359192,-0.123196005821228,1,-0.6280779242515564,0.234167292714119,-0.7375314235687256,-0.08204469829797745,-0.9648787975311279,0.2423505485057831,-0.1013676002621651,0,0,0,-1,197219.913767375,3,1,1561914504.751304,1561913957.287787,32,0.8918345,0,0,26.32609,0,0,1561914413.669193,197218.91889,0,1.762451,75.28853,3232235528,177845136,1,1,0.53,-17.08567,-32.08281,0
1561914506.546245,83,0,0,1561914506.000062,4.634682079781438,-74.15105718194893,2553.051,0.6,201.4453125,4,50,-9999,1561914506.532426,-8.40142822265625,5.449823379516602,-28.38104248046875,266.1445922851562,273.6380615234375,15,197221.702275625,-0.8827362060546875,0.312469482421875,-0.1742095947265625,197221.685033625,1.835502554923867,-0.5545825243524988,0.2832391661548324,197221.687566625,-84.48832702636719,-24.49162292480469,-592.3787841796875,197221.685033625,2.735590814493847,-1.469102644633638,-0.2464338967589197,1.83271312713623,-0.5612955093383789,0.2800119817256927,0.06771397590637207,0.07773864269256592,-0.1050397157669067,1,-0.6331247687339783,0.2234441637992859,-0.7379897236824036,-0.06780009716749191,-0.9647782444953918,0.2439471483230591,-0.09845146536827087,0,0,0,-1,197219.913767375,3,1,1561914504.751304,1561913957.287787,32,0.8918345,0,0,26.32609,0,0,1561914413.669193,197218.91889,0,1.762451,75.28853,3232235528,177845136,1,1,0.53,-17.08567,-32.77792,0
1561914506.566743,84,0,0,1561914506.000062,4.634682079781438,-74.15105718194893,2553.051,0.6,201.4453125,4,50,-9999,1561914506.556653,-8.610237121582031,4.54680061340332,-28.6690673828125,263.1380920410156,270.6315612792969,15,197221.722539625,-0.8940582275390625,0.309661865234375,-0.1365509033203125,197221.705296625,2.035514741220416,-0.5853747918243219,0.3275182140190348,197221.707677625,-84.67770385742188,-25.58699035644531,-592.3159790039062,197221.705296625,2.776510562962839,-1.470503673123449,-0.2485943444308595,2.03272533416748,-0.5920877456665039,0.3242910504341125,0.08165240287780762,0.06642773747444153,-0.07716292142868042,1,-0.637848973274231,0.2112471014261246,-0.7388088703155518,-0.05181532725691795,-0.9643886089324951,0.2460417598485947,-0.09704669564962387,0,0,0,-1,197219.913767375,3,1,1561914504.751304,1561913957.287787,32,0.8918345,0,0,26.32609,0,0,1561914413.669193,197218.91889,0,1.762451,75.28853,3232235528,177845136,1,1,0.53,-17.08567,-33.50679,0
1561914506.591801,85,0,0,1561914506.000062,4.634682079781438,-74.15105718194893,2553.051,0.6,201.4453125,4,50,-9999,1561914506.584638,-9.620613098144531,2.300329208374023,-28.4564208984375,259.9548645019531,267.4483337402344,15,197221.742802625,-0.9465484619140625,0.300140380859375,-0.12530517578125,197221.725560625,2.119872499277547,-0.7265620106987637,0.3360821411364026,197221.727788625,-84.94709777832031,-26.9267578125,-592.1989135742188,197221.725560625,2.820700317615377,-1.47295828670886,-0.2511038393057645,2.117083072662354,-0.7332749962806702,0.3328549563884735,0.06994819641113281,0.06118851900100708,-0.04193228483200073,1,-0.6430168151855469,0.1980405896902084,-0.7390036582946777,-0.03439420834183693,-0.9640064835548401,0.2484733313322067,-0.09461860358715057,0,0,0,-1,197219.913767375,3,1,1561914504.751304,1561913957.287787,32,0.8918345,0,0,26.32609,0,0,1561914413.669193,197218.91889,0,1.762451,75.28853,3232235528,177845136,1,1,0.53,-17.08567,-34.21165,0
1561914506.60765,86,0,0,1561914506.000062,4.634682079781438,-74.15105718194893,2553.051,0.6,201.4453125,4,50,-9999,1561914506.584638,-9.620613098144531,2.300329208374023,-28.4564208984375,259.9548645019531,267.4483337402344,15,197221.763066625,-0.9980316162109375,0.3029632568359375,-0.1421966552734375,197221.745824625,2.011866936004948,-0.7296422228155494,0.3020267023809053,197221.747899625,-85.54991149902344,-27.76402282714844,-592.166259765625,197221.745824625,2.864671452008182,-1.477388953719954,-0.2535621646162767,2.009077310562134,-0.736355185508728,0.2987995147705078,0.01725655794143677,0.04928657412528992,-0.03501594066619873,1,-0.6486243605613708,0.1847750544548035,-0.7381455302238464,-0.01690343022346497,-0.9638050198554993,0.2508538067340851,-0.09028923511505127,0,0,0,-1,197219.913767375,3,1,1561914504.751304,1561913957.287787,32,0.8918345,0,0,26.32609,0,0,1561914413.669193,197218.91889,0,1.762451,75.28853,3232235528,177845136,1,1,0.53,-17.08567,-34.85658,0
1561914506.627208,87,0,0,1561914506.000062,4.634682079781438,-74.15105718194893,2553.051,0.6,201.4453125,4,50,-9999,1561914506.607866,-9.755165100097656,1.119634628295898,-28.37860107421875,257.1007995605469,264.5942687988281,15,197221.783299625,-1.01983642578125,0.313873291015625,-0.177886962890625,197221.766087625,1.497783901297611,-0.1909832712528524,0.3170573172572035,197221.767979625,-86.06304931640625,-28.58155822753906,-591.9075927734375,197221.766087625,2.902666628709679,-1.478391287804869,-0.2560537311925096,1.494994521141052,-0.197696253657341,0.3138301372528076,-0.03476196527481079,0.04969832301139832,-0.05293142795562744,1,-0.6521726250648499,0.1733155399560928,-0.737989604473114,-0.001951330108568072,-0.9632696509361267,0.2532649338245392,-0.08926518261432648,0,0,0,-1,197219.913767375,3,1,1561914504.751304,1561913957.287787,32,0.8918345,0,0,26.32609,0,0,1561914413.669193,197218.91889,0,1.762451,75.28853,3232235528,177845136,1,1,0.53,-17.08567,-34.85658,0
1561914506.647468,88,0,0,1561914506.000062,4.634682079781438,-74.15105718194893,2553.051,0.6,201.4453125,4,50,-9999,1561914506.634,-9.951026916503906,0.2602481842041016,-28.37353515625,255.5220336914062,263.0155029296875,15,197221.803563625,-0.999542236328125,0.331451416015625,-0.1961517333984375,197221.786351625,0.5734531512045822,0.641572018198847,0.5513808720900055,197221.788090625,-85.63343811035156,-29.365966796875,-591.991455078125,197221.786351625,2.92523090375286,-1.467922657098672,-0.2625754283945265,0.5706637501716614,0.634859025478363,0.5481536984443665,-0.05921727418899536,0.05430471897125244,-0.07871443033218384,1,-0.6496747732162476,0.1683342903852463,-0.7413010001182556,0.007692933082580566,-0.9606191515922546,0.2595685720443726,-0.09917251020669937,0,0,0,-1,197219.913767375,3,1,1561914504.751304,1561913957.287787,32,0.8918345,0,0,26.32609,0,0,1561914413.669193,197218.91889,0,1.762451,75.28853,3232235528,177845136,1,1,0.53,-17.08567,-35.50413,0
1561914506.674498,89,0,0,1561914506.000062,4.634682079781438,-74.15105718194893,2553.051,0.6,201.4453125,4,50,-9999,1561914506.634,-9.951026916503906,0.2602481842041016,-28.37353515625,255.5220336914062,263.0155029296875,15,197221.823827625,-0.9581146240234375,0.354217529296875,-0.2161712646484375,197221.806615625,-0.08368930462352205,1.074559667184399,0.7161874003562511,197221.808202625,-84.78511047363281,-29.28863525390625,-592.1298828125,197221.806615625,2.930919376631545,-1.448359679067654,-0.2751201135578223,-0.08647870272397995,1.067846655845642,0.7129602432250977,-0.04435408115386963,0.05978888273239136,-0.07861381769180298,1,-0.641825795173645,0.1711451858282089,-0.7474067807197571,0.01233386900275946,-0.9551881551742554,0.2716625332832336,-0.1175379455089569,0,0,0,-1,197219.913767375,3,1,1561914504.751304,1561913957.287787,32,0.8918345,0,0,26.32609,0,0,1561914413.669193,197218.91889,0,1.762451,75.28853,3232235528,177845136,1,1,0.53,-17.08567,-34.07174,0
1561914506.688053,90,0,0,1561914506.000062,4.634682079781438,-74.15105718194893,2553.051,0.6,201.4453125,4,50,-9999,1561914506.678673,-9.656288146972656,0.2427711486816406,-28.48345947265625,255.3222045898438,262.815673828125,15,197221.844090625,-0.9263763427734375,0.37567138671875,-0.2274932861328125,197221.826878625,-0.1875022533920098,1.007974514661911,0.6825325010287017,197221.828313625,-84.34893798828125,-29.02145385742188,-591.9716186523438,197221.826878625,2.929175897068098,-1.427194578745042,-0.2899235895321283,-0.1902916580438614,1.001261472702026,0.6793053150177002,-0.00971221923828125,0.06833851337432861,-0.07903510332107544,1,-0.6324654221534729,0.1772551685571671,-0.7538909912109375,0.01471768599003553,-0.9484024047851562,0.2858790159225464,-0.1371361911296844,0,0,0,-1,197219.913767375,3,1,1561914504.751304,1561913957.287787,32,0.8918345,0,0,26.32609,0,0,1561914413.669193,197218.91889,0,1.762451,75.28853,3232235528,177845136,1,1,0.53,-17.08567,-34.39869,0
1561914506.708613,91,0,0,1561914506.000062,4.634682079781438,-74.15105718194893,2553.051,0.6,201.4453125,4,50,-9999,1561914506.678673,-9.656288146972656,0.2427711486816406,-28.48345947265625,255.3222045898438,262.815673828125,15,197221.864354625,-0.9105224609375,0.39300537109375,-0.2319488525390625,197221.847142625,0.1016137103403004,0.6369136168200804,0.4887790096099489,197221.848424625,-83.91285705566406,-28.75886535644531,-592.50048828125,197221.847142625,2.929671568224224,-1.410206377251956,-0.3019105146624634,0.09882430732250214,0.6302006244659424,0.4855518341064453,0.0161089301109314,0.0783265233039856,-0.07482492923736572,1,-0.6250361204147339,0.1816471517086029,-0.7589698433876038,0.0172913447022438,-0.9424852728843689,0.2973448634147644,-0.1526683270931244,0,0,0,-1,197219.913767375,3,1,1561914504.751304,1561913957.287787,32,0.8918345,0,0,26.32609,0,0,1561914413.669193,197218.91889,0,1.762451,75.28853,3232235528,177845136,1,1,0.53,-17.08567,-34.77374,0
1561914506.728555,92,0,0,1561914506.000062,4.634682079781438,-74.15105718194893,2553.051,0.6,201.4453125,4,50,-9999,1561914506.708757,-7.976783752441406,0.5140151977539062,-28.843017578125,254.98486328125,262.4783325195312,15,197221.884618625,-0.9012298583984375,0.3968963623046875,-0.2374114990234375,197221.867375625,0.5378000821111464,0.1704612182088108,0.2642641433880178,197221.868535625,-83.71287536621094,-29.07777404785156,-592.6251220703125,197221.867375625,2.937551269240941,-1.399930126364386,-0.3083111116610286,0.5350106954574585,0.1637482345104218,0.2610369622707367,0.02844947576522827,0.08955556154251099,-0.06993049383163452,1,-0.6212813258171082,0.181659922003746,-0.7619384527206421,0.02142544463276863,-0.938971996307373,0.303449809551239,-0.1620183736085892,0,0,0,-1,197219.913767375,3,1,1561914504.751304,1561913957.287787,32,0.8918345,0,0,26.32609,0,0,1561914413.669193,197218.91889,0,1.762451,75.28853,3232235528,177845136,1,1,0.53,-17.08567,-35.22745,0
1561914506.755335,93,0,0,1561914506.000062,4.634682079781438,-74.15105718194893,2553.051,0.6,201.4453125,4,50,-9999,1561914506.735453,-7.885772705078125,0.2381916046142578,-29.05242919921875,253.8268432617188,261.3203125,15,197221.904881625,-0.897216796875,0.3957366943359375,-0.226898193359375,197221.887639625,0.9281827462937197,-0.1626773309747272,0.07948124378508784,197221.888646625,-83.84730529785156,-29.80380249023438,-592.4603271484375,197221.887639625,2.953600690509105,-1.39530288320716,-0.3090365466727844,0.9253933429718018,-0.1693903207778931,0.07625405490398407,0.03676521778106689,0.09275540709495544,-0.07108855247497559,1,-0.6208935976028442,0.1770018488168716,-0.7631596326828003,0.0273634921759367,-0.9379950761795044,0.3041409552097321,-0.1663229763507843,0,0,0,-1,197219.913767375,3,1,1561914504.751304,1561913957.287787,32,0.8918345,0,0,26.32609,0,0,1561914413.669193,197218.91889,0,1.762451,75.28853,3232235528,177845136,1,1,0.53,-17.08567,-29.4016,0
1561914506.769143,94,0,0,1561914506.000062,4.634682079781438,-74.15105718194893,2553.051,0.6,201.4453125,4,50,-9999,1561914506.759294,-7.922401428222656,-0.4503746032714844,-29.03973388671875,252.1884460449219,259.6819152832031,15,197221.925145625,-0.8890380859375,0.3902740478515625,-0.21087646484375,197221.907902625,1.155728289836161,-0.3538259845312736,-0.07954196385794164,197221.908726625,-83.86003112792969,-30.09542846679688,-592.401123046875,197221.907902625,2.975708500489187,-1.394371817568937,-0.3051181866960742,1.152938961982727,-0.3605389893054962,-0.08276915550231934,0.04178929328918457,0.09533077478408813,-0.0594940185546875,1,-0.622771680355072,0.1686812341213226,-0.7632265090942383,0.0344604030251503,-0.9390060901641846,0.3004059195518494,-0.1674041450023651,0,0,0,-1,197219.913767375,3,1,1561914504.751304,1561913957.287787,32,0.8918345,0,0,26.32609,0,0,1561914413.669193,197218.91889,0,1.762451,75.28853,3232235528,177845136,1,1,0.53,-17.08567,-29.4016,0
1561914506.789339,95,0,0,1561914506.000062,4.634682079781438,-74.15105718194893,2553.051,0.6,201.4453125,4,50,-9999,1561914506.785819,-8.081634521484375,-1.616266250610352,-28.740234375,250.6579284667969,258.1513977050781,15,197221.945409625,-0.87255859375,0.37518310546875,-0.1893310546875,197221.928166625,1.071346030697,-0.2708163186179397,-0.1267134709820792,197221.928838625,-83.97830200195312,-30.94851684570312,-592.3124389648438,197221.928166625,2.998979755202076,-1.394243567959044,-0.2988298730888272,1.068556666374207,-0.2775293290615082,-0.1299406588077545,0.05178749561309814,0.09587189555168152,-0.04302346706390381,1,-0.6251159310340881,0.1590709239244461,-0.7630333304405212,0.04131178185343742,-0.9408255815505981,0.294402152299881,-0.1678530275821686,0,0,0,-1,197219.913767375,3,1,1561914504.751304,1561913957.287787,32,0.8918345,0,0,26.32609,0,0,1561914413.669193,197218.91889,0,1.762451,75.28853,3232235528,177845136,1,1,0.53,-17.64295,-25.03147,0
1561914506.810322,96,0,0,1561914506.000062,4.634682079781438,-74.15105718194893,2553.051,0.6,201.4453125,4,50,-9999,1561914506.785819,-8.081634521484375,-1.616266250610352,-28.740234375,250.6579284667969,258.1513977050781,15,197221.965642625,-0.860137939453125,0.359710693359375,-0.164520263671875,197221.948430625,0.7674923998083005,-0.06105722904781066,-0.1041019017467614,197221.948949625,-84.00941467285156,-31.29243469238281,-592.3499755859375,197221.948430625,3.017810589024721,-1.392259349165387,-0.2931940591114137,0.7647030353546143,-0.06777022033929825,-0.1073290929198265,0.06954991817474365,0.08617165684700012,-0.01931965351104736,1,-0.6262272596359253,0.1511082202196121,-0.7634394764900208,0.04653860628604889,-0.9421085119247437,0.2890114486217499,-0.1700114458799362,0,0,0,-1,197219.913767375,3,1,1561914504.751304,1561913957.287787,32,0.8918345,0,0,26.32609,0,0,1561914413.669193,197218.91889,0,1.762451,75.28853,3232235528,177845136,1,1,0.53,-16.52514,-20.52959,0
1561914506.841129,97,0,0,1561914506.000062,4.634682079781438,-74.15105718194893,2553.051,0.6,201.4453125,4,50,-9999,1561914506.836489,-8.032524108886719,-2.4036865234375,-28.74114990234375,249.1598510742188,256.6533203125,15,197221.985905625,-0.853057861328125,0.35113525390625,-0.1497039794921875,197221.968693625,0.4806068334889317,0.08741293645967084,-0.1188872394866633,197221.969060625,-84.12040710449219,-31.6331787109375,-592.3583984375,197221.968693625,3.030148817578015,-1.388304918050153,-0.288903710769392,0.4778174161911011,0.08069994300603867,-0.1221144273877144,0.08250164985656738,0.07480916380882263,0.009438812732696533,1,-0.6259269714355469,0.1457254141569138,-0.7645395398139954,0.04958714172244072,-0.9426396489143372,0.2849015295505524,-0.1739590615034103,0,0,0,-1,197219.913767375,3,1,1561914504.751304,1561913957.287787,32,0.8918345,0,0,26.32609,0,0,1561914413.669193,197218.91889,0,1.762451,75.28853,3232235528,177845136,1,1,0.53,-12.68834,-15.9599,0
1561914506.85034,98,0,0,1561914506.000062,4.634682079781438,-74.15105718194893,2553.051,0.6,201.4453125,4,50,-9999,1561914506.836489,-8.032524108886719,-2.4036865234375,-28.74114990234375,249.1598510742188,256.6533203125,15,197222.006169625,-0.8442535400390625,0.33660888671875,-0.152191162109375,197221.988957625,0.2899340868191825,0.08985265833429243,-0.1945780060922414,197221.989171625,-83.89328002929688,-32.10737609863281,-592.380126953125,197221.988957625,3.037425582908009,-1.38436343703805,-0.2845046612884262,0.2871446907520294,0.08313966542482376,-0.1978051960468292,0.09011125564575195,0.07045319676399231,0.02819973230361938,1,-0.625232994556427,0.1418867856264114,-0.7657564282417297,0.05068560317158699,-0.943169116973877,0.2806820571422577,-0.1779036819934845,0,0,0,-1,197219.913767375,3,1,1561914504.751304,1561913957.287787,32,0.8918345,0,0,26.32609,0,0,1561914413.669193,197218.91889,0,1.762451,75.28853,3232235528,177845136,1,1,0.53,-12.68834,-15.9599,0
1561914506.870455,99,0,0,1561914506.000062,4.634682079781438,-74.15105718194893,2553.051,0.6,201.4453125,4,50,-9999,1561914506.860708,-8.049583435058594,-2.757534027099609,-28.7437744140625,249.0325622558594,256.5260314941406,15,197222.026433625,-0.835784912109375,0.3289642333984375,-0.1583709716796875,197222.009221625,0.08843186189273515,0.1739803192732415,-0.2617924635803152,197222.009282625,-83.86236572265625,-32.26864624023438,-592.3054809570312,197222.009221625,3.040504665990808,-1.381243496566849,-0.279353489838554,0.08564245700836182,0.1672673225402832,-0.2650196254253387,0.09976333379745483,0.06087464094161987,0.02892428636550903,1,-0.6245850324630737,0.1390532404184341,-0.7668487429618835,0.05000812560319901,-0.9440169334411621,0.2757342457771301,-0.1811154633760452,0,0,0,-1,197219.913767375,3,1,1561914504.751304,1561913957.287787,32,0.8918345,0,0,26.32609,0,0,1561914413.669193,197218.91889,0,1.762451,75.28853,3232235528,177845136,1,1,0.53,-12.47497,-16.02048,0
1561914506.890712,100,0,0,1561914506.000062,4.634682079781438,-74.15105718194893,2553.051,0.6,201.4453125,4,50,-9999,1561914506.887767,-7.604934692382812,-2.930580139160156,-28.8995361328125,249.3302612304688,256.82373046875,15,197222.046696625,-0.8238677978515625,0.323638916015625,-0.1605377197265625,197222.029484625,-0.1428271934737126,0.3407743646610132,-0.2850879325835654,197222.029362625,-83.5108642578125,-32.14556884765625,-592.408447265625,197222.029484625,3.038732877516062,-1.376502014581806,-0.2738792322957496,-0.1456166058778763,0.3340613543987274,-0.2883151173591614,0.1088294982910156,0.05849611759185791,0.02750712633132935,1,-0.622988760471344,0.1376442909240723,-0.7685735821723938,0.04726295545697212,-0.9446144700050354,0.2704681158065796,-0.185878112912178,0,0,0,-1,197219.913767375,3,1,1561914504.751304,1561913957.287787,32,0.8918345,0,0,26.32609,0,0,1561914413.669193,197218.91889,0,1.762451,75.28853,3232235528,177845136,1,1,0.53,-12.47497,-16.70665,0
1561914506.924857,101,0,0,1561914506.000062,4.634682079781438,-74.15105718194893,2553.051,0.6,201.4453125,4,50,-9999,1561914506.91148,-7.571456909179688,-2.834953308105469,-28.81396484375,249.8793334960938,257.372802734375,15,197222.066960625,-0.832489013671875,0.3203125,-0.1524658203125,197222.049718625,-0.3029854403733339,0.3740143434907282,-0.2774878034646972,197222.049474625,-83.39762878417969,-32.20046997070312,-592.5433349609375,197222.049718625,3.032732298588993,-1.370793177625228,-0.269172657728751,-0.3057748377323151,0.367301344871521,-0.2807149887084961,0.1209072470664978,0.05770492553710938,0.03098076581954956,1,-0.6206757426261902,0.1378491371870041,-0.7706517577171326,0.04307129606604576,-0.9447750449180603,0.2659339904785156,-0.1915184706449509,0,0,0,-1,197219.913767375,3,1,1561914504.751304,1561913957.287787,32,0.8918345,0,0,26.32609,0,0,1561914413.669193,197218.91889,0,1.762451,75.28853,3232235528,177845136,1,1,0.53,-12.47497,-17.56934,0
1561914506.931218,102,0,0,1561914506.000062,4.634682079781438,-74.15105718194893,2553.051,0.6,201.4453125,4,50,-9999,1561914506.91148,-7.571456909179688,-2.834953308105469,-28.81396484375,249.8793334960938,257.372802734375,15,197222.087224625,-0.886810302734375,0.3217926025390625,-0.1409912109375,197222.069981625,-0.3314101576360766,0.2445663387013557,-0.2894946652393194,197222.069585625,-83.08558654785156,-32.02127075195312,-592.617919921875,197222.069981625,3.024797615596718,-1.366557208072677,-0.264979507046365,-0.3341995775699615,0.2378533482551575,-0.2927218377590179,0.1125497817993164,0.05842301249504089,0.04327738285064697,1,-0.6187599897384644,0.1387965083122253,-0.7722676992416382,0.0383940227329731,-0.9450387954711914,0.2618894875049591,-0.195743203163147,0,0,0,-1,197219.913767375,3,1,1561914504.751304,1561913957.287787,32,0.8918345,0,0,26.32609,0,0,1561914413.669193,197218.91889,0,1.762451,75.28853,3232235528,177845136,1,1,0.53,-12.47497,-17.56934,0
1561914506.951565,103,0,0,1561914506.000062,4.634682079781438,-74.15105718194893,2553.051,0.6,201.4453125,4,50,-9999,1561914506.937898,-7.385200500488281,-2.486764907836914,-28.88385009765625,250.4456176757812,257.9390869140625,15,197222.107487625,-1.034896850585938,0.4391326904296875,-0.0924072265625,197222.090245625,-0.2969232867839865,0.1118935121480062,-0.3894843799468895,197222.089696625,-83.11601257324219,-31.52401733398438,-592.2173461914062,197222.090245625,3.016899040612398,-1.365291205252299,-0.2595712749353501,-0.2997126877307892,0.1051805168390274,-0.3927115499973297,0.05935269594192505,0.06512638926506042,0.05623441934585571,1,-0.6180701851844788,0.1391992419958115,-0.7729730010032654,0.03354934602975845,-0.9461630582809448,0.2566662132740021,-0.1972256302833557,0,0,0,-1,197219.913767375,3,1,1561914504.751304,1561913957.287787,32,0.8918345,0,0,26.32609,0,0,1561914413.669193,197218.91889,0,1.762451,75.28853,3232235528,177845136,1,1,0.53,-12.47497,-18.31745,0
1561914506.971773,104,0,0,1561914506.000062,4.634682079781438,-74.15105718194893,2553.051,0.6,201.4453125,4,50,-9999,1561914506.962083,-7.128425598144531,-2.351007461547852,-28.80682373046875,251.1619262695312,258.6553955078125,15,197222.127751625,-1.059921264648438,0.48016357421875,-0.07147216796875,197222.110509625,-0.4070426010137819,0.1707464427615583,-0.5415623297831014,197222.109807625,-83.01083374023438,-32.00794982910156,-592.7005004882812,197222.110509625,3.008135414290976,-1.364946523799478,-0.2517890583206833,-0.4098320007324219,0.1640334576368332,-0.5447894930839539,-0.086875319480896,0.1899956911802292,0.105546772480011,1,-0.6178329586982727,0.1389439702033997,-0.7734407186508179,0.02768317423760891,-0.9480215311050415,0.2491369992494583,-0.1979540139436722,0,0,0,-1,197219.913767375,3,1,1561914504.751304,1561913957.287787,32,0.8918345,0,0,26.32609,0,0,1561914413.669193,197218.91889,0,1.762451,75.28853,3232235528,177845136,1,1,0.53,-12.47497,-19.1307,0
1561914507.005621,105,0,0,1561914506.000062,4.634682079781438,-74.15105718194893,2553.051,0.6,201.4453125,4,50,-9999,1561914506.988448,-6.772010803222656,-1.830923080444336,-28.974609375,252.7318420410156,260.2253112792969,15,197222.148015625,-0.972076416015625,0.388214111328125,-0.1068267822265625,197222.130772625,-0.9032156110742268,0.2151069833551172,-0.6452924542416877,197222.129918625,-82.79563903808594,-31.55448913574219,-592.6301879882812,197222.130772625,2.9927097414515,-1.364966554278781,-0.2425841716219054,-0.9060049653053284,0.2083939909934998,-0.6485196352005005,-0.1096909046173096,0.2399516403675079,0.1269232034683228,1,-0.617371141910553,0.1401969641447067,-0.7738500237464905,0.01881290227174759,-0.9502303004264832,0.2402119338512421,-0.1983953714370728,0,0,0,-1,197219.913767375,3,1,1561914504.751304,1561913957.287787,32,0.8918345,0,0,26.32609,0,0,1561914413.669193,197218.91889,0,1.762451,75.28853,3232235528,177845136,1,1,0.53,-12.47497,-21.03767,0
1561914507.012464,106,0,0,1561914506.000062,4.634682079781438,-74.15105718194893,2553.051,0.6,201.4453125,4,50,-9999,1561914506.988448,-6.772010803222656,-1.830923080444336,-28.974609375,252.7318420410156,260.2253112792969,15,197222.168248625,-0.902557373046875,0.3205108642578125,-0.1544036865234375,197222.151036625,-1.63349566097085,0.4475349001240007,-0.5661584866627462,197222.150029625,-82.77375793457031,-30.76475524902344,-592.7537841796875,197222.151036625,2.964110113757473,-1.365602436300159,-0.2355207926298747,-1.636292338371277,0.4408146142959595,-0.569384753704071,-0.02008277177810669,0.1548646688461304,0.09130507707595825,1,-0.6160551309585571,0.1463220417499542,-0.7739735841751099,0.005560088437050581,-0.9519936442375183,0.2333494275808334,-0.1981318742036819,0,0,0,-1,197219.913767375,3,1,1561914504.751304,1561913957.287787,32,0.8918345,0,0,26.32609,0,0,1561914413.669193,197218.91889,0,1.762451,75.28853,3232235528,177845136,1,1,0.53,-12.47497,-21.03767,0
1561914507.032429,107,0,0,1561914506.000062,4.634682079781438,-74.15105718194893,2553.051,0.6,201.4453125,4,50,-9999,1561914507.012702,-6.696792602539062,-1.15174674987793,-28.92840576171875,255.483154296875,262.9766235351562,15,197222.188512625,-0.85302734375,0.2831268310546875,-0.1763458251953125,197222.171300625,-2.106733794039642,0.8212733401257967,-0.2947671915654583,197222.170140625,-82.42976379394531,-29.85018920898438,-592.5805053710938,197222.171300625,2.923272118005629,-1.36236829688502,-0.2346727285176953,-2.109530448913574,0.8145530819892883,-0.2979934811592102,0.04898381233215332,0.08798617124557495,0.04684692621231079,1,-0.6117536425590515,0.1585313528776169,-0.7749254107475281,-0.01076842844486237,-0.9515411257743835,0.2325246930122375,-0.2012505829334259,0,0,0,-1,197219.913767375,3,1,1561914504.751304,1561913957.287787,32,0.8918345,0,0,26.32609,0,0,1561914413.669193,197218.91889,0,1.762451,75.28853,3232235528,177845136,1,1,0.53,-12.47497,-21.59016,0
1561914507.052829,108,0,0,1561914507.000056,4.634680403400804,-74.15105776868215,2553.046,0.4,208.125,4,50,-9999,1561914507.012702,-6.696792602539062,-1.15174674987793,-28.92840576171875,255.483154296875,262.9766235351562,15,197222.208775625,-0.821197509765625,0.2769317626953125,-0.1727752685546875,197222.191563625,-2.081382897307068,1.059894704325768,-0.009338906994580865,197222.190251625,-81.58283996582031,-28.4989013671875,-592.7925415039062,197222.191563625,2.879159171973506,-1.353354709893069,-0.2407828976586514,-2.084179639816284,1.053174376487732,-0.01256518065929413,0.09525603055953979,0.04466381669044495,0.03316277265548706,1,-0.6040774583816528,0.1741726249456406,-0.7772005796432495,-0.02671107649803162,-0.9482833743095398,0.2384630143642426,-0.2095086425542831,0,0,0,-1,197219.913767375,3,1,1561914504.751304,1561913957.287787,32,0.8918345,0,0,26.32609,0,0,1561914413.669193,197218.91889,0,1.762451,75.28853,3232235528,177845136,1,1,0.53,-12.47497,-22.22761,0
1561914507.077326,109,0,0,1561914507.000056,4.634680403400804,-74.15105776868215,2553.046,0.4,208.125,4,50,-9999,1561914507.051937,-6.14093017578125,-0.03524398803710938,-29.10577392578125,258.6216735839844,266.1151428222656,15,197222.229039625,-0.83026123046875,0.240570068359375,-0.161376953125,197222.211827625,-1.681823246324191,0.9241714930598423,0.226428081149044,197222.210362625,-81.04794311523438,-27.15008544921875,-593.0400390625,197222.211827625,2.84078252302338,-1.342056279859724,-0.2514240295245533,-1.684619903564453,0.9174512624740601,0.223201796412468,0.1221334934234619,0.02814827859401703,0.04684603214263916,1,-0.5952067971229553,0.1895209550857544,-0.7799120545387268,-0.03934421390295029,-0.9433310031890869,0.2487834692001343,-0.2196213454008102,0,0,0,-1,197219.913767375,3,1,1561914504.751304,1561913957.287787,32,0.8918345,0,0,26.32609,0,0,1561914413.669193,197218.91889,0,1.762451,75.28853,3232235528,177845136,1,1,0.53,-12.47497,-23.10457,0
1561914507.093127,110,0,0,1561914507.000056,4.634680403400804,-74.15105776868215,2553.046,0.4,208.125,4,50,-9999,1561914507.090096,-4.798187255859375,3.332492828369141,-29.20245361328125,262.6353759765625,270.1288452148438,15,197222.249303625,-0.9333038330078125,0.2263946533203125,-0.12457275390625,197222.232060625,-1.131893264396061,0.5072413738669231,0.4954635439460477,197222.230443625,-80.85435485839844,-26.21281433105469,-592.8212280273438,197222.232060625,2.813733346365141,-1.334403073139447,-0.2650121032751038,-1.134689927101135,0.5005211234092712,0.4922372698783875,0.1079881191253662,-0.02135086059570312,0.06464481353759766,1,-0.5882050395011902,0.2024943381547928,-0.7815729975700378,-0.04641856253147125,-0.9382493495941162,0.2619209587574005,-0.2260217517614365,0,0,0,-1,197219.913767375,3,1,1561914504.751304,1561913957.287787,32,0.8918345,0,0,26.32609,0,0,1561914413.669193,197218.91889,0,1.762451,75.28853,3232235528,177845136,1,1,0.53,-12.47497,-23.10457,0
1561914507.113611,111,0,0,1561914507.000056,4.634680403400804,-74.15105776868215,2553.046,0.4,208.125,4,50,-9999,1561914507.090096,-4.798187255859375,3.332492828369141,-29.20245361328125,262.6353759765625,270.1288452148438,15,197222.269566625,-1.05950927734375,0.222381591796875,-0.0787353515625,197222.252324625,-0.6304778217297948,0.08455323408114375,0.6301281486786675,197222.250554625,-80.31834411621094,-25.71421813964844,-592.8796997070312,197222.252324625,2.7987143668435,-1.332594094733894,-0.2805942606191981,-0.6332744956016541,0.07783295959234238,0.6269018650054932,0.0004551410675048828,-0.05053207278251648,0.1021552085876465,1,-0.5842806696891785,0.212725430727005,-0.7817257642745972,-0.04763051867485046,-0.9337589740753174,0.276926726102829,-0.2267279773950577,0,0,0,-1,197219.913767375,3,1,1561914504.751304,1561913957.287787,32,0.8918345,0,0,26.32609,0,0,1561914413.669193,197218.91889,0,1.762451,75.28853,3232235528,177845136,1,1,0.53,-12.47497,-23.78333,0
1561914507.133782,112,0,0,1561914507.000056,4.634680403400804,-74.15105776868215,2553.046,0.4,208.125,4,50,-9999,1561914507.114112,-4.539154052734375,3.61119270324707,-29.098876953125,263.1995239257812,270.6929931640625,15,197222.289830625,-1.154510498046875,0.2397918701171875,-0.0396270751953125,197222.272588625,-0.2652580351068353,-0.3524030575608442,0.4413582306077799,197222.270665625,-80.55575561523438,-25.4019775390625,-592.7957763671875,197222.272588625,2.792507254593788,-1.337252618102014,-0.2936673963730608,-0.2680546939373016,-0.3591233193874359,0.4381319582462311,-0.128305971622467,-0.0670829713344574,0.1427834630012512,1,-0.5839840769767761,0.2195522636175156,-0.7801864743232727,-0.04547971487045288,-0.931203305721283,0.2894645631313324,-0.22151879966259,0,0,0,-1,197219.913767375,3,1,1561914504.751304,1561913957.287787,32,0.8918345,0,0,26.32609,0,0,1561914413.669193,197219.864592,0,1.865479,75.28757,3232235528,177845136,1,1,0.53,-12.47497,-24.53314,0
1561914507.164869,113,0,0,1561914507.000056,4.634680403400804,-74.15105776868215,2553.046,0.4,208.125,4,50,-9999,1561914507.14045,-4.613906860351562,3.982959747314453,-29.16143798828125,263.4044189453125,270.8978881835938,15,197222.310094625,-1.188934326171875,0.276519775390625,-0.02410888671875,197222.292851625,-0.1689970122414853,-0.5980690154762937,0.08687551055169285,197222.290776625,-80.63429260253906,-25.17498779296875,-592.863525390625,197222.292851625,2.789832395251285,-1.348299438903291,-0.299689912688576,-0.1717936545610428,-0.6047892570495605,0.08364924043416977,-0.2226342558860779,-0.05543211102485657,0.1712030172348022,1,-0.5873093008995056,0.2228288799524307,-0.7768720984458923,-0.04341419786214828,-0.9318763017654419,0.2952239513397217,-0.2108301520347595,0,0,0,-1,197219.913767375,3,1,1561914504.751304,1561913957.287787,32,0.8918345,0,0,26.32609,0,0,1561914413.669193,197219.864592,0,1.865479,75.28757,3232235528,177845136,1,1,0.53,-12.47497,-26.36795,0
1561914507.17459,114,0,0,1561914507.000056,4.634680403400804,-74.15105776868215,2553.046,0.4,208.125,4,50,-9999,1561914507.168668,-5.666351318359375,4.220222473144531,-28.845458984375,263.9945068359375,271.4879760742188,15,197222.330357625,-1.155715942382812,0.2925262451171875,-0.0342864990234375,197222.313115625,-0.4340119007407963,-0.5122885967648414,-0.1922373538101707,197222.310887625,-81.16600036621094,-25.17926025390625,-592.4236450195312,197222.313115625,2.783727238859402,-1.361947996321775,-0.2995891764543845,-0.4368085563182831,-0.5190088152885437,-0.195463627576828,-0.2542381286621094,-0.01860794425010681,0.173989474773407,1,-0.5919248461723328,0.2248906493186951,-0.7727149128913879,-0.04428350180387497,-0.9346961975097656,0.2951277196407318,-0.1980983465909958,0,0,0,-1,197219.913767375,3,1,1561914504.751304,1561913957.287787,32,0.8918345,0,0,26.32609,0,0,1561914413.669193,197219.864592,0,1.865479,75.28757,3232235528,177845136,1,1,0.53,-12.47497,-26.36795,0
1561914507.194573,115,0,0,1561914507.000056,4.634680403400804,-74.15105776868215,2553.046,0.4,208.125,4,50,-9999,1561914507.190912,-5.756492614746094,4.634525299072266,-28.83892822265625,265.3988342285156,272.8923034667969,15,197222.350590625,-1.099853515625,0.31561279296875,-0.0574493408203125,197222.333379625,-0.8685678852922959,-0.18004753286866,-0.3282468548932805,197222.330998625,-81.68855285644531,-24.956787109375,-592.4636840820312,197222.333379625,2.769100704521954,-1.373758965385324,-0.2967575399959192,-0.8713645339012146,-0.1867678016424179,-0.3314731419086456,-0.2179295420646667,0.0001052320003509521,0.1529214382171631,1,-0.5951467752456665,0.2284651845693588,-0.7688664793968201,-0.04948142915964127,-0.9377864003181458,0.2924210131168365,-0.1872079521417618,0,0,0,-1,197219.913767375,3,1,1561914504.751304,1561913957.287787,32,0.8918345,0,0,26.32609,0,0,1561914413.669193,197219.864592,0,1.865479,75.28757,3232235528,177845136,1,1,0.53,-12.47497,-27.06256,0
1561914507.215006,116,0,0,1561914507.000056,4.634680403400804,-74.15105776868215,2553.046,0.4,208.125,4,50,-9999,1561914507.190912,-5.756492614746094,4.634525299072266,-28.83892822265625,265.3988342285156,272.8923034667969,15,197222.370854625,-1.055007934570312,0.320037841796875,-0.0778656005859375,197222.353642625,-1.256763028955478,0.2478987521733718,-0.3235048302562854,197222.351109625,-81.50994873046875,-24.11392211914062,-592.3388671875,197222.353642625,2.745239954812693,-1.38001020507776,-0.2942783036357641,-1.259559631347656,0.2411784827709198,-0.3267311155796051,-0.1602063179016113,0.02556353807449341,0.1240295767784119,1,-0.5950771570205688,0.234826996922493,-0.7663504481315613,-0.05870692059397697,-0.9396472573280334,0.2900492548942566,-0.1814789175987244,0,0,0,-1,197219.913767375,3,1,1561914504.751304,1561913957.287787,32,0.8918345,0,0,26.32609,0,0,1561914413.669193,197219.864592,0,1.865479,75.28757,3232235528,177845136,1,1,0.53,-12.47497,-27.87295,0
1561914507.235163,117,0,0,1561914507.000056,4.634680403400804,-74.15105776868215,2553.046,0.4,208.125,4,50,-9999,1561914507.215229,-5.559280395507812,5.387779235839844,-28.76959228515625,267.417724609375,274.9111938476562,15,197222.391118625,-1.0179443359375,0.3084716796875,-0.08282470703125,197222.373906625,-1.356774581583987,0.4752908976370245,-0.2939698411350886,197222.371220625,-81.30569458007812,-23.51570129394531,-592.2122802734375,197222.373906625,2.716240262525321,-1.38076201039629,-0.2933338405049147,-1.359571218490601,0.4685706198215485,-0.2971961200237274,-0.1149561405181885,0.03089258074760437,0.1029584407806396,1,-0.5920165181159973,0.2431139796972275,-0.7651854157447815,-0.07002277672290802,-0.9400518536567688,0.2891452610492706,-0.1808240711688995,0,0,0,-1,197219.913767375,3,1,1561914504.751304,1561913957.287787,32,0.8918345,0,0,26.32609,0,0,1561914413.669193,197219.864592,0,1.865479,75.28757,3232235528,177845136,1,1,0.53,-12.47497,-28.765,0
1561914507.255401,118,0,0,1561914507.000056,4.634680403400804,-74.15105776868215,2553.046,0.4,208.125,4,50,-9999,1561914507.241506,-5.38348388671875,6.153772354125977,-28.7462158203125,269.4299926757812,276.9234619140625,15,197222.411381625,-0.9942779541015625,0.29766845703125,-0.082733154296875,197222.394170625,-1.195834164272209,0.5057113878206726,-0.3972419018861813,197222.391301625,-81.12167358398438,-22.69221496582031,-592.275390625,197222.394170625,2.687966106542844,-1.378918384840338,-0.2915594276734099,-1.198630809783936,0.4989911019802094,-0.4004681706428528,-0.07772517204284668,0.02102547883987427,0.09982973337173462,1,-0.5880483388900757,0.2507427632808685,-0.7646329402923584,-0.08163118362426758,-0.9402191042900085,0.2874462008476257,-0.1826544404029846,0,0,0,-1,197219.913767375,3,1,1561914504.751304,1561913957.287787,32,0.8918345,0,0,26.32609,0,0,1561914413.669193,197219.864592,0,1.865479,75.28757,3232235528,177845136,1,1,0.53,-12.47497,-28.765,0
1561914507.275772,119,0,0,1561914507.000056,4.634680403400804,-74.15105776868215,2553.046,0.4,208.125,4,50,-9999,1561914507.265779,-5.149177551269531,7.370147705078125,-28.5848388671875,271.0096130371094,278.5030822753906,15,197222.431643125,-0.9680023193359375,0.3003387451171875,-0.07122802734375,197222.414433625,-0.8843388589516361,0.419480628568888,-0.5571846990536151,197222.411410125,-80.87548828125,-22.09828186035156,-592.1610107421875,197222.414433625,2.664210401098968,-1.376337781832022,-0.2860193089287992,-0.8871355056762695,0.4127603471279144,-0.5604109764099121,-0.05298525094985962,0.0155329704284668,0.1026518940925598,1,-0.5847894549369812,0.255594938993454,-0.764251172542572,-0.09280431270599365,-0.9412927031517029,0.2821354866027832,-0.1853850483894348,0,0,0,-1,197219.913767375,3,1,1561914504.751304,1561913957.287787,32,0.8918345,0,0,26.32609,0,0,1561914413.669193,197219.864592,0,1.865479,75.28757,3232235528,177845136,1,1,0.53,-12.47497,-29.71524,0
1561914507.297247,120,0,0,1561914507.000056,4.634680403400804,-74.15105776868215,2553.046,0.4,208.125,4,50,-9999,1561914507.292883,-4.834304809570312,7.820497512817383,-28.44415283203125,272.0942993164062,279.5877685546875,15,197222.451907125,-0.9355316162109375,0.309722900390625,-0.0535125732421875,197222.434664125,-0.5998032659781533,0.3561059167404904,-0.6179263435122514,197222.431521125,-80.7332763671875,-21.70967102050781,-592.1002807617188,197222.434664125,2.646589477152484,-1.373709358173717,-0.2770360181542538,-0.6025999188423157,0.3493856489658356,-0.6211526393890381,-0.02475273609161377,0.02683287858963013,0.1171191930770874,1,-0.5827409625053406,0.2573700845241547,-0.7639503479003906,-0.1027300730347633,-0.9432496428489685,0.2735058963298798,-0.1883472204208374,0,0,0,-1,197219.913767375,3,1,1561914504.751304,1561913957.287787,32,0.8918345,0,0,26.32609,0,0,1561914413.669193,197219.864592,0,1.865479,75.28757,3232235528,177845136,1,1,0.53,-12.47497,-30.53897,0
1561914507.321375,121,0,0,1561914507.000056,4.634680403400804,-74.15105776868215,2553.046,0.4,208.125,4,50,-9999,1561914507.318901,-4.662345886230469,7.890933990478516,-28.31048583984375,272.9506530761719,280.4441223144531,15,197222.472170125,-0.90228271484375,0.315277099609375,-0.0330810546875,197222.454928125,-0.4641511611133321,0.3693175925922645,-0.6368478367411554,197222.451632125,-80.68580627441406,-21.66476440429688,-591.8827514648438,197222.454928125,2.633141929764619,-1.370128227480786,-0.2666466027136316,-0.4669477939605713,0.3625973165035248,-0.6400741338729858,0.009771049022674561,0.04622486233711243,0.1387673616409302,1,-0.5810631513595581,0.2573434412479401,-0.7639899849891663,-0.1116209030151367,-0.9453026652336121,0.2634980380535126,-0.1922799348831177,0,0,0,-1,197219.913767375,3,1,1561914504.751304,1561913957.287787,32,0.8918345,0,0,26.32609,0,0,1561914413.669193,197219.864592,0,1.865479,75.28757,3232235528,177845136,1,1,0.53,-12.47497,-31.38562,0
