loggingTime,loggingSample,identifierForVendor,deviceID,locationTimestamp_since1970,locationLatitude,locationLongitude,locationAltitude,locationSpeed,locationCourse,locationVerticalAccuracy,locationHorizontalAccuracy,locationFloor,locationHeadingTimestamp_since1970,locationHeadingX,locationHeadingY,locationHeadingZ,locationTrueHeading,locationMagneticHeading,locationHeadingAccuracy,accelerometerTimestamp_sinceReboot,accelerometerAccelerationX,accelerometerAccelerationY,accelerometerAccelerationZ,gyroTimestamp_sinceReboot,gyroRotationX,gyroRotationY,gyroRotationZ,magnetometerTimestamp_sinceReboot,magnetometerX,magnetometerY,magnetometerZ,motionTimestamp_sinceReboot,motionYaw,motionRoll,motionPitch,motionRotationRateX,motionRotationRateY,motionRotationRateZ,motionUserAccelerationX,motionUserAccelerationY,motionUserAccelerationZ,motionAttitudeReferenceFrame,motionQuaternionX,motionQuaternionY,motionQuaternionZ,motionQuaternionW,motionGravityX,motionGravityY,motionGravityZ,motionMagneticFieldX,motionMagneticFieldY,motionMagneticFieldZ,motionMagneticFieldCalibrationAccuracy,activityTimestamp_sinceReboot,activity,activityActivityConfidence,activityActivityStartDate,pedometerStartDate,pedometerNumberofSteps,pedometerAverageActivePace,pedometerCurrentPace,pedometerCurrentCadence,pedometerDistance,pedometerFloorAscended,pedometerFloorDescended,pedometerEndDate,altimeterTimestamp_sinceReboot,altimeterReset,altimeterRelativeAltitude,altimeterPressure,IP_en0,IP_pdp_ip0,deviceOrientation,batteryState,batteryLevel,avAudioRecorderPeakPower,avAudioRecorderAveragePower,label
1561243360.249461,1,0,0,1561243359.990785,4.602384427566642,-74.06498492702289,2653.675,0.39,198.6328125,4,10,-9999,1561243360.220269,-18.33388137817383,-13.96261596679688,24.00393676757812,123.4232025146484,130.9668884277344,20,65460.10513591667,-0.9931182861328125,0.24200439453125,0.1740570068359375,65460.10006991667,0.08775195686643793,0.5209755619245708,0.07153703425338147,65460.09543091667,19.15106201171875,-11.55516052246094,-511.3499755859375,65460.10006991667,-1.398891448458025,-1.737971905979342,-0.2499978354299396,0.0865400955080986,0.5154464840888977,0.0689426064491272,-0.02137100696563721,-0.00126233696937561,0.007292985916137695,1,-0.5494034290313721,-0.5279852747917175,-0.3395364582538605,0.5514548420906067,-0.955405056476593,0.2474018633365631,0.1612251549959183,0,0,0,-1,65457.056850125,3,2,1561243357.178252,1561243107.271691,28,1.054203,0,0,24.53997,0,0,1561243350.380748,65456.915814,0,-3.406006,74.57973,2650634390,177292352,1,1,0.17,-27.11126,-32.11194,0
1561243360.265501,2,0,0,1561243359.990785,4.602384427566642,-74.06498492702289,2653.675,0.39,198.6328125,4,10,-9999,1561243360.247971,-19.36122703552246,-13.65380191802979,23.58328247070312,123.3033599853516,130.8470458984375,20,65460.12539891667,-0.998199462890625,0.2304534912109375,0.1728515625,65460.12033291667,-0.01584873796317056,0.6118471456919276,-0.08266132444275145,65460.11551191667,18.83238220214844,-11.45809936523438,-511.4038696289062,65460.12033291667,-1.398117632186777,-1.726335394548825,-0.2498752188665598,-0.01706059277057648,0.6063181161880493,-0.08525574952363968,-0.04318106174468994,-0.01435765624046326,0.02613747119903564,1,-0.5471890568733215,-0.5250094532966614,-0.3425512313842773,0.5546239614486694,-0.9572462439537048,0.2472830563783646,0.1501015871763229,0,0,0,-1,65457.056850125,3,2,1561243357.178252,1561243107.271691,28,1.054203,0,0,24.53997,0,0,1561243350.380748,65456.915814,0,-3.406006,74.57973,2650634390,177292352,1,1,0.17,-27.11126,-32.47218,0
1561243360.268295,3,0,0,1561243359.990785,4.602384427566642,-74.06498492702289,2653.675,0.39,198.6328125,4,10,-9999,1561243360.247971,-19.36122703552246,-13.65380191802979,23.58328247070312,123.3033599853516,130.8470458984375,20,65460.14566291667,-0.974761962890625,0.235504150390625,0.1607666015625,65460.14059691667,-0.0888233465729768,0.5649949515824906,-0.1045338664755722,65460.13559191667,18.55157470703125,-11.6031494140625,-511.7579956054688,65460.14059691667,-1.399048185148637,-1.714687581976364,-0.247809361468415,-0.09003520756959915,0.5594658851623535,-0.1071282923221588,-0.02718484401702881,-0.01063117384910583,0.02733659744262695,1,-0.5449766516685486,-0.5220228433609009,-0.3466386198997498,0.5570765137672424,-0.9594332575798035,0.2452808320522308,0.139014795422554,0,0,0,-1,65457.056850125,3,2,1561243357.178252,1561243107.271691,28,1.054203,0,0,24.53997,0,0,1561243350.380748,65456.915814,0,-3.406006,74.57973,2650634390,177292352,1,1,0.17,-27.11126,-32.47218,0
1561243360.279415,4,0,0,1561243359.990785,4.602384427566642,-74.06498492702289,2653.675,0.39,198.6328125,4,10,-9999,1561243360.271527,-19.64145851135254,-13.67469024658203,23.29327392578125,123.4305877685547,130.9742736816406,20,65460.16592691667,-0.9610595703125,0.2398529052734375,0.1531829833984375,65460.16086091667,-0.1120160175581499,0.4296131575683125,-0.07416584056539868,65460.15567291667,18.35639953613281,-11.73326110839844,-511.81298828125,65460.16086091667,-1.400991071125816,-1.705247187690616,-0.2458131963527877,-0.1132278740406036,0.4240840971469879,-0.07676026970148087,-0.004542708396911621,-0.008680224418640137,0.02655375003814697,1,-0.5434000492095947,-0.5193502902984619,-0.350372850894928,0.5587758421897888,-0.9611860513687134,0.2433451563119888,0.1300166696310043,0,0,0,-1,65457.056850125,3,2,1561243357.178252,1561243107.271691,28,1.054203,0,0,24.53997,0,0,1561243350.380748,65456.915814,0,-3.406006,74.57973,2650634390,177292352,1,1,0.17,-27.11126,-33.01388,0
1561243360.299618,5,0,0,1561243359.990785,4.602384427566642,-74.06498492702289,2653.675,0.39,198.6328125,4,10,-9999,1561243360.297865,-19.75346565246582,-13.94624519348145,23.03790283203125,123.5695495605469,131.1132354736328,20,65460.18615991667,-0.9451141357421875,0.241851806640625,0.1466064453125,65460.18109391667,-0.07634164317599343,0.2364495563310122,-0.06782059295217589,65460.17578391667,18.42713928222656,-11.90217590332031,-512.2933959960938,65460.18109391667,-1.402943177236729,-1.699151138918511,-0.2441300099516897,-0.07755350321531296,0.2309204936027527,-0.07041501998901367,0.00905764102935791,0.002138495445251465,0.0266871452331543,1,-0.5424630641937256,-0.517530083656311,-0.3530973196029663,0.559659481048584,-0.9623657464981079,0.2417122274637222,0.1242071241140366,0,0,0,-1,65457.056850125,3,2,1561243357.178252,1561243107.271691,28,1.054203,0,0,24.53997,0,0,1561243350.380748,65456.915814,0,-3.406006,74.57973,2650634390,177292352,1,1,0.17,-27.11126,-33.01388,0
1561243360.319855,6,0,0,1561243359.990785,4.602384427566642,-74.06498492702289,2653.675,0.39,198.6328125,4,10,-9999,1561243360.297865,-19.75346565246582,-13.94624519348145,23.03790283203125,123.5695495605469,131.1132354736328,20,65460.20642291667,-0.9234619140625,0.2458648681640625,0.13775634765625,65460.20135791667,-0.007414773106998615,-0.006114351546712923,-0.07181187247787765,65460.19586391667,18.0947265625,-11.82261657714844,-512.2522583007812,65460.20135791667,-1.40369846268038,-1.697171614892452,-0.242532349092917,-0.008626628667116165,-0.01164340972900391,-0.07440629601478577,0.02909255027770996,0.004024803638458252,0.02005994319915771,1,-0.5419552326202393,-0.5171650648117065,-0.3543412685394287,0.5597025752067566,-0.96299147605896,0.2401616275310516,0.1223503574728966,0,0,0,-1,65457.056850125,3,2,1561243357.178252,1561243107.271691,28,1.054203,0,0,24.53997,0,0,1561243350.380748,65456.915814,0,-3.406006,74.57973,2650634390,177292352,1,1,0.17,-27.11126,-33.47285,0
1561243360.340169,7,0,0,1561243359.990785,4.602384427566642,-74.06498492702289,2653.675,0.39,198.6328125,4,10,-9999,1561243360.322128,-20.07419586181641,-14.04169464111328,22.74017333984375,123.5979461669922,131.1416320800781,20,65460.22668691667,-0.9205322265625,0.248992919921875,0.146636962890625,65460.22162091667,0.04459889351112097,-0.139043107880819,-0.1161154214241088,65460.21594491667,18.23699951171875,-11.93057250976562,-512.0928955078125,65460.22162091667,-1.403020212089837,-1.699070433340849,-0.2407234437179643,0.0433870367705822,-0.1445721685886383,-0.1187098473310471,0.04274606704711914,0.009717881679534912,0.01410210132598877,1,-0.5417157411575317,-0.5183252692222595,-0.3541984260082245,0.5589511394500732,-0.9631867408752441,0.2384052723646164,0.1242340579628944,0,0,0,-1,65457.056850125,3,2,1561243357.178252,1561243107.271691,28,1.054203,0,0,24.53997,0,0,1561243350.380748,65456.915814,0,-3.406006,74.57973,2650634390,177292352,1,1,0.17,-27.11126,-33.03865,0
1561243360.360396,8,0,0,1561243359.990785,4.602384427566642,-74.06498492702289,2653.675,0.39,198.6328125,4,10,-9999,1561243360.3491,-19.94506645202637,-14.03204154968262,22.99652099609375,123.5286560058594,131.0723419189453,20,65460.24695091667,-0.91973876953125,0.2421417236328125,0.14703369140625,65460.24188491667,-0.01605752979263277,-0.1488938744369131,-0.1894647367992892,65460.23602591667,18.52389526367188,-12.02719116210938,-512.0802001953125,65460.24188491667,-1.402175785490564,-1.702229446442643,-0.2375657472396646,-0.01726938597857952,-0.1544229388237,-0.1920591592788696,0.04040485620498657,0.00947454571723938,0.01763010025024414,1,-0.5413570404052734,-0.5202111601829529,-0.3540875613689423,0.5576153993606567,-0.9635310769081116,0.2353374361991882,0.1273741871118546,0,0,0,-1,65457.056850125,3,2,1561243357.178252,1561243107.271691,28,1.054203,0,0,24.53997,0,0,1561243350.380748,65456.915814,0,-3.406006,74.57973,2650634390,177292352,1,1,0.17,-27.11126,-28.26449,0
1561243360.381131,9,0,0,1561243359.990785,4.602384427566642,-74.06498492702289,2653.675,0.39,198.6328125,4,10,-9999,1561243360.372736,-19.49020195007324,-14.16711139678955,23.01409912109375,123.5685272216797,131.1122131347656,20,65460.26721391667,-0.9109344482421875,0.231353759765625,0.1447906494140625,65460.26214891667,-0.1288985946564892,-0.1704487013516874,-0.1591284025060876,65460.25613691667,18.67555236816406,-12.11878967285156,-512.03125,65460.26214891667,-1.4032308899658,-1.705936842334878,-0.2335855067344698,-0.1301104426383972,-0.1759777665138245,-0.1617228239774704,0.05827224254608154,0.002526372671127319,0.01729059219360352,1,-0.5414081811904907,-0.521931529045105,-0.3546133935451508,0.5556204915046692,-0.9639728665351868,0.231467142701149,0.1310706734657288,0,0,0,-1,65457.056850125,3,2,1561243357.178252,1561243107.271691,28,1.054203,0,0,24.53997,0,0,1561243350.380748,65456.915814,0,-3.406006,74.57973,2650634390,177292352,1,1,0.17,-27.11126,-28.78723,0
1561243360.400996,10,0,0,1561243359.990785,4.602384427566642,-74.06498492702289,2653.675,0.39,198.6328125,4,10,-9999,1561243360.399216,-19.51809883117676,-14.19214630126953,23.30621337890625,123.781494140625,131.3251800537109,20,65460.28747791667,-0.9140472412109375,0.2474365234375,0.140594482421875,65460.28238191667,-0.1671714153142359,-0.1311524278870232,-0.06583973373337496,65460.27621691667,18.57011413574219,-12.06900024414062,-512.0005493164062,65460.28238191667,-1.406153283299877,-1.709697392200809,-0.2310034599645133,-0.1683832705020905,-0.1366814821958542,-0.06843415647745132,0.04621493816375732,0.01561343669891357,0.01214981079101562,1,-0.5422685742378235,-0.5228129029273987,-0.355206310749054,0.5535700917243958,-0.9640616178512573,0.2289544492959976,0.1347770690917969,0,0,0,-1,65457.056850125,3,2,1561243357.178252,1561243107.271691,28,1.054203,0,0,24.53997,0,0,1561243350.380748,65457.856575,0,-3.181396,74.57761,2650634390,177292352,1,1,0.17,-27.11126,-29.66214,0
1561243360.424153,11,0,0,1561243359.990785,4.602384427566642,-74.06498492702289,2653.675,0.39,198.6328125,4,10,-9999,1561243360.399216,-19.51809883117676,-14.19214630126953,23.30621337890625,123.781494140625,131.3251800537109,20,65460.30771091667,-0.93536376953125,0.265869140625,0.1328887939453125,65460.30264491667,-0.1388095486532191,-0.04690572364734761,-0.005209675724413006,65460.29629791667,18.72409057617188,-12.399658203125,-512.0517578125,65460.30264491667,-1.409431878528369,-1.712474094982585,-0.230045938052046,-0.1400213986635208,-0.0524347797036171,-0.007804100401699543,0.03433501720428467,0.02602130174636841,-0.007769346237182617,1,-0.5434082746505737,-0.5229241251945496,-0.3556559979915619,0.5520567893981934,-0.9639004468917847,0.2280222475528717,0.1374843865633011,0,0,0,-1,65457.056850125,3,2,1561243357.178252,1561243107.271691,28,1.054203,0,0,24.53997,0,0,1561243350.380748,65457.856575,0,-3.181396,74.57761,2650634390,177292352,1,1,0.17,-27.11126,-30.63186,0
1561243360.441702,12,0,0,1561243359.990785,4.602384427566642,-74.06498492702289,2653.675,0.39,198.6328125,4,10,-9999,1561243360.423723,-19.46725273132324,-14.35250091552734,22.97662353515625,124.0003356933594,131.5440216064453,20,65460.32797491667,-0.9424591064453125,0.2662200927734375,0.1297607421875,65460.32290891667,-0.0583426689486929,-0.03286287521935979,-0.0108963236000592,65460.31637791667,18.85008239746094,-12.19160461425781,-512.318115234375,65460.32290891667,-1.41151423857482,-1.713837464578959,-0.2296467058441913,-0.05955452471971512,-0.03839193284511566,-0.01349074766039848,0.02549338340759277,0.03553479909896851,-0.01060700416564941,1,-0.5441075563430786,-0.5228313803672791,-0.3559834957122803,0.5512441396713257,-0.9638020992279053,0.2276335209608078,0.1388113647699356,0,0,0,-1,65457.056850125,3,2,1561243357.178252,1561243107.271691,28,1.054203,0,0,24.53997,0,0,1561243350.380748,65457.856575,0,-3.181396,74.57761,2650634390,177292352,1,1,0.17,-27.11126,-31.02184,0
1561243360.461768,13,0,0,1561243359.990785,4.602384427566642,-74.06498492702289,2653.675,0.39,198.6328125,4,10,-9999,1561243360.449836,-19.37774848937988,-14.26597309112549,22.80633544921875,124.0814208984375,131.6251068115234,20,65460.34823891667,-0.9480438232421875,0.261322021484375,0.1357574462890625,65460.34317291667,0.04467798939549632,-0.1020533982362724,-0.05005331373971226,65460.33648891667,18.83047485351562,-12.38710021972656,-512.0468139648438,65460.34317291667,-1.411617254597869,-1.715202123897343,-0.2290786544948837,0.04346613213419914,-0.1075824573636055,-0.05264773964881897,0.01699256896972656,0.03714087605476379,-0.007134199142456055,1,-0.5442527532577515,-0.5233177542686462,-0.3558166921138763,0.5507466197013855,-0.9637393951416016,0.2270803451538086,0.1401450634002686,0,0,0,-1,65457.056850125,3,2,1561243357.178252,1561243107.271691,28,1.054203,0,0,24.53997,0,0,1561243350.380748,65457.856575,0,-3.181396,74.57761,2650634390,177292352,1,1,0.17,-27.11126,-31.02184,0
1561243360.481985,14,0,0,1561243359.990785,4.602384427566642,-74.06498492702289,2653.675,0.39,198.6328125,4,10,-9999,1561243360.47407,-19.29280662536621,-14.41400909423828,22.98175048828125,123.9643096923828,131.5079956054688,20,65460.36850191667,-0.9456787109375,0.250640869140625,0.1375579833984375,65460.36343591667,0.1353514339777512,-0.217690515928603,-0.07405984675401353,65460.35656991667,18.75244140625,-12.24229431152344,-511.8806762695312,65460.36343591667,-1.409486248983729,-1.718126254693249,-0.2279916392518603,0.1341395825147629,-0.2232195734977722,-0.07665427029132843,0.01776838302612305,0.02945628762245178,-0.005013465881347656,1,-0.5439753532409668,-0.524966835975647,-0.3547720909118652,0.5501248836517334,-0.963569164276123,0.2260215878486633,0.1429987251758575,0,0,0,-1,65457.056850125,3,2,1561243357.178252,1561243107.271691,28,1.054203,0,0,24.53997,0,0,1561243350.380748,65457.856575,0,-3.181396,74.57761,2650634390,177292352,1,1,0.17,-26.83908,-31.28298,0
1561243360.513034,15,0,0,1561243359.990785,4.602384427566642,-74.06498492702289,2653.675,0.39,198.6328125,4,10,-9999,1561243360.500587,-19.06009674072266,-14.42376136779785,23.26132202148438,123.7330169677734,131.2767028808594,20,65460.38876591667,-0.950225830078125,0.24639892578125,0.135009765625,65460.38369991667,0.1536513454082307,-0.249146975776292,-0.04845887919508182,65460.37665091667,19.19973754882812,-12.46354675292969,-511.9224243164062,65460.38369991667,-1.406163960528627,-1.722337485353481,-0.2272098455824398,0.1524394899606705,-0.2546760141849518,-0.05105330422520638,0.01362419128417969,0.02449589967727661,-0.008333683013916016,1,-0.5436751842498779,-0.5272174477577209,-0.3529568612575531,0.5494365096092224,-0.9631327986717224,0.2252599596977234,0.1470818817615509,0,0,0,-1,65457.056850125,3,2,1561243357.178252,1561243107.271691,28,1.054203,0,0,24.53997,0,0,1561243350.380748,65457.856575,0,-3.181396,74.57761,2650634390,177292352,1,1,0.17,-26.83908,-32.67478,0
1561243360.52314,16,0,0,1561243359.990785,4.602384427566642,-74.06498492702289,2653.675,0.39,198.6328125,4,10,-9999,1561243360.500587,-19.06009674072266,-14.42376136779785,23.26132202148438,123.7330169677734,131.2767028808594,20,65460.40902991667,-0.953521728515625,0.2400360107421875,0.1389617919921875,65460.40393291667,0.09528177853252796,-0.169021779639623,0.01335282338954829,65460.39673091667,19.32522583007812,-12.30282592773438,-511.8208618164062,65460.40393291667,-1.403483247973729,-1.726162790334974,-0.2273200985840574,0.09406992048025131,-0.1745508462190628,0.01075839810073376,0.009459495544433594,0.01842230558395386,-0.01654493808746338,1,-0.543664813041687,-0.528969943523407,-0.3511465787887573,0.5489221811294556,-0.9625387191772461,0.2253673821687698,0.1507612615823746,0,0,0,-1,65457.056850125,3,2,1561243357.178252,1561243107.271691,28,1.054203,0,0,24.53997,0,0,1561243350.380748,65457.856575,0,-3.181396,74.57761,2650634390,177292352,1,1,0.17,-26.83908,-32.67478,0
1561243360.542789,17,0,0,1561243359.990785,4.602384427566642,-74.06498492702289,2653.675,0.39,198.6328125,4,10,-9999,1561243360.525788,-18.89815711975098,-14.35376262664795,23.400634765625,123.5760498046875,131.1197357177734,20,65460.42926291667,-0.9573822021484375,0.2292022705078125,0.1468963623046875,65460.42419691667,-0.004684766673558388,-0.07594376690913558,0.06127054825112601,65460.41681191667,19.15626525878906,-12.39286804199219,-511.6946105957031,65460.42419691667,-1.402682397807729,-1.728510362487014,-0.2282976205226199,-0.005896622780710459,-0.08147282898426056,0.05867611989378929,0.009342491626739502,0.006422668695449829,-0.01071286201477051,1,-0.5440781116485596,-0.5295959711074829,-0.3499831259250641,0.5486518740653992,-0.961963951587677,0.2263196408748627,0.1529857665300369,0,0,0,-1,65457.056850125,3,2,1561243357.178252,1561243107.271691,28,1.054203,0,0,24.53997,0,0,1561243350.380748,65457.856575,0,-3.181396,74.57761,2650634390,177292352,1,1,0.17,-26.83908,-33.36687,0
1561243360.563048,18,0,0,1561243359.990785,4.602384427566642,-74.06498492702289,2653.675,0.39,198.6328125,4,10,-9999,1561243360.551159,-18.9580078125,-14.22483444213867,23.17706298828125,123.5982055664062,131.1418914794922,20,65460.44952591667,-0.968963623046875,0.235260009765625,0.154083251953125,65460.44446091667,-0.06926083046969075,-0.02921700768704131,0.06774735602219872,65460.43689191667,19.41996765136719,-12.21803283691406,-511.780517578125,65460.44446091667,-1.403778730600725,-1.729793239021491,-0.2295755306772753,-0.07047268748283386,-0.03474606573581696,0.06515292823314667,-0.002066254615783691,0.003575921058654785,-0.003554344177246094,1,-0.5448715090751648,-0.5293410420417786,-0.3495351076126099,0.5483960509300232,-0.9614804983139038,0.2275642156600952,0.1541738063097,0,0,0,-1,65457.056850125,3,2,1561243357.178252,1561243107.271691,28,1.054203,0,0,24.53997,0,0,1561243350.380748,65457.856575,0,-3.181396,74.57761,2650634390,177292352,1,1,0.17,-26.83908,-34.2275,0
1561243360.591771,19,0,0,1561243359.990785,4.602384427566642,-74.06498492702289,2653.675,0.39,198.6328125,4,10,-9999,1561243360.575504,-18.88270378112793,-14.35830688476562,23.3924560546875,123.7183380126953,131.2620239257812,20,65460.46978991667,-0.9715118408203125,0.2357177734375,0.1584625244140625,65460.46472391667,-0.07003714192744885,-0.01340582029524087,0.04729481148260818,65460.45700291667,19.40008544921875,-12.30958557128906,-511.7503967285156,65460.46472391667,-1.405464082754773,-1.730578125082748,-0.2305378656516684,-0.07124900072813034,-0.01893487945199013,0.04470038414001465,-0.01049125194549561,0.007948994636535645,0.00189054012298584,1,-0.5456640124320984,-0.5288643836975098,-0.3494822680950165,0.5481016039848328,-0.9611425995826721,0.2285011857748032,0.1548935025930405,0,0,0,-1,65457.056850125,3,2,1561243357.178252,1561243107.271691,28,1.054203,0,0,24.53997,0,0,1561243350.380748,65457.856575,0,-3.181396,74.57761,2650634390,177292352,1,1,0.17,-26.83908,-34.38565,0
1561243360.603579,20,0,0,1561243359.990785,4.602384427566642,-74.06498492702289,2653.675,0.39,198.6328125,4,10,-9999,1561243360.602345,-18.78643798828125,-14.33586502075195,23.33062744140625,123.8438873291016,131.3875732421875,20,65460.49005391667,-0.9650115966796875,0.2285308837890625,0.159637451171875,65460.48498791667,-0.09206973994178339,-0.03611699175532761,0.003302586067807263,65460.47708391667,19.21052551269531,-12.28076171875,-511.8604125976562,65460.48498791667,-1.407130735926571,-1.731431042162497,-0.2307576083740684,-0.09328159689903259,-0.04164604842662811,0.0007081611547619104,-0.007804632186889648,0.005278438329696655,0.00565648078918457,1,-0.5463014245033264,-0.5285899639129639,-0.3496372997760773,0.5476323366165161,-0.9609606266021729,0.2287151217460632,0.1557051986455917,0,0,0,-1,65457.056850125,3,2,1561243357.178252,1561243107.271691,28,1.054203,0,0,24.53997,0,0,1561243350.380748,65457.856575,0,-3.181396,74.57761,2650634390,177292352,1,1,0.17,-26.83908,-34.82962,0
1561243360.623836,21,0,0,1561243359.990785,4.602384427566642,-74.06498492702289,2653.675,0.39,198.6328125,4,10,-9999,1561243360.602345,-18.78643798828125,-14.33586502075195,23.33062744140625,123.8438873291016,131.3875732421875,20,65460.51031691667,-0.95623779296875,0.2215576171875,0.1558380126953125,65460.50525191667,-0.1320736153080816,-0.03896151411564124,0.02476100655112072,65460.49716391667,19.20462036132812,-12.32186889648438,-511.8417663574219,65460.50525191667,-1.409484133042328,-1.732844751203175,-0.2305818185852068,-0.1332854628562927,-0.04449057206511497,0.02216658182442188,0.0007266998291015625,-0.004346609115600586,0.001102566719055176,1,-0.5471324324607849,-0.5283759236335754,-0.3499496877193451,0.5468090772628784,-0.9607791304588318,0.2285439819097519,0.1570700258016586,0,0,0,-1,65457.056850125,3,2,1561243357.178252,1561243107.271691,28,1.054203,0,0,24.53997,0,0,1561243350.380748,65457.856575,0,-3.181396,74.57761,2650634390,177292352,1,1,0.17,-26.83908,-34.82962,0
1561243360.647246,22,0,0,1561243359.990785,4.602384427566642,-74.06498492702289,2653.675,0.39,198.6328125,4,10,-9999,1561243360.626056,-18.85667419433594,-14.4170093536377,23.4027099609375,124.0316772460938,131.5753631591797,20,65460.53058091667,-0.9514617919921875,0.2241973876953125,0.1497039794921875,65460.52548491667,-0.1481537819699801,-0.003075684742932512,0.07183211250216225,65460.51724491667,19.22779846191406,-12.35202026367188,-512.062255859375,65460.52548491667,-1.412585961994302,-1.734048893458865,-0.2309680088112615,-0.14936563372612,-0.008604743517935276,0.06923768669366837,0.006354808807373047,-0.007682740688323975,-0.004724264144897461,1,-0.5482457876205444,-0.5277620553970337,-0.3503467440605164,0.5460318922996521,-0.9605020880699158,0.2289199382066727,0.1582124680280685,0,0,0,-1,65457.056850125,3,2,1561243357.178252,1561243107.271691,28,1.054203,0,0,24.53997,0,0,1561243350.380748,65457.856575,0,-3.181396,74.57761,2650634390,177292352,1,1,0.17,-26.83908,-35.04692,0
1561243360.678673,23,0,0,1561243359.990785,4.602384427566642,-74.06498492702289,2653.675,0.39,198.6328125,4,10,-9999,1561243360.652724,-18.74523162841797,-14.49522876739502,23.27789306640625,124.26171875,131.8054046630859,20,65460.55081391667,-0.951507568359375,0.2268524169921875,0.1461029052734375,65460.54574791667,-0.1028622002593295,0.005873335468060752,0.119649968822862,65460.53732591667,18.98750305175781,-12.34996032714844,-511.7683410644531,65460.54574791667,-1.415586240639247,-1.734741038326718,-0.2324653258555538,-0.1040740609169006,0.0003442768938839436,0.1170555427670479,0.009613752365112305,-0.005355864763259888,-0.01203155517578125,1,-0.5494809150695801,-0.5267649292945862,-0.3505081832408905,0.5456495881080627,-0.9600532650947571,0.2303772270679474,0.1588211357593536,0,0,0,-1,65457.056850125,3,2,1561243357.178252,1561243107.271691,28,1.054203,0,0,24.53997,0,0,1561243350.380748,65457.856575,0,-3.181396,74.57761,2650634390,177292352,1,1,0.17,-26.83908,-33.96127,0
1561243360.684883,24,0,0,1561243359.990785,4.602384427566642,-74.06498492702289,2653.675,0.39,198.6328125,4,10,-9999,1561243360.676822,-18.8119068145752,-14.50515079498291,23.29461669921875,124.4081726074219,131.9518585205078,20,65460.57107791667,-0.95318603515625,0.2296142578125,0.14794921875,65460.56601191667,-0.01364603742556602,-0.026282736797992,0.1248961298542091,65460.55743691667,19.19020080566406,-12.34672546386719,-511.7793579101562,65460.56601191667,-1.417250651701132,-1.735392603028638,-0.2347080644354933,-0.01485789380967617,-0.03181179612874985,0.1223017051815987,0.00677025318145752,-0.002883791923522949,-0.01351809501647949,1,-0.5505152940750122,-0.5259407758712769,-0.3500829339027405,0.5456749796867371,-0.9594374895095825,0.2325590699911118,0.1593615710735321,0,0,0,-1,65457.056850125,3,2,1561243357.178252,1561243107.271691,28,1.054203,0,0,24.53997,0,0,1561243350.380748,65457.856575,0,-3.181396,74.57761,2650634390,177292352,1,1,0.17,-26.83908,-33.96127,0
1561243360.704862,25,0,0,1561243359.990785,4.602384427566642,-74.06498492702289,2653.675,0.39,198.6328125,4,10,-9999,1561243360.703102,-19.01081466674805,-14.47516345977783,23.32424926757812,124.3899536132812,131.9336395263672,20,65460.59134191667,-0.9603118896484375,0.2296905517578125,0.1554107666015625,65460.58627591667,0.07990255586953837,-0.04241270457227492,0.1223765131468851,65460.57751691667,19.19766235351562,-12.58758544921875,-511.7567138671875,65460.58627591667,-1.416962162175273,-1.736198407934363,-0.2372746090985517,0.07869069278240204,-0.04794176295399666,0.1197820827364922,0.003577709197998047,-0.005592793226242065,-0.01040816307067871,1,-0.5511307716369629,-0.5256165862083435,-0.3489804565906525,0.5460721254348755,-0.958716869354248,0.2350544780492783,0.1600358486175537,0,0,0,-1,65457.056850125,3,2,1561243357.178252,1561243107.271691,28,1.054203,0,0,24.53997,0,0,1561243350.380748,65457.856575,0,-3.181396,74.57761,2650634390,177292352,1,1,0.17,-26.83908,-34.75801,0
1561243360.725989,26,0,0,1561243359.990785,4.602384427566642,-74.06498492702289,2653.675,0.39,198.6328125,4,10,-9999,1561243360.703102,-19.01081466674805,-14.47516345977783,23.32424926757812,124.3899536132812,131.9336395263672,20,65460.61160491667,-0.9674224853515625,0.225860595703125,0.1695709228515625,65460.60653891667,0.1028379654934098,-0.04545563243379946,0.08417027151639035,65460.59759791667,19.21485900878906,-12.47993469238281,-511.6177062988281,65460.60653891667,-1.415257999381689,-1.736688574893558,-0.2395532299763943,0.1016261056065559,-0.05098468810319901,0.08157584816217422,-0.007117748260498047,-0.008707225322723389,0.005125761032104492,1,-0.5512562990188599,-0.5256661772727966,-0.347667008638382,0.5467349886894226,-0.9581074118614197,0.2372686415910721,0.1604168713092804,0,0,0,-1,65457.056850125,3,2,1561243357.178252,1561243107.271691,28,1.054203,0,0,24.53997,0,0,1561243350.380748,65457.856575,0,-3.181396,74.57761,2650634390,177292352,1,1,0.17,-26.83908,-35.03505,0
1561243360.75547,27,0,0,1561243359.990785,4.602384427566642,-74.06498492702289,2653.675,0.39,198.6328125,4,10,-9999,1561243360.753856,-18.92984962463379,-14.44638824462891,23.4112548828125,124.2359771728516,131.7796630859375,20,65460.63186891667,-0.9733734130859375,0.2239532470703125,0.172454833984375,65460.62680291667,0.04032931365150594,-0.02187360729725682,0.07493789096541266,65460.61767791667,19.41070556640625,-12.35769653320312,-511.6051025390625,65460.62680291667,-1.413995100559466,-1.737294127247467,-0.2412384881992131,0.03911745920777321,-0.02740266546607018,0.07234346121549606,-0.01163893938064575,-0.01490643620491028,0.009769439697265625,1,-0.5513900518417358,-0.5257701873779297,-0.3466269373893738,0.5471604466438293,-0.9576146006584167,0.2389054298400879,0.1609305590391159,0,0,0,-1,65457.056850125,3,2,1561243357.178252,1561243107.271691,28,1.054203,0,0,24.53997,0,0,1561243350.380748,65457.856575,0,-3.181396,74.57761,2650634390,177292352,1,1,0.17,-26.83908,-30.37789,0
1561243360.76577,28,0,0,1561243359.990785,4.602384427566642,-74.06498492702289,2653.675,0.39,198.6328125,4,10,-9999,1561243360.753856,-18.92984962463379,-14.44638824462891,23.4112548828125,124.2359771728516,131.7796630859375,20,65460.65213291667,-0.9728851318359375,0.23065185546875,0.1616058349609375,65460.64703591667,-0.06044816410650954,0.03765043991099523,0.06308495990179699,65460.63775891667,19.20628356933594,-12.16989135742188,-511.5531616210938,65460.64703591667,-1.414393795046703,-1.737261656949187,-0.2425281052919137,-0.06166001781821251,0.03212138265371323,0.06049053370952606,-0.01741623878479004,-0.01338139176368713,0.007669687271118164,1,-0.5517649054527283,-0.5253376364707947,-0.3463408350944519,0.547379195690155,-0.95731520652771,0.2401575148105621,0.1608482897281647,0,0,0,-1,65457.056850125,3,2,1561243357.178252,1561243107.271691,28,1.054203,0,0,24.53997,0,0,1561243350.380748,65457.856575,0,-3.181396,74.57761,2650634390,177292352,1,1,0.17,-26.83908,-30.60769,0
1561243360.785965,29,0,0,1561243359.990785,4.602384427566642,-74.06498492702289,2653.675,0.39,198.6328125,4,10,-9999,1561243360.778067,-18.94387245178223,-14.32608413696289,23.5113525390625,124.3583831787109,131.9020690917969,20,65460.67236591667,-0.9710693359375,0.2344207763671875,0.15643310546875,65460.66729991667,-0.09383914417003204,0.0940529960055654,0.06281864379278906,65460.65786991667,19.15476989746094,-12.14939880371094,-511.4364624023438,65460.66729991667,-1.416305629526103,-1.736372331189126,-0.2433652184580645,-0.09505100548267365,0.08852393180131912,0.06022422015666962,-0.01760971546173096,-0.008441358804702759,0.003458023071289062,1,-0.5522913336753845,-0.5243625640869141,-0.346847265958786,0.5474624037742615,-0.9572590589523315,0.2409700453281403,0.1599636375904083,0,0,0,-1,65457.056850125,3,2,1561243357.178252,1561243107.271691,28,1.054203,0,0,24.53997,0,0,1561243350.380748,65457.856575,0,-3.181396,74.57761,2650634390,177292352,1,1,0.17,-26.83908,-30.60769,0
1561243360.807708,30,0,0,1561243359.990785,4.602384427566642,-74.06498492702289,2653.675,0.39,198.6328125,4,10,-9999,1561243360.805155,-19.03372001647949,-14.307861328125,23.26446533203125,124.4873657226562,132.0310516357422,20,65460.69262991667,-0.96514892578125,0.24066162109375,0.153045654296875,65460.68756391667,-0.05199156238107193,0.07546892528677446,0.04011199970655547,65460.67795091667,19.12284851074219,-11.98509216308594,-511.8804016113281,65460.68756391667,-1.418104556170142,-1.735125503720636,-0.2440920705471039,-0.05320341885089874,0.06993986666202545,0.03751757368445396,-0.01109910011291504,-0.004660636186599731,-0.004764795303344727,1,-0.5527012348175049,-0.5233469009399414,-0.3474566340446472,0.5476341247558594,-0.957284688949585,0.2416754066944122,0.1587412655353546,0,0,0,-1,65457.056850125,3,2,1561243357.178252,1561243107.271691,28,1.054203,0,0,24.53997,0,0,1561243350.380748,65457.856575,0,-3.181396,74.57761,2650634390,177292352,1,1,0.17,-26.83908,-30.20795,0
1561243360.838351,31,0,0,1561243359.990785,4.602384427566642,-74.06498492702289,2653.675,0.39,198.6328125,4,10,-9999,1561243360.828732,-19.01476097106934,-14.15657615661621,23.33502197265625,124.5008544921875,132.0445404052734,20,65460.71289291667,-0.960906982421875,0.238250732421875,0.1542205810546875,65460.70782691667,0.01314749366950318,0.04473737788780509,0.02943139215479269,65460.69803091667,18.7294921875,-12.03401184082031,-511.9401245117188,65460.70782691667,-1.418571002288933,-1.734177619708849,-0.244531359697169,0.0119356382638216,0.03920831903815269,0.02683696709573269,-0.005407989025115967,-0.001073837280273438,-0.004740357398986816,1,-0.5527521967887878,-0.5228511095046997,-0.3477089405059814,0.5478962063789368,-0.957330048084259,0.2421016544103622,0.157816544175148,0,0,0,-1,65457.056850125,3,2,1561243357.178252,1561243107.271691,28,1.054203,0,0,24.53997,0,0,1561243350.380748,65457.856575,0,-3.181396,74.57761,2650634390,177292352,1,1,0.17,-17.45887,-24.92052,0
1561243360.846759,32,0,0,1561243359.990785,4.602384427566642,-74.06498492702289,2653.675,0.39,198.6328125,4,10,-9999,1561243360.828732,-19.01476097106934,-14.15657615661621,23.33502197265625,124.5008544921875,132.0445404052734,20,65460.73315691667,-0.9521942138671875,0.2420196533203125,0.15618896484375,65460.72809091667,0.01651266402292731,0.05296388249505986,0.05128369416332887,65460.71811191667,19.025146484375,-12.20457458496094,-511.7180786132812,65460.72809091667,-1.418322529944527,-1.733330520771684,-0.2452239887335979,0.0153008084744215,0.04743482545018196,0.04868926852941513,0.003043532371520996,-0.003943055868148804,-0.002254247665405273,1,-0.5526878237724304,-0.5225182771682739,-0.3476582765579224,0.5483106374740601,-0.9572976231575012,0.2427736222743988,0.1569783538579941,0,0,0,-1,65457.056850125,3,2,1561243357.178252,1561243107.271691,28,1.054203,0,0,24.53997,0,0,1561243350.380748,65457.856575,0,-3.181396,74.57761,2650634390,177292352,1,1,0.17,-17.45887,-24.92052,0
1561243360.867435,33,0,0,1561243359.990785,4.602384427566642,-74.06498492702289,2653.675,0.39,198.6328125,4,10,-9999,1561243360.855073,-19.09527587890625,-14.42921161651611,23.30633544921875,124.4938507080078,132.0375366210938,20,65460.75342091667,-0.9479522705078125,0.244171142578125,0.1501007080078125,65460.74835491667,0.002312422774515802,0.08746113967540127,0.08872347803209883,65460.73822291667,18.94975280761719,-12.17295837402344,-512.00244140625,65460.74835491667,-1.418406657964993,-1.732080048298179,-0.246515948523324,0.001100566703826189,0.08193207532167435,0.08612905442714691,0.006651699542999268,2.232193946838379e-05,-0.0007777214050292969,1,-0.5527682304382324,-0.5218358039855957,-0.3476227819919586,0.5489016175270081,-0.9571827054023743,0.2440267205238342,0.1557306498289108,0,0,0,-1,65457.056850125,3,2,1561243357.178252,1561243107.271691,28,1.054203,0,0,24.53997,0,0,1561243350.380748,65457.856575,0,-3.181396,74.57761,2650634390,177292352,1,1,0.17,-17.45887,-25.33257,0
1561243360.887889,34,0,0,1561243359.990785,4.602384427566642,-74.06498492702289,2653.675,0.39,198.6328125,4,10,-9999,1561243360.879358,-19.27023315429688,-14.20565605163574,23.21377563476562,124.5135498046875,132.0572357177734,20,65460.77368391667,-0.9532928466796875,0.2440643310546875,0.145263671875,65460.76858791667,0.02190849470753685,0.1136442742486243,0.1277347932601245,65460.75830291667,18.88670349121094,-12.04811096191406,-511.834716796875,65460.76858791667,-1.41865066703837,-1.730096542613121,-0.2486149470347384,0.02069663815200329,0.1081152111291885,0.125140368938446,0.008556604385375977,-0.002546727657318115,-0.006899595260620117,1,-0.5529351234436035,-0.5207089781761169,-0.3475816249847412,0.5498289465904236,-0.956981897354126,0.2460617274045944,0.1537501811981201,0,0,0,-1,65457.056850125,3,2,1561243357.178252,1561243107.271691,28,1.054203,0,0,24.53997,0,0,1561243350.380748,65457.856575,0,-3.181396,74.57761,2650634390,177292352,1,1,0.17,-17.45887,-25.83526,0
1561243360.918494,35,0,0,1561243359.990785,4.602384427566642,-74.06498492702289,2653.675,0.39,198.6328125,4,10,-9999,1561243360.90631,-19.39994812011719,-14.05139827728271,23.1881103515625,124.4472503662109,131.9909362792969,20,65460.79391691667,-0.9593963623046875,0.2481842041015625,0.1472320556640625,65460.78885091667,0.1136834227166485,0.03832874704063841,0.118945296398427,65460.77838391667,18.86968994140625,-12.05403137207031,-511.8621520996094,65460.78885091667,-1.417731554129888,-1.728214657173739,-0.2513540454455994,0.1124715656042099,0.03279969096183777,0.1163508668541908,-0.001300632953643799,-0.001950532197952271,-0.005312681198120117,1,-0.5529539585113525,-0.5197723507881165,-0.346992164850235,0.5510671734809875,-0.9566003680229187,0.2487156838178635,0.1518427580595016,0,0,0,-1,65457.056850125,3,2,1561243357.178252,1561243107.271691,28,1.054203,0,0,24.53997,0,0,1561243350.380748,65457.856575,0,-3.181396,74.57761,2650634390,177292352,1,1,0.17,-17.45887,-26.77792,0
1561243360.927819,36,0,0,1561243359.990785,4.602384427566642,-74.06498492702289,2653.675,0.39,198.6328125,4,10,-9999,1561243360.90631,-19.39994812011719,-14.05139827728271,23.1881103515625,124.4472503662109,131.9909362792969,20,65460.81418091667,-0.970855712890625,0.2480316162109375,0.1614532470703125,65460.80911491667,0.2103641597697951,-0.02631895578881708,0.09721177137450839,65460.79846391667,18.96067810058594,-12.05471801757812,-511.8682250976562,65460.80911491667,-1.414673951092261,-1.727582041856886,-0.2538533527754966,0.2091523110866547,-0.03184801340103149,0.09461734443902969,-0.008184671401977539,-0.002127468585968018,0.003584146499633789,1,-0.5525834560394287,-0.5198283791542053,-0.3455410599708557,0.5522964596748352,-0.9560793042182922,0.2511356770992279,0.151140034198761,0,0,0,-1,65457.056850125,3,2,1561243357.178252,1561243107.271691,28,1.054203,0,0,24.53997,0,0,1561243350.380748,65457.856575,0,-3.181396,74.57761,2650634390,177292352,1,1,0.17,-17.45887,-27.39523,0
1561243360.947964,37,0,0,1561243359.990785,4.602384427566642,-74.06498492702289,2653.675,0.39,198.6328125,4,10,-9999,1561243360.93056,-19.39167404174805,-14.0014181137085,23.2733154296875,124.1959991455078,131.7396850585938,20,65460.83444491667,-0.9614715576171875,0.251434326171875,0.1704559326171875,65460.82937891667,0.2148297482856399,0.01675474536601551,0.1221472149770293,65460.81857591667,18.72021484375,-11.85467529296875,-511.6331787109375,65460.82937891667,-1.410455378008237,-1.72685266943934,-0.2566081545528431,0.2136178910732269,0.01122568547725677,0.1195527911186218,-0.01402592658996582,-0.002870440483093262,0.01674914360046387,1,-0.5519497990608215,-0.5201141238212585,-0.3437118828296661,0.5538004040718079,-0.9555022120475769,0.2538012266159058,0.1503345668315887,0,0,0,-1,65457.056850125,3,2,1561243357.178252,1561243107.271691,28,1.054203,0,0,24.53997,0,0,1561243350.380748,65457.856575,0,-3.181396,74.57761,2650634390,177292352,1,1,0.17,-17.45887,-27.39523,0
1561243360.995427,38,0,0,1561243359.990785,4.602384427566642,-74.06498492702289,2653.675,0.39,198.6328125,4,10,-9999,1561243360.980659,-19.46889114379883,-13.70592021942139,23.28369140625,123.7787475585938,131.3224334716797,20,65460.85470791667,-0.94561767578125,0.26104736328125,0.178375244140625,65460.84964191667,0.1370484002243497,0.08438918335799486,0.1860447053274095,65460.83865591667,18.72697448730469,-11.66787719726562,-511.5604858398438,65460.84964191667,-1.407249744886324,-1.725052850529325,-0.2600511388136997,0.1358365416526794,0.07886011898517609,0.1834502816200256,0.006812453269958496,-0.006092369556427002,0.02751541137695312,1,-0.5515445470809937,-0.5196521282196045,-0.342237651348114,0.5555480718612671,-0.9549021124839783,0.257129967212677,0.1484794467687607,0,0,0,-1,65457.056850125,3,2,1561243357.178252,1561243107.271691,28,1.054203,0,0,24.53997,0,0,1561243350.380748,65457.856575,0,-3.181396,74.57761,2650634390,177292352,1,1,0.17,-17.45887,-28.55291,0
1561243361.001384,39,0,0,1561243359.990785,4.602384427566642,-74.06498492702289,2653.675,0.39,198.6328125,4,10,-9999,1561243360.980659,-19.46889114379883,-13.70592021942139,23.28369140625,123.7787475585938,131.3224334716797,20,65460.87497866667,-0.9303436279296875,0.295196533203125,0.1837615966796875,65460.86987591667,0.1195895150661172,0.08516522849964396,0.3328495962052644,65460.85873691667,18.72830200195312,-11.33326721191406,-511.7312316894531,65460.86987591667,-1.405522703867489,-1.722836560249292,-0.2653492300560039,0.1183776557445526,0.07963616400957108,0.3302551805973053,0.01649105548858643,0.01326644420623779,0.03551673889160156,1,-0.5518516898155212,-0.518205463886261,-0.340701699256897,0.5575349926948547,-0.9538689851760864,0.2622462809085846,0.146154373884201,0,0,0,-1,65457.056850125,3,2,1561243357.178252,1561243107.271691,28,1.054203,0,0,24.53997,0,0,1561243350.380748,65457.856575,0,-3.181396,74.57761,2650634390,177292352,1,1,0.17,-17.45887,-29.3891,0
1561243361.009303,40,0,0,1561243359.990785,4.602384427566642,-74.06498492702289,2653.675,0.39,198.6328125,4,10,-9999,1561243361.007014,-19.77796173095703,-13.27947235107422,23.3541259765625,123.6600646972656,131.2037506103516,20,65460.89521166667,-0.919677734375,0.336578369140625,0.1862640380859375,65460.89014566667,0.1985410561103883,0.01049711575265633,0.5925307056733649,65460.87885466667,18.55294799804688,-11.32572937011719,-511.7915344238281,65460.89014566667,-1.403878993753636,-1.721496840954706,-0.2747198499691882,0.1973292082548141,0.004968056920915842,0.5899363160133362,0.02925968170166016,0.04737198352813721,0.0389554500579834,1,-0.5531997084617615,-0.5159657001495361,-0.3376588523387909,0.560121476650238,-0.9515925049781799,0.2712773084640503,0.1445010453462601,0,0,0,-1,65457.056850125,3,2,1561243357.178252,1561243107.271691,28,1.054203,0,0,24.53997,0,0,1561243350.380748,65457.856575,0,-3.181396,74.57761,2650634390,177292352,1,1,0.17,-17.45887,-29.3891,0
1561243361.029185,41,0,0,1561243359.990785,4.602384427566642,-74.06498492702289,2653.675,0.39,198.6328125,4,10,-9999,1561243361.007014,-19.77796173095703,-13.27947235107422,23.3541259765625,123.6600646972656,131.2037506103516,20,65460.91547566667,-0.9226837158203125,0.37042236328125,0.202056884765625,65460.91040966667,0.4342047136037181,-0.1526270936529862,0.8868938957014582,65460.89893466667,18.28694152832031,-10.96110534667969,-511.4869079589844,65460.91040966667,-1.399950517733987,-1.722176168584357,-0.2903440590592177,0.4329928457736969,-0.158156156539917,0.8842994570732117,0.03480398654937744,0.06535688042640686,0.04694628715515137,1,-0.5556166768074036,-0.5133569836616516,-0.3314213752746582,0.5638391375541687,-0.9471880197525024,0.2862819135189056,0.1444905698299408,0,0,0,-1,65457.056850125,3,2,1561243357.178252,1561243107.271691,28,1.054203,0,0,24.53997,0,0,1561243350.380748,65457.856575,0,-3.181396,74.57761,2650634390,177292352,1,1,0.17,-17.45887,-30.02897,0
1561243361.066434,42,0,0,1561243360.990771,4.602378811691517,-74.06498920179351,2653.694,0.39,210.5859375,4,10,-9999,1561243361.057675,-20.05457496643066,-12.10492515563965,23.6785888671875,122.3556671142578,129.8993530273438,20,65460.93573966667,-0.88629150390625,0.4134063720703125,0.232635498046875,65460.93067366667,0.7678687044703287,-0.1928706535173916,0.9666920556562654,65460.91901566667,18.21498107910156,-10.46481323242188,-511.5223999023438,65460.93067366667,-1.39038232367713,-1.723013662250192,-0.3110368131479201,0.7666560411453247,-0.1984008997678757,0.9640977382659912,0.02783143520355225,0.08860743045806885,0.07854580879211426,1,-0.5576550960540771,-0.5110753774642944,-0.3218809366226196,0.5693991780281067,-0.9410088658332825,0.3060458600521088,0.1443544924259186,0,0,0,-1,65457.056850125,3,2,1561243357.178252,1561243107.271691,28,1.054203,0,0,24.53997,0,0,1561243350.380748,65457.856575,0,-3.181396,74.57761,2650634390,177292352,1,1,0.17,-17.45887,-30.70876,0
1561243361.07097,43,0,0,1561243360.990771,4.602378811691517,-74.06498920179351,2653.694,0.39,210.5859375,4,10,-9999,1561243361.057675,-20.05457496643066,-12.10492515563965,23.6785888671875,122.3556671142578,129.8993530273438,20,65460.95600266667,-0.81048583984375,0.4703369140625,0.273895263671875,65460.95093666667,0.9624339273893378,-0.2142550381224008,0.9301763886857529,65460.93909566667,17.93693542480469,-9.6015625,-511.21337890625,65460.95093666667,-1.374679003058157,-1.72207695388529,-0.332671883952869,0.9612212777137756,-0.219785287976265,0.9275820851325989,0.08164066076278687,0.1181630790233612,0.1063987016677856,1,-0.5580204725265503,-0.509739100933075,-0.3106826841831207,0.5764159560203552,-0.9343780875205994,0.3265695869922638,0.142441600561142,0,0,0,-1,65460.94648166667,3,2,1561243361.067884,1561243107.271691,28,1.054203,0,0,24.53997,0,0,1561243350.380748,65457.856575,0,-3.181396,74.57761,2650634390,177292352,1,1,0.17,-17.45887,-31.38348,0
1561243361.0899,44,0,0,1561243360.990771,4.602378811691517,-74.06498920179351,2653.694,0.39,210.5859375,4,10,-9999,1561243361.082146,-20.02326965332031,-11.40913677215576,23.92666625976562,121.1339111328125,128.6775970458984,20,65460.97626666667,-0.7447509765625,0.507537841796875,0.3436737060546875,65460.97120066667,0.9525530671129258,-0.3205077087655102,1.160296942686192,65460.95917666667,17.82337951660156,-8.5245361328125,-510.9953308105469,65460.97120066667,-1.3575919907353,-1.7216038290342,-0.3557315163281105,0.95134037733078,-0.3260379433631897,1.157702684402466,0.1471201181411743,0.1438807845115662,0.1634907722473145,1,-0.5583957433700562,-0.5085365772247314,-0.2983647286891937,0.5835779905319214,-0.9267526865005493,0.3482761681079865,0.1408305168151855,0,0,0,-1,65460.94648166667,3,2,1561243361.067884,1561243107.271691,28,1.054203,0,0,24.53997,0,0,1561243350.380748,65457.856575,0,-3.181396,74.57761,2650634390,177292352,1,1,0.17,-17.45887,-31.38348,0
1561243361.1101,45,0,0,1561243360.990771,4.602378811691517,-74.06498920179351,2653.694,0.39,210.5859375,4,10,-9999,1561243361.10828,-20.25176239013672,-9.412876129150391,24.57196044921875,120.0721969604492,127.6158828735352,20,65460.99653066667,-0.674102783203125,0.5401611328125,0.370391845703125,65460.99143366667,0.8984080726744157,-0.5698610795262833,1.850308931636381,65460.97925766667,17.97605895996094,-7.648468017578125,-510.5983276367188,65460.99143366667,-1.342609266067946,-1.725321572494389,-0.3880898973026776,0.8971953988075256,-0.5753912925720215,1.84771466255188,0.2060320377349854,0.1385772526264191,0.2123932838439941,1,-0.5618004202842712,-0.5055817365646362,-0.2822863757610321,0.590831458568573,-0.9146044254302979,0.3784210383892059,0.142465204000473,0,0,0,-1,65460.94648166667,3,2,1561243361.067884,1561243107.271691,28,1.054203,0,0,24.53997,0,0,1561243350.380748,65457.856575,0,-3.181396,74.57761,2650634390,177292352,1,1,0.17,-17.45887,-30.27128,0
1561243361.144854,46,0,0,1561243360.990771,4.602378811691517,-74.06498920179351,2653.694,0.39,210.5859375,4,10,-9999,1561243361.13256,-20.12532615661621,-7.937735557556152,24.839111328125,119.4315795898438,126.9752655029297,20,65461.01676366667,-0.63201904296875,0.630767822265625,0.360565185546875,65461.01169766667,0.7980162206422438,-0.761893369932518,2.730947061937243,65460.99933766667,18.03065490722656,-6.232620239257812,-510.3536987304688,65461.01169766667,-1.331980092687056,-1.735020254931642,-0.4368445991464809,0.7968035340309143,-0.7674236297607422,2.728352785110474,0.2507575750350952,0.1533640325069427,0.2287276983261108,1,-0.5702338218688965,-0.4988991320133209,-0.2601235508918762,0.5985556244850159,-0.8939002752304077,0.4230825006961823,0.1481339037418365,0,0,0,-1,65460.94648166667,3,2,1561243361.067884,1561243107.271691,28,1.054203,0,0,24.53997,0,0,1561243350.380748,65457.856575,0,-3.181396,74.57761,2650634390,177292352,1,1,0.17,-17.45887,-31.49194,0
1561243361.150713,47,0,0,1561243360.990771,4.602378811691517,-74.06498920179351,2653.694,0.39,210.5859375,4,10,-9999,1561243361.13256,-20.12532615661621,-7.937735557556152,24.839111328125,119.4315795898438,126.9752655029297,20,65461.03702666667,-0.658660888671875,0.6971893310546875,0.320648193359375,65461.03196066667,0.6758213350817021,-0.6735315491764519,3.188313021225271,65461.01944866667,18.24397277832031,-4.6839599609375,-509.7434692382812,65461.03196066667,-1.327249235685644,-1.748101078702327,-0.498997615473184,0.6746086478233337,-0.6790617704391479,3.185718774795532,0.2296075820922852,0.1885381042957306,0.1854770183563232,1,-0.5826100707054138,-0.487853080034256,-0.233868807554245,0.6065230369567871,-0.8642969131469727,0.4785456359386444,0.1548702418804169,0,0,0,-1,65460.94648166667,3,2,1561243361.067884,1561243107.271691,28,1.054203,0,0,24.53997,0,0,1561243350.380748,65457.856575,0,-3.181396,74.57761,2650634390,177292352,1,1,0.17,-17.45887,-31.49194,0
1561243361.170783,48,0,0,1561243360.990771,4.602378811691517,-74.06498920179351,2653.694,0.39,210.5859375,4,10,-9999,1561243361.158865,-19.92311668395996,-6.173774719238281,25.35916137695312,119.2573394775391,126.801025390625,20,65461.05729066667,-0.7113800048828125,0.7353057861328125,0.2830352783203125,65461.05222466667,0.6370997717802769,-0.4796970976605606,3.275465500530332,65461.03952966667,18.08351135253906,-3.045822143554688,-509.5055847167969,65461.05222466667,-1.326206872486309,-1.759058305135077,-0.5663973352506686,0.635887086391449,-0.4852273464202881,3.272871255874634,0.1442067623138428,0.1871746778488159,0.1427178382873535,1,-0.59575355052948,-0.4733294546604156,-0.2071387320756912,0.6149230599403381,-0.8289296627044678,0.5365954637527466,0.1579261273145676,0,0,0,-1,65460.94648166667,3,2,1561243361.067884,1561243107.271691,28,1.054203,0,0,24.53997,0,0,1561243350.380748,65457.856575,0,-3.181396,74.57761,2650634390,177292352,1,1,0.17,-17.45887,-31.88654,0
1561243361.191059,49,0,0,1561243360.990771,4.602378811691517,-74.06498920179351,2653.694,0.39,210.5859375,4,10,-9999,1561243361.183396,-19.59890937805176,-2.819716215133667,25.60760498046875,119.2396240234375,126.7833099365234,20,65461.07755466667,-0.741973876953125,0.737396240234375,0.243865966796875,65461.07248866667,0.5904853979561839,-0.5190884459761407,2.980404562296638,65461.05960966667,18.29615783691406,-1.193939208984375,-509.3621520996094,65461.07248866667,-1.325996193575608,-1.76906172463991,-0.6314246265629596,0.5892727375030518,-0.5246186852455139,2.977810382843018,0.07044225931167603,0.1514801979064941,0.1033992767333984,1,-0.6076796054840088,-0.4584985673427582,-0.1814099252223969,0.6225712299346924,-0.7913742661476135,0.5902953147888184,0.1589908748865128,0,0,0,-1,65460.94648166667,3,2,1561243361.067884,1561243107.271691,28,1.054203,0,0,24.53997,0,0,1561243350.380748,65457.856575,0,-3.181396,74.57761,2650634390,177292352,1,1,0.17,-17.45887,-32.4228,0
1561243361.22093,50,0,0,1561243360.990771,4.602378811691517,-74.06498920179351,2653.694,0.39,210.5859375,4,10,-9999,1561243361.209671,-19.41418647766113,-1.211858630180359,25.96035766601562,119.3674163818359,126.9111022949219,20,65461.09781766667,-0.77728271484375,0.7204742431640625,0.2490692138671875,65461.09275166667,0.4126267171874601,-0.6954549575860932,2.530327142279939,65461.07969066667,18.44975280761719,0.4014129638671875,-509.00537109375,65461.09275166667,-1.327635249623703,-1.782132695843029,-0.6880397511455187,0.4114140570163727,-0.7009851932525635,2.527732849121094,-0.01013654470443726,0.1010293364524841,0.08281469345092773,1,-0.6180964708328247,-0.4460698664188385,-0.1579858958721161,0.6277091503143311,-0.7553053498268127,0.6350241303443909,0.1620431393384933,0,0,0,-1,65460.94648166667,3,2,1561243361.067884,1561243107.271691,28,1.054203,0,0,24.53997,0,0,1561243350.380748,65457.856575,0,-3.181396,74.57761,2650634390,177292352,1,1,0.17,-17.45887,-33.19292,0
1561243361.233964,51,0,0,1561243360.990771,4.602378811691517,-74.06498920179351,2653.694,0.39,210.5859375,4,10,-9999,1561243361.209671,-19.41418647766113,-1.211858630180359,25.96035766601562,119.3674163818359,126.9111022949219,20,65461.11808166667,-0.799407958984375,0.7016143798828125,0.2486572265625,65461.11298566667,0.1097507327349285,-0.7993486001356104,2.099743528810401,65461.09977166667,18.88447570800781,1.688934326171875,-508.771728515625,65461.11298566667,-1.334091988707108,-1.801673329117894,-0.7350087040239094,0.1085380762815475,-0.804878830909729,2.09714937210083,-0.07072055339813232,0.03990137577056885,0.07908749580383301,1,-0.6278398036956787,-0.4366847574710846,-0.1372521668672562,0.6295120716094971,-0.7221413850784302,0.6705936193466187,0.1697527915239334,0,0,0,-1,65460.94648166667,3,2,1561243361.067884,1561243107.271691,28,1.054203,0,0,24.53997,0,0,1561243350.380748,65457.856575,0,-3.181396,74.57761,2650634390,177292352,1,1,0.17,-17.45887,-28.20477,0
1561243361.251939,52,0,0,1561243360.990771,4.602378811691517,-74.06498920179351,2653.694,0.39,210.5859375,4,10,-9999,1561243361.236119,-19.06253433227539,-0.1086312532424927,26.32586669921875,119.9838714599609,127.5275573730469,20,65461.13831466667,-0.8395843505859375,0.6579742431640625,0.239227294921875,65461.13324866667,-0.3014703680291878,-0.7082932582530381,1.703173542467247,65461.11988266667,19.501220703125,2.444091796875,-508.5615234375,65461.13324866667,-1.349271394301611,-1.828095869174074,-0.7717315236697735,-0.302683025598526,-0.7138234972953796,1.700579285621643,-0.1247298717498779,-0.02356439828872681,0.05718338489532471,1,-0.637756884098053,-0.4294833838939667,-0.1205401122570038,0.6279173493385315,-0.6931107044219971,0.6973772644996643,0.1823796331882477,0,0,0,-1,65460.94648166667,3,2,1561243361.067884,1561243107.271691,28,1.054203,0,0,24.53997,0,0,1561243350.380748,65457.856575,0,-3.181396,74.57761,2650634390,177292352,1,1,0.17,-17.45887,-28.20477,0
1561243361.272106,53,0,0,1561243360.990771,4.602378811691517,-74.06498920179351,2653.694,0.39,210.5859375,4,10,-9999,1561243361.260609,-18.49013328552246,0.4736483097076416,26.56692504882812,121.4936828613281,129.0373687744141,20,65461.15857866667,-0.871429443359375,0.6327972412109375,0.2101593017578125,65461.15351266667,-0.793385249822705,-0.339895787817396,1.403690158927368,65461.13996266667,20.02888488769531,2.61053466796875,-508.0703125,65461.15351266667,-1.376212531599037,-1.858298577747522,-0.7988835434556976,-0.7945979237556458,-0.3454260230064392,1.401095867156982,-0.1865143179893494,-0.07070374488830566,0.0304572582244873,1,-0.6485145688056946,-0.422280341386795,-0.1095193400979042,0.6237897872924805,-0.6688780784606934,0.7165778279304504,0.1977836638689041,0,0,0,-1,65460.94648166667,3,2,1561243361.067884,1561243107.271691,28,1.054203,0,0,24.53997,0,0,1561243350.380748,65457.856575,0,-3.181396,74.57761,2650634390,177292352,1,1,0.17,-17.45887,-28.93279,0
1561243361.302771,54,0,0,1561243360.990771,4.602378811691517,-74.06498920179351,2653.694,0.39,210.5859375,4,10,-9999,1561243361.286275,-17.75589179992676,0.8430945873260498,26.97036743164062,124.1545562744141,131.6982421875,20,65461.17884266667,-0.9005584716796875,0.622283935546875,0.1799163818359375,65461.17377666667,-1.24212682823662,0.1132349463890791,1.115029063109243,65461.16004366667,20.46504211425781,2.734207153320312,-508.2986450195312,65461.17377666667,-1.416140887472843,-1.889337412015935,-0.8169863812548371,-1.243339419364929,0.1077046990394592,1.112434864044189,-0.2396882176399231,-0.1000887155532837,-0.01880669593811035,1,-0.6604585647583008,-0.4134834408760071,-0.1052636802196503,0.6178556680679321,-0.6499907970428467,0.7290865778923035,0.2143481373786926,0,0,0,-1,65460.94648166667,3,2,1561243361.067884,1561243107.271691,28,1.054203,0,0,24.53997,0,0,1561243350.380748,65457.856575,0,-3.181396,74.57761,2650634390,177292352,1,1,0.17,-17.45887,-30.11378,0
1561243361.312442,55,0,0,1561243360.990771,4.602378811691517,-74.06498920179351,2653.694,0.39,210.5859375,4,10,-9999,1561243361.310675,-17.67977905273438,0.5166354179382324,27.05731201171875,127.6639556884766,135.2076416015625,20,65461.19910566667,-0.904144287109375,0.605987548828125,0.16864013671875,65461.19403966667,-1.539879956016276,0.3709956503951234,0.9017079955811329,65461.18012366667,20.51618957519531,2.66748046875,-508.0466918945312,65461.19403966667,-1.464926889907712,-1.920085178458597,-0.8267414681452859,-1.54109251499176,0.3654654026031494,0.8991137146949768,-0.2691218852996826,-0.1233015656471252,-0.05794084072113037,1,-0.6729567050933838,-0.403759092092514,-0.106511726975441,0.6105433702468872,-0.6363804340362549,0.7357283234596252,0.2317842692136765,0,0,0,-1,65460.94648166667,3,2,1561243361.067884,1561243107.271691,28,1.054203,0,0,24.53997,0,0,1561243350.380748,65457.856575,0,-3.181396,74.57761,2650634390,177292352,1,1,0.17,-17.45887,-30.11378,0
1561243361.33391,56,0,0,1561243360.990771,4.602378811691517,-74.06498920179351,2653.694,0.39,210.5859375,4,10,-9999,1561243361.310675,-17.67977905273438,0.5166354179382324,27.05731201171875,127.6639556884766,135.2076416015625,20,65461.21936966667,-0.9058685302734375,0.5953216552734375,0.125091552734375,65461.21430366667,-1.952166321216424,0.6734556490853846,0.7776465004125547,65461.20023466667,20.6104736328125,2.160430908203125,-508.0284729003906,65461.21430366667,-1.522442610501213,-1.952221253537387,-0.8300210546433962,-1.953378915786743,0.6679254174232483,0.7750521898269653,-0.2784543037414551,-0.13555908203125,-0.09934151172637939,1,-0.6864243149757385,-0.3929729759693146,-0.1118571385741234,0.6015661358833313,-0.6263613700866699,0.737945556640625,0.2512122094631195,0,0,0,-1,65460.94648166667,3,2,1561243361.067884,1561243107.271691,28,1.054203,0,0,24.53997,0,0,1561243350.380748,65458.797378,0,-2.830078,74.57432,2650634390,177292352,1,1,0.17,-17.45887,-30.14845,0
1561243361.353659,57,0,0,1561243360.990771,4.602378811691517,-74.06498920179351,2653.694,0.39,210.5859375,4,10,-9999,1561243361.336279,-17.86155891418457,-0.1425275802612305,26.77120971679688,131.998779296875,139.5424652099609,20,65461.23963366667,-0.9217071533203125,0.5394744873046875,0.0903472900390625,65461.23453666667,-2.437572437305787,1.168591624217353,0.6675444967298447,65461.22031566667,20.27407836914062,1.09429931640625,-508.480712890625,65461.23453666667,-1.591476337032297,-1.984989144597382,-0.8260017120556055,-2.438785076141357,1.163061380386353,0.6649501919746399,-0.2912227511405945,-0.156644344329834,-0.1751487255096436,1,-0.7014345526695251,-0.3799794912338257,-0.1224652528762817,0.5904297828674316,-0.620505154132843,0.735227108001709,0.2727896869182587,0,0,0,-1,65460.94648166667,3,2,1561243361.067884,1561243107.271691,28,1.054203,0,0,24.53997,0,0,1561243350.380748,65458.797378,0,-2.830078,74.57432,2650634390,177292352,1,1,0.17,-17.45887,-30.75473,0
1561243361.385988,58,0,0,1561243360.990771,4.602378811691517,-74.06498920179351,2653.694,0.39,210.5859375,4,10,-9999,1561243361.361396,-18.1927433013916,-1.151340126991272,26.54409790039062,137.3384094238281,144.8820953369141,20,65461.25986666667,-0.9518890380859375,0.47601318359375,0.0539703369140625,65461.25480066667,-2.738204708539927,1.55341094488275,0.6209357155440409,65461.24039666667,19.34732055664062,0.293609619140625,-509.0809326171875,65461.25480066667,-1.66989875555969,-2.01437013689384,-0.8157408825185652,-2.739417314529419,1.54788064956665,0.6183414459228516,-0.3163585066795349,-0.2315447330474854,-0.2160129547119141,1,-0.7174472212791443,-0.3637730479240417,-0.1384658962488174,0.5777246356010437,-0.6190052628517151,0.7282335758209229,0.2941226959228516,0,0,0,-1,65460.94648166667,3,2,1561243361.067884,1561243107.271691,28,1.054203,0,0,24.53997,0,0,1561243350.380748,65458.797378,0,-2.830078,74.57432,2650634390,177292352,1,1,0.17,-17.45887,-28.64178,0
1561243361.393645,59,0,0,1561243360.990771,4.602378811691517,-74.06498920179351,2653.694,0.39,210.5859375,4,10,-9999,1561243361.385671,-19.82227897644043,-3.727298021316528,25.23394775390625,143.1192626953125,150.6629486083984,20,65461.28012966667,-0.9965667724609375,0.448272705078125,-0.0193939208984375,65461.27506366667,-2.748729254851811,1.609965833791673,0.5589165527104937,65461.26047666667,18.68965148925781,-1.135986328125,-509.8208618164062,65461.27506366667,-1.750655669738519,-2.040256540696139,-0.801891145810222,-2.749941825866699,1.604435563087463,0.5563222765922546,-0.3562586307525635,-0.2526537179946899,-0.2952158451080322,1,-0.7332265377044678,-0.3459312915802002,-0.1567632853984833,0.5640351176261902,-0.6201208233833313,0.7186723947525024,0.3145792186260223,0,0,0,-1,65460.94648166667,3,2,1561243361.067884,1561243107.271691,28,1.054203,0,0,24.53997,0,0,1561243350.380748,65458.797378,0,-2.830078,74.57432,2650634390,177292352,1,1,0.17,-17.45887,-29.57391,0
1561243361.41384,60,0,0,1561243360.990771,4.602378811691517,-74.06498920179351,2653.694,0.39,210.5859375,4,10,-9999,1561243361.412068,-20.78693389892578,-4.793343067169189,24.38885498046875,148.2728118896484,155.8164978027344,20,65461.30039366667,-1.030258178710938,0.459808349609375,-0.09259033203125,65461.29532766667,-2.403343094131108,1.302431181644266,0.2658335442184014,65461.28055766667,17.78054809570312,-2.548294067382812,-510.5482788085938,65461.29532766667,-1.823318030359014,-2.062105405938867,-0.785205932881564,-2.404555559158325,1.296900987625122,0.2632392942905426,-0.3959898948669434,-0.2572333216667175,-0.3911737203598022,1,-0.7469632625579834,-0.3299659490585327,-0.1743471324443817,0.5502466559410095,-0.6235871315002441,0.7069708108901978,0.333663284778595,0,0,0,-1,65460.94648166667,3,2,1561243361.067884,1561243107.271691,28,1.054203,0,0,24.53997,0,0,1561243350.380748,65458.797378,0,-2.830078,74.57432,2650634390,177292352,1,1,0.17,-17.45887,-29.57391,0
1561243361.434601,61,0,0,1561243360.990771,4.602378811691517,-74.06498920179351,2653.694,0.39,210.5859375,4,10,-9999,1561243361.412068,-20.78693389892578,-4.793343067169189,24.38885498046875,148.2728118896484,155.8164978027344,20,65461.32065766667,-1.026718139648438,0.478179931640625,-0.1731109619140625,65461.31559166667,-1.6580742409873,0.3786304006081626,-0.2439476863801303,65461.30063766667,16.77973937988281,-3.794342041015625,-511.2334289550781,65461.31559166667,-1.87498302237325,-2.079952390965686,-0.7656194492523642,-1.659286856651306,0.3731001615524292,-0.2465419620275497,-0.399425745010376,-0.223760724067688,-0.4798550605773926,1,-0.7567464709281921,-0.3210073709487915,-0.1878930181264877,0.5375735759735107,-0.629504919052124,0.6929837465286255,0.3514218926429749,0,0,0,-1,65460.94648166667,3,2,1561243361.067884,1561243107.271691,28,1.054203,0,0,24.53997,0,0,1561243350.380748,65458.797378,0,-2.830078,74.57432,2650634390,177292352,1,1,0.17,-17.45887,-29.59976,0
1561243361.46202,62,0,0,1561243360.990771,4.602378811691517,-74.06498920179351,2653.694,0.39,210.5859375,4,10,-9999,1561243361.436318,-21.41054725646973,-6.074849128723145,23.81268310546875,151.3895721435547,158.9332580566406,20,65461.34092066667,-1.089706420898438,0.4822845458984375,-0.1757354736328125,65461.33585566667,-0.4678217960437883,-1.065680688110075,-0.8430745094414034,65461.32074866667,16.515625,-4.536026000976562,-511.4698181152344,65461.33585566667,-1.894068999369575,-2.100266718063879,-0.7449423947092788,-0.4690344631671906,-1.071210861206055,-0.8456687927246094,-0.4117950201034546,-0.1984067559242249,-0.5587648153305054,1,-0.7615885138511658,-0.3250086009502411,-0.1916960328817368,0.5268824100494385,-0.6344696283340454,0.6779294610023499,0.371295303106308,0,0,0,-1,65460.94648166667,3,2,1561243361.067884,1561243107.271691,28,1.054203,0,0,24.53997,0,0,1561243350.380748,65458.797378,0,-2.830078,74.57432,2650634390,177292352,1,1,0.17,-17.45887,-28.71076,0
1561243361.474604,63,0,0,1561243360.990771,4.602378811691517,-74.06498920179351,2653.694,0.39,210.5859375,4,10,-9999,1561243361.463596,-21.25504875183105,-7.13835620880127,23.61221313476562,151.29052734375,158.8342132568359,20,65461.36118466667,-1.176010131835938,0.4730072021484375,-0.1453857421875,65461.35608866667,0.7228567546741365,-1.809177740180652,-1.374538931319251,65461.34082966667,17.12471008300781,-5.375091552734375,-511.2329711914062,65461.35608866667,-1.874737783628871,-2.117939927573489,-0.7274713929796239,0.7216441035270691,-1.81470799446106,-1.377133131027222,-0.5018516182899475,-0.1851858496665955,-0.5447418689727783,1,-0.7598769664764404,-0.3418529629707336,-0.1853323727846146,0.5209370255470276,-0.6378273367881775,0.6649832725524902,0.3885529041290283,0,0,0,-1,65460.94648166667,3,2,1561243361.067884,1561243107.271691,28,1.054203,0,0,24.53997,0,0,1561243350.380748,65458.797378,0,-2.830078,74.57432,2650634390,177292352,1,1,0.17,-17.45887,-28.71076,0
1561243361.495317,64,0,0,1561243360.990771,4.602378811691517,-74.06498920179351,2653.694,0.39,210.5859375,4,10,-9999,1561243361.487012,-19.56832313537598,-7.57879114151001,24.94317626953125,148.2317047119141,155.775390625,20,65461.38141766667,-1.21160888671875,0.45965576171875,-0.1231689453125,65461.37635166667,1.357008939759914,-1.840211822679455,-1.971441215921981,65461.36090966667,18.23876953125,-5.57659912109375,-510.4929809570312,65461.37635166667,-1.826339454459851,-2.123876101300525,-0.7100923622599313,1.355796337127686,-1.845741987228394,-1.974035382270813,-0.5535140037536621,-0.1963526606559753,-0.538785457611084,1,-0.7515819668769836,-0.3664647042751312,-0.1759626418352127,0.5194855928421021,-0.6452469825744629,0.6519038081169128,0.3983436524868011,0,0,0,-1,65460.94648166667,3,2,1561243361.067884,1561243107.271691,28,1.054203,0,0,24.53997,0,0,1561243350.380748,65458.797378,0,-2.830078,74.57432,2650634390,177292352,1,1,0.17,-17.45887,-28.18055,0
1561243361.517962,65,0,0,1561243360.990771,4.602378811691517,-74.06498920179351,2653.694,0.39,210.5859375,4,10,-9999,1561243361.513358,-18.31412124633789,-7.798313617706299,25.9171142578125,143.4554290771484,150.9991149902344,20,65461.40168166667,-1.207672119140625,0.500579833984375,-0.06597900390625,65461.39661566667,1.647321195453888,-2.185158828136404,-2.749383060899425,65461.38099066667,19.52397155761719,-5.655670166015625,-509.4494018554688,65461.39661566667,-1.760124050780314,-2.121140244646954,-0.6855564124786078,1.646108627319336,-2.190689086914062,-2.751977205276489,-0.5490292906761169,-0.1521009802818298,-0.5095582008361816,1,-0.7380556464195251,-0.3970954716205597,-0.167669489979744,0.5191108584403992,-0.6597719788551331,0.6331037878990173,0.404821902513504,0,0,0,-1,65460.94648166667,3,2,1561243361.067884,1561243107.271691,28,1.054203,0,0,24.53997,0,0,1561243350.380748,65458.797378,0,-2.830078,74.57432,2650634390,177292352,1,1,0.17,-17.45887,-28.24839,0
1561243361.541728,66,0,0,1561243360.990771,4.602378811691517,-74.06498920179351,2653.694,0.39,210.5859375,4,10,-9999,1561243361.537773,-16.55886268615723,-7.884642601013184,26.97799682617188,136.9388122558594,144.4824981689453,20,65461.42194566667,-1.26019287109375,0.5466461181640625,0.0817108154296875,65461.41687966667,2.206348801981838,-2.676273696338461,-3.651192256601981,65461.40107166667,20.83932495117188,-6.041229248046875,-508.4130859375,65461.41687966667,-1.675059678666934,-2.118146562022857,-0.6505975369884099,2.205136299133301,-2.681803941726685,-3.653786420822144,-0.5493484735488892,-0.07670080661773682,-0.4073857069015503,1,-0.7185858488082886,-0.4366827011108398,-0.1582453399896622,0.5175915956497192,-0.6794723272323608,0.6056619882583618,0.4141148030757904,0,0,0,-1,65460.94648166667,3,2,1561243361.067884,1561243107.271691,28,1.054203,0,0,24.53997,0,0,1561243350.380748,65458.797378,0,-2.830078,74.57432,2650634390,177292352,1,1,0.17,-17.45887,-29.01342,0
1561243361.555757,67,0,0,1561243360.990771,4.602378811691517,-74.06498920179351,2653.694,0.39,210.5859375,4,10,-9999,1561243361.537773,-16.55886268615723,-7.884642601013184,26.97799682617188,136.9388122558594,144.4824981689453,20,65461.44220866667,-1.299606323242188,0.595794677734375,0.1990814208984375,65461.43714266667,2.569672950540879,-2.873645891046414,-4.580260503958153,65461.42118266667,22.60169982910156,-5.387008666992188,-506.988525390625,65461.43714266667,-1.569466508580688,-2.113008585773245,-0.6044659350073487,2.56846022605896,-2.879176139831543,-4.582854747772217,-0.5831279754638672,-0.004190027713775635,-0.2691987752914429,1,-0.6909452080726624,-0.4846564531326294,-0.1484844386577606,0.5154175758361816,-0.7047901153564453,0.5683227181434631,0.4245943129062653,0,0,0,-1,65460.94648166667,3,2,1561243361.067884,1561243107.271691,28,1.054203,0,0,24.53997,0,0,1561243350.380748,65458.797378,0,-2.830078,74.57432,2650634390,177292352,1,1,0.17,-17.45887,-29.68025,0
1561243361.57593,68,0,0,1561243360.990771,4.602378811691517,-74.06498920179351,2653.694,0.39,210.5859375,4,10,-9999,1561243361.563974,-14.66495895385742,-7.54053783416748,28.49896240234375,128.9402923583984,136.4839782714844,20,65461.46247266667,-1.30670166015625,0.6655731201171875,0.2976531982421875,65461.45740666667,2.616708103817204,-2.522777080589564,-5.189939570206646,65461.44126266667,25.05667114257812,-5.59442138671875,-506.1680603027344,65461.45740666667,-1.454683839871825,-2.105668533735934,-0.5461233798435393,2.615495443344116,-2.528307437896729,-5.19253396987915,-0.5706842541694641,0.1108401417732239,-0.1842145919799805,1,-0.6560038328170776,-0.536146342754364,-0.1419814676046371,0.5119056105613708,-0.7351934313774109,0.5193784236907959,0.4355878531932831,0,0,0,-1,65460.94648166667,3,2,1561243361.067884,1561243107.271691,28,1.054203,0,0,24.53997,0,0,1561243350.380748,65458.797378,0,-2.830078,74.57432,2650634390,177292352,1,1,0.17,-17.45887,-29.68025,0
1561243361.596164,69,0,0,1561243360.990771,4.602378811691517,-74.06498920179351,2653.694,0.39,210.5859375,4,10,-9999,1561243361.588771,-10.21761894226074,-7.056095123291016,30.42218017578125,120.5956268310547,128.1393127441406,20,65461.48270566667,-1.299606323242188,0.7305908203125,0.396881103515625,65461.47763966667,2.64730649316167,-2.287134994701064,-5.696057356409665,65461.46134366667,27.39825439453125,-5.133438110351562,-504.9066772460938,65461.47763966667,-1.33798915198001,-2.096414390757569,-0.4781364689616243,2.646093845367432,-2.292665243148804,-5.698651790618896,-0.534407913684845,0.2368197441101074,-0.1026289463043213,1,-0.614849865436554,-0.587110698223114,-0.1397902518510818,0.5076606273651123,-0.7680060267448425,0.4601254463195801,0.4454786479473114,0,0,0,-1,65460.94648166667,3,2,1561243361.067884,1561243107.271691,28,1.054203,0,0,24.53997,0,0,1561243350.380748,65458.797378,0,-2.830078,74.57432,2650634390,177292352,1,1,0.17,-17.45887,-30.27756,0
1561243361.621384,70,0,0,1561243360.990771,4.602378811691517,-74.06498920179351,2653.694,0.39,210.5859375,4,10,-9999,1561243361.617583,-8.004201889038086,-6.501224040985107,31.04830932617188,112.1647109985352,119.7083969116211,20,65461.50296966667,-1.294540405273438,0.7733154296875,0.509246826171875,65461.49790366667,2.640572424029295,-2.495358239270545,-6.137566854567361,65461.48142366667,29.68247985839844,-4.582443237304688,-504.2548522949219,65461.49790366667,-1.220269796811138,-2.095110400485014,-0.4005795663883777,2.639359712600708,-2.500888586044312,-6.140161514282227,-0.4957401752471924,0.3693557679653168,-0.01811671257019043,1,-0.5678717494010925,-0.6387609839439392,-0.1393477767705917,0.5000882148742676,-0.7971370220184326,0.3899520933628082,0.4609878361225128,0,0,0,-1,65460.94648166667,3,2,1561243361.067884,1561243107.271691,28,1.054203,0,0,24.53997,0,0,1561243350.380748,65458.797378,0,-2.830078,74.57432,2650634390,177292352,1,1,0.17,-17.45887,-30.873,0
1561243361.636753,71,0,0,1561243360.990771,4.602378811691517,-74.06498920179351,2653.694,0.39,210.5859375,4,10,-9999,1561243361.617583,-8.004201889038086,-6.501224040985107,31.04830932617188,112.1647109985352,119.7083969116211,20,65461.52323266667,-1.241073608398438,0.78271484375,0.587127685546875,65461.51816766667,2.591947363582192,-2.166614438517855,-6.203913654172288,65461.50150466667,31.98655700683594,-3.947128295898438,-503.3561401367188,65461.51816766667,-1.103278607679836,-2.102299747504888,-0.3188988007252418,2.590734720230103,-2.172144889831543,-6.206508159637451,-0.4609581232070923,0.4670575261116028,0.08525204658508301,1,-0.5162798762321472,-0.6885442733764648,-0.1395720243453979,0.4897770881652832,-0.8185828924179077,0.3135210871696472,0.4812762439250946,0,0,0,-1,65460.94648166667,3,2,1561243361.067884,1561243107.271691,28,1.054203,0,0,24.53997,0,0,1561243350.380748,65458.797378,0,-2.830078,74.57432,2650634390,177292352,1,1,0.17,-17.45887,-31.39126,0
1561243361.656989,72,0,0,1561243360.990771,4.602378811691517,-74.06498920179351,2653.694,0.39,210.5859375,4,10,-9999,1561243361.638899,-5.441204071044922,-5.751749038696289,31.78619384765625,103.8855056762695,111.4291915893555,20,65461.54349666667,-1.148345947265625,0.8086090087890625,0.6154632568359375,65461.53843066667,2.250337032655003,-1.234230821920645,-5.909051654072023,65461.52158466667,34.32579040527344,-3.000442504882812,-502.9191589355469,65461.53843066667,-0.9938279968078833,-2.107588339540278,-0.2379082495743901,2.249124526977539,-1.239760994911194,-5.911645889282227,-0.363261878490448,0.5632798671722412,0.1015177965164185,1,-0.4630456566810608,-0.7308061122894287,-0.1432769596576691,0.4806066751480103,-0.8351481556892395,0.2356703132390976,0.4969777166843414,0,0,0,-1,65460.94648166667,3,2,1561243361.067884,1561243107.271691,28,1.054203,0,0,24.53997,0,0,1561243350.380748,65458.797378,0,-2.830078,74.57432,2650634390,177292352,1,1,0.17,-17.45887,-31.56504,0
1561243361.677255,73,0,0,1561243360.990771,4.602378811691517,-74.06498920179351,2653.694,0.39,210.5859375,4,10,-9999,1561243361.667057,-2.422019958496094,-3.742457151412964,32.5615234375,96.51826477050781,104.0619506835938,20,65461.56376066667,-1.012527465820312,0.7993621826171875,0.6261138916015625,65461.55869466667,1.874453682711257,-0.09679285613503892,-5.388185281752145,65461.54166566667,35.51101684570312,-1.999267578125,-502.6823120117188,65461.55869466667,-0.8974181984624998,-2.102093651390142,-0.1605364607434902,1.873241066932678,-0.1023230999708176,-5.390779495239258,-0.2273198366165161,0.6403383612632751,0.1245114803314209,1,-0.4111853241920471,-0.7622305154800415,-0.1520556509494781,0.4762459695339203,-0.8510645031929016,0.1598477959632874,0.5001374483108521,0,0,0,-1,65460.94648166667,3,2,1561243361.067884,1561243107.271691,28,1.054203,0,0,24.53997,0,0,1561243350.380748,65458.797378,0,-2.830078,74.57432,2650634390,177292352,1,1,0.17,-17.45887,-31.60946,0
1561243361.701933,74,0,0,1561243360.990771,4.602378811691517,-74.06498920179351,2653.694,0.39,210.5859375,4,10,-9999,1561243361.689735,-1.900909423828125,-2.659238815307617,32.59149169921875,90.44330596923828,97.98699188232422,20,65461.58402366667,-0.9053802490234375,0.80072021484375,0.5959930419921875,65461.57892766667,1.521543559278862,1.212888515260859,-4.686678823221065,65461.56174666667,36.42085266113281,-1.007827758789062,-502.4216918945312,65461.57892766667,-0.8160917063814346,-2.081004815328402,-0.08876674418370172,1.520330905914307,1.207358241081238,-4.689273357391357,-0.06957459449768066,0.7123141288757324,0.1370071172714233,1,-0.3625785708427429,-0.7821477055549622,-0.1653742343187332,0.4789918661117554,-0.8692070841789246,0.08865021914243698,0.486436516046524,0,0,0,-1,65460.94648166667,3,2,1561243361.067884,1561243107.271691,28,1.054203,0,0,24.53997,0,0,1561243350.380748,65458.797378,0,-2.830078,74.57432,2650634390,177292352,1,1,0.17,-17.45887,-32.26299,0
1561243361.71802,75,0,0,1561243360.990771,4.602378811691517,-74.06498920179351,2653.694,0.39,210.5859375,4,10,-9999,1561243361.689735,-1.900909423828125,-2.659238815307617,32.59149169921875,90.44330596923828,97.98699188232422,20,65461.60425766667,-0.822845458984375,0.761810302734375,0.5122528076171875,65461.59919166667,1.394668967050833,2.498090109916748,-3.770044874994474,65461.58182666667,35.88923645019531,-0.0689239501953125,-502.7840576171875,65461.59919166667,-0.7495105855482056,-2.039205211928746,-0.02679670635121342,1.393456339836121,2.492559671401978,-3.772639036178589,0.02554285526275635,0.7606210708618164,0.1090738773345947,1,-0.3183351755142212,-0.7901362180709839,-0.1810605525970459,0.4914921820163727,-0.8919674158096313,0.02679350040853024,0.4513050615787506,0,0,0,-1,65460.94648166667,3,2,1561243361.067884,1561243107.271691,28,1.054203,0,0,24.53997,0,0,1561243350.380748,65458.797378,0,-2.830078,74.57432,2650634390,177292352,1,1,0.17,-17.45887,-27.98208,0
1561243361.738076,76,0,0,1561243360.990771,4.602378811691517,-74.06498920179351,2653.694,0.39,210.5859375,4,10,-9999,1561243361.717143,-2.814487457275391,-1.910470962524414,32.60791015625,85.69811248779297,93.24179840087891,20,65461.62452066667,-0.6982574462890625,0.7364959716796875,0.4070892333984375,65461.61945466667,1.148563321239412,3.417564585762017,-2.75536265649498,65461.60193766667,34.28861999511719,0.824127197265625,-502.8499755859375,65461.61945466667,-0.6975416304055301,-1.978485085325797,0.02187172625489471,1.147350668907166,3.412034273147583,-2.757956981658936,0.154163658618927,0.7667583227157593,0.06439113616943359,1,-0.2799011766910553,-0.7873069643974304,-0.1963037699460983,0.5130965709686279,-0.9178203344345093,-0.02186998166143894,0.3963938355445862,0,0,0,-1,65460.94648166667,3,2,1561243361.067884,1561243107.271691,28,1.054203,0,0,24.53997,0,0,1561243350.380748,65458.797378,0,-2.830078,74.57432,2650634390,177292352,1,1,0.17,-17.45887,-27.98208,0
1561243361.758236,77,0,0,1561243360.990771,4.602378811691517,-74.06498920179351,2653.694,0.39,210.5859375,4,10,-9999,1561243361.740145,-4.608139038085938,-1.089614510536194,32.12380981445312,82.31372833251953,89.85741424560547,20,65461.64478466667,-0.575836181640625,0.641693115234375,0.365997314453125,65461.63971866667,0.4481290513631974,4.145495727577191,-1.768707012675263,65461.62201866667,32.03794860839844,1.308380126953125,-503.2846984863281,65461.63971866667,-0.6646045524689554,-1.904351142912149,0.05819754997057899,0.446916401386261,4.139965534210205,-1.77130126953125,0.3133105039596558,0.7568188905715942,0.04525113105773926,1,-0.2497029304504395,-0.7752891778945923,-0.2115050852298737,0.5402229428291321,-0.9432848691940308,-0.05816470459103584,0.3268497288227081,0,0,0,-1,65460.94648166667,3,2,1561243361.067884,1561243107.271691,28,1.054203,0,0,24.53997,0,0,1561243350.380748,65458.797378,0,-2.830078,74.57432,2650634390,177292352,1,1,0.17,-17.45887,-28.75386,0
1561243361.780939,78,0,0,1561243360.990771,4.602378811691517,-74.06498920179351,2653.694,0.39,210.5859375,4,10,-9999,1561243361.767484,-9.761508941650391,-0.9993226528167725,30.85659790039062,80.99034118652344,88.53402709960938,20,65461.66504866667,-0.513214111328125,0.6573333740234375,0.387939453125,65461.65998266667,-0.9577789881199882,6.194271945761765,-0.8204296506924597,65461.64209866667,29.28865051269531,1.389984130859375,-504.0552368164062,65461.65998266667,-0.6616126123035915,-1.801958357088471,0.08423082323777485,-0.9589916467666626,6.188741683959961,-0.8230239152908325,0.4288578629493713,0.7327060699462891,0.1466270685195923,1,-0.2296787947416306,-0.7492635846138,-0.2326908707618713,0.5759398341178894,-0.9699497818946838,-0.08413125574588776,0.2282965332269669,0,0,0,-1,65460.94648166667,3,2,1561243361.067884,1561243107.271691,28,1.054203,0,0,24.53997,0,0,1561243350.380748,65458.797378,0,-2.830078,74.57432,2650634390,177292352,1,1,0.17,-18.01615,-28.01307,0
1561243361.80091,79,0,0,1561243360.990771,4.602378811691517,-74.06498920179351,2653.694,0.39,210.5859375,4,10,-9999,1561243361.790841,-13.93233871459961,-1.563444852828979,29.27395629882812,82.69805908203125,90.24174499511719,20,65461.68531166667,-0.491119384765625,0.6587371826171875,0.3946533203125,65461.68024566667,-2.204577267224717,8.669011192924589,-0.04861786991215955,65461.66217966667,25.95274353027344,0.5093536376953125,-505.215087890625,65461.68024566667,-0.6927086547815353,-1.64765145372149,0.09768799671649031,-2.205789804458618,8.663480758666992,-0.05121214315295219,0.5101931095123291,0.7511886954307556,0.3212611675262451,1,-0.2175873816013336,-0.7006157636642456,-0.2640655636787415,0.6261491179466248,-0.9922945499420166,-0.09753269702196121,0.07641343027353287,0,0,0,-1,65460.94648166667,3,2,1561243361.067884,1561243107.271691,28,1.054203,0,0,24.53997,0,0,1561243350.380748,65458.797378,0,-2.830078,74.57432,2650634390,177292352,1,1,0.17,-18.57343,-28.79468,0
1561243361.819051,80,0,0,1561243360.990771,4.602378811691517,-74.06498920179351,2653.694,0.39,210.5859375,4,10,-9999,1561243361.817449,-18.97603607177734,-3.094514846801758,25.99749755859375,86.31747436523438,93.86116027832031,20,65461.70557566667,-0.44757080078125,0.5959625244140625,0.3560791015625,65461.70047966667,-2.667329203501321,9.616676826805001,0.2021339267370142,65461.68229066667,20.74258422851562,-0.4560699462890625,-508.0195007324219,65461.70047966667,-0.743459153494861,-1.454858286341714,0.09377364524128171,-2.668541669845581,9.611145973205566,0.1995396465063095,0.5035557746887207,0.7322623729705811,0.4866607189178467,1,-0.2086478769779205,-0.6315702199935913,-0.3000288903713226,0.6837892532348633,-0.988922655582428,-0.09363627433776855,-0.1151702404022217,0,0,0,-1,65460.94648166667,3,2,1561243361.067884,1561243107.271691,28,1.054203,0,0,24.53997,0,0,1561243350.380748,65458.797378,0,-2.830078,74.57432,2650634390,177292352,1,1,0.17,-19.13071,-29.60984,0
1561243361.839325,81,0,0,1561243360.990771,4.602378811691517,-74.06498920179351,2653.694,0.39,210.5859375,4,10,-9999,1561243361.817449,-18.97603607177734,-3.094514846801758,25.99749755859375,86.31747436523438,93.86116027832031,20,65461.72580866667,-0.4512481689453125,0.4791107177734375,0.3019866943359375,65461.72074266667,-2.346028937995404,8.527837023539488,-0.1951346067600679,65461.70237166667,15.43524169921875,-1.937911987304688,-511.9991455078125,65461.72074266667,-0.7939930425172699,-1.263560326033503,0.08176757332805311,-2.347241401672363,8.522306442260742,-0.1977288872003555,0.4915229082107544,0.6255912780761719,0.6290972828865051,1,-0.1977400183677673,-0.5569483637809753,-0.3340184390544891,0.7342609763145447,-0.9499885439872742,-0.08167649060487747,-0.30141481757164,0,0,0,-1,65460.94648166667,3,2,1561243361.067884,1561243107.271691,28,1.054203,0,0,24.53997,0,0,1561243350.380748,65458.797378,0,-2.830078,74.57432,2650634390,177292352,1,1,0.17,-19.68799,-26.90045,0
1561243361.861043,82,0,0,1561243360.990771,4.602378811691517,-74.06498920179351,2653.694,0.39,210.5859375,4,10,-9999,1561243361.842008,-24.04495811462402,-4.229144096374512,21.85101318359375,89.80431365966797,97.34799957275391,20,65461.74607266667,-0.4317626953125,0.381561279296875,0.245758056640625,65461.74100666667,-2.0327351999907,6.238659916914552,-0.9597771578858747,65461.72245166667,11.288330078125,-3.17529296875,-516.4242553710938,65461.74100666667,-0.8393574527196944,-1.1098419691075,0.07636332212181411,-2.033947706222534,6.233129501342773,-0.9623714685440063,0.4558387994766235,0.4771833121776581,0.7209726572036743,1,-0.1848994046449661,-0.4940230846405029,-0.3644377887248993,0.7674233317375183,-0.893018364906311,-0.07628912478685379,-0.4435068070888519,0,0,0,-1,65460.94648166667,3,2,1561243361.067884,1561243107.271691,28,1.054203,0,0,24.53997,0,0,1561243350.380748,65458.797378,0,-2.830078,74.57432,2650634390,177292352,1,1,0.17,-20.24527,-27.53694,0
1561243361.879727,83,0,0,1561243360.990771,4.602378811691517,-74.06498920179351,2653.694,0.39,210.5859375,4,10,-9999,1561243361.868102,-29.94272994995117,-6.798165321350098,13.597900390625,93.09534454345703,100.639030456543,20,65461.76633566667,-0.4384918212890625,0.4394073486328125,0.171234130859375,65461.76127066667,-2.212800043406445,4.162728510358876,-0.9455273818411877,65461.74253266667,8.599578857421875,-4.530227661132812,-520.5657348632812,65461.76127066667,-0.8864541797496612,-1.001594518414331,0.07401265633589932,-2.214012622833252,4.157197952270508,-0.9481216669082642,0.4096054434776306,0.4707346558570862,0.750924289226532,1,-0.1764454692602158,-0.4473531246185303,-0.3919829428195953,0.7842776775360107,-0.8400253653526306,-0.07394510507583618,-0.537484347820282,0,0,0,-1,65460.94648166667,3,2,1561243361.067884,1561243107.271691,28,1.054203,0,0,24.53997,0,0,1561243350.380748,65458.797378,0,-2.830078,74.57432,2650634390,177292352,1,1,0.17,-20.24527,-27.53694,0
1561243361.90067,84,0,0,1561243360.990771,4.602378811691517,-74.06498920179351,2653.694,0.39,210.5859375,4,10,-9999,1561243361.892094,-31.04536819458008,-7.856490612030029,10.83404541015625,96.58583831787109,104.129524230957,20,65461.78659966667,-0.3172149658203125,0.4669189453125,0.0885009765625,65461.78153366667,-2.869331303764377,2.222623113087203,-0.1975855139112679,65461.76264366667,7.418609619140625,-5.586090087890625,-523.485107421875,65461.78153366667,-0.9355877235576984,-0.9336949139157996,0.05480882781281007,-2.870543956756592,2.217092752456665,-0.200179785490036,0.4288828372955322,0.5202812552452087,0.7121998071670532,1,-0.1810300201177597,-0.412602424621582,-0.4135225415229797,0.7911931276321411,-0.8026164174079895,-0.05478139221668243,-0.593974769115448,0,0,0,-1,65460.94648166667,3,2,1561243361.067884,1561243107.271691,28,1.054203,0,0,24.53997,0,0,1561243350.380748,65458.797378,0,-2.830078,74.57432,2650634390,177292352,1,1,0.17,-20.80255,-28.12773,0
1561243361.92035,85,0,0,1561243360.990771,4.602378811691517,-74.06498920179351,2653.694,0.39,210.5859375,4,10,-9999,1561243361.919124,-31.50028610229492,-8.887128829956055,9.2235107421875,99.98326873779297,107.5269546508789,20,65461.80686366667,-0.2717742919921875,0.4698638916015625,0.0265655517578125,65461.80179766667,-3.356004019268182,0.034046384007791,0.6704143191205141,65461.78272366667,6.558792114257812,-6.5316162109375,-525.6639404296875,65461.80179766667,-0.9831819121076946,-0.9084564707049549,0.01212423355371058,-3.357216596603394,0.0285161379724741,0.6678200364112854,0.4944454431533813,0.4802940785884857,0.6686141490936279,1,-0.2023055404424667,-0.3893754482269287,-0.4265023469924927,0.7909203767776489,-0.7884975075721741,-0.01212393678724766,-0.6149184703826904,0,0,0,-1,65460.94648166667,3,2,1561243361.067884,1561243107.271691,28,1.054203,0,0,24.53997,0,0,1561243350.380748,65458.797378,0,-2.830078,74.57432,2650634390,177292352,1,1,0.17,-21.35983,-28.50831,0
1561243361.940675,86,0,0,1561243360.990771,4.602378811691517,-74.06498920179351,2653.694,0.39,210.5859375,4,10,-9999,1561243361.919124,-31.50028610229492,-8.887128829956055,9.2235107421875,99.98326873779297,107.5269546508789,20,65461.82712666667,-0.2086029052734375,0.4340972900390625,0.0118255615234375,65461.82203066667,-3.343639228643053,-3.467180342134629,1.382141457283101,65461.80280466667,6.275772094726562,-7.02069091796875,-526.8222045898438,65461.82203066667,-1.02490414839574,-0.9402678815614222,-0.04595791807559799,-3.344851732254028,-3.472710609436035,1.379547238349915,0.5675444006919861,0.4097772538661957,0.6076412200927734,1,-0.2399100363254547,-0.3846668601036072,-0.4279332458972931,0.7818872928619385,-0.8068632483482361,0.04594174027442932,-0.5889491438865662,0,0,0,-1,65460.94648166667,3,2,1561243361.067884,1561243107.271691,28,1.054203,0,0,24.53997,0,0,1561243350.380748,65458.797378,0,-2.830078,74.57432,2650634390,177292352,1,1,0.17,-21.9171,-28.82678,0
1561243361.960757,87,0,0,1561243360.990771,4.602378811691517,-74.06498920179351,2653.694,0.39,210.5859375,4,10,-9999,1561243361.94285,-31.74840354919434,-9.145883560180664,8.72564697265625,102.8371734619141,110.380859375,20,65461.84736066667,-0.33331298828125,0.5689544677734375,0.0433807373046875,65461.84229466667,-2.726001838109075,-8.57600615080797,2.219658215845617,65461.82288566667,6.625167846679688,-7.218093872070312,-525.7688598632812,65461.84229466667,-1.058491869774283,-1.064262223798276,-0.1105948481789283,-2.727214336395264,-8.581536293029785,2.217063903808594,0.6269320845603943,0.3637515306472778,0.4994890093803406,1,-0.2968822717666626,-0.4132410287857056,-0.4102008044719696,0.7568541169166565,-0.8690890669822693,0.1103695333003998,-0.4821855425834656,0,0,0,-1,65460.94648166667,3,2,1561243361.067884,1561243107.271691,28,1.054203,0,0,24.53997,0,0,1561243350.380748,65458.797378,0,-2.830078,74.57432,2650634390,177292352,1,1,0.17,-19.38468,-28.89271,0
1561243361.981074,88,0,0,1561243360.990771,4.602378811691517,-74.06498920179351,2653.694,0.39,210.5859375,4,10,-9999,1561243361.969284,-28.93980026245117,-8.484890937805176,15.00775146484375,104.5851745605469,112.1288604736328,20,65461.86762366667,-0.771942138671875,0.95550537109375,-0.0035858154296875,65461.86255766667,-0.6430830958013579,-13.05038842457228,3.836462514684396,65461.84296566667,8.1634521484375,-6.769577026367188,-521.8385009765625,65461.86255766667,-1.069766429197093,-1.287979068650442,-0.1808788240293585,-0.6442957520484924,-13.05591869354248,3.833868265151978,0.4257320761680603,0.5506356358528137,0.3041114807128906,1,-0.3669311702251434,-0.4776052534580231,-0.3593257665634155,0.7128392457962036,-0.9446071982383728,0.1798941344022751,-0.2745094895362854,0,0,0,-1,65460.94648166667,3,2,1561243361.067884,1561243107.271691,28,1.054203,0,0,24.53997,0,0,1561243350.380748,65458.797378,0,-2.830078,74.57432,2650634390,177292352,1,1,0.17,-19.38468,-29.2991,0
1561243362.00143,89,0,0,1561243360.990771,4.602378811691517,-74.06498920179351,2653.694,0.39,210.5859375,4,10,-9999,1561243361.993406,-24.48532104492188,-6.737821578979492,21.56597900390625,102.8282623291016,110.3719482421875,20,65461.88790679167,-1.067794799804688,1.109024047851562,0.08209228515625,65461.88284079167,2.894563157196223,-14.90379940624638,5.415132743558221,65461.86307666667,11.86361694335938,-5.417999267578125,-515.8200073242188,65461.88284079167,-1.033484385680784,-1.566590055766686,-0.2737327754676876,2.893350601196289,-14.90932941436768,5.412538051605225,0.02954769134521484,0.8055548667907715,0.00478208065032959,1,-0.4294075667858124,-0.5599859952926636,-0.2631025016307831,0.6578767895698547,-0.9627599716186523,0.2703271210193634,-0.004049653187394142,0,0,0,-1,65460.94648166667,3,2,1561243361.067884,1561243107.271691,28,1.054203,0,0,24.53997,0,0,1561243350.380748,65458.797378,0,-2.830078,74.57432,2650634390,177292352,1,1,0.17,-18.97853,-22.30817,0
1561243362.021657,90,0,0,1561243360.990771,4.602378811691517,-74.06498920179351,2653.694,0.39,210.5859375,4,10,-9999,1561243361.993406,-24.48532104492188,-6.737821578979492,21.56597900390625,102.8282623291016,110.3719482421875,20,65461.90817079167,-1.318862915039062,0.881988525390625,0.3661651611328125,65461.90310479167,5.186634587293859,-14.6996649128985,5.259955673161484,65461.88317679167,18.69271850585938,-1.695175170898438,-508.7344665527344,65461.90310479167,-0.9593984984419832,-1.845898914884804,-0.3959263316511917,5.185421943664551,-14.70519542694092,5.257360935211182,-0.3223201036453247,0.6515989303588867,-0.04987120628356934,1,-0.4661062359809875,-0.6387961506843567,-0.1339460760354996,0.5972796082496643,-0.8879460096359253,0.3856630325317383,0.2506310939788818,0,0,0,-1,65460.94648166667,3,2,1561243361.067884,1561243107.271691,28,1.054203,0,0,24.53997,0,0,1561243350.380748,65458.797378,0,-2.830078,74.57432,2650634390,177292352,1,1,0.17,-14.00531,-23.06405,0
1561243362.041786,91,0,0,1561243361.990756,4.602374453101868,-74.0649928898309,2654.063,0.4,221.1328125,4,10,-9999,1561243362.022473,-16.71983528137207,-2.660142421722412,27.75155639648438,97.585693359375,105.1293792724609,20,65461.92843379167,-1.418869018554688,0.5666046142578125,0.59393310546875,65461.92336779167,3.815159622808743,-12.21978896062513,4.175155352637403,65461.90325679167,28.02363586425781,2.679153442382812,-503.984375,65461.92336779167,-0.900697682109916,-2.097073593439908,-0.5221200172792845,3.813946962356567,-12.22531890869141,4.172560691833496,-0.6433461308479309,0.1986078321933746,0.04404020309448242,1,-0.4803874492645264,-0.6977989673614502,-0.008383388631045818,0.5312572717666626,-0.7494760751724243,0.498718798160553,0.4353910088539124,0,0,0,-1,65460.94648166667,3,2,1561243361.067884,1561243107.271691,28,1.054203,0,0,24.53997,0,0,1561243350.380748,65458.797378,0,-2.830078,74.57432,2650634390,177292352,1,1,0.17,-14.00531,-23.06405,0
1561243362.062092,92,0,0,1561243361.990756,4.602374453101868,-74.0649928898309,2654.063,0.4,221.1328125,4,10,-9999,1561243362.044437,-7.214210510253906,1.882813453674316,31.46084594726562,94.65700531005859,102.2006912231445,20,65461.94869779167,-1.34197998046875,0.7213897705078125,0.96746826171875,65461.94360179167,-0.6485468370937645,-7.011665326495425,3.334781554857449,65461.92333779167,37.56654357910156,6.25323486328125,-502.5004577636719,65461.94360179167,-0.9197408095341546,-2.305768653167306,-0.601644876034589,-0.6497539281845093,-7.017187118530273,3.332186222076416,-0.7860745191574097,0.02639269828796387,0.2334359884262085,1,-0.4951824247837067,-0.7288373112678528,0.07062985002994537,0.4675488471984863,-0.6115847826004028,0.5659992694854736,0.5528188943862915,0,0,0,-1,65460.94648166667,3,2,1561243361.067884,1561243107.271691,28,1.054203,0,0,24.53997,0,0,1561243350.380748,65458.797378,0,-2.830078,74.57432,2650634390,177292352,1,1,0.17,-14.00531,-22.151,0
1561243362.084448,93,0,0,1561243361.990756,4.602374453101868,-74.0649928898309,2654.063,0.4,221.1328125,4,10,-9999,1561243362.070494,7.257038116455078,4.307143211364746,31.85781860351562,245.5514373779297,253.0951232910156,20,65461.96893079167,-1.20758056640625,0.9056243896484375,1.036392211914062,65461.96386479167,-4.216416772670437,-1.374016419113378,2.946578155394888,65461.94344879167,44.55363464355469,6.983795166015625,-503.2576904296875,65461.96386479167,-1.019742022380077,-2.44581897688964,-0.60508047966315,-4.217623710632324,-1.379538297653198,2.943982601165771,-0.7190380692481995,0.2665446400642395,0.424579381942749,1,-0.5266425609588623,-0.7336819171905518,0.0856410413980484,0.420742392539978,-0.5271777510643005,0.568828284740448,0.6312831044197083,0,0,0,-1,65460.94648166667,3,2,1561243361.067884,1561243107.271691,28,1.054203,0,0,24.53997,0,0,1561243350.380748,65458.797378,0,-2.830078,74.57432,2650634390,177292352,1,1,0.17,-14.00531,-23.09045,0
1561243362.105351,94,0,0,1561243361.990756,4.602374453101868,-74.0649928898309,2654.063,0.4,221.1328125,4,10,-9999,1561243362.094843,8.737548828125,1.529928684234619,31.98678588867188,236.7035064697266,244.2471923828125,20,65461.98919479167,-1.123016357421875,0.76483154296875,0.8014984130859375,65461.98412879167,-4.630945253192323,2.006762455143593,3.052134143096832,65461.96352979167,47.06982421875,4.570281982421875,-503.2308959960938,65461.98412879167,-1.145789838398493,-2.505866391915424,-0.5676927522966297,-4.632152080535889,2.001240491867065,3.049538612365723,-0.6599568128585815,0.3525553941726685,0.2400598526000977,1,-0.5678597092628479,-0.718852698802948,0.06090987846255302,0.3963282406330109,-0.5006267428398132,0.537688136100769,0.6784276962280273,0,0,0,-1,65460.94648166667,3,2,1561243361.067884,1561243107.271691,28,1.054203,0,0,24.53997,0,0,1561243350.380748,65458.797378,0,-2.830078,74.57432,2650634390,177292352,1,1,0.17,-14.00531,-23.96983,0
1561243362.122932,95,0,0,1561243361.990756,4.602374453101868,-74.0649928898309,2654.063,0.4,221.1328125,4,10,-9999,1561243362.121172,7.580291748046875,-1.911490917205811,32.28677368164062,228.0942230224609,235.6379089355469,20,65462.00945779167,-1.144638061523438,0.539947509765625,0.66217041015625,65462.00439279167,-3.895797743771361,4.246346175949075,3.244370431642567,65461.98360979167,46.51005554199219,1.314971923828125,-502.9828796386719,65462.00439279167,-1.266218773086954,-2.50513419264913,-0.536502400233615,-3.897004842758179,4.240824222564697,3.241775035858154,-0.6061434745788574,0.1179258823394775,0.03691816329956055,1,-0.6087069511413574,-0.6892632842063904,0.02444978430867195,0.3921659290790558,-0.5108456611633301,0.5111329555511475,0.6912160515785217,0,0,0,-1,65460.94648166667,3,2,1561243361.067884,1561243107.271691,28,1.054203,0,0,24.53997,0,0,1561243350.380748,65458.797378,0,-2.830078,74.57432,2650634390,177292352,1,1,0.17,-14.00531,-24.93035,0
1561243362.143112,96,0,0,1561243361.990756,4.602374453101868,-74.0649928898309,2654.063,0.4,221.1328125,4,10,-9999,1561243362.121172,7.580291748046875,-1.911490917205811,32.28677368164062,228.0942230224609,235.6379089355469,20,65462.02972179167,-1.181411743164062,0.416839599609375,0.5571136474609375,65462.02465579167,-3.901994386995758,6.58438829383533,2.81952593032215,65462.00369079167,43.95341491699219,-2.000350952148438,-502.55908203125,65462.02465579167,-1.377569921683257,-2.452704543360928,-0.512588477841864,-3.903201580047607,6.578866481781006,2.816930532455444,-0.6058247685432434,-0.0110645592212677,-0.07541990280151367,1,-0.6448091864585876,-0.648530125617981,-0.02340476028621197,0.4038342535495758,-0.5539805889129639,0.4904346764087677,0.6727403998374939,0,0,0,-1,65460.94648166667,3,2,1561243361.067884,1561243107.271691,28,1.054203,0,0,24.53997,0,0,1561243350.380748,65458.797378,0,-2.830078,74.57432,2650634390,177292352,1,1,0.17,-14.00531,-25.94973,0
1561243362.163386,97,0,0,1561243361.990756,4.602374453101868,-74.0649928898309,2654.063,0.4,221.1328125,4,10,-9999,1561243362.145447,4.718704223632812,-4.934829711914062,32.42379760742188,220.2025146484375,227.7462005615234,20,65462.04998579167,-1.183853149414062,0.4066925048828125,0.478912353515625,65462.04491979167,-4.661216340038817,9.831368090713957,2.988030257761971,65462.02377079167,40.05830383300781,-4.890335083007812,-502.8338012695312,65462.04491979167,-1.491852266318922,-2.342326073860531,-0.4878473899812,-4.662423133850098,9.825846672058105,2.985434770584106,-0.5601693391799927,-0.07460618019104004,-0.1068172454833984,1,-0.6756858825683594,-0.5927872061729431,-0.09283004701137543,0.4282925128936768,-0.6332205533981323,0.4687254726886749,0.6158961653709412,0,0,0,-1,65460.94648166667,3,2,1561243361.067884,1561243107.271691,28,1.054203,0,0,24.53997,0,0,1561243350.380748,65458.797378,0,-2.830078,74.57432,2650634390,177292352,1,1,0.17,-14.00531,-26.75863,0
1561243362.186206,98,0,0,1561243361.990756,4.602374453101868,-74.0649928898309,2654.063,0.4,221.1328125,4,10,-9999,1561243362.171949,-6.965919494628906,-10.61579704284668,30.26776123046875,133.7229766845703,141.2666625976562,20,65462.07024979167,-1.122955322265625,0.43133544921875,0.41326904296875,65462.06515279167,-5.731304826069082,12.7664975828987,3.543216520733591,65462.04385179167,33.82675170898438,-7.44403076171875,-503.9551086425781,65462.06515279167,-1.630269955973142,-2.175448315858356,-0.4720766997997469,-5.732511520385742,12.76097583770752,3.540621042251587,-0.4192138910293579,-0.03684437274932861,-0.04646039009094238,1,-0.7011556029319763,-0.5114004611968994,-0.1866804361343384,0.4604354202747345,-0.7327178120613098,0.4547368288040161,0.5062991976737976,0,0,0,-1,65460.94648166667,3,2,1561243361.067884,1561243107.271691,28,1.054203,0,0,24.53997,0,0,1561243350.380748,65458.797378,0,-2.830078,74.57432,2650634390,177292352,1,1,0.17,-14.00531,-27.60588,0
1561243362.204481,99,0,0,1561243361.990756,4.602374453101868,-74.0649928898309,2654.063,0.4,221.1328125,4,10,-9999,1561243362.195959,-15.45933532714844,-13.0045690536499,25.779296875,145.1768951416016,152.7205810546875,20,65462.09048279167,-1.064041137695312,0.435272216796875,0.2496490478515625,65462.08541679167,-6.762912232244356,14.24382547754731,3.820661180988629,65462.06396279167,25.31915283203125,-10.37550354003906,-507.48388671875,65462.08541679167,-1.795857178620503,-1.974667831902576,-0.4769064137220966,-6.764119148254395,14.23830318450928,3.818065643310547,-0.277371883392334,-0.02800270915031433,0.004810690879821777,1,-0.7152890563011169,-0.4036429524421692,-0.2957936823368073,0.4877909421920776,-0.8169426918029785,0.4590329825878143,0.3491321206092834,0,0,0,-1,65460.94648166667,3,2,1561243361.067884,1561243107.271691,28,1.054203,0,0,24.53997,0,0,1561243350.380748,65458.797378,0,-2.830078,74.57432,2650634390,177292352,1,1,0.17,-14.00531,-27.60588,0
1561243362.224175,100,0,0,1561243361.990756,4.602374453101868,-74.0649928898309,2654.063,0.4,221.1328125,4,10,-9999,1561243362.222386,-23.36973190307617,-14.80762004852295,18.3377685546875,157.7294464111328,165.2731323242188,20,65462.11074579167,-0.9635009765625,0.46600341796875,0.0234375,65462.10567979167,-6.77168361961064,14.11054172183989,3.499527895683059,65462.08404279167,16.85008239746094,-12.4716796875,-513.7935180664062,65462.10567979167,-1.972420321577968,-1.767562463513951,-0.5071176473238703,-6.772890567779541,14.10501956939697,3.496932506561279,-0.1596111655235291,-0.04823595285415649,-0.04462850093841553,1,-0.7119380831718445,-0.2803420126438141,-0.4049720168113708,0.500549852848053,-0.8572803139686584,0.485659658908844,0.1708949506282806,0,0,0,-1,65460.94648166667,3,2,1561243361.067884,1561243107.271691,28,1.054203,0,0,24.53997,0,0,1561243350.380748,65458.797378,0,-2.830078,74.57432,2650634390,177292352,1,1,0.17,-14.00531,-28.43255,0
1561243362.245718,101,0,0,1561243361.990756,4.602374453101868,-74.0649928898309,2654.063,0.4,221.1328125,4,10,-9999,1561243362.222386,-23.36973190307617,-14.80762004852295,18.3377685546875,157.7294464111328,165.2731323242188,20,65462.13100979167,-0.71533203125,0.509796142578125,-0.214752197265625,65462.12594379167,-4.663658991390638,11.06370327457068,2.343792415311955,65462.10412379167,10.09901428222656,-12.97064208984375,-523.1048583984375,65462.12594379167,-2.116667072844411,-1.580541234152006,-0.5548891963724785,-4.664865970611572,11.05818176269531,2.34119701385498,-0.01464444398880005,-0.03174722194671631,-0.09719562530517578,1,-0.6900855302810669,-0.1671026051044464,-0.4943838119506836,0.5014412999153137,-0.84991854429245,0.5268491506576538,0.00828263908624649,0,0,0,-1,65460.94648166667,3,2,1561243361.067884,1561243107.271691,28,1.054203,0,0,24.53997,0,0,1561243350.380748,65458.797378,0,-2.830078,74.57432,2650634390,177292352,1,1,0.17,-14.00531,-29.01206,0
1561243362.264751,102,0,0,1561243361.990756,4.602374453101868,-74.0649928898309,2654.063,0.4,221.1328125,4,10,-9999,1561243362.246818,-28.85177040100098,-15.06272029876709,9.04638671875,166.7372131347656,174.2808990478516,20,65462.15127379167,-0.414886474609375,0.51824951171875,-0.33428955078125,65462.14620779167,-1.188202876168587,4.742581770295137,0.4123244484037361,65462.12420479167,7.475448608398438,-12.46504211425781,-532.1189575195312,65462.14620779167,-2.186667132522119,-1.451879284770739,-0.5860257469388001,-1.189409971237183,4.737060070037842,0.4097291231155396,0.2530884146690369,-0.01284736394882202,-0.1937606930732727,1,-0.6637321710586548,-0.1001932471990585,-0.5478147268295288,0.4993195831775665,-0.8272613883018494,0.5530542731285095,-0.0988418385386467,0,0,0,-1,65460.94648166667,3,2,1561243361.067884,1561243107.271691,28,1.054203,0,0,24.53997,0,0,1561243350.380748,65458.797378,0,-2.830078,74.57432,2650634390,177292352,1,1,0.17,-14.00531,-29.17631,0
1561243362.285115,103,0,0,1561243361.990756,4.602374453101868,-74.0649928898309,2654.063,0.4,221.1328125,4,10,-9999,1561243362.273061,-31.2839469909668,-13.88683605194092,-2.83892822265625,168.6439208984375,176.1876068115234,20,65462.17153679167,-0.2367401123046875,0.4129180908203125,-0.276824951171875,65462.16647079167,1.953254755153939,-4.330049062694155,-0.9981083017714941,65462.14428479167,6.804092407226562,-11.75015258789062,-537.659912109375,65462.16647079167,-2.176574835998442,-1.441380749071309,-0.5770336055363796,1.95204758644104,-4.335570812225342,-1.000703573226929,0.5485444068908691,-0.07186168432235718,-0.2340043783187866,1,-0.6595984697341919,-0.1041657775640488,-0.5509387254714966,0.5005455613136292,-0.8310761451721191,0.5455402731895447,-0.1081587001681328,0,0,0,-1,65460.94648166667,3,2,1561243361.067884,1561243107.271691,28,1.054203,0,0,24.53997,0,0,1561243350.380748,65459.738285,0,-2.668945,74.57283,2650634390,177292352,1,1,0.17,-14.00531,-29.88839,0
1561243362.305184,104,0,0,1561243361.990756,4.602374453101868,-74.0649928898309,2654.063,0.4,221.1328125,4,10,-9999,1561243362.297278,-31.16621589660645,-14.3184700012207,-0.28515625,164.7106323242188,172.2543182373047,20,65462.19176979167,-0.4178466796875,0.4467620849609375,-0.1454620361328125,65462.18670479167,3.434324657450213,-11.58336589807785,-0.9183703292573226,65462.16436579167,6.647369384765625,-12.24713134765625,-537.1978759765625,65462.18670479167,-2.111494936348449,-1.574314226205406,-0.5504022067220863,3.433117628097534,-11.58888721466064,-0.9209656119346619,0.5835407972335815,-0.1622054576873779,-0.2000198364257812,1,-0.687739372253418,-0.1688600927591324,-0.4963593780994415,0.5021238327026367,-0.8523091077804565,0.5230301022529602,0.002998350188136101,0,0,0,-1,65460.94648166667,3,2,1561243361.067884,1561243107.271691,28,1.054203,0,0,24.53997,0,0,1561243350.380748,65459.738285,0,-2.668945,74.57283,2650634390,177292352,1,1,0.17,-14.00531,-30.23105,0
1561243362.342054,105,0,0,1561243361.990756,4.602374453101868,-74.0649928898309,2654.063,0.4,221.1328125,4,10,-9999,1561243362.323783,-29.80818939208984,-14.66112327575684,6.89300537109375,157.6181793212891,165.161865234375,20,65462.21203379167,-0.643341064453125,0.6329345703125,-0.02667236328125,65462.20696779167,5.179358831195762,-14.70257734586661,0.5659550211554641,65462.18447679167,7.719390869140625,-12.87794494628906,-530.9566040039062,65462.20696779167,-2.013998594779066,-1.795327068204605,-0.5566703004657392,5.178152084350586,-14.70809936523438,0.5633597373962402,0.2801765203475952,0.08151638507843018,-0.3177105188369751,1,-0.7269686460494995,-0.2569692134857178,-0.391868531703949,0.5019187927246094,-0.8277076482772827,0.5283621549606323,0.189033180475235,0,0,0,-1,65460.94648166667,3,2,1561243361.067884,1561243107.271691,28,1.054203,0,0,24.53997,0,0,1561243350.380748,65459.738285,0,-2.668945,74.57283,2650634390,177292352,1,1,0.17,-14.00531,-30.70295,0
1561243362.345864,106,0,0,1561243361.990756,4.602374453101868,-74.0649928898309,2654.063,0.4,221.1328125,4,10,-9999,1561243362.323783,-29.80818939208984,-14.66112327575684,6.89300537109375,157.6181793212891,165.161865234375,20,65462.23229779167,-0.9587554931640625,0.452606201171875,0.128936767578125,65462.22723179167,7.676500589448333,-14.9408354548939,0.7699204037741257,65462.20455679167,10.45573425292969,-11.91459655761719,-522.0333251953125,65462.22723179167,-1.872263111675115,-2.023186346670636,-0.6170271165593579,7.675293445587158,-14.94635677337646,0.7673251032829285,-0.07512867450714111,-0.0101010799407959,-0.2871770858764648,1,-0.7458903789520264,-0.3491476476192474,-0.2544254660606384,0.5069626569747925,-0.7335566282272339,0.5786130428314209,0.3565130829811096,0,0,0,-1,65460.94648166667,3,2,1561243361.067884,1561243107.271691,28,1.054203,0,0,24.53997,0,0,1561243350.380748,65459.738285,0,-2.668945,74.57283,2650634390,177292352,1,1,0.17,-14.00531,-31.37519,0
1561243362.368303,107,0,0,1561243361.990756,4.602374453101868,-74.0649928898309,2654.063,0.4,221.1328125,4,10,-9999,1561243362.347938,-19.26712417602539,-9.787080764770508,24.48849487304688,146.6915435791016,154.2352294921875,20,65462.25256179167,-1.259231567382812,0.215545654296875,0.196044921875,65462.24749579167,7.623810479913333,-11.10923374183111,0.01120711449927145,65462.22463779167,16.752197265625,-9.11517333984375,-512.5438232421875,65462.24749579167,-1.703005559003695,-2.190309470602919,-0.7063876678273868,7.622603416442871,-11.11475563049316,0.008611788973212242,-0.493130624294281,-0.325237512588501,-0.2622554302215576,1,-0.7318424582481384,-0.4304137229919434,-0.1206101030111313,0.514396607875824,-0.6193419098854065,0.649090051651001,0.4416987001895905,0,0,0,-1,65460.94648166667,3,2,1561243361.067884,1561243107.271691,28,1.054203,0,0,24.53997,0,0,1561243350.380748,65459.738285,0,-2.668945,74.57283,2650634390,177292352,1,1,0.17,-14.00531,-31.85158,0
1561243362.386373,108,0,0,1561243361.990756,4.602374453101868,-74.0649928898309,2654.063,0.4,221.1328125,4,10,-9999,1561243362.374295,-12.66484642028809,-5.15256929397583,29.26632690429688,135.3861236572266,142.9298095703125,20,65462.27282479167,-1.421829223632812,0.223663330078125,0.1325836181640625,65462.26775879167,3.865730388748258,-2.745576604753375,0.1164786765967956,65462.24471779167,23.79627990722656,-4.481063842773438,-506.6918334960938,65462.26775879167,-1.571326756936112,-2.247172132355865,-0.7800790397005635,3.86452317237854,-2.7510986328125,0.1138833463191986,-0.8059151172637939,-0.5482147932052612,-0.2590175867080688,1,-0.7060770392417908,-0.4732266068458557,-0.04054312407970428,0.5252314805984497,-0.5543601512908936,0.7033355832099915,0.444976419210434,0,0,0,-1,65460.94648166667,3,2,1561243361.067884,1561243107.271691,28,1.054203,0,0,24.53997,0,0,1561243350.380748,65459.738285,0,-2.668945,74.57283,2650634390,177292352,1,1,0.17,-14.00531,-31.85158,0
1561243362.42193,109,0,0,1561243361.990756,4.602374453101868,-74.0649928898309,2654.063,0.4,221.1328125,4,10,-9999,1561243362.400742,-9.749225616455078,-2.316696882247925,30.35366821289062,131.8305816650391,139.374267578125,20,65462.29308879167,-1.404525756835938,0.4419097900390625,0.1800079345703125,65462.28799179167,-0.7928353070576035,6.097307848368634,0.727783602690783,65462.26479879167,28.85696411132812,-0.726593017578125,-504.3019409179688,65462.28799179167,-1.548101773952375,-2.191118475739466,-0.8046805631261128,-0.7940424084663391,6.091785907745361,0.7251883149147034,-0.8628664612770081,-0.3822913765907288,-0.2544779777526855,1,-0.700056254863739,-0.4598261117935181,-0.04532523453235626,0.5444509983062744,-0.5641660094261169,0.720609188079834,0.4030376374721527,0,0,0,-1,65460.94648166667,3,2,1561243361.067884,1561243107.271691,28,1.054203,0,0,24.53997,0,0,1561243350.380748,65459.738285,0,-2.668945,74.57283,2650634390,177292352,1,1,0.17,-14.00531,-20.9384,0
1561243362.426769,110,0,0,1561243361.990756,4.602374453101868,-74.0649928898309,2654.063,0.4,221.1328125,4,10,-9999,1561243362.425003,-12.45952796936035,-1.800950050354004,29.4608154296875,135.763916015625,143.3076019287109,20,65462.31332179167,-1.341445922851562,0.524169921875,0.19976806640625,65462.30825579167,-2.261081822389037,10.35192660161182,0.6991239946198954,65462.28490979167,27.32487487792969,0.482391357421875,-504.9019470214844,65462.30825579167,-1.604118310016216,-2.056978982317353,-0.7987641782254021,-2.262288808822632,10.34640502929688,0.6965286731719971,-0.7376124858856201,-0.2325925827026367,-0.1291452646255493,1,-0.7067316770553589,-0.4043598771095276,-0.1102305352687836,0.5699759721755981,-0.6167576313018799,0.7164945602416992,0.3259531557559967,0,0,0,-1,65460.94648166667,3,2,1561243361.067884,1561243107.271691,28,1.054203,0,0,24.53997,0,0,1561243350.380748,65459.738285,0,-2.668945,74.57283,2650634390,177292352,1,1,0.17,-14.00531,-20.9384,0
1561243362.447003,111,0,0,1561243361.990756,4.602374453101868,-74.0649928898309,2654.063,0.4,221.1328125,4,10,-9999,1561243362.425003,-12.45952796936035,-1.800950050354004,29.4608154296875,135.763916015625,143.3076019287109,20,65462.33358579167,-1.2998046875,0.540283203125,0.130035400390625,65462.32851979167,-1.322212875905265,10.51064141520062,0.254762783566942,65462.30499079167,21.61308288574219,-0.0625762939453125,-507.3057861328125,65462.32851979167,-1.660250528979361,-1.881068324907749,-0.7927522946409219,-1.32341992855072,10.50511932373047,0.2521674335002899,-0.6590961217880249,-0.1596602201461792,-0.03667104244232178,1,-0.7035342454910278,-0.3349460959434509,-0.190764531493187,0.5970423221588135,-0.6683727502822876,0.7122877836227417,0.2142986506223679,0,0,0,-1,65460.94648166667,3,2,1561243361.067884,1561243107.271691,28,1.054203,0,0,24.53997,0,0,1561243350.380748,65459.738285,0,-2.668945,74.57283,2650634390,177292352,1,1,0.17,-14.00531,-21.59883,0
1561243362.467992,112,0,0,1561243361.990756,4.602374453101868,-74.0649928898309,2654.063,0.4,221.1328125,4,10,-9999,1561243362.45037,-24.11643981933594,-3.07988715171814,21.6817626953125,139.0923767089844,146.6360626220703,20,65462.35384879167,-1.213546752929688,0.5736083984375,0.0066070556640625,65462.34878279167,0.03288844156582454,8.81853916601705,-0.484683600485625,65462.32507079167,15.5799560546875,-0.9159088134765625,-511.8153686523438,65462.34878279167,-1.677591191324214,-1.696155924271599,-0.7875821269382327,0.0316813550889492,8.813016891479492,-0.487278938293457,-0.5601993203163147,-0.1605536937713623,-0.02457296848297119,1,-0.6848055720329285,-0.2741349935531616,-0.2620016932487488,0.6222912669181824,-0.7000240683555603,0.7086493968963623,0.08821733295917511,0,0,0,-1,65460.94648166667,3,2,1561243361.067884,1561243107.271691,28,1.054203,0,0,24.53997,0,0,1561243350.380748,65459.738285,0,-2.668945,74.57283,2650634390,177292352,1,1,0.17,-14.00531,-22.41514,0
1561243362.502336,113,0,0,1561243361.990756,4.602374453101868,-74.0649928898309,2654.063,0.4,221.1328125,4,10,-9999,1561243362.500738,-30.53047180175781,-3.770020961761475,12.63323974609375,136.6367645263672,144.1804504394531,20,65462.37411279167,-1.162124633789062,0.5806121826171875,-0.047027587890625,65462.36904679167,1.103808366488412,6.469299254695338,-1.250353332843875,65462.34515179167,10.93080139160156,-1.39739990234375,-516.8591918945312,65462.36904679167,-1.659855769113628,-1.528802353623163,-0.7698701914132031,1.102601289749146,6.463777542114258,-1.252948641777039,-0.458794891834259,-0.1148042678833008,-0.0008630156517028809,1,-0.6562499403953552,-0.2329476177692413,-0.3182234168052673,0.6432768702507019,-0.7173678278923035,0.6960420608520508,-0.03014284558594227,0,0,0,-1,65460.94648166667,3,2,1561243361.067884,1561243107.271691,28,1.054203,0,0,24.53997,0,0,1561243350.380748,65459.738285,0,-2.668945,74.57283,2650634390,177292352,1,1,0.17,-14.00531,-23.0057,0
1561243362.507973,114,0,0,1561243361.990756,4.602374453101868,-74.0649928898309,2654.063,0.4,221.1328125,4,10,-9999,1561243362.500738,-30.53047180175781,-3.770020961761475,12.63323974609375,136.6367645263672,144.1804504394531,20,65462.39437679167,-1.020767211914062,0.526397705078125,-0.1092987060546875,65462.38931079167,1.61530334124841,4.085965288782322,-1.858098145192645,65462.36523179167,8.197891235351562,-1.620437622070312,-521.4244995117188,65462.38931079167,-1.625820825336852,-1.398774107184814,-0.7349721382069782,1.614096164703369,4.080443382263184,-1.860693454742432,-0.3849903345108032,-0.1077918410301208,0.05459845066070557,1,-0.6253136396408081,-0.213283360004425,-0.3596977889537811,0.6588706374168396,-0.7309001684188843,0.6705664992332458,-0.1269861161708832,0,0,0,-1,65460.94648166667,3,2,1561243361.067884,1561243107.271691,28,1.054203,0,0,24.53997,0,0,1561243350.380748,65459.738285,0,-2.668945,74.57283,2650634390,177292352,1,1,0.17,-14.00531,-24.00749,0
1561243362.528474,115,0,0,1561243361.990756,4.602374453101868,-74.0649928898309,2654.063,0.4,221.1328125,4,10,-9999,1561243362.5263,-31.91764450073242,-4.587666034698486,10.00921630859375,134.5107421875,142.0544281005859,20,65462.41463979167,-0.8607940673828125,0.5153656005859375,-0.1227264404296875,65462.40954379167,1.538732133586452,1.83412463537586,-2.171483229622738,65462.40542379167,5.908203125,-3.1494140625,-526.4346923828125,65462.40954379167,-1.595846477816667,-1.319374746551135,-0.6877002201302437,1.537525057792664,1.82860267162323,-2.174078702926636,-0.1870263814926147,-0.1195335388183594,0.06520569324493408,1,-0.5990617275238037,-0.2121496945619583,-0.3883326649665833,0.6673194766044617,-0.7484137415885925,0.6347618103027344,-0.1922351121902466,0,0,0,-1,65460.94648166667,3,2,1561243361.067884,1561243107.271691,28,1.054203,0,0,24.53997,0,0,1561243350.380748,65459.738285,0,-2.668945,74.57283,2650634390,177292352,1,1,0.17,-14.00531,-24.00749,0
1561243362.548194,116,0,0,1561243361.990756,4.602374453101868,-74.0649928898309,2654.063,0.4,221.1328125,4,10,-9999,1561243362.5263,-31.91764450073242,-4.587666034698486,10.00921630859375,134.5107421875,142.0544281005859,20,65462.43487379167,-0.71270751953125,0.5037384033203125,-0.107513427734375,65462.42980779167,1.49430261712066,-1.497857138227588,-2.32019228068,65462.42550479167,5.774139404296875,-4.478897094726562,-526.9110107421875,65462.42980779167,-1.574734223805373,-1.299476130185553,-0.6357351853910992,1.493095517158508,-1.503378987312317,-2.322787761688232,0.0001909732818603516,-0.08952724933624268,0.08892089128494263,1,-0.5827760100364685,-0.2292368710041046,-0.4024380743503571,0.6677321195602417,-0.7752001285552979,0.5937692523002625,-0.2156451642513275,0,0,0,-1,65460.94648166667,3,2,1561243361.067884,1561243107.271691,28,1.054203,0,0,24.53997,0,0,1561243350.380748,65459.738285,0,-2.668945,74.57283,2650634390,177292352,1,1,0.17,-14.00531,-24.84075,0
1561243362.582028,117,0,0,1561243361.990756,4.602374453101868,-74.0649928898309,2654.063,0.4,221.1328125,4,10,-9999,1561243362.577111,-30.47406005859375,-7.785492420196533,12.92724609375,129.1962738037109,136.7399597167969,20,65462.45513679167,-0.7089691162109375,0.5864715576171875,-9.1552734375e-05,65462.45007079167,2.564613743418055,-6.943639670139313,-2.279082128196883,65462.44558479167,6.864837646484375,-5.430435180664062,-523.8848266601562,65462.45007079167,-1.542674139187966,-1.365547825504791,-0.5805683319482515,2.563406705856323,-6.949161529541016,-2.281677484512329,0.1186798214912415,-0.01518929004669189,0.1083741188049316,1,-0.5806413292884827,-0.2786529958248138,-0.3887158334255219,0.6588687896728516,-0.8186004757881165,0.5484992265701294,-0.1704163104295731,0,0,0,-1,65460.94648166667,3,2,1561243361.067884,1561243107.271691,28,1.054203,0,0,24.53997,0,0,1561243350.380748,65459.738285,0,-2.668945,74.57283,2650634390,177292352,1,1,0.17,-14.00531,-25.85487,0
1561243362.588987,118,0,0,1561243361.990756,4.602374453101868,-74.0649928898309,2654.063,0.4,221.1328125,4,10,-9999,1561243362.577111,-30.47406005859375,-7.785492420196533,12.92724609375,129.1962738037109,136.7399597167969,20,65462.47540079167,-0.828521728515625,0.7241973876953125,0.0869140625,65462.47033479167,4.497483598324092,-11.48034843552696,-1.89679281056706,65462.46566579167,9.999496459960938,-5.858230590820312,-517.97802734375,65462.47033479167,-1.466722709260773,-1.516671318281281,-0.5294335859866642,4.49627685546875,-11.48587036132812,-1.899388074874878,0.09588402509689331,0.1532806158065796,0.1175844669342041,1,-0.5854145884513855,-0.3659831881523132,-0.3353478312492371,0.6410054564476013,-0.8618294596672058,0.5050445795059204,-0.0466921329498291,0,0,0,-1,65460.94648166667,3,2,1561243361.067884,1561243107.271691,28,1.054203,0,0,24.53997,0,0,1561243350.380748,65459.738285,0,-2.668945,74.57283,2650634390,177292352,1,1,0.17,-14.00531,-25.85487,0
1561243362.609049,119,0,0,1561243361.990756,4.602374453101868,-74.0649928898309,2654.063,0.4,221.1328125,4,10,-9999,1561243362.601605,-26.50207138061523,-7.607556819915771,19.22930908203125,120.9421539306641,128.48583984375,20,65462.49566479167,-0.9994354248046875,0.7032623291015625,0.1803436279296875,65462.49059879167,6.000636698695412,-12.31339694241255,-1.641247590271853,65462.48577679167,16.11943054199219,-4.346847534179688,-511.5157775878906,65462.49059879167,-1.341089049497698,-1.702507649712589,-0.4989877305239013,5.999429702758789,-12.31891822814941,-1.643842935562134,-0.04324936866760254,0.2589203417301178,0.02761173248291016,1,-0.5803912878036499,-0.469898521900177,-0.251358836889267,0.6157597899436951,-0.87046217918396,0.4785369336605072,0.1153173372149467,0,0,0,-1,65460.94648166667,3,2,1561243361.067884,1561243107.271691,28,1.054203,0,0,24.53997,0,0,1561243350.380748,65459.738285,0,-2.668945,74.57283,2650634390,177292352,1,1,0.17,-14.00531,-25.55238,0
1561243362.629327,120,0,0,1561243361.990756,4.602374453101868,-74.0649928898309,2654.063,0.4,221.1328125,4,10,-9999,1561243362.627563,-20.06005096435547,-5.669870376586914,25.25918579101562,110.7751770019531,118.3188629150391,20,65462.51592779167,-1.107131958007812,0.5641632080078125,0.2229156494140625,65462.51086179167,5.650966843361315,-9.68843730027384,-2.035485446448425,65462.50585679167,22.54603576660156,-1.689590454101562,-506.4244384765625,65462.51086179167,-1.198001728455495,-1.863307983817365,-0.4889318987109459,5.649759769439697,-9.69395923614502,-2.038080930709839,-0.2026389837265015,0.1842474639415741,-0.07461047172546387,1,-0.5583105683326721,-0.561761200428009,-0.1658807694911957,0.5875349640846252,-0.8453346490859985,0.4696832001209259,0.2545726597309113,0,0,0,-1,65460.94648166667,3,2,1561243361.067884,1561243107.271691,28,1.054203,0,0,24.53997,0,0,1561243350.380748,65459.738285,0,-2.668945,74.57283,2650634390,177292352,1,1,0.17,-14.00531,-17.6492,0
